time,seconds_elapsed,z,y,x
1746576066494094600,0.052094482421875,0.015830606338381768,-0.014391129853483288,0.01985072869993746
1746576066504058600,0.06205859375,-0.005118073666095733,-0.006051979815610684,-0.007357413558103144
1746576066514023400,0.0720234375,-0.01798632306754589,0.0004970262693241238,0.0028087646772619337
1746576066523987500,0.081987548828125,-0.012149871999025345,0.007177887706155888,-0.011014566092472523
1746576066533951500,0.091951416015625,-0.01738601908683777,0.013181653599021955,-0.003496947870822623
1746576066543916800,0.101916748046875,-0.025765140375494957,0.009279910619859583,0.009464532772032543
1746576066553880600,0.111880615234375,-0.030702012255787847,0.0019222961323568596,0.0023526732065249235
1746576066563845600,0.121845703125,-0.027709260180592537,0.016734144749096593,-0.0045286381392739715
1746576066573809700,0.1318095703125,-0.008554477855563163,-0.005499551830929704,0.016035572592262178
1746576066583774500,0.1417744140625,-0.00421498734652996,-0.0058957206748193125,-0.0006296944719739257
1746576066593738500,0.151738525390625,-0.00945171895623207,-0.025807719141896814,-0.0025857239105738696
1746576066603703600,0.16170361328125,-0.018130699974298475,-0.01754434688712936,0.0009560220832005142
1746576066613667800,0.171667724609375,-0.009301496830582618,-0.02038243812357541,0.009618106765393167
1746576066623631600,0.181631591796875,-0.00810498052239418,-0.010573443862004204,0.007714812161028385
1746576066633596700,0.1915966796875,-0.007056932774186134,-0.02073396867471747,-0.00842231197641231
1746576066643560700,0.201560791015625,-0.024414310288429258,-0.01317657099852804,0.0023677885772660375
1746576066653525500,0.211525390625,-0.0185784437417984,-0.01000824316071812,0.005640389640303329
1746576066663489500,0.221489501953125,0.0038660277783870694,0.009782905405666679,0.018125695005618035
1746576066673454600,0.23145458984375,-0.016485855376720426,-0.0011354611701797693,0.012919230670016258
1746576066683418600,0.241418701171875,-0.023818097960948942,-0.007976668834453448,-0.004722982534440234
1746576066693383700,0.2513837890625,-0.017981646892428396,-0.009049284768337383,0.0002123823753558099
1746576066703347700,0.26134765625,-0.012743746238946915,0.004692797458730638,0.00041855420563369986
1746576066713312500,0.2713125,-0.01843114422559738,0.014687445918936282,-0.0038977654903661458
1746576066723276500,0.281276611328125,-0.006311082842946052,0.016919803514308294,-0.00029653526116162537
1746576066733240600,0.291240478515625,-0.01588847400546074,0.01418704494901467,-0.002432981034275144
1746576066743205600,0.30120556640625,-0.01678454606235027,0.006181095221149735,0.0007419318079482764
1746576066753169700,0.311169677734375,-0.017083236747980117,-0.010200208369130269,0.003928745150519534
1746576066763134700,0.321134765625,-0.003466799327731132,-0.01716508807884529,0.013230031918548046
1746576066773098800,0.3310986328125,-0.0060106385916471475,-0.01784502860044595,0.0009382489644922316
1746576066783063600,0.3410634765625,-0.020973814445734023,-0.011906377532775514,-0.0010704331099521368
1746576066793027600,0.351027587890625,-0.026658874344825743,-0.012651505944808013,0.009224851397797464
1746576066802992600,0.36099267578125,-0.006905541604757309,-0.008746059471485204,0.022382758795050903
1746576066812956700,0.370956787109375,-0.0214192201256752,-0.00914113233683165,0.007339832235639915
1746576066822921500,0.38092138671875,-0.030995442244410514,0.009368296722788364,0.009864985065395012
1746576066832885500,0.390885498046875,-0.021568857729434964,0.0008803904305677861,-0.015119581125350667
1746576066842849800,0.400849853515625,-0.03712999947667121,0.007231079198117368,0.00090404530079104
1746576066852814600,0.410814697265625,-0.014683774390816688,0.011769453280116431,0.014447563615301622
1746576066862778600,0.420778564453125,-0.019472177711129187,-0.0008982777137076482,0.004547982160560787
1746576066872743700,0.43074365234375,-0.02366261513829231,0.010086902454076334,0.0015441607020795344
1746576066882707700,0.440707763671875,-0.01887245825231075,-0.011248731041373684,-0.004934789521060884
1746576066892672500,0.450672607421875,-0.009445873737335204,-0.014941767739877104,0.01065559658696875
1746576066902636500,0.460636474609375,-0.0036088381469249723,-0.011058432633662596,0.010155391979869454
1746576066912601600,0.4706015625,-0.022612813824415205,-0.01113755315132439,0.002131404271814972
1746576066922565600,0.480565673828125,-0.007798106530308723,-0.016359886342915707,-0.005273848749697208
1746576066932530700,0.49053076171875,-0.011986790391802787,-0.018709061551257036,-0.014621093551302328
1746576066942494700,0.50049462890625,-0.014530045133829116,-0.008016238226438871,0.012093255574116482
1746576066952458500,0.51045849609375,-0.005102291575074196,-0.015251504975906572,0.008151778806187213
1746576066962423600,0.520423583984375,-0.018420038309693337,0.001290432536182925,0.0065386262548156075
1746576066972387600,0.5303876953125,-0.0233580792337656,-0.0008173488314496352,0.008292000127630308
1746576066982352400,0.540352294921875,-0.011386486411094665,0.00012969079427421092,0.008337063112063333
1746576066992316700,0.550316650390625,-0.0039040217012166973,0.0073518423338420685,0.0009407240493688732
1746576067002281700,0.56028173828125,-0.023058219504356384,0.0016051245085429398,0.008732455637818201
1746576067012245800,0.570245849609375,-0.015427286234498024,0.0028859170001232994,-0.0009629724137950688
1746576067022210600,0.58021044921875,-0.02111293065547943,0.006786317405570298,-0.0010805983109399677
1746576067032174600,0.590174560546875,-0.021113515177369115,-0.005795575635437853,-0.013064000302413477
1746576067042139600,0.6001396484375,-0.01632452733516693,-0.01701335898269899,-0.004128414174774661
1746576067052103400,0.610103515625,-0.009290975436568259,-0.017113298526103608,0.00971999623728916
1746576067062067500,0.6200673828125,-0.01916705728471279,-0.008542408391856588,0.015689142907923087
1746576067072032800,0.63003271484375,-0.015127426505088805,-0.018183672270551322,0.005872380898427218
1746576067081996800,0.639996826171875,-0.023805823001265526,-0.018064420671900734,-0.008062730549555272
1746576067091961600,0.649961669921875,-0.01437865396440029,-0.008667349945777095,0.005416581688635051
1746576067101925600,0.659925537109375,-0.012134089908003807,-0.01409908810434863,0.008740154887083917
1746576067111890400,0.669890380859375,-0.020215105032920837,-0.007046954802866093,-0.0015272826325148344
1746576067121854500,0.6798544921875,-0.019766776743531226,0.006379280107794329,-0.0010979604376945644
1746576067131819800,0.68981982421875,0.004025602254271507,0.006501335584884509,-0.00010449242093600333
1746576067141783800,0.69978369140625,-0.019317279410362244,0.011251128494436852,0.003954454980511218
1746576067151748600,0.70974853515625,-0.023656185397505757,0.0023189809994772076,-0.0033064668000210074
1746576067161712600,0.719712646484375,-0.014080547800660132,0.0018616337199928237,-0.006578629471641033
1746576067171677700,0.729677734375,0.0002846621602773666,0.006730774126318283,-0.002416861016536131
1746576067181641500,0.739641357421875,-0.004205050474405289,-0.0023082175768679007,0.011030466914502903
1746576067191605500,0.74960546875,-0.02096446209549904,-0.014375155966216698,0.008781007487280295
1746576067201570600,0.759570556640625,0.006120528706908226,-0.01696393035040237,0.008876138424826785
1746576067211534600,0.76953466796875,-0.005251344656944275,-0.017357678908342493,-0.006092489922512322
1746576067221499600,0.779499755859375,-0.014527122524380683,-0.012541259636520407,0.0019089936927892267
1746576067231463700,0.789463623046875,-0.014975450813770294,-0.01753348299982026,0.0020165274541825056
1746576067241428700,0.7994287109375,-0.012281973946094512,-0.01559281096055638,0.009776850124215707
1746576067251392500,0.809392578125,-0.023953122517466542,0.0015922056614654139,0.015416627843165769
1746576067261357600,0.819357666015625,0.001785129851102829,0.01810507234269753,0.008452734514139592
1746576067271321600,0.829321533203125,-0.016918986096978186,-0.004365775727760046,-0.0263795916125644
1746576067281286700,0.83928662109375,-0.012878770795464515,-0.0036551934727234764,-0.006972615491598844
1746576067291250700,0.849250732421875,-0.03143500270545482,0.003802707618055865,0.016573807654809206
1746576067301214700,0.859214599609375,-0.00360240840613842,0.018483180373511276,0.009236340906191617
1746576067311179500,0.869179443359375,-0.018865443989634512,0.001985378830670379,0.0010886628863867372
1746576067321143600,0.8791435546875,-0.019763269612193105,-0.001834416919504292,-0.006739838782185688
1746576067331108600,0.889108642578125,0.0047784664481878274,-0.01055572554222308,-0.003678040058771148
1746576067341072600,0.89907275390625,-0.01961246296465397,-0.015922928830911405,0.0008951861409004777
1746576067351037400,0.909037353515625,-0.010335516053438186,-0.01539516493002884,0.010833556102914735
1746576067361001700,0.919001708984375,-0.0039022681355476378,-0.011022585002146661,-0.0006189721485599875
1746576067370966800,0.928966796875,-0.01811608692705631,-0.017797778225503862,0.0026855127569288015
1746576067380930800,0.938930908203125,-0.02215513318479061,-0.011520807714713737,0.016276240347186104
1746576067390895900,0.948895751953125,-0.02694353650510311,0.006963747198553755,-0.004775434240885079
1746576067400860000,0.95885986328125,-0.037568975415825843,0.0008435746846720576,-0.004407185450382531
1746576067410824000,0.968823974609375,-0.027393033838272095,0.0037495617918670175,0.006283226721640676
1746576067420788700,0.978788818359375,-0.008688917890191078,0.016462474501132963,0.005395694164233282
1746576067430752800,0.988752685546875,-0.0039010990917682647,-0.005241951207513921,-0.0049691119157709174
1746576067440717800,0.9987177734375,-0.024701310536265373,0.019306776282656937,-0.016610714732250197
1746576067450681900,1.008681884765625,-0.019015666115283963,0.02806643502123188,0.0015577143033966422
1746576067460647000,1.01864697265625,-0.014826397731900214,0.011716133923991583,0.003191900509642437
1746576067470611000,1.02861083984375,-0.024104513686895368,0.005216013048659079,-0.005121836525760591
1746576067480575700,1.03857568359375,0.005673369461297989,-0.008318184881657361,-0.013250088325887917
1746576067490539800,1.048539794921875,-0.0024058920979499816,-0.015252062098332679,-0.0064245074890088285
1746576067500504800,1.0585048828125,-0.024551672932505608,-0.012229111247695981,0.00433471386921592
1746576067510468600,1.068468505859375,-0.02380465395748615,-0.011004104063962586,0.004797874401556328
1746576067520432600,1.0784326171875,-0.015425532668828963,-0.014761374238249844,-0.0006542717908043414
1746576067530398000,1.08839794921875,-0.005697919380664825,-0.017382626119931226,0.0059938061878550795
1746576067540362000,1.098362060546875,-0.004499649506807327,-0.0017564243464265018,0.006389308311464265
1746576067550326800,1.108326904296875,-0.016919570618867872,-0.009040850300132297,-0.005266734022321179
1746576067560290800,1.118290771484375,-0.006445522877573967,-0.003263129981793463,-0.0053986898389179255
1746576067570256000,1.128255859375,-0.016322189247608185,-0.0013383496314054355,0.007338809322332963
1746576067580219600,1.1382197265625,-0.0028548049092292785,0.011409168600360862,0.0026610085033345965
1746576067590185000,1.14818505859375,-0.00988835680782795,0.011484658689098433,0.002383022679015994
1746576067600149000,1.15814892578125,-0.02844458871781826,-0.0034918607037514445,-0.00027444216036237774
1746576067610113800,1.16811376953125,-0.018717559951543807,-0.0021403684629825873,-0.0012182532159611581
1746576067620077800,1.178077880859375,-0.020512626674771307,-0.012059595333109609,-0.007693696307763457
1746576067630043000,1.18804296875,-0.019166472762823104,-0.013772824425203724,0.0029624756679404525
1746576067640006700,1.198006591796875,-0.015575754794478416,-0.0015207341607194392,0.009573244710359722
1746576067649970700,1.207970703125,-0.012432780593633652,-0.016791322863008825,-0.00017785905124619603
1746576067659935700,1.217935791015625,-0.0037537995755672453,0.00007767747924663127,-0.00001524323490448296
1746576067669900000,1.227900146484375,-0.005101122531294822,0.0029099052304867655,0.007662214324111119
1746576067679864800,1.23786474609375,-0.009589666122198104,0.0111874795405427,0.0005965411210432648
1746576067689828900,1.247828857421875,-0.007794599398970603,-0.0034960665214108302,-0.006066999288229271
1746576067699794000,1.2577939453125,-0.02290858190059662,0.0019286117087118327,-0.0009659498221706598
1746576067709757700,1.2677578125,-0.012433949637413025,-0.0028711395560996607,-0.00200136641766876
1746576067719722800,1.27772265625,0.004924596920609474,-0.0062625081605976445,-0.004236212797649204
1746576067729686800,1.287686767578125,-0.005102876096963882,-0.012895735629997216,0.0016790117286611347
1746576067739651800,1.29765185546875,-0.02081540901362896,-0.01374988650761079,0.001610120344068855
1746576067749615900,1.307615966796875,-0.016475918504595757,-0.012719840206974186,-0.0006697433545719832
1746576067759580000,1.317579833984375,-0.01572714596390724,-0.01007864608238451,-0.003385057594720274
1746576067769545000,1.327544921875,-0.012135843473672867,-0.005500944636994972,0.0020638463277835397
1746576067779508700,1.3375087890625,-0.012585340806841849,-0.0012250391497742384,0.004552274743188173
1746576067789473800,1.347473876953125,-0.016177812340855597,-0.0006955673489952459,0.006725956387305632
1746576067799437800,1.357437744140625,0.0029758009403944015,-0.007101068743434734,0.00040423341933637855
1746576067809402600,1.367402587890625,-0.011090718334913253,0.007289106695400551,0.000301028773188591
1746576067819367000,1.377366943359375,-0.00944470469355583,0.0025052151534240693,0.004487904270086438
1746576067829332000,1.38733203125,-0.0139338328063488,0.004057956454181112,0.005079330824594944
1746576067839295700,1.397295654296875,-0.009293898046016692,-0.0009168362837051972,-0.004314209937304258
1746576067849259800,1.407259765625,-0.004504910203814506,0.002056398240267299,-0.008865242571476846
1746576067859224800,1.417224853515625,-0.01063946743607521,-0.010985591159737669,0.0028999774915166197
1746576067869188900,1.42718896484375,-0.029493220987915993,-0.018161707033915443,0.0001774206598289311
1746576067879153700,1.437153564453125,-0.03158814744055271,-0.017143259839527306,0.0009973861400503665
1746576067889117700,1.44711767578125,-0.010489245310425757,-0.013710440413211471,0.01699608818748966
1746576067899083000,1.4570830078125,-0.01946691701412201,-0.01606220030428376,0.010725520018022508
1746576067909046800,1.467046875,-0.010937573599815368,-0.008389610716630705,0.00830446688355878
1746576067919011800,1.47701171875,0.0022299510091543196,-0.010392717000236733,0.001654818002320826
1746576067928976000,1.486975830078125,-0.02964227406978607,0.005668286860804073,0.010635868973191827
1746576067938940700,1.496940673828125,-0.01916764180660248,0.010362125499150715,-0.015446146198594942
1746576067948904700,1.50690478515625,-0.01916764180660248,0.01721363992830738,-0.0014034735897555948
1746576067958868700,1.51686865234375,-0.025751696372032163,0.007375611368496902,-0.005909726367285475
1746576067968834000,1.526833984375,-0.01827040070593357,0.0031037336024222896,0.0029262627102434632
1746576067978797800,1.5367978515625,-0.0022597616255283356,0.004360866657202132,0.008459639178961515
1746576067988763000,1.546762939453125,-0.01692366227209568,-0.002217351822485216,-0.004883534257858991
1746576067998727000,1.556726806640625,-0.01991641434729099,-0.00131745297384914,-0.008629543252615257
1746576068008691700,1.566691650390625,-0.011387655454874038,-0.016646233570203183,0.006249461449356749
1746576068018655700,1.57665576171875,-0.00405599739253521,-0.0069352243569679554,0.008751279069297015
1746576068028620800,1.586620849609375,-0.020965046617388725,-0.014565198645601048,-0.0057282323205377905
1746576068038584800,1.596584716796875,-0.018569675913453102,-0.01330378670792561,-0.0020303459169808773
1746576068048550000,1.6065498046875,0.0031283611536026,0.005465932689118199,0.011257727198582142
1746576068058514000,1.616513916015625,-0.02350654779374599,0.0032044631636934354,0.006415995388990268
1746576068068478000,1.62647802734375,-0.003006196078658104,0.010368231012951583,-0.0006208353120833635
1746576068078442800,1.63644287109375,-0.008093874606490135,-0.00709430564250797,-0.002274895262578502
1746576068088406800,1.64640673828125,-0.00450257211625576,0.008125904579414055,0.001740331728151068
1746576068098371800,1.656371826171875,-0.02186053415238857,0.007986395644024013,0.007844082830194384
1746576068108335600,1.666335693359375,-0.02141103681921959,0.008313001816463656,0.012882250527339056
1746576068118301000,1.676301025390625,-0.03158697839677334,-0.008065767323435283,-0.006902491131145507
1746576068128265000,1.686264892578125,-0.019315525844693184,-0.014649767089937813,-0.0016113533199299127
1746576068138229800,1.696229736328125,-0.004350596424937248,-0.001135479436488822,0.004459792420454323
1746576068148193800,1.70619384765625,-0.0039022681355476378,-0.016819827438285574,-0.005219287284556776
1746576068158158800,1.716158935546875,-0.02111117708981037,-0.00958113575587049,-0.003875279663922265
1746576068168123000,1.726122802734375,-0.004649287110567093,-0.013983119874750264,0.004094667168799787
1746576068178086700,1.736086669921875,-0.017815642675757408,-0.008676131473854183,0.003975068510277196
1746576068188052000,1.746052001953125,-0.008987024053931236,-0.004571066208626144,-0.005787104634614661
1746576068198016000,1.75601611328125,0.002533317869901657,0.0000404142087791115,-0.017688582229986784
1746576068207980800,1.765980712890625,-0.03053717708289623,-0.004491598631092347,-0.007032264123810455
1746576068217944800,1.77594482421875,-0.005398644173145294,0.009018232042947784,-0.0076091598294675345
1746576068227910000,1.785909912109375,-0.020512626674771307,-0.0025158552784472705,0.0028296248022001234
1746576068237874000,1.7958740234375,-0.03158522483110428,0.002506397896935232,-0.007266803532047197
1746576068247838700,1.805838623046875,-0.01647182685136795,0.005540819989657029,0.011272513775760308
1746576068257802800,1.815802734375,-0.01841770022213459,-0.003608185126376338,0.016716275732265785
1746576068267767800,1.825767822265625,-0.025749942806363103,-0.009458938714885153,0.008032445009145885
1746576068277731800,1.83573193359375,-0.010486907222867011,-0.016582917976449243,-0.005140449894685298
1746576068287696000,1.84569580078125,-0.01796937193274498,-0.005556168255838565,0.008277441879315301
1746576068297661000,1.855660888671875,-0.007493570625782013,-0.0027497781987534833,0.002984249108331278
1746576068307624700,1.865624755859375,-0.020213351467251776,-0.0169025281525217,-0.0044666148868855084
1746576068317589800,1.87558984375,-0.005400397738814354,-0.0109429393280996,-0.0031595326100010424
1746576068327553800,1.8855537109375,-0.015875030001997945,-0.013180429756315424,-0.003891609744215384
1746576068337518800,1.895518798828125,-0.021112346133589744,-0.01185773891834542,0.0035181824550963936
1746576068347483000,1.90548291015625,-0.022159809359908102,0.004955690745194442,0.025615265309717503
1746576068357448000,1.915447998046875,-0.008543371939659119,0.012579600619222036,0.005827893302729353
1746576068367412000,1.925411865234375,-0.025601474246382712,0.009730216237204149,-0.013659098385041578
1746576068377377000,1.935376953125,-0.018717559951543807,0.0022465368177741764,0.0023034455036278815
1746576068387341000,1.945341064453125,-0.021260814693570135,0.010251984222140163,-0.0010892656745854765
1746576068397305000,1.95530517578125,-0.02156125894486904,-0.006234866668423637,-0.011691049715084955
1746576068407270000,1.965269775390625,-0.02679974412024021,-0.008367280153813772,-0.0041786830572877074
1746576068417234200,1.975234130859375,-0.01303366909623146,-0.014331974411616101,0.011576803085114806
1746576068427199200,1.98519921875,-0.0160252521276474,-0.010183923954609781,0.0027008381902240215
1746576068437163000,1.9951630859375,-0.015577508360147475,-0.014773274738597682,-0.005305138937104493
1746576068447128000,2.005128173828125,-0.010938742643594741,-0.007782662366004661,-0.0007639427103567868
1746576068457092000,2.015092041015625,-0.013632804033160209,-0.01457844171966426,-0.0082823281169869
1746576068467057000,2.025056884765625,-0.00959200420975685,-0.014420177851454354,0.016525703329918904
1746576068477021000,2.03502099609375,-0.020067805516719817,0.005556063224561512,0.0014592497644480317
1746576068486986200,2.044986328125,-0.029046061742305753,0.0015473664393182843,0.00009217179547995328
1746576068496950300,2.0549501953125,-0.016626140630245208,0.01459872645586729,-0.001870954104186967
1746576068506914000,2.0649140625,-0.020067805516719817,0.015270775931957177,0.0015627375383861363
1746576068516879000,2.074879150390625,-0.02081657805740833,-0.00005562091106548905,-0.0030694979726802554
1746576068526843100,2.084843017578125,-0.023959552258253095,0.0015618470558198168,0.0046733621058985585
1746576068536808000,2.094807861328125,-0.000018704700469970702,0.010959474904369562,0.007141871111281215
1746576068546772000,2.10477197265625,-0.0045066637694835664,-0.01477092751788441,0.0001426233410835266
1746576068556737300,2.1147373046875,-0.005704349121451378,-0.013558222693298011,-0.002221466308599338
1746576068566701000,2.124701171875,-0.009295067089796065,-0.010434332218836061,-0.001971820662776008
1746576068576666000,2.134666015625,-0.02216390101313591,-0.013152523402660153,0.029597905205097048
1746576068586630100,2.144630126953125,-0.026202947270870205,-0.01435671612722799,0.019024552674638106
1746576068596594200,2.15459423828125,-0.019468670579791066,-0.012621677062124944,-0.00001660407492890954
1746576068606559000,2.16455908203125,-0.020665186887979508,-0.002981070770556107,0.004108677427843213
1746576068616523000,2.17452294921875,-0.00689852734208107,0.0169583088937914,-0.007453229482239112
1746576068626488000,2.184488037109375,-0.009741641813516616,0.028160807906952686,-0.0009251520209014415
1746576068636451800,2.194451904296875,-0.028595979887247085,0.030000252628023735,-0.007236673255264759
1746576068646417200,2.204417236328125,-0.008694178587198257,0.010286676509608513,-0.005627155699394643
1746576068656381200,2.214381103515625,-0.01617430520951748,0.00046074024639092384,0.0034479941625613717
1746576068666346000,2.224345947265625,-0.018269816184043882,-0.003466972857667133,0.0038823943912982936
1746576068676310000,2.23431005859375,-0.012882862448692321,-0.007308811476291157,0.008172730262670666
1746576068686275000,2.244275146484375,-0.015127426505088805,-0.006836842016410083,0.0011307849950622766
1746576068696239000,2.254239013671875,-0.0064484454870223995,-0.01855699452839326,0.018203801743127405
1746576068706203000,2.264202880859375,-0.012283727511763572,-0.01606923283326905,0.019247438177699222
1746576068716168200,2.274168212890625,-0.01886778207719326,-0.023231283649476242,-0.0018525416646618395
1746576068726132200,2.28413232421875,-0.007196048983931541,-0.014251648317556827,-0.0074134363279677925
1746576068736097000,2.294096923828125,-0.040564650100469585,-0.01391714196645189,0.006853720085974783
1746576068746061000,2.30406103515625,-0.019166472762823104,-0.015952931243530474,0.013103208934795111
1746576068756026000,2.314026123046875,-0.0051005380094051355,-0.006188803603569977,0.001886535265808925
1746576068765990100,2.323990234375,-0.008093874606490135,0.010457566963951103,-0.014709146294090897
1746576068775955000,2.333954833984375,0.005523731857538223,0.01745042609255761,-0.0013476243498269469
1746576068785919200,2.343919189453125,-0.009289806392788886,0.03072215542809572,0.012611315498314797
1746576068795884000,2.353884033203125,-0.023805823001265526,0.014748560422449371,0.002745755044184625
1746576068805848000,2.36384814453125,-0.010937573599815368,0.0052570848445640875,0.006616787791252136
1746576068815812000,2.37381201171875,-0.01976619222164154,0.002283740722737275,0.006600165450014173
1746576068825777200,2.383777099609375,-0.025602058768272398,0.0073989191788481545,0.007320954005233943
1746576068835741000,2.393740966796875,-0.028595395365357396,0.02195737298983149,-0.004765634366078302
1746576068845706000,2.4037060546875,-0.011687515184283256,0.010759550151787698,0.01448801435669884
1746576068855670000,2.413669921875,-0.0197679457873106,-0.0005441213806392625,0.009486790269613266
1746576068865635000,2.423635009765625,-0.02470481766760349,-0.001284920677426271,-0.007451174522470683
1746576068875599000,2.43359912109375,0.00267827929854393,0.003323691929457709,-0.0009809190624393523
1746576068885564200,2.443564208984375,-0.01572714596390724,-0.0011268120728433132,-0.0021915643606800583
1746576068895528200,2.453528076171875,-0.02290975094437599,-0.0071541415043873706,-0.0021726952634286132
1746576068905493000,2.463492919921875,-0.016474164938926696,0.0025021738129667936,-0.005641092893201857
1746576068915457000,2.47345703125,-0.03158756291866302,-0.009379872996150515,-0.004292399964295327
1746576068925421000,2.483421142578125,0.0038783027380704877,-0.004754560416215099,-0.004923665338847786
1746576068935386000,2.49338623046875,-0.010186462971568108,-0.007594108390808105,-0.008019969120062887
1746576068945350100,2.50335009765625,-0.020063129341602325,-0.01382769185102079,0.01594924601567909
1746576068955315200,2.513315185546875,-0.02709551219642162,-0.007990866323164664,-0.006235697785485535
1746576068965279000,2.523279052734375,-0.035925299862027166,-0.007406791958049871,-0.008590645147487521
1746576068975244000,2.533244140625,-0.0067477206945419305,-0.008592047086707315,0.0016137553395703433
1746576068985208000,2.5432080078125,-0.009440613040328026,-0.00456786960454192,0.018490418398473412
1746576068995172900,2.5531728515625,-0.01617430520951748,-0.014697122496156952,0.009665845764102414
1746576069005137000,2.563136962890625,0.00552256281375885,-0.011971241196221671,0.008915219193045049
1746576069015102200,2.573102294921875,-0.010039163455367088,-0.00014533132140059023,0.01888350936928764
1746576069025066200,2.583066162109375,-0.008691840499639511,-0.004450444636796601,0.005639302794914692
1746576069035030000,2.593030029296875,-0.02096270852982998,-0.0004484470203984529,-0.013793574952287599
1746576069044995000,2.6029951171875,-0.02096270852982998,0.006866113776667043,-0.007663566030981019
1746576069054959000,2.612958984375,-0.01258358724117279,0.008355096525675617,0.007655638452852144
1746576069064924000,2.622923828125,-0.01931786393225193,0.0055560038590570906,0.004562604340957477
1746576069074888000,2.632887939453125,-0.020365911680459974,0.02243843450504355,-0.002649217600841075
1746576069084853200,2.642853271484375,-0.018571429479122162,0.0007686508515151217,-0.007982733249058946
1746576069094817300,2.6528173828125,-0.01587795261144638,0.0060922296276083214,0.00019216157123446464
1746576069104782000,2.662781982421875,-0.0043570261657238,-0.0025048635269748045,0.005907324347645044
1746576069114746000,2.67274609375,-0.01198971300125122,-0.013201134617626667,0.003887445025751367
1746576069124711000,2.6827109375,-0.010343699359893798,-0.007547337506478652,-0.0026756763495039194
1746576069134675000,2.692675048828125,0.006117606097459793,-0.004345303761889226,-0.0055963769686408335
1746576069144639000,2.702638916015625,-0.012286650121212005,-0.0031822787313489243,0.009314146249601618
1746576069154604000,2.71260400390625,-0.03158990100622177,0.019693985501956193,0.009473117937287315
1746576069164568000,2.722568115234375,-0.011838906353712082,0.004783480550022795,-0.019341263074148445
1746576069174533000,2.732533203125,-0.019471008667349816,0.018592787360982035,-0.002692855813167989
1746576069184497200,2.7424970703125,-0.024259996509552,0.019734797002957202,0.006433832439780235
1746576069194462000,2.7524619140625,-0.007052256599068641,0.009526688455161638,0.005847986242687329
1746576069204426000,2.762426025390625,-0.022315292182564735,-0.0009297003318555653,0.01806465813391842
1746576069214391000,2.77239111328125,-0.019472177711129187,-0.010193248905381187,-0.009185058243526145
1746576069224355000,2.78235498046875,-0.014233692535758017,-0.014399778950819744,0.007210397169692441
1746576069234318800,2.79231884765625,-0.010492752441763877,-0.016702384204231202,0.012019249622989446
1746576069244284200,2.8022841796875,-0.008248188385367393,-0.00883022605702281,0.011746926354477182
1746576069254248200,2.812248291015625,-0.018124270233511923,-0.013800255854823626,-0.00720529173631221
1746576069264213000,2.822212890625,-0.017377835780382156,-0.0005031317831249907,-0.018518658112268892
1746576069274177000,2.832177001953125,-0.010195815321803092,-0.0029452962042763827,-0.0005676346869673579
1746576069284142000,2.84214208984375,-0.017377835780382156,0.005134910636465065,0.000002164557622745633
1746576069294106000,2.852106201171875,-0.019174656069278716,0.02941579010384157,0.007885017628781497
1746576069304071200,2.8620712890625,-0.021120529440045357,0.05027955917068757,0.0029267011016607283
1746576069314035200,2.87203515625,-0.030398060873150824,0.032877625562087634,-0.013892002958618104
1746576069324000000,2.882,-0.026057985842227935,0.017661333463457413,-0.012167215859470889
1746576069333964000,2.891964111328125,-0.01693009201288223,0.020226772637828253,-0.011418616848718375
1746576069343929000,2.90192919921875,-0.025758126112818715,0.01392645778406877,0.012759135604323818
1746576069353893000,2.91189306640625,-0.0033119010269641873,-0.00578218643090222,0.002375031168805435
1746576069363857200,2.921857177734375,-0.0016664719074964522,-0.004629952222434804,-0.007066851380001753
1746576069373821400,2.931821533203125,-0.01648059467971325,-0.009900960561074316,0.0063844494732562445
1746576069383785500,2.941785400390625,-0.01707739152908325,-0.027386512765940278,0.01605409462964162
1746576069393750500,2.95175048828125,0.0019265841484069823,-0.014571952613373285,0.006501892707310617
1746576069403714300,2.96171435546875,-0.01887421181797981,-0.004942726232344284,0.016449432356469333
1746576069413679400,2.971679443359375,-0.013787117812037467,-0.010938304252177476,0.008761398604512215
1746576069423643400,2.981643310546875,-0.01094400334060192,0.0012575942790834232,0.002960849966434762
1746576069433608400,2.9916083984375,-0.027255671194195745,0.020155629930645225,0.0015313468862790613
1746576069443572500,3.001572509765625,-0.02366436870396137,0.025935802500974384,-0.003837258341629058
1746576069453536500,3.01153662109375,-0.02890168483555317,0.016256581232068128,-0.012351751246675848
1746576069463501600,3.02150146484375,-0.004211480215191841,0.024226546331099233,0.00198175753490068
1746576069473465300,3.03146533203125,-0.008402502164244652,0.01852473622660618,0.007867007048055529
1746576069483430400,3.041430419921875,-0.0007715688943862914,0.01302908425265923,0.007868714947951957
1746576069493394400,3.05139453125,-0.02291851877272129,0.004403477389644831,-0.0016601608977187424
1746576069503359500,3.061359375,-0.018279753056168555,-0.004706620488106273,0.0026721692181658
1746576069513323500,3.071323486328125,-0.01558686071038246,-0.006425032645394094,0.01673376572318375
1746576069523288600,3.08128857421875,-0.0075064301073551176,-0.005410238712816499,0.014972537337476386
1746576069533252400,3.09125244140625,-0.017083821269869803,-0.020399348159180954,0.007725187424570321
1746576069543217400,3.101217529296875,-0.00900339066684246,-0.01939871518269647,0.006085932317562401
1746576069553181400,3.111181396484375,-0.0057113633841276166,-0.01310516342986375,0.005789671051036566
1746576069563145500,3.1211455078125,-0.00421498734652996,-0.012113385046692564,0.013897884710133075
1746576069573110300,3.1311103515625,-0.011698036578297615,0.007468929374869912,0.0032437037621159104
1746576069583074300,3.14107421875,-0.009602525603771209,0.008664294905588031,0.009947265654522926
1746576069593039600,3.15103955078125,-0.00810498052239418,0.012052151812170632,-0.0019776019495911894
1746576069603003400,3.16100341796875,-0.00765489866733551,0.00605480652693659,-0.00790060792355798
1746576069612968400,3.170968505859375,-0.026060908451676367,0.009999849791708402,0.003750913498736918
1746576069622932500,3.180932373046875,-0.017231705307960508,0.01115445862035267,0.014553407743107526
1746576069632897300,3.190897216796875,-0.01887771894931793,0.02311421487475745,-0.004125811225734651
1746576069642861300,3.200861328125,-0.013639818295836447,0.002615287931775674,0.0012238975054584442
1746576069652826600,3.21082666015625,-0.017529226949810982,-0.006631953394343144,0.008195097358105703
1746576069662790700,3.220790771484375,-0.01214227321445942,0.011052943607792258,0.007417692377977072
1746576069672754400,3.23075439453125,-0.0039127895295619965,-0.003620012561487965,-0.0025237919897306707
1746576069682719500,3.240719482421875,-0.005409750089049339,-0.00963836866870988,0.002206624932494014
1746576069692683500,3.25068359375,-0.023366262540221214,-0.009689783762115985,-0.0036289036874193694
1746576069702648300,3.2606484375,-0.01319090548455715,-0.011513743219687603,-0.007661712000612169
1746576069712612400,3.2706123046875,-0.018726327779889106,0.00022412304549943656,0.0008385423165280371
1746576069722577400,3.280577392578125,-0.017080314138531685,0.005116863523120992,0.009501512914709746
1746576069732541400,3.29054150390625,-0.02441080315709114,-0.0018590216377982868,-0.007637892733607441
1746576069742506500,3.300506591796875,-0.03054594491124153,0.015292426074761896,-0.0060102275996934615
1746576069752470500,3.310470458984375,-0.008698270240426064,0.006821027959347702,0.011534854506375267
1746576069762435300,3.320435302734375,-0.012290157252550124,0.007784977620677091,-0.0024996073965448885
1746576069772399400,3.3303994140625,-0.014086393019556998,0.00201493828529492,-0.00802572300741449
1746576069782363400,3.34036328125,-0.015433715975284576,-0.0030820743264630434,0.007440643995301798
1746576069792328400,3.350328369140625,-0.018576105654239655,0.015890204738243482,-0.01318572698594071
1746576069802292200,3.360292236328125,-0.011093056422471999,-0.0036637832045555113,-0.00006135653210803866
1746576069812257500,3.370257568359375,-0.020371172377467155,-0.01397739338686224,0.005332300938665866
1746576069822221600,3.3802216796875,-0.0254582663834095,-0.007442662422452122,0.003215427515702322
1746576069832186400,3.390186279296875,-0.009894786548614502,-0.002125380956404842,-0.006419602985028177
1746576069842150400,3.400150390625,-0.01198971300125122,-0.0018361841849051416,-0.010432026097318157
1746576069852115500,3.410115478515625,-0.02021978120803833,-0.005026308295992203,-0.014894284469494595
1746576069862079500,3.42007958984375,-0.013635142120718955,-0.0016877293246565386,-0.0025629366900306195
1746576069872044500,3.43004443359375,-0.019619477227330206,0.0029923958821687848,0.0008055990281514823
1746576069882008600,3.440008544921875,-0.02859656440913677,0.011901979918871075,-0.0033040556472260503
1746576069891972600,3.44997265625,-0.01587795261144638,-0.0035712871820898725,0.004842215866781771
1746576069901937400,3.4599375,-0.028746202012896536,-0.0041904785263584925,0.00033770752176642414
1746576069911901400,3.4699013671875,-0.019618308183550835,-0.007277539555192925,0.006215175587264821
1746576069921866500,3.479866455078125,-0.0037561376631259917,-0.020819957324583083,-0.004432831348292529
1746576069931830500,3.48983056640625,-0.009591419687867165,-0.013728747821459546,0.008459401716943829
1746576069941795300,3.49979541015625,-0.01752221268713474,-0.01190618573653046,0.016761795374425126
1746576069951759400,3.50975927734375,-0.007046995902061462,-0.010918777567800134,0.01794224646380171
1746576069961724400,3.519724365234375,-0.018269816184043882,-0.004961143238446675,0.004302081108093261
1746576069971688400,3.5296884765625,-0.02096270852982998,-0.004930857698037289,-0.010850105378916487
1746576069981653500,3.539653564453125,0.005073650002479553,-0.002792932353890501,-0.00783683110550046
1746576069991617500,3.549617431640625,-0.0046533787637948985,0.01146084855524823,0.017333841375028712
1746576070001581300,3.559581298828125,-0.003606500059366226,0.014603799923206678,0.005689516878500581
1746576070011546400,3.56954638671875,-0.01916764180660248,-0.004575377057562582,-0.0077163008652161805
1746576070021510400,3.579510498046875,-0.015126257461309432,-0.006238748259097337,0.004328914316091686
1746576070031475500,3.589475341796875,-0.009440613040328026,-0.00017682700478471815,0.007905302364984526
1746576070041439500,3.599439453125,-0.008543371939659119,-0.005860320567875169,0.0057752863326575605
1746576070051404500,3.609404541015625,-0.014230769926309585,-0.006064094945089891,0.0032865382568445056
1746576070061368600,3.61936865234375,-0.012285481077432632,0.007135468769958242,-0.0071941675540991125
1746576070071333400,3.62933349609375,-0.012584756284952163,0.01091538003431633,-0.0033009777741506694
1746576070081297400,3.63929736328125,-0.010040917021036147,0.004085045390506275,-0.0090284611760173
1746576070091262500,3.649262451171875,0.0014805939465761184,-0.01158843872398138,-0.002409143500961363
1746576070101226200,3.659226318359375,-0.005103460618853569,0.009347861289535648,0.008950116976490244
1746576070111190500,3.6691904296875,-0.009742810857295989,0.001187990508438088,0.0019236615389585494
1746576070121155600,3.679155517578125,-0.019620061749219892,0.0097233892041957,0.0009059815295506268
1746576070131119600,3.68911962890625,-0.03682897070348263,-0.011257900728518143,-0.009588040420692414
1746576070141084400,3.69908447265625,-0.020368249768018723,-0.0016504751873435452,-0.009513650877075269
1746576070151048400,3.70904833984375,-0.013334697869420051,0.008841665333067067,0.0048000846249517054
1746576070161013200,3.71901318359375,-0.01692541583776474,-0.004614297995576635,0.00505344746466726
1746576070170977300,3.728977294921875,-0.01243628772497177,0.0019501887862803412,-0.007055334472144023
1746576070180942600,3.738942626953125,-0.035629531785845756,-0.011794930214667692,-0.018911895213555543
1746576070190906600,3.74890673828125,-0.008694178587198257,0.0037239113273797556,-0.00890958403670229
1746576070200871400,3.758871337890625,-0.006000701719522476,-0.009732325995899736,0.009054718995280563
1746576070210835500,3.76883544921875,-0.019318448454141615,0.006519236567756161,0.0009423680171836167
1746576070220799500,3.778799560546875,-0.003457446977496147,0.0026423723015235735,-0.0027565869654528796
1746576070230764300,3.788764404296875,-0.019169979894161224,0.009669115433422849,-0.009308721155812964
1746576070240728300,3.798728271484375,-0.025155484044551847,-0.0004386517121689394,-0.006475379159720614
1746576070250693600,3.808693603515625,-0.021714403679966927,0.006608736915537156,0.008244854783965274
1746576070260657700,3.81865771484375,-0.016029343780875206,0.015006590304127893,0.00043854668089188633
1746576070270622500,3.82862255859375,-0.022014263409376143,0.010089898128760977,0.004018350529577583
1746576070280586500,3.83858642578125,-0.021265490868687627,0.009184039896796456,0.003204275934025645
1746576070290551600,3.848551513671875,-0.029046646264195442,0.0000427020639879629,-0.016843655838444827
1746576070300515300,3.858515380859375,-0.004655132329463958,0.0023643499445868653,-0.002172896192828193
1746576070310480400,3.86848046875,-0.007048749467730522,-0.008169378394959494,-0.008668806683924049
1746576070320444400,3.8784443359375,-0.02096446209549904,-0.0014282929371809585,0.0005427468408830463
1746576070330408400,3.888408447265625,-0.005701426512002944,-0.007644299641507677,-0.015179996942542493
1746576070340373500,3.89837353515625,-0.031738954088091846,-0.011494673193036578,-0.002284649471612647
1746576070350337500,3.908337646484375,-0.00959200420975685,0.013543107322556897,0.005840277860267087
1746576070360302300,3.91830224609375,-0.0064484454870223995,-0.009521537356008775,0.00844319950081408
1746576070370266400,3.928266357421875,-0.02051554928421974,0.00008918525394983589,-0.004613996601477265
1746576070380232400,3.938232421875,-0.02006722099483013,0.00928903464123141,-0.005289128517219796
1746576070390196500,3.948196533203125,-0.016176643297076226,0.007769259461737238,0.0010149583293590694
1746576070400161500,3.95816162109375,-0.015727730485796926,0.0058506485572317616,-0.0006461158838123082
1746576070410125600,3.96812548828125,-0.014679682737588882,0.01153313290674705,0.007275909287109971
1746576070420090400,3.97809033203125,-0.0045043256819248196,0.010652897739806213,0.0021409666846040633
1746576070430054400,3.988054443359375,-0.013781272593140602,-0.0012149424474453552,0.013634393202047795
1746576070440018400,3.998018310546875,-0.010788520517945288,-0.007301381655083969,-0.003884650280466303
1746576070449983200,4.007983154296875,-0.020364742636680602,-0.006502710124640725,-0.004040562361385673
1746576070459947300,4.017947265625,-0.011685761618614196,-0.01447681710924953,0.005117690073605626
1746576070469912600,4.02791259765625,-0.008843231669068335,0.01086860001683235,-0.0001298277915921062
1746576070479876600,4.037876708984375,-0.014828151297569274,-0.012936437533143908,-0.008233474873425439
1746576070489841400,4.04784130859375,-0.0015104045629501341,-0.007975801184773444,-0.005246175291482359
1746576070499805400,4.057805419921875,-0.016923077750205993,0.004049426087853499,-0.019336130241304636
1746576070509770500,4.0677705078125,-0.007196048983931541,-0.004528615306387655,0.008142380790179595
1746576070519734300,4.077734375,-0.022159809359908102,-0.0019095827812561765,0.006839974688412622
1746576070529699600,4.087699462890625,-0.008542787417769431,0.002162438730895519,-0.001688647206686437
1746576070539663600,4.09766357421875,-0.008542787417769431,0.00503901251393836,-0.009088511667028069
1746576070549627600,4.107627685546875,-0.008991700229048728,0.0024234642872586845,0.007872861400106922
1746576070559592400,4.117592529296875,-0.019915245303511617,-0.0018698307261802256,0.004995735061215236
1746576070569556500,4.127556396484375,-0.014977204379439352,0.008174625392234883,0.0021754443429410457
1746576070579521500,4.137521484375,-0.015426701712608336,0.007782214841432869,-0.0033211346461903303
1746576070589485300,4.1474853515625,-0.005700257468223571,0.0051515877766301855,0.0021765220551751554
1746576070599450400,4.157450439453125,0.005671615895628929,0.007832113831187598,-0.0034853670308832075
1746576070609414400,4.167414306640625,-0.016025836649537085,-0.0024932598541490734,-0.01425885437647812
1746576070619379500,4.17737939453125,-0.02649988439083099,0.0009508755506249144,-0.0066506352619268
1746576070629343500,4.187343505859375,-0.017521628165245055,0.0025913088345667344,0.0018441026298794895
1746576070639308500,4.19730859375,-0.020514380240440368,-0.0005679771802620962,-0.007580563922645524
1746576070649272300,4.207272216796875,-0.022309446963667868,-0.020913814187073148,-0.01329002761063166
1746576070659236400,4.217236328125,-0.01407937875688076,-0.01356940624101553,-0.005502040615538135
1746576070669201400,4.227201416015625,-0.01767009672522545,-0.00512537105656229,0.0010626151296775788
1746576070679165400,4.23716552734375,-0.009589081600308417,-0.006940485053975135,0.0026448793524410574
1746576070689130500,4.247130615234375,-0.018118425014615056,-0.002766587769659236,0.0006868497529998422
1746576070699094500,4.257094482421875,-0.01841770022213459,0.011318887367867864,0.008298064542235806
1746576070709059600,4.2670595703125,-0.009139584267139435,0.026378276438312604,0.006780874045472592
1746576070719023400,4.2770234375,-0.0064461073994636535,0.015463722954480908,-0.0053210397591348735
1746576070728988400,4.286988525390625,-0.02170972750484943,0.013855570805212483,-0.0033565530194435266
1746576070738952400,4.296952392578125,-0.027695231655240057,0.010087308879452757,-0.003027275399304926
1746576070748917200,4.306917236328125,-0.01617372068762779,0.00747045004509855,0.0067246046804357315
1746576070758881300,4.31688134765625,-0.022159224838018417,-0.014354921462363562,0.01822847952665761
1746576070768845600,4.326845458984375,-0.0045019875943660735,-0.007372396498103626,-0.0019494627004954964
1746576070778810600,4.336810546875,-0.02784545378088951,-0.006287825264944694,0.01584542031502351
1746576070788774400,4.3467744140625,0.0013332944303750991,-0.009902695860434322,-0.0022109540477395057
1746576070798739500,4.356739501953125,-0.012881693404912948,-0.007613941035862081,0.009308620691113174
1746576070808703500,4.366703369140625,-0.007943652480840682,-0.014467186197801492,-0.005919699772028252
1746576070818668300,4.376668212890625,-0.006297638839483261,-0.014542982247215695,0.007341439670836553
1746576070828632300,4.38663232421875,-0.014229016360640525,-0.005486637550429441,-0.002522860407968983
1746576070838597600,4.39659765625,-0.020364742636680602,0.000015348266181536017,-0.00032872963086701926
1746576070848561400,4.4065615234375,-0.017969956454634665,0.023226415678113697,-0.002473568772990256
1746576070858526500,4.4165263671875,-0.027247487887740132,0.020535231232224033,-0.014612389655038714
1746576070868490500,4.426490478515625,-0.02066284880042076,0.016780107349250464,0.00511700508701615
1746576070878454500,4.43645458984375,-0.020662264278531073,0.011523990619066171,-0.007643144297460094
1746576070888419300,4.44641943359375,-0.026946459114551544,0.012362035178672522,-0.0061875843274407085
1746576070898383400,4.45638330078125,-0.013927987587451934,0.010524129394139162,-0.009986465153750032
1746576070908348700,4.4663486328125,0.004776712882518768,0.0020723264617612583,0.001038786729518324
1746576070918312400,4.4763125,-0.018716390907764432,-0.010341667233011685,0.0005818367422558367
1746576070928277500,4.486277587890625,-0.014227262794971465,-0.007973362632514908,-0.003446962116099894
1746576070938241500,4.496241455078125,-0.020811317360401153,-0.007532085138419643,-0.001500951748015359
1746576070948206300,4.506206298828125,-0.01662087993323803,-0.007974942668247968,-0.003951386240590364
1746576070958170400,4.51617041015625,-0.007194295418262481,0.0008851944698486477,0.004472313975309953
1746576070968135400,4.526135498046875,-0.0065963295251131055,-0.0021789149416610596,-0.0054739835648331785
1746576070978099500,4.536099365234375,-0.007494155147671699,-0.004173011368326843,-0.007246747124707326
1746576070988063200,4.546063232421875,-0.008839724537730216,0.012811902404599822,0.007830109103769063
1746576070998028500,4.556028564453125,-0.01662087993323803,0.017900087822508067,0.003194284262973815
1746576071007992600,4.56599267578125,-0.0009095160603523254,0.006002637948282063,-0.008761371205048635
1746576071017957400,4.575957275390625,-0.009289806392788886,0.011014182499982416,-0.007257606445439159
1746576071027921400,4.58592138671875,-0.009738719204068184,0.0025256094874814153,0.010219598056189716
1746576071037886500,4.595886474609375,-0.009589081600308417,0.0025725356354378164,0.015743539976282046
1746576071047850500,4.6058505859375,-0.011234510719776153,-0.010428098840871826,-0.00393481869827956
1746576071057815600,4.615815673828125,-0.025749942806363103,-0.0068214572176104405,-0.006450637444108724
1746576071067779600,4.625779541015625,-0.008840309059619904,0.0021399803039152173,-0.00589210851220414
1746576071077744400,4.635744384765625,-0.0010597381860017775,-0.01364042565061245,0.010053319844882934
1746576071087708400,4.64570849609375,-0.012132920864224433,-0.010841775941988452,0.0012502283899579196
1746576071097672400,4.65567236328125,-0.02111117708981037,-0.01236398967374116,-0.01834134705029428
1746576071107637500,4.665637451171875,-0.02111176161170006,-0.013800666846777311,-0.002132491117203608
1746576071117601300,4.675601318359375,-0.009290975436568259,-0.005552304931473918,-0.0017745901907794176
1746576071127566300,4.68556640625,-0.004952069449424743,-0.0027227897271281105,-0.0033369898024480787
1746576071137530600,4.695530517578125,-0.005700841990113258,0.011239232560666277,0.0011575451378244906
1746576071147495400,4.705495361328125,-0.030391046610474585,0.020985372452787122,0.014908057266520336
1746576071157459500,4.71545947265625,-0.017073299875855444,0.011419247036380692,0.0038451493871398267
1746576071167424500,4.725424560546875,-0.013631634989380836,-0.0032432608041213823,-0.005615182133810594
1746576071177388500,4.735388427734375,-0.006149754801392555,-0.007879597101570107,-0.0009373995811212808
1746576071187353300,4.745353271484375,-0.016624387064576147,0.0005225945354206487,-0.0028045451598707584
1746576071197317400,4.7553173828125,-0.02799801399409771,0.0008236233086092397,0.0011716010626405477
1746576071207281400,4.765281494140625,-0.008545710027217865,0.0014476004258496685,0.005412225173925981
1746576071217246500,4.77524658203125,-0.02829728920161724,0.0025985103269107637,0.0028727972236461934
1746576071227210500,4.78521044921875,-0.021264321824908256,-0.0011628423674497753,0.004497174421930685
1746576071237175600,4.795175537109375,-0.007048164945840835,-0.011046495600696652,0.014791518214764073
1746576071247139300,4.805139404296875,-0.006749474260210991,0.0020400316273560745,0.0023724830186925825
1746576071257104400,4.8151044921875,-0.01737374412715435,-0.0039108030684525145,-0.0037809889765921976
1746576071267068400,4.825068359375,-0.019918167912960052,-0.003903802505508065,0.0013400803641881794
1746576071277033200,4.835033203125,-0.006151508367061615,0.000708093470428139,0.011860688927257433
1746576071286997500,4.84499755859375,-0.006750058782100677,0.009091986832325346,-0.005526846263231709
1746576071296962600,4.854962646484375,-0.016775193712115288,0.0011364475508686155,0.0028472517904359848
1746576071306926600,4.864926513671875,-0.012286650121212005,-0.0009005381694529205,-0.00029796003326773644
1746576071316890400,4.874890380859375,-0.0083960724234581,0.0036133225257974117,0.017818154293252154
1746576071326855400,4.88485546875,-0.011838321831822395,-0.004723101265449076,0.007492091054748743
1746576071336819500,4.8948193359375,-0.01782324146032333,-0.004454463224788196,-0.003456460596807301
1746576071346784300,4.9047841796875,-0.021714403679966927,0.0012339120093965903,0.008267276678327471
1746576071356748300,4.914748291015625,-0.02665244460403919,0.00901970704740379,0.0013931257256772369
1746576071366713600,4.924713623046875,-0.01931961749792099,0.004955996705871075,-0.002969964854652062
1746576071376677400,4.934677490234375,-0.020516718327999114,0.010648564057983458,-0.003004798706015572
1746576071386642200,4.94464208984375,-0.005851064115762711,0.005264304603217169,0.0006445632475428283
1746576071396606200,4.954606201171875,-0.009890694895386696,0.011122666109446436,0.008194056178489699
1746576071406571300,4.9645712890625,-0.016774024668335913,-0.003943947286228649,0.007567759239999577
1746576071416535000,4.97453515625,-0.014080547800660132,-0.013777738062338903,-0.002834036115836352
1746576071426499000,4.9844990234375,-0.02156125894486904,0.002125189160159789,0.005602368318010122
1746576071436464400,4.99446435546875,-0.03024140900671482,-0.010391429225448518,0.002699660013290122
1746576071446428400,5.004428466796875,-0.01782148789465427,-0.005632343331165611,0.0025672384058125315
1746576071456393200,5.014393310546875,-0.007347440153360366,-0.007697112107556313,-0.006852313580177724
1746576071466357200,5.024357177734375,-0.014980126988887786,-0.012275105813890694,0.004902375955646857
1746576071476322000,5.034322021484375,-0.005403320348262786,-0.012892315263627096,0.0161224654244259
1746576071486286000,5.0442861328125,-0.014231354448199271,0.007587263091490604,0.0017228234709240496
1746576071496251400,5.05425146484375,-0.01303542266190052,-0.0026618898527463897,-0.016607938253274186
1746576071506215400,5.06421533203125,-0.020966215661168096,0.017041274469508788,-0.00626671397825703
1746576071516180200,5.07418017578125,-0.004057166436314583,0.023954720819508654,0.004502151991147548
1746576071526144300,5.084144287109375,-0.007049918511509895,0.00838381116350647,-0.004753934795130044
1746576071536109300,5.094109375,-0.021713819158077238,-0.0043760413934476675,-0.008833660123124719
1746576071546073000,5.104072998046875,-0.014081716844439505,-0.0044713504275074225,0.002983372325496748
1746576071556037000,5.114037109375,-0.02216214744746685,-0.002307190096983686,0.02746686625946313
1746576071566002200,5.124002197265625,-0.011088380247354507,-0.00865380091103725,0.011611490806005894
1746576071575966200,5.13396630859375,-0.008694178587198257,0.002618105509947054,0.006337687722081318
1746576071585931300,5.14393115234375,-0.009293313524127007,-0.00470533727989532,-0.00571435905881226
1746576071595895300,5.153895263671875,-0.006150923845171928,-0.0040621851047268134,0.005681607566680759
1746576071605860400,5.1638603515625,-0.007047580423951149,0.002468536404846236,-0.005307814951380715
1746576071615824100,5.17382421875,-0.019617723661661146,-0.0034643379425862804,-0.011889814557041972
1746576071625789200,5.1837890625,-0.01123860237300396,-0.013299379960866645,-0.005094400529563427
1746576071635753200,5.193753173828125,-0.01752279720902443,0.0010150861935224384,0.003829394695581868
1746576071645718300,5.20371826171875,-0.02171206559240818,0.010424358814093284,0.008587293279776349
1746576071655682300,5.213682373046875,-0.017072715353965758,0.0003647827583597973,-0.007311583388689905
1746576071665646300,5.223646240234375,-0.01393032567501068,0.007186596168996766,-0.008945696529699489
1746576071675611100,5.233611083984375,-0.007495324191451072,0.01391469884761609,0.0018181462047155946
1746576071685575200,5.2435751953125,-0.014528876090049743,0.010031555537646637,0.001695999396080151
1746576071695540200,5.253540283203125,-0.02066460236608982,0.01363688655323349,-0.006465031295642257
1746576071705504300,5.263504150390625,-0.0197679457873106,-0.008160336571978405,-0.006675386110693216
1746576071715469000,5.273468994140625,-0.020516133806109428,-0.005028550485428422,-0.005454986603418365
1746576071725433300,5.283433349609375,-0.0045054947257041926,-0.001887106087966822,0.0028061434619128705
1746576071735398400,5.2933984375,-0.009594342297315596,-0.009282052344596012,0.006748487879522144
1746576071745362200,5.303362060546875,-0.01812310118973255,-0.014101832617283799,0.0032834786500781773
1746576071755327200,5.3133271484375,-0.014978957945108413,-0.00026558300047181547,-0.009843047228222712
1746576071765291300,5.323291259765625,-0.020514380240440368,0.0005268551520071923,-0.014242542562494053
1746576071775255300,5.33325537109375,-0.030391046610474585,-0.0036133407921064642,-0.002117174817062914
1746576071785220000,5.34322021484375,-0.028745032969117162,0.0078857985134935,0.015254633081331848
1746576071795184000,5.35318408203125,-0.01542611719071865,-0.0026601317205000668,0.014296227244799956
1746576071805149400,5.3631494140625,-0.017070961788296698,0.010435679359128699,0.0012081154144369065
1746576071815113200,5.37311328125,-0.02350537874996662,0.0026416873149340972,0.007612959221750497
1746576071825078300,5.383078369140625,-0.008391980770230293,-0.004054947079764679,-0.00046507849479094146
1746576071835042300,5.393042236328125,-0.01752104364335537,-0.0022352619385113937,0.013526137921446933
1746576071845007000,5.403007080078125,-0.011236264285445212,-0.0022944493464194236,-0.00960212374497205
1746576071854971100,5.41297119140625,-0.024404373416304588,-0.014316247119521721,-0.004319890759419649
1746576071864936400,5.4229365234375,-0.023206688064336775,-0.004409231276996433,-0.0023855160302016882
1746576071874900200,5.432900146484375,-0.007343933022022247,0.0065445582386804745,0.000693188162241131
1746576071884864300,5.4428642578125,-0.019313187757134437,0.007477473440929316,0.005997194588184356
1746576071894829300,5.452829345703125,-0.031732524347305294,-0.00022036475241184232,-0.003742173069855198
1746576071904793300,5.46279345703125,-0.007640870141983031,0.0008270162755157798,-0.008573931474704295
1746576071914758100,5.472758056640625,-0.01841419309079647,-0.014118774618930182,0.00351430999757722
1746576071924722200,5.48272216796875,-0.017666589593887328,-0.0037418214434059333,0.004728864285955205
1746576071934687200,5.492687255859375,-0.030834114202857015,-0.013622305472032166,0.006637985842907801
1746576071944651000,5.502651123046875,-0.028141221857070922,-0.010619214665913023,-0.010240640844218432
1746576071954616300,5.5126162109375,-0.02215630222856998,-0.0038747773404233157,-0.006589324395591393
1746576071964580400,5.522580322265625,-0.007342179456353187,0.0014968052958603947,0.0015097926415968686
1746576071974545200,5.532545166015625,-0.011980945172905922,0.0065476498114876444,-0.004041512209456414
1746576071984509200,5.54250927734375,-0.019762100568413734,0.005754974196990952,-0.017782617188990116
1746576071994474200,5.55247412109375,-0.00868833336830139,0.011580122986785136,0.0046514151355717325
1746576072004438300,5.562438232421875,-0.025597382593154906,-0.0003836153229931369,0.004957275347504764
1746576072014402000,5.572402099609375,-0.028589550146460533,-0.0005678721489850431,-0.008896331829484551
1746576072024367400,5.582367431640625,-0.017816227197647094,0.010258916286425664,-0.012128911409387363
1746576072034331400,5.592331298828125,-0.003452186280488968,0.008871010158560238,0.005289576041791587
1746576072044296200,5.602296142578125,-0.012280804902315139,-0.0029712115302449093,0.010246011139079927
1746576072054260200,5.61226025390625,-0.024400866284966467,-0.005396543547604233,-0.004612243035808206
1746576072064225300,5.622225341796875,-0.031135727497935292,-0.008850492526916786,0.008348397356830536
1746576072074189300,5.632189208984375,-0.01168166996538639,-0.007572494780621491,0.005274990394013002
1746576072084154000,5.642154052734375,-0.007640285620093345,0.011259873489895834,0.005048049770342186
1746576072094118400,5.652118408203125,-0.019611293920874594,0.006489695379440673,-0.006347295800643042
1746576072104083200,5.662083251953125,-0.01661912636756897,-0.0020179613594431428,-0.018146281135920435
1746576072114047200,5.672047119140625,-0.014971943682432173,-0.004069108035857789,-0.011748396792355923
1746576072124011300,5.68201123046875,-0.006143325060606003,0.002194368239119649,0.007420368392253294
1746576072133976300,5.691976318359375,-0.010183540362119674,0.011342907564272172,0.008169323596032336
1746576072143940000,5.701940185546875,0.0011889175236225128,0.004935109181469306,-0.0008207965972833335
1746576072153905200,5.7119052734375,-0.014971943682432173,-0.004067395569384098,0.00843553678416647
1746576072163869200,5.721869140625,-0.010930559337139129,0.00668943746893201,-0.0024022114366758613
1746576072173834200,5.731834228515625,-0.01347498312294483,0.010110009335028007,0.003752192140370607
1746576072183798300,5.74179833984375,0.0044815293282270425,0.00306500446065329,0.008755169793125241
1746576072193763300,5.751763427734375,-0.009435352343320847,-0.011285848181368782,0.014013172519719227
1746576072203727400,5.761727294921875,-0.02409925298988819,0.0024385568251134825,0.003194183798274025
1746576072213692200,5.771692138671875,-0.015717793613672256,0.005677684876811691,-0.018929942326899617
1746576072223656200,5.78165625,-0.016166706424951553,0.0015574311756063252,-0.003884047492267564
1746576072233620200,5.7916201171875,0.00478314262330532,0.013046925870026461,-0.004487602875987068
1746576072243585300,5.801585205078125,-0.005392798954248428,-0.005192138982727192,0.004979441513540223
1746576072253549300,5.81154931640625,-0.008535188633203506,-0.01402656172425486,-0.006851619460433721
1746576072263514400,5.821514404296875,-0.010929974815249443,0.011102011480485088,-0.0024644812842365355
1746576072273478100,5.83147802734375,-0.003747369834780693,0.009453709983918816,0.026117534009739755
1746576072283443200,5.841443115234375,-0.013323591953516005,0.0025918796567246318,0.0036963429004419593
1746576072293407200,5.8514072265625,-0.008684826236963272,0.0022262018492212516,-0.0022664196951780466
1746576072303372000,5.8613720703125,-0.013771920242905616,0.004300227077724412,-0.00035948096215724946
1746576072313336000,5.871336181640625,-0.02065466549396515,0.01082441838181112,0.0023553400876466183
1746576072323301400,5.88130126953125,-0.01945814918577671,0.0025977294421987607,-0.006599763591215014
1746576072333265400,5.891265380859375,-0.021403438034653662,-0.013983339070458895,-0.0031684739682823417
1746576072343229200,5.901229248046875,-0.0112280809789896,-0.01319281431385316,-0.009910212446609511
1746576072353194200,5.9111943359375,0.0031377135038375852,-0.009329567581019363,0.014887051011109724
1746576072363158300,5.921158203125,-0.014070610928535461,-0.010735274227056653,0.0005636617647483944
1746576072373123000,5.931123046875,-0.00988134254515171,-0.0007076505124336108,-0.005541578041482717
1746576072383086600,5.941086669921875,-0.005241992306709289,-0.012736156587535515,0.00818541621430777
1746576072393051600,5.9510517578125,-0.02125321590900421,0.0029521734696347263,0.0025052151534240693
1746576072403015700,5.961015625,-0.0070364745080471035,-0.0035831694161286573,0.010867248309962451
1746576072412980500,5.97098046875,-0.004642857369780541,-0.005165666534332558,-0.012196094894083217
1746576072422944500,5.980944580078125,-0.027537995266914365,0.0008736410293728112,-0.010191285277158022
1746576072432909800,5.990909912109375,-0.02978255932331085,0.0037170294954441485,0.00012957206326536834
1746576072442873600,6.00087353515625,-0.0034457565397024155,0.0017212206023046745,-0.0036538280661217865
1746576072452837600,6.010837646484375,-0.01122632741332054,-0.01135298143371474,-0.014610270763188599
1746576072462802700,6.020802734375,-0.018108488142490387,0.00524682374545373,-0.002432633974403143
1746576072472766700,6.0307666015625,-0.012871756532788275,0.003029033531551249,0.007062257403274997
1746576072482731500,6.0407314453125,-0.01855798547565937,-0.0023762093457393345,0.003007209858810529
1746576072492695600,6.050695556640625,-0.026788053682446477,-0.003595544840511866,-0.004735147896269336
1746576072502660600,6.06066064453125,-0.021700959676504133,-0.01391981798072811,-0.004864345500199124
1746576072512624400,6.070624267578125,-0.011376549538969993,-0.012118047522078268,-0.017690335795655845
1746576072522589700,6.080589599609375,-0.021103578305244446,-0.013503601862653158,0.005149126391485333
1746576072532553700,6.0905537109375,-0.013771920242905616,-0.004638573920307681,0.002656697654398158
1746576072542518500,6.1005185546875,-0.01736322273313999,-0.011240639066463335,0.016713343989662826
1746576072552482600,6.110482666015625,-0.011975684475898743,-0.005291124111483804,0.004601520712394267
1746576072562447600,6.120447509765625,-0.01990647747516632,0.0028087829435709862,-0.005443661491805687
1746576072572411600,6.13041162109375,-0.01182721591591835,0.0018419654717203228,-0.01646816445640288
1746576072582375400,6.14037548828125,-0.016017068821191787,0.006019337921333499,-0.0022346363174263386
1746576072592340700,6.1503408203125,-0.010181786796450614,-0.005528490231046452,0.014159905780339613
1746576072602304800,6.1603046875,-0.02320084284543991,-0.0035808358951471744,0.0020915563186164944
1746576072612269600,6.17026953125,-0.005992518413066863,0.0011876617148751391,-0.009387604211457073
1746576072622233600,6.180233642578125,-0.013622867161035538,0.004412391348462551,-0.00857504571955651
1746576072632198700,6.19019873046875,-0.013023732224106788,0.0030954772307304665,0.001216435718210414
1746576072642162700,6.20016259765625,-0.001651274338364601,-0.004972463783482089,0.01481604073466733
1746576072652127500,6.21012744140625,-0.009731704941391944,-0.004660178397339769,-0.003728436805447563
1746576072662091800,6.220091796875,-0.017963526713848113,0.011700004773098044,-0.0021311485434882343
1746576072672056600,6.230056640625,-0.006740121909976005,-0.005647513500833884,-0.0017211064378730952
1746576072682020600,6.2400205078125,-0.017515198424458502,-0.014609430512972175,-0.00029756730762310325
1746576072691984600,6.249984619140625,-0.015570494097471237,-0.0033789612140739333,-0.004877022318681702
1746576072701949700,6.25994970703125,-0.020807810229063032,0.0002079436622560024,-0.007093501924909651
1746576072711913500,6.26991357421875,-0.018113748839497564,-0.0013364271023776381,-0.008484253030410036
1746576072721878500,6.27987841796875,-0.003598316752910614,0.01168490310208872,0.018427746692113577
1746576072731842600,6.289842529296875,-0.021256138518452643,0.0049778203786117955,0.007366227052221074
1746576072741807600,6.2998076171875,-0.01676759492754936,-0.005613131740619428,-0.008771773868054151
1746576072751771600,6.309771728515625,-0.008387889117002487,-0.011556984139792621,-0.012506868743151425
1746576072761736700,6.31973681640625,-0.0073415949344635,0.002282009989954531,0.008799100266396999
1746576072771700700,6.32970068359375,-0.0025531916141510007,-0.003462630042689852,-0.0000052424306981265545
1746576072781665500,6.33966552734375,-0.018713468298316,-0.001667864713561721,-0.011536133148008956
1746576072791629600,6.349629638671875,-0.01961187844276428,-0.002314021696569398,-0.006451441161707043
1746576072801594400,6.359594482421875,-0.021108254480361938,0.009411446311348118,0.009162042694119736
1746576072811558700,6.36955859375,-0.013926234021782875,0.0033517855127807705,0.0049640978139359505
1746576072821522700,6.379522705078125,-0.016320435681939124,-0.003402844413160346,-0.006220673746289685
1746576072831487700,6.38948779296875,-0.008988193097710609,0.00943564460426569,0.007112617617333308
1746576072841451500,6.399451416015625,-0.0067442135632038115,-0.0015635960549116134,-0.009177605589432642
1746576072851416600,6.40941650390625,-0.017369067952036858,-0.011104751426842994,0.0035677389515563845
1746576072861380600,6.419380615234375,-0.017219430348277092,-0.005664062776835635,0.0012079692839644849
1746576072871345400,6.429345458984375,-0.02051204215288162,0.004520550730940886,0.0022168723318725823
1746576072881309400,6.439309326171875,-0.017668927681446074,-0.004126254183729179,0.004329398373281583
1746576072891274800,6.449274658203125,-0.020213351467251776,-0.006826379987900145,-0.005216118079936131
1746576072901238800,6.45923876953125,-0.0034527708023786544,0.0024174638047348707,-0.002277534744236618
1746576072911203600,6.46920361328125,-0.017219430348277092,-0.014489964285190216,0.01816986294090748
1746576072921167600,6.479167724609375,-0.011532616883516311,0.010164794562454334,0.01051225172667764
1746576072931131600,6.489131591796875,-0.02679506794512272,0.0006993804410099983,-0.009108211881341413
1746576072941096400,6.499096435546875,-0.04026245228350162,0.010523353076004422,-0.005573087424598634
1746576072951060500,6.509060546875,-0.020810148316621778,0.00018438925673253833,-0.0020899123508017507
1746576072961025800,6.51902587890625,-0.00644493835568428,0.004656420104252174,-0.0068732467703521245
1746576072970989800,6.52898974609375,-0.017967033845186234,0.0028775327642681075,0.0002961516686715185
1746576072980954600,6.53895458984375,-0.0039010990917682647,0.009025036243069917,-0.0006149809600319713
1746576072990918700,6.548918701171875,-0.01961246296465397,-0.004727028521895408,-0.0032114637266378847
1746576073000883500,6.558883544921875,-0.0022545009285211562,0.00993644743298646,0.00428981528156437
1746576073010847500,6.568847412109375,-0.012578911066055297,-0.0007277571521233767,-0.0045627687377389516
1746576073020812500,6.5788125,-0.011530278795957565,-0.005454086987697519,-0.009120158047461881
1746576073030776600,6.588776611328125,-0.011681085443496704,0.0033772441810229793,-0.006903221783507615
1746576073040741600,6.59874169921875,-0.01676934849321842,0.002731927448231727,0.008005118610803037
1746576073050705700,6.60870556640625,-0.019313772279024123,-0.009691523628053254,0.00249887674418278
1746576073060669700,6.618669677734375,-0.016918986096978186,-0.005414033538522199,0.00879341031112708
1746576073070634500,6.628634521484375,-0.023953122517466542,0.0020609602509532123,0.015334228523029014
1746576073080598500,6.6385986328125,-0.01347849025428295,-0.002793663006252609,0.0050385878222528845
1746576073090563600,6.6485634765625,-0.018567337825894356,-0.00552042108902242,-0.004268407167354598
1746576073100527600,6.658527587890625,-0.014378069442510605,-0.002642440800182521,-0.0013495240459684282
1746576073110492700,6.66849267578125,-0.013330606216192245,0.0058780206213472404,-0.005546774806408211
1746576073120456700,6.678456787109375,-0.02081190188229084,0.011613801494101062,-0.004589346217410638
1746576073130421800,6.688421875,-0.02470189505815506,0.0066971458513522516,0.017813194990344346
1746576073140385500,6.698385498046875,-0.01692015514075756,0.002062165827350691,0.001134703118354082
1746576073150350600,6.7083505859375,-0.017369067952036858,-0.003188197015482001,0.006518752510566264
1746576073160314600,6.718314697265625,-0.020362404549121856,0.009817145601985976,0.00236402571760118
1746576073170278700,6.728278564453125,-0.025898411366343497,-0.000984047167864628,-0.0069289681461174035
1746576073180243700,6.73824365234375,-0.03083703681230545,-0.004082264344953001,-0.0030043694477528333
1746576073190207700,6.748207763671875,-0.016022329518198965,0.009245501460181549,-0.0027777028187178075
1746576073200172500,6.758172607421875,-0.013777765461802483,-0.010030404760176316,0.005706550211692228
1746576073210136600,6.768136474609375,-0.010635375782847404,-0.0062581653456203635,0.018720802221400663
1746576073220101600,6.7781015625,-0.0067442135632038115,-0.009280157215031795,-0.0025520408366806802
1746576073230065700,6.788065673828125,0.0004383914172649383,-0.008948221846926025,0.0014868044916540384
1746576073240030500,6.798030517578125,-0.018266309052705765,-0.013337373883696272,0.01856084415302612
1746576073249994500,6.807994384765625,-0.006594575959444046,-0.0049938718976918605,-0.005344082708004861
1746576073259959800,6.817959716796875,-0.01497428176999092,0.008953829603805205,-0.008952610327675938
1746576073269923600,6.827923583984375,-0.01781739624142647,0.012688618518225848,0.0028638193327467885
1746576073279887600,6.8378876953125,0.005675707548856735,-0.005589444904355332,-0.007445685496600345
1746576073289852700,6.847852783203125,0.014354104045033454,0.007326666793390176,-0.0017359478139784186
1746576073299816700,6.857816650390625,-0.004948562318086624,-0.003053875711862929,0.003917255642125383
1746576073309781500,6.867781494140625,-0.017069208222627637,-0.0032291272474918513,0.0016770937662106006
1746576073319745500,6.87774560546875,-0.0070423197269439694,0.0000591782747535035,0.00158892229241319
1746576073329710800,6.8877109375,-0.022007249146699905,-0.0009345683032181113,-0.005228621368482709
1746576073339674600,6.897674560546875,-0.016022329518198965,-0.011856067551067098,-0.011288652059808373
1746576073349639700,6.9076396484375,-0.021408114209771154,-0.009988721042918041,0.0012077226887922733
1746576073359603700,6.917603759765625,-0.010784428864717482,0.00020198884550482032,0.014089735754113644
1746576073369568500,6.927568603515625,-0.020809563794732092,-0.003548495394969359,0.004907106929691508
1746576073379532500,6.937532470703125,-0.0049468087524175645,-0.010456713014002889,0.00812726541943848
1746576073389497600,6.94749755859375,-0.026195933008193967,-0.006403040009294636,-0.004694066967209801
1746576073399461600,6.957461669921875,-0.014373977789282798,0.004500252295006066,-0.006980351273482665
1746576073409425400,6.96742529296875,-0.014374562311172484,-0.003387569212215021,-0.007833442705171183
1746576073419390500,6.977390380859375,-0.011681085443496704,-0.0027833745076786725,0.0006794975636061281
1746576073429354500,6.9873544921875,-0.012578911066055297,0.016645315688173287,-0.01815893968809396
1746576073439319300,6.9973193359375,-0.018264555487036704,0.011253320451523177,0.010069038003822788
1746576073449283600,7.00728369140625,-0.00883738645017147,0.0052696383654605595,0.017507782302983103
1746576073459248600,7.01724853515625,-0.010782675299048423,-0.004587012696429155,-0.01735175149105489
1746576073469212400,7.02721240234375,-0.0073415949344635,0.0006064414605498313,-0.0011956943242810666
1746576073479177500,7.037177490234375,-0.018414777612686156,-0.002798731907014735,0.0067124210522975765
1746576073489141500,7.0471416015625,-0.013776011896133422,0.005046081575541757,-0.0031704101970419286
1746576073499106300,7.057106201171875,-0.02739361836016178,-0.0019429416281636803,0.0014697254926897584
1746576073509070300,7.0670703125,-0.0050970308780670165,-0.014561869610776193,0.008038536823214962
1746576073519034400,7.077034423828125,-0.006143909582495689,-0.014497969495132565,0.006143772585177794
1746576073528999700,7.086999755859375,-0.01706687013506889,0.0003053898544749245,-0.008313645703857763
1746576073538963500,7.09696337890625,-0.007639701098203658,-0.014949941913178189,-0.008451483271969483
1746576073548928500,7.106928466796875,-0.008387889117002487,0.011563975569582543,0.0012362272640690207
1746576073558892500,7.116892578125,-0.010931143859028816,-0.01230622247136198,0.014638830137392506
1746576073568857300,7.126857421875,-0.013325930041074753,0.003453926146426238,0.00836877342457883
1746576073578821400,7.1368212890625,-0.03098258276283741,-0.006893536073132418,-0.019231528222514314
1746576073588786700,7.14678662109375,-0.0202080907702446,-0.011131205608928576,-0.0044439007315784694
1746576073598750500,7.15675048828125,-0.0010544774889945983,-0.004548484484059736,0.011271043337881564
1746576073608715500,7.166715576171875,-0.005544190123677253,0.010906945566111244,0.02178906721821986
1746576073618679600,7.176679443359375,-0.017664251506328582,0.012247478021448478,0.008596225504903122
1746576073628644400,7.186644287109375,-0.004944470664858818,-0.006913880174839869,-0.002080295139085501
1746576073638608400,7.1966083984375,-0.010181786796450614,-0.00824001877864357,-0.009911838148115202
1746576073648572400,7.206572509765625,-0.015119243198633192,-0.004711885751690716,-0.0058949215237982565
1746576073658537500,7.216537353515625,-0.021852935367822644,0.005137230457714759,0.004281029186910018
1746576073668501500,7.22650146484375,-0.018860183292627335,-0.003461100239306688,0.007383032056549564
1746576073678466600,7.236466552734375,-0.004195698124170303,0.010757075066911056,0.008279158912366255
1746576073688430600,7.2464306640625,-0.013024316745996474,0.0030379474903689694,-0.008173981504840775
1746576073698395400,7.2563955078125,-0.0037467853128910064,-0.005099437464284711,-0.019243200393998995
1746576073708359400,7.266359375,-0.019757424393296242,0.0013835450465790927,0.0044101628587581215
1746576073718324500,7.276324462890625,-0.015119243198633192,0.0015866618366679175,-0.0006376037837937474
1746576073728288500,7.28628857421875,-0.004494973331689835,0.0018864211013773454,0.012078012339212
1746576073738253600,7.296253662109375,-0.005692074161767959,0.00846444778481964,-0.005151647142134607
1746576073748217600,7.306217529296875,-0.019907061997056007,0.0008840939247282221,-0.003867644346738234
1746576073758182400,7.316182373046875,-0.014819383469223976,0.011735993968509138,0.00707985699204728
1746576073768146400,7.326146484375,-0.021403438034653662,0.011715133843570947,0.004992246196186169
1746576073778110500,7.3361103515625,-0.011976853519678116,0.012642564586526713,0.01937901040180586
1746576073788075500,7.346075439453125,-0.011078443375229835,-0.005323144951253198,0.003956637804443016
1746576073798039600,7.35603955078125,-0.008085106778144837,0.003350812831823714,-0.011242493096832186
1746576073808004400,7.36600439453125,-0.022151041531562804,0.001753739198995754,0.002951844676071778
1746576073817968600,7.37596875,-0.020952771657705305,0.008889052705327048,0.004036224112985655
1746576073827933400,7.385933349609375,-0.008981763356924057,0.010686439249804242,0.01614046687199734
1746576073837897500,7.3958974609375,-0.013470306947827339,0.01176371765907388,0.008761590400757267
1746576073847862500,7.405862548828125,0.0010439560949802398,0.011345487680425866,0.0059576936948578805
1746576073857826600,7.41582666015625,-0.01870703855752945,-0.014308990828250535,-0.036009991603950034
1746576073867791400,7.425791259765625,-0.016911387312412263,0.0014822607472771779,-0.01841085948939435
1746576073877755400,7.43575537109375,-0.010177110621333122,-0.00557446196435485,-0.007520212037535384
1746576073887720700,7.445720703125,-0.01406710379719734,0.011860949222161434,0.005033984712371603
1746576073897684500,7.4556845703125,-0.013917466193437575,-0.010473769180080852,0.010705143950274214
1746576073907648500,7.4656484375,-0.010026888495683669,-0.011085526136565022,-0.010068444348778575
1746576073917613600,7.475613525390625,-0.012869418445229529,-0.012302391113038174,-0.005451324208453298
1746576073927577600,7.48557763671875,-0.025437808117270467,-0.004477588372048921,-0.004924551254836842
1746576073937542400,7.49554248046875,-0.017357377514243124,0.004669343517906963,0.013892843208834528
1746576073947506400,7.50550634765625,-0.017955927929282186,0.005758403696515597,0.0030384726467542348
1746576073957471500,7.515471435546875,-0.015262451061606406,0.004819451479124836,0.005014686356857419
1746576073967435500,7.525435546875,-0.01855447834432125,0.0015007234191522002,-0.016982004863210023
1746576073977400600,7.535400634765625,-0.02349135022461414,-0.0018052867231424896,-0.01587292024330236
1746576073987364600,7.545364501953125,-0.026333880174160003,-0.005911023275228217,-0.01679391667889431
1746576073997329400,7.555329345703125,-0.017505846074223518,-0.004096644496754743,0.000585261675203219
1746576074007293400,7.56529345703125,-0.013764905980229378,0.006221568795433267,0.02438075507869944
1746576074017257500,7.575257568359375,-0.014961422288417816,-0.014527099691494367,-0.018814380522677674
1746576074027222300,7.58522216796875,-0.021096564042568204,-0.013894482610072008,-0.013413179066265001
1746576074037186300,7.595186279296875,-0.027080899149179456,-0.003223300294904038,0.0012008910892065613
1746576074047151600,7.605151611328125,-0.0182516960054636,0.002257364172465168,0.0025179833034519104
1746576074057115600,7.61511572265625,-0.013462708163261413,-0.005105177651904523,0.005813837377913296
1746576074067080400,7.62508056640625,-0.015108721804618835,-0.0047926319708582014,-0.001839947044569999
1746576074077044500,7.63504443359375,-0.030521394991874694,-0.008867183366813696,-0.012762505738344043
1746576074087009500,7.645009521484375,-0.034112697482109065,0.009670645236806013,0.001917569724889472
1746576074096973300,7.654973388671875,0.02319733571410179,-0.0022906408209819344,0.004566595529485493
1746576074106938600,7.664938720703125,-0.01675531996786594,-0.007553342555579729,-0.00954737961674109
1746576074116902700,7.674902587890625,-0.036656536746025085,0.01172717134123668,0.006272203004127368
1746576074126867500,7.684867431640625,0.015417933884263038,0.011368051138683222,0.0026721052860841153
1746576074136831500,7.69483154296875,-0.02064414409995079,0.0018807083132211118,-0.00002697020531632006
1746576074146796500,7.704796630859375,-0.0384510189473629,-0.0027632176356390116,-0.007824099488090723
1746576074156760600,7.714760498046875,-0.010769815817475319,-0.004785435045091435,0.0027591899144928903
1746576074166725400,7.724725341796875,-0.020944588351249693,0.021091650405433027,0.003935394087014719
1746576074176689400,7.734689453125,-0.01376256789267063,0.0035914805867476385,-0.000820732665201649
1746576074186653400,7.7446533203125,-0.005233224478363991,-0.003016032486082986,0.010131554446555674
1746576074196618500,7.754618408203125,-0.021394085684418678,0.008036057171761058,0.004934131933934986
1746576074206582500,7.76458251953125,-0.022441548910737037,-0.0018843478752998634,0.002402129238285124
1746576074216547600,7.774547607421875,-0.023039514803886413,-0.0030061869455035774,-0.002120809812564403
1746576074226511400,7.784511474609375,-0.004632920497655868,0.0012780114460270852,0.01501657740860246
1746576074236476400,7.794476318359375,-0.0122650228112936,-0.0011619701511925086,0.01195781089249067
1746576074246440400,7.8044404296875,-0.005531915163993835,-0.00413915019792039,0.01126406560782343
1746576074256405500,7.814405517578125,-0.013911036452651022,-0.011797222636453806,-0.007766606280347332
1746576074266369500,7.82436962890625,-0.01301321083009243,-0.0005727218540385365,-0.011766252109454945
1746576074276334600,7.83433447265625,-0.013611176723241806,-0.007374807650898583,-0.016088563154824077
1746576074286298600,7.844298583984375,-0.00388473247885704,0.0002122910438105464,0.002948538474133238
1746576074296263400,7.854263427734375,-0.018250526961684225,-0.003563286538724787,0.01600426413854584
1746576074306227500,7.8642275390625,-0.00478314262330532,0.010342872809409162,-0.0025137089871335775
1746576074316192500,7.874192626953125,-0.006130465579032898,0.0057380276287673036,0.007698135020863264
1746576074326156300,7.88415625,-0.008674304842948913,-0.007106347706750967,0.0010703874441795051
1746576074336121600,7.89412158203125,-0.006430325308442115,-0.015899406391428783,0.006202453103009611
1746576074346085600,7.904085693359375,-0.02603285140097141,0.005346274665091187,-0.005604816003423184
1746576074356049700,7.914049560546875,-0.01959843443930149,-0.0046683023382909595,0.004899151952099055
1746576074366014500,7.924014404296875,-0.03022270430624485,-0.0015047739731846377,0.014900969938607886
1746576074375978500,7.933978515625,-0.020794950747489927,0.00007717058917041868,-0.0005736534358002245
1746576074385943800,7.94394384765625,-0.020645897665619847,-0.014580131353251636,-0.014852189760282635
1746576074395907800,7.953907958984375,-0.025734160715341566,-0.015796361575485206,-0.0053720027613919225
1746576074405873000,7.963872802734375,-0.009123802176117897,-0.003907830226654187,-0.00551071711233817
1746576074415837000,7.9738369140625,-0.028276246413588522,-0.004340778283821419,0.0014619623113423586
1746576074425801700,7.9838017578125,-0.02049509101808071,0.008868982598255387,0.007116188680753112
1746576074435765800,7.993765869140625,-0.016604513320326805,0.0011990279256831853,0.00024360863068141042
1746576074445730800,8.003730712890626,-0.02573182262778282,-0.0027279682257445527,-0.0057827389867510645
1746576074455694800,8.01369482421875,-0.013460954597592353,0.007710464779473841,-0.005075321369757875
1746576074465660000,8.023659912109375,-0.00582885228395462,0.01921944505907595,-0.010360266902204603
1746576074475624000,8.0336240234375,-0.013010288220643996,0.002274278774647973,0.000046506022848188875
1746576074485588700,8.043588623046874,-0.020941081219911575,0.008797164037637412,0.005391702975705266
1746576074495552800,8.053552734375,-0.004630582410097122,-0.009376635292870923,-0.012771474496088921
1746576074505517800,8.063517822265625,-0.003731587743759155,-0.008001721077319234,-0.014475556733924895
1746576074515481600,8.073481689453125,-0.01106383032798767,-0.015629352711816317,-0.0019505860785022377
1746576074525446000,8.08344580078125,-0.0064244800895452495,-0.0036769075476098803,0.015092747917352243
1746576074535411000,8.093410888671874,-0.024680267748236655,-0.005651582321175374,0.007454380259709432
1746576074545375000,8.103375,-0.02048983032107353,0.004019670270406641,-0.01976984548345208
1746576074555339800,8.11333984375,-0.008220131334662437,-0.004971075543994083,-0.012225576716894284
1746576074565303800,8.1233037109375,-0.014504910692572592,0.001200365932821296,-0.0059490445975214235
1746576074575268900,8.133268798828125,-0.0058270987182855605,0.009939182812767103,0.0051566247113514685
1746576074585232600,8.143232666015624,-0.023184476232528686,0.008088239450147375,-0.01996865599118173
1746576074595198000,8.153197998046876,-0.019742811346054077,-0.0012855554316658527,-0.0027830639804247766
1746576074605162000,8.163161865234375,-0.01704991900026798,-0.015421267485665156,0.0017130601287353782
1746576074615126800,8.173126708984375,-0.0062765960514545435,-0.011049874867871403,0.001726869458379224
1746576074625090800,8.1830908203125,-0.012411737805604934,-0.012097141731367446,-0.006349049366312101
1746576074635055900,8.193055908203124,-0.014357026654481887,-0.008056346474541351,-0.007512193127861246
1746576074645019600,8.20301953125,-0.0023860183537006375,-0.01664313286424149,0.007478181260405108
1746576074654984700,8.212984619140625,-0.016900865918397904,-0.0001061637882143259,-0.0016997074568178504
1746576074664949000,8.222948974609375,-0.029320202508568764,-0.008249115400551817,-0.002013696176279336
1746576074674913800,8.232913818359375,-0.015554127484560011,0.0016682848386699333,-0.005893040093965828
1746576074684877800,8.2428779296875,-0.01929506757855415,0.0010115927619161083,0.006573450973024591
1746576074694843000,8.2528427734375,-0.021838906842470168,0.010969900400261395,0.005268633718462661
1746576074704807000,8.262806884765626,-0.021540216156840323,-0.0027017332393676043,0.01630629755873233
1746576074714770700,8.272770751953125,-0.005379354950785636,0.006415575263882056,-0.0056697435989510265
1746576074724735700,8.28273583984375,-0.018697101685404775,0.002309907210455276,-0.000353361748624593
1746576074734699800,8.29269970703125,-0.017499416333436966,-0.000718706195987761,-0.008468607936706394
1746576074744664800,8.302664794921874,-0.02109071882367134,-0.004048366641928441,0.006354173066001385
1746576074754628900,8.31262890625,-0.015255436798930168,0.003354210365307517,-0.0024787016058340668
1746576074764594000,8.322593994140625,-0.018098551270365713,-0.003789277314324863,-0.006213714282540604
1746576074774558000,8.332557861328125,-0.008222469422221183,-0.010608706971630454,-0.0033164767373818904
1746576074784522800,8.342522705078125,-0.004631166931986809,-0.014581272997567429,0.0077911927323322736
1746576074794486800,8.35248681640625,-0.01001812066733837,-0.00289589497144334,0.0013321893186774103
1746576074804451600,8.36245166015625,0.003448679149150848,0.009408843362308107,0.0025771570116281508
1746576074814416000,8.372415771484375,0.005543605601787567,-0.00021909524393267927,-0.01966596498386934
1746576074824381000,8.382380859375,-0.030967969715595244,0.00020186554791871457,-0.01696946504204534
1746576074834345000,8.392344970703125,-0.01660334427654743,0.011546882870886474,0.002083994066668674
1746576074844309800,8.402309814453124,-0.015555881050229071,0.002177910294663161,0.012574262290401383
1746576074854273800,8.412273681640626,-0.04129296437501907,-0.005036459797248244,0.0038301527474075554
1746576074864238800,8.42223876953125,-0.009120879566669463,0.0032375297496560957,-0.005934532014979049
1746576074874202600,8.43220263671875,0.005393383476138115,0.0005719409693265334,0.017437511812057344
1746576074884168000,8.44216796875,-0.032764790004491805,-0.015219114243378861,0.0033243312502745535
1746576074894132000,8.452132080078124,-0.030520810469985008,-0.00593654587555211,-0.00902951148878783
1746576074904096000,8.462095947265626,-0.019447627791762352,-0.0067300617402652274,-0.014669572335528208
1746576074914060800,8.472060791015625,-0.014210311660170553,-0.005370911349426024,0.0003056318830698728
1746576074924024800,8.48202490234375,-0.029473347243666646,0.009885520963347516,0.014051367371948434
1746576074933990000,8.491989990234375,-0.007925532302260398,0.001037151894858107,0.004321297265216708
1746576074943953700,8.50195361328125,-0.02917348751425743,-0.007471692154114134,-0.013386674651829526
1746576074953919000,8.5119189453125,-0.03231529267132282,-0.011423503086389973,-0.007900836252421141
1746576074963883000,8.521883056640625,-0.006577040302753448,-0.013071530588320456,-0.005858087511593476
1746576074973847800,8.531847900390625,-0.02064239053428173,-0.01628825501196552,-0.00017182203610427676
1746576074983811800,8.541811767578125,-0.017051088044047355,-0.013861082663969135,-0.009050654741516336
1746576074993777000,8.55177685546875,-0.017201310169696806,0.0008862584823509678,0.00488028285484761
1746576075003740700,8.56174072265625,-0.01166471883058548,-0.006960664758901111,-0.0006925123088061809
1746576075013705700,8.571705810546876,-0.004032616516947746,-0.002351947120740078,0.00556495891707018
1746576075023669800,8.581669677734375,-0.0294710091561079,-0.006886083419038914,-0.006711489470535889
1746576075033634800,8.591634765625,-0.020193477723002434,0.0073267809578217566,-0.01414303684392944
1746576075043598800,8.601598876953124,-0.02019406224489212,0.004532629327801988,0.0030520079817622898
1746576075053564000,8.61156396484375,-0.026178981873393056,-0.0016047043834347277,0.01587599811637774
1746576075063528000,8.62152783203125,-0.021539631634950637,-0.015833072290103882,-0.004676659174682572
1746576075073492700,8.63149267578125,-0.009417816686630248,-0.0015193687541177495,-0.002935569394705817
1746576075083456800,8.641456787109375,-0.014206220006942749,-0.003978461477183737,0.000821198456082493
1746576075093420800,8.6514208984375,-0.011363105535507201,-0.014086059659416787,-0.009227737474627792
1746576075103385900,8.6613857421875,-0.008071662774682044,-0.012263260112470016,0.006807241462590172
1746576075113350000,8.671349853515625,-0.014206804528832434,-0.011662344210408628,-0.007831652606884017
1746576075123315000,8.68131494140625,-0.054010991650819774,-0.008449862137041055,-0.007852120006177575
1746576075133278700,8.69127880859375,0.026492870128154752,-0.0008310805292800069,0.008194695499306544
1746576075143243800,8.701243896484375,-0.040544191834330556,-0.014858263308042659,0.0063613334591500455
1746576075153207800,8.711207763671876,-0.050120998474955554,-0.008142714150319807,-0.005319761117501184
1746576075163172600,8.721172607421876,0.008536942198872566,-0.0055152197575196625,-0.013094578103767707
1746576075173136600,8.73113671875,-0.027076222974061964,0.003021320582553744,0.002428268326539546
1746576075183102000,8.74110205078125,-0.03665186057090759,-0.010048739567887969,-0.004689783517736941
1746576075193066000,8.75106591796875,-0.0016360767692327497,-0.013391035733115859,-0.0003892276464495808
1746576075203030800,8.76103076171875,-0.011212298887968063,-0.0007802590909181162,0.0008507259446661919
1746576075212994800,8.770994873046876,-0.018394319346547127,-0.005365052430797368,-0.0006966222283430397
1746576075222959900,8.7809599609375,0.005547112733125686,0.0004878017832525074,0.005898666117154061
1746576075232923600,8.790923583984375,-0.021986206358671188,-0.015371304563828743,-0.008896523625729605
1746576075242889000,8.800888916015625,-0.007322305712103843,0.010999327424145304,0.006574419087404385
1746576075252853000,8.81085302734375,-0.017348609685897826,-0.0018617798504652454,0.013495286125456913
1746576075262817800,8.82081787109375,-0.006125789403915405,0.004270576291554608,0.0006225340788252651
1746576075272781800,8.83078173828125,-0.02468085227012634,-0.00549431396680884,-0.0075934690699912604
1746576075282745900,8.840745849609375,-0.03111585375368595,0.010004544233134948,-0.005335524942213669
1746576075292710700,8.850710693359375,-0.013458616510033607,0.006871680434350855,0.00032138657462783154
1746576075302674700,8.8606748046875,-0.010016951623558997,0.002895346982171759,-0.004193771028565243
1746576075312639700,8.8706396484375,-0.012411153283715247,-0.014653625847725197,-0.009229554972378536
1746576075322603800,8.880603759765625,-0.04069382943809032,-0.015112521196901797,0.005155711395898833
1746576075332568800,8.89056884765625,-0.0011895020455121993,-0.009210224650823511,-0.00639012116221711
1746576075342532900,8.900532958984375,-0.018098551270365713,0.0015040296210907399,-0.01011911509009078
1746576075352498000,8.910497802734374,-0.04922375737428665,-0.017016254192683846,0.006562710383301601
1746576075362461700,8.920461669921876,0.014220833054184912,-0.0013937970125349238,0.003979534622840583
1746576075372426800,8.9304267578125,0.0023994623571634292,0.0002705697028432041,-0.004097260984685272
1746576075382390500,8.940390625,-0.043240006789565084,-0.0062122986435890195,-0.010517969081411137
1746576075392355300,8.950355224609375,-0.017651976546645163,-0.007499064218229614,-0.007825213732942938
1746576075402319400,8.9603193359375,0.0007528641939163207,-0.0038801111026667058,0.0028166283233091232
1746576075412284400,8.970284423828126,-0.017503507986664772,0.004900275330105796,0.005515301955910399
1746576075422248400,8.98024853515625,-0.01241582945883274,-0.0012879254852654412,-0.008521041376842186
1746576075432213500,8.990213623046875,-0.0002951835542917251,-0.01592303386218846,-0.0004258607292547822
1746576075442177500,9.000177490234375,-0.0059808279752731315,0.006620121392654254,0.002533865859173238
1746576075452142600,9.010142578125,-0.026481764212250708,0.011758982118451966,-0.007297856257436797
1746576075462106400,9.0201064453125,-0.015707856741547583,-0.003976954506686888,-0.0018923530852422118
1746576075472071400,9.030071533203126,-0.021842998495697975,-0.010419650672934948,0.0036220903541427105
1746576075482035500,9.040035400390625,-0.024386837759613988,-0.005038350360235199,0.0027499197626486417
1746576075491999500,9.04999951171875,-0.01870002429485321,-0.004022492415155284,-0.0065650667371694
1746576075501964300,9.05996435546875,-0.006579378390312194,-0.007306117195705883,-0.0025473555284086613
1746576075511928600,9.069928466796876,-0.014510171389579772,-0.012747225970821454,-0.006515217979764566
1746576075521893400,9.079893310546876,-0.010468787044286727,0.0020966297859558833,-0.0036434710688889025
1746576075531857400,9.089857421875,-0.011216390541195869,-0.006383600089885294,-0.0023721724914386867
1746576075541822500,9.099822509765625,-0.0028366847306489943,-0.01461412495439872,-0.009429205730324611
1746576075551786500,9.109786376953124,-0.019596096351742743,-0.006495467533101327,-0.002095319178281352
1746576075561751300,9.119751220703124,-0.0188484928548336,0.010313011960685252,-0.00795159832527861
1746576075571715300,9.12971533203125,-0.024534137275815007,0.020603122536395676,0.004577838442707434
1746576075581680600,9.1396806640625,-0.018697686207294464,-0.004849778118729591,-0.007705816003819927
1746576075591644400,9.14964453125,-0.020195231288671494,0.004914892943925224,-0.010779743556445464
1746576075601609500,9.159609375,-0.013911036452651022,0.003423421410308219,0.0064766578013543035
1746576075611573500,9.169573486328124,-0.02408697803020477,0.00003011657705064863,0.0017237367863766847
1746576075621538300,9.179538330078126,-0.02393792494833469,0.001387517968798056,-0.016451861775573343
1746576075631502300,9.18950244140625,-0.019448796835541723,-0.007804412973509169,0.004067907026037574
1746576075641467400,9.19946728515625,-0.015258359408378601,0.0004737778244772926,0.0055599539483897386
1746576075651431700,9.209431640625,-0.007326981887221336,0.0031806758627295493,0.006859684035880491
1746576075661395500,9.2193955078125,-0.01780161415040493,-0.000726989967143163,-0.009443325587222351
1746576075671360500,9.229360595703126,-0.00822656107544899,-0.0018670085814315824,-0.00258687468804419
1746576075681324500,9.239324462890625,-0.00568330633342266,-0.014087982188444583,-0.00565353224966675
1746576075691289300,9.249289306640625,-0.0034399113208055496,-0.006741656279936432,0.00026048670024611054
1746576075701253400,9.25925341796875,-0.01825461861491203,0.00016604531586635857,-0.002205793815432116
1746576075711218400,9.269218505859374,-0.0058364510685205455,0.002618831595731899,-0.009114504624810069
1746576075721182500,9.279182373046876,-0.016162614771723746,-0.003934832398011349,-0.0066222311513498425
1746576075731147500,9.2891474609375,-0.012421674677729606,-0.00870094168812502,-0.00676938453707844
1746576075741111600,9.299111572265625,-0.004341828596591949,0.00004042334193363785,-0.0010722140750847756
1746576075751076400,9.309076416015625,-0.004042553389072418,-0.0010431112781865521,0.01827565226978622
1746576075761040400,9.319040283203124,-0.026937691286206242,-0.005321181323030032,0.008414229134656488
1746576075771005400,9.32900537109375,-0.019455226576328276,-0.008030750808981246,-0.0008821622625458985
1746576075780969500,9.338969482421875,-0.006885667860507965,-0.01326231305322144,-0.012252948781009763
1746576075790934500,9.3489345703125,-0.010627776998281479,-0.005724332463555038,0.002908060333272442
1746576075800898600,9.358898681640625,-0.0011994389176368714,-0.005925006134808063,0.001042458257637918
1746576075810863600,9.368863525390625,-0.02813420759439468,0.0117959211619338,0.009982318701595067
1746576075820827400,9.378827392578126,0.0056838908553123475,-0.0028351092614931983,0.005012174739362672
1746576075830792400,9.38879248046875,-0.009428922602534294,0.0009067167484899982,-0.017928829859802497
1746576075840756500,9.398756591796875,-0.012870587489008902,0.0009835037451703102,-0.0024043120622169226
1746576075850720500,9.408720458984375,-0.006885667860507965,-0.0038378930958686396,0.0034139183630235493
1746576075860685300,9.418685302734374,-0.023345804274082182,-0.0075436979443999005,0.0007078925410285592
1746576075870649300,9.4286494140625,-0.023795301607251167,-0.013334583704988471,-0.000017827917635440826
1746576075880614400,9.438614501953126,-0.01945581109821796,-0.014797751592728309,-0.0057274286029394715
1746576075890578400,9.448578369140625,-0.011823124262690544,-0.0016744771174388006,-0.008205637018429114
1746576075900543500,9.45854345703125,-0.02140051542520523,-0.0017797686893958598,-0.0007273644264787435
1746576075910507500,9.468507568359374,-0.009879004457592964,-0.01178374210037291,-0.0024800898453220723
1746576075920472300,9.478472412109374,-0.022149287965893744,0.000982106372527778,-0.004107270922046154
1746576075930436400,9.488436279296875,-0.02110240926146507,0.0009472588214324787,0.0050938982060644775
1746576075940401700,9.498401611328125,-0.010180033230781555,0.00506463101238478,-0.007254756901226937
1746576075950365400,9.508365478515625,-0.012425181809067725,0.0010665515192784369,-0.00377742704632692
1746576075960330500,9.51833056640625,-0.007188450199365615,0.0029709695016499607,0.014012597130984067
1746576075970294500,9.52829443359375,-0.030681553989648818,0.006020991022302769,0.020394471054663882
1746576075980259300,9.53825927734375,-0.022301263657212255,0.005919982899818569,-0.000315678353048861
1746576075990223400,9.548223388671875,-0.019907061997056007,-0.0018830053015844895,-0.008511542896134778
1746576076000188400,9.5581884765625,-0.019458733707666397,-0.013824349116464145,-0.0014847221324220299
1746576076010152400,9.56815234375,-0.011677578312158585,0.0028255833813222125,-0.00015589381461031735
1746576076020116200,9.5781162109375,-0.016017068821191787,0.0016180022564250974,0.008532914477726444
1746576076030081500,9.58808154296875,-0.012126491123437881,-0.0024729020527098325,0.00753547353874892
1746576076040045600,9.598045654296875,-0.021253800430893897,0.0019969048716826365,0.00028479002444073556
1746576076050010400,9.60801025390625,-0.010330255356431006,-0.005012909958302043,0.004904978904686868
1746576076059974400,9.617974365234375,-0.0122737906396389,0.008359078581049107,-0.01884536018283106
1746576076069939500,9.627939453125,-0.006588146218657494,-0.005050209761387668,-0.007153634614311158
1746576076079903500,9.637903564453126,-0.005240823262929916,0.0056128577459836375,0.013710170985152944
1746576076089868500,9.64786865234375,-0.017511106771230696,0.01014079263235908,0.0024940179059747603
1746576076099832600,9.65783251953125,-0.007336334237456321,-0.004564860230125487,-0.00023433847883716225
1746576076109797400,9.66779736328125,-0.007635609444975853,0.0036449323736131188,-0.008029540666006505
1746576076119761400,9.677761474609374,-0.01930734253823757,-0.007565676880767569,0.00605170125439763
1746576076129726500,9.6877265625,-0.02125146234333515,-0.0024214686929946764,0.0029919026918243615
1746576076139690500,9.6976904296875,-0.001499298647046089,0.0024553252968238667,-0.0008784359354991466
1746576076149655300,9.7076552734375,-0.029780221235752104,-0.007069518261123448,0.0013168273527640849
1746576076159619300,9.717619384765625,-0.019755086305737496,-0.013813133602705783,-0.006593306450964883
1746576076169584600,9.727584716796875,-0.010776245558261871,-0.0019735422624042255,0.0077299823306966565
1746576076179548400,9.73754833984375,-0.014366963526606559,0.002814217170514166,0.00047906135437078773
1746576076189513500,9.747513427734376,-0.01885550711750984,0.00004573883786797523,-0.0049283689134288575
1746576076199477500,9.7574775390625,0.0026928923457860943,0.0007168886982370168,0.00044839222147129474
1746576076209441500,9.767441650390625,-0.007481880187988281,0.011846852198150008,-0.014350697378395125
1746576076219406300,9.77740625,-0.0179553434073925,0.01249731546351686,-0.005013809574022889
1746576076229370400,9.787370361328126,-0.01601005455851555,0.0010368824667995795,0.0019645598049275576
1746576076239335400,9.79733544921875,-0.02154606137573719,0.002327228238014504,-0.000913543781498447
1746576076249299500,9.807299560546875,-0.02124620164632797,-0.005080034077493473,0.0011806063530035316
1746576076259264500,9.817264404296875,-0.015409750577807425,-0.009842133912770078,-0.0024466807660646736
1746576076269228500,9.827228515625,-0.019748656564950944,-0.013379317895858547,-0.00561005843412131
1746576076279193300,9.837193359375,-0.020346622458100316,-0.013134745717374607,-0.006839655028004199
1746576076289157400,9.847157470703126,-0.020647066709399222,0.0008238333711633459,0.01989064971837215
1746576076299122400,9.857122314453125,-0.0035889644026756286,-0.013513013578392564,0.012022829819563775
1746576076309086500,9.86708642578125,-0.017954758885502815,-0.010237713668192736,-0.013093436459451912
1746576076319051500,9.877051513671875,-0.015261282017827033,-0.009605964236450382,0.0044262463438790286
1746576076329015600,9.887015625,-0.009425999993085861,-0.005012841459643096,0.0062865968556609
1746576076338980400,9.89698046875,-0.006432663396000861,0.003725459397071972,-0.001948859912296757
1746576076348944400,9.9069443359375,-0.037108372166752814,0.011644438660959712,-0.005804832087550312
1746576076358909400,9.916909423828125,-0.031124037060141562,0.0036773139729863033,-0.008301032817456871
1746576076368873500,9.92687353515625,-0.0058364510685205455,0.006725481463270262,-0.005508653019415215
1746576076378837200,9.936837158203126,-0.004190437427163123,0.00805512263183482,0.0012390220093540846
1746576076388802300,9.94680224609375,-0.019752748218178746,0.0025341124543454495,-0.0046407293447759
1746576076398766300,9.956766357421875,-0.020201076507568357,0.0020905973373912274,-0.006170934586739167
1746576076408731100,9.966731201171875,-0.019751579174399375,-0.004375027613295242,0.0012486026884522287
1746576076418695200,9.976695068359374,-0.004338905987143516,0.008619318686123005,-0.0075440495708491645
1746576076428660500,9.986660400390624,-0.014364625439047813,-0.01470232382765971,0.0006808310041669756
1746576076438624300,9.996624267578126,0.0047884033203125,-0.011509217741619795,-0.009917537236539646
1746576076448589300,10.00658935546875,-0.009727028766274452,-0.007621224726596847,0.004028817124664783
1746576076458553300,10.01655322265625,-0.01960194157063961,-0.000829094068170525,0.0008404237463604658
1746576076468518100,10.02651806640625,-0.01227028350830078,-0.0012072386316023765,-0.013822791913617401
1746576076478482200,10.036482177734374,-0.024690204620361325,0.000004082520073279738,-0.0022999566385988146
1746576076488447500,10.046447509765626,-0.019602526092529295,0.0003373330624308437,-0.005182800332223996
1746576076498411500,10.05641162109375,-0.012569558715820313,0.007085830075107514,0.006026831674622372
1746576076508376300,10.066376220703125,-0.011671148571372032,0.0009468934952514246,0.0016578045438509434
1746576076518340400,10.07634033203125,-0.012569558715820313,-0.013399575232597999,0.0033348343779798597
1746576076528305400,10.086305419921874,-0.0052379006534814835,0.0008687547917012125,0.014454550478514284
1746576076538269200,10.096269287109376,-0.017059271350502968,-0.005103364720731042,0.015020495531894267
1746576076548233200,10.106233154296875,-0.021997312274575232,0.001254123680363409,-0.008093527546618134
1746576076558198300,10.1161982421875,-0.020649989318847654,0.005138162039476446,-0.019670020104479043
1746576076568162300,10.126162353515625,-0.007032967376708984,-0.004104499009647406,0.0006557604949921369
1746576076578127400,10.13612744140625,-0.005835866546630859,0.008907825904455966,0.01472521151290275
1746576076588091400,10.14609130859375,-0.018854922595620154,0.009044635992683469,-0.004226376390224322
1746576076598056200,10.15605615234375,0.0029921675533056257,0.011754050215007736,-0.018135284817870707
1746576076608020200,10.166020263671875,-0.017807459369301795,-0.004763885366986505,-0.0031693690174259244
1746576076617985300,10.1759853515625,-0.012419921112060545,-0.0025512827848549933,0.012662086704326793
1746576076627949300,10.18594921875,-0.004338905987143516,-0.0009277321370551362,-0.010236649655690416
1746576076637914400,10.195914306640624,-0.026185996136069298,-0.011496463291323743,-0.0006273563844151794
1746576076647878400,10.20587841796875,-0.018255203136801717,0.0004536483519012108,-0.0027214699862990526
1746576076657843500,10.215843505859375,-0.010773322948813438,-0.013949569231597706,0.00584775791382417
1746576076667807200,10.22580712890625,-0.01930266636312008,-0.0077982754936674606,0.0025583153138402847
1746576076677772300,10.235772216796875,-0.02184709014892578,-0.00041285511720925565,-0.0008818060695193708
1746576076687736300,10.245736328125,-0.0173585465580225,-0.0004985378063982353,0.004005929439421743
1746576076697701000,10.255701171875,-0.021847674670815467,-0.008843807057803497,-0.009780832179589196
1746576076707665200,10.2656650390625,-0.017357962036132813,0.004271124280826188,-0.00679828183799982
1746576076717630500,10.27563037109375,-0.02124795521199703,-0.0015078929454553872,0.0035463125710375604
1746576076727594500,10.285594482421875,-0.009726444244384765,0.0005802201739046722,0.011667687105806544
1746576076737558300,10.295558349609376,-0.020201076507568357,0.0038098680112045257,0.006168815694889054
1746576076747523300,10.3055234375,-0.010773322948813438,-0.004309154736273922,0.0035601675664540377
1746576076757487400,10.3154873046875,-0.012418752068281172,-0.0008384372852509841,-0.014136086513334884
1746576076767452200,10.3254521484375,-0.014963760375976562,-0.0023229128225008026,0.016493746422231198
1746576076777416200,10.335416259765625,-0.015563479834794997,-0.0016069328731391577,0.01145436401553452
1746576076787381500,10.345381591796874,-0.020201661029458046,-0.003851369065372273,-0.01013885183702223
1746576076797345300,10.35534521484375,-0.02124795521199703,0.011637027106061577,-0.0010778492314275354
1746576076807310300,10.365310302734375,-0.00822831464111805,0.004111065747751854,0.01722175930268131
1746576076817274400,10.3752744140625,-0.025136779344081876,0.007648231464531272,0.0134116538294591
1746576076827239200,10.3852392578125,-0.0034393267989158626,-0.001578263901080936,0.0007096095740795135
1746576076837203200,10.395203125,-0.01331599316895008,-0.00025730836247093975,-0.018404941205261274
1746576076847168300,10.405168212890626,-0.01810439648926258,0.002810728305485099,-0.004666073848586529
1746576076857132500,10.415132568359375,-0.01945171944499016,-0.014771475507155992,-0.007128929431317373
1746576076867097300,10.425097412109375,-0.01840367169678211,0.0030610269718570633,-0.010212118002632633
1746576076877061400,10.435061279296875,-0.0016436755537986754,-0.0004282947149360552,-0.005600240293005481
1746576076887025400,10.445025390625,-0.027830256211757658,-0.0033577174966456366,-0.0025382771728094666
1746576076896990200,10.454990234375,0.00045183542072772977,-0.0025968937585595995,-0.0070643214961979535
1746576076906954200,10.464954345703125,-0.030673370683193205,-0.005884911586437374,0.003138736417144537
1746576076916919300,10.474919189453125,-0.034413141733407974,-0.010225530040054581,0.006705178460758179
1746576076926883300,10.48488330078125,-0.011817279043793677,0.0016574346510926262,-0.0005127900940366089
1746576076936848400,10.494848388671874,-0.014809446597099303,-0.001248397192475386,-0.006210554211074486
1746576076946812400,10.5048125,-0.013462708163261413,-0.0036290361181600017,-0.00921209238092415
1746576076956777200,10.514777099609375,-0.00672901599407196,0.006823767905705608,-0.01024382831514813
1746576076966741200,10.5247412109375,-0.009423661905527115,-0.004201429178635589,0.01709429699811153
1746576076976706300,10.534706298828125,-0.011519172880053519,0.011366735964431426,0.0009781243171542882
1746576076986670300,10.54467041015625,-0.011219313150644302,-0.00472706048793625,-0.009728891929797827
1746576076996635400,10.554635498046874,-0.0034381577551364896,0.0011841317506507039,0.003907811960345134
1746576077006599400,10.564599365234375,-0.00957329950928688,-0.001228185521508567,-0.0009882529855240135
1746576077016564500,10.574564453125,-0.017504677030444143,-0.003607207878842018,-0.0006128346687182784
1746576077026528300,10.5845283203125,-0.017954758885502815,-0.006591973010404035,-0.0029243082151748237
1746576077036493300,10.594493408203125,-0.01555938818156719,0.0011295657189330085,0.005538573233643546
1746576077046457300,10.604457275390626,-0.014511924955248832,-0.005877792292484082,0.0002634001765400171
1746576077056421400,10.61442138671875,0.005988426759839058,-0.006015935821272432,0.0017912855972535907
1746576077066386200,10.62438623046875,-0.02543605455160141,-0.0009155941746896132,-0.005516334002371877
1746576077076350200,10.63435009765625,0.003893500307202339,-0.016044395219534633,-0.0072039765620604155
1746576077086315500,10.6443154296875,-0.02348959665894508,0.008542189196147956,-0.0006983209950849413
1746576077096279300,10.654279296875,-0.030673370683193205,-0.0031265938882017504,0.013301087860763072
1746576077106244400,10.664244384765626,-0.012567805150151252,0.009481876632478087,0.008388838965073227
1746576077116208400,10.67420849609375,-0.017057517784833907,0.0025034615877550094,-0.003246361510083079
1746576077126173200,10.684173095703125,-0.019749825608730315,-0.0008168693408370018,-0.012005257630255072
1746576077136137200,10.69413720703125,-0.004635843107104301,0.0075150518052279945,0.001001569124823436
1746576077146102500,10.7041025390625,-0.0001467149943113327,-0.0030431716547580433,0.01000960856731981
1746576077156066300,10.71406640625,-0.0399497330725193,-0.003702261184575036,0.010847219302086158
1746576077166031400,10.72403125,-0.014211480703949928,0.006436741349496879,0.0008287150422576815
1746576077175995400,10.733995361328125,0.007187281155586242,-0.0010468284720787778,0.006574519552104175
1746576077185960200,10.743960205078125,-0.020345453414320945,-0.006443522716732695,-0.015479290416371076
1746576077195924200,10.75392431640625,-0.015106968238949775,-0.012423775303270667,-0.01049715462224558
1746576077205889300,10.76388916015625,-0.013759645283222198,-0.015037971823080441,0.003515250712493434
1746576077215853300,10.773853271484375,-0.013609423157572745,-0.009494398187333717,-0.0011407949324231594
1746576077225818400,10.783818359375,-0.02109071882367134,-0.007327863236633129,0.013789382834360002
1746576077235782400,10.793782470703125,0.0049468087524175645,-0.0006258402807638049,-0.009319635275471956
1746576077245746400,10.803746337890624,-0.01959317374229431,0.009991387924039736,-0.01968503501052037
1746576077255711200,10.813711181640626,-0.03006839052736759,-0.0016765366437844931,0.004470989667903632
1746576077265675300,10.82367529296875,0.004497311419248581,-0.00003270582635886967,0.004986318778898566
1746576077275640300,10.833640380859375,-0.013758476239442825,-0.005589385538850911,-0.01643207936286926
1746576077285604400,10.843604248046875,-0.017199556604027746,0.0008205591352656483,-0.009571335881063714
1746576077295569400,10.8535693359375,-0.020641221490502355,-0.000691635525971651,-0.010437104131234809
1746576077305533400,10.863533447265626,0.0028518822997808456,0.006035334641486406,-0.002216132546355948
1746576077315498200,10.873498291015625,-0.02602817522585392,-0.0042583195981802414,0.01107763052447699
1746576077325462300,10.883462158203125,-0.027675357910990715,-0.0034349702842067925,-0.0023299590512178836
1746576077335427300,10.89342724609375,-0.02932195607423782,-0.012060348818358033,-0.007960658414568752
1746576077345391400,10.903391357421874,-0.021988544446229934,-0.009782878006203099,-0.013774550591409206
1746576077355356200,10.913356201171876,-0.015255436798930168,0.0007319218705873936,-0.01080038448567502
1746576077365320200,10.9233203125,-0.004929273095726967,-0.0006849363571265712,0.006510879731364548
1746576077375285500,10.933285400390625,-0.014057166925072669,-0.0023686562269460408,0.016869950190326197
1746576077385249300,10.943249267578125,-0.031116438275575635,-0.014328627110482193,0.007155570843070745
1746576077395214600,10.953214599609375,-0.006724924340844154,-0.01613486368169542,-0.00828866652622819
1746576077405178600,10.9631787109375,-0.007921440649032592,0.001990963754663244,-0.0002788260745350271
1746576077415142700,10.973142578125,-0.020042671075463293,0.0029535982417408374,0.0021320709920953957
1746576077425107500,10.983107421875,-0.011363690057396889,-0.0027497279664035887,0.006466720929229632
1746576077435071500,10.993071533203125,-0.013458616510033607,-0.0068199182810727505,-0.002602885107928887
1746576077445036300,11.003036376953125,-0.020790274572372435,-0.006022187465545721,-0.008866082821693272
1746576077455000300,11.013000244140626,-0.0183954883903265,-0.003799424249003641,-0.014147585154883563
1746576077464965400,11.02296533203125,-0.00926701003909111,0.019261274906806646,-0.009694268140988423
1746576077474929400,11.032929443359375,-0.0209399121761322,0.0007356025318615138,-0.008273331959778443
1746576077484894500,11.04289453125,-0.029619477716088295,-0.0071345234884647645,-0.0021016849869862197
1746576077494858500,11.0528583984375,-0.016002455773949622,0.0019108842557761818,-0.00931842056591995
1746576077504823600,11.062823486328124,-0.027076222974061964,-0.002202186219394207,0.005935792390303686
1746576077514787300,11.072787353515626,-0.024233108502626416,-0.011637214335729368,0.0023558332779910415
1746576077524752400,11.08275244140625,-0.01241232232749462,-0.016268294502748176,0.0013423271202016621
1746576077534716400,11.09271630859375,-0.015855156257748602,-0.015190627934411166,0.0051931116636842484
1746576077544681500,11.102681396484375,-0.003585457271337509,-0.014117756272200493,-0.0017622421658597886
1746576077554645500,11.1126455078125,0.00015489830076694487,-0.006566665039211511,-0.004767524929065257
1746576077564610600,11.122610595703126,-0.028725743746757505,0.011809050071565434,-0.0123787671177648
1746576077574574600,11.13257470703125,-0.020645897665619847,0.008771983930608258,0.01572910045897588
1746576077584539400,11.142539306640625,-0.01899929950237274,-0.0003793547064065933,0.017513179997308177
1746576077594503400,11.15250341796875,-0.02244096438884735,-0.0011517136186594142,-0.018873883024416862
1746576077604467500,11.162467529296874,-0.006428571742773056,-0.0025409349207766354,-0.016112373288674278
1746576077614432300,11.172432373046876,-0.018099720314145088,0.010212118002632633,-0.005697508388711139
1746576077624396500,11.182396484375,-0.013611176723241806,0.01573234729541,0.001368256145901978
1746576077634361600,11.192361572265625,-0.0206435595780611,0.0011566409555263816,0.0073353752562310545
1746576077644325400,11.202325439453125,-0.015855156257748602,-0.001125049374019727,0.004069441395998001
1746576077654290400,11.21229052734375,-0.02243921082317829,-0.016054587819986043,-0.0023849041088484227
1746576077664254500,11.22225439453125,-0.016154431465268133,-0.015538071398902684,-0.002112580840336159
1746576077674219300,11.23221923828125,-0.02692833893597126,-0.0071866875005420295,-0.0007670936486683785
1746576077684183300,11.242183349609375,-0.027527473872900006,0.00006682729166932403,0.01544239247208461
1746576077694148600,11.252148681640625,-0.009421908339858055,0.001310256048082374,0.0017063563933130354
1746576077704112600,11.262112548828124,-0.021991467055678365,-0.013976635335036553,-0.005159145462000742
1746576077714077400,11.272077392578124,-0.029922260054945943,-0.009700834879092872,-0.012461796625563874
1746576077724041500,11.28204150390625,-0.0016413374662399291,-0.001471109165600501,-0.01018375042467378
1746576077734006500,11.292006591796875,-0.0016413374662399291,0.0008006579915527254,-0.0034672468523029238
1746576077743970300,11.30197021484375,-0.018849661898612976,0.01002597061365377,0.007183043371886014
1746576077753935400,11.311935302734375,-0.025284078860282895,0.00615220705338288,-0.01616583877527155
1746576077763899600,11.321899658203124,-0.011966332125663757,0.008200458519812673,-0.0055630866203922776
1746576077773864400,11.331864501953126,-0.003736848440766334,-0.001157997228973545,-0.004202684987382963
1746576077783828500,11.341828369140625,-0.020346622458100316,-0.0015180261804023758,-0.01077259229645133
1746576077793793500,11.35179345703125,-0.006879822641611099,-0.013071000865357927,-0.013990832823747768
1746576077803757300,11.36175732421875,-0.014511340433359145,-0.014837700010626577,-0.005633357111318037
1746576077813721300,11.371721435546876,-0.020795535269379616,-0.0033423372644232584,0.01617960243914276
1746576077823686400,11.381686279296876,-0.008075754427909851,-0.010432765882834791,-0.007474664995912462
1746576077833650400,11.391650390625,-0.020346622458100316,-0.01559834565219935,-0.014806240859860554
1746576077843615500,11.401615478515625,-0.020196400332450865,0.0022297455131774766,-0.002885748036764562
1746576077853579500,11.41157958984375,-0.006729600515961646,0.015611689190962352,0.0010109214750584213
1746576077863544600,11.421544677734374,-0.008974164572358131,0.01121440864666365,0.006570957621838897
1746576077873508400,11.43150830078125,-0.00433656789958477,0.0012224179344251752,0.006665577102731913
1746576077883473400,11.441473388671875,-0.04010112424194812,-0.014922647480876183,-0.019781572453863916
1746576077893437400,11.4514375,-0.01361526837646961,0.004327032886259258,-0.010416947259195149
1746576077903402200,11.46140234375,-0.018702362382411956,0.01835498741657939,0.009374726463574916
1746576077913366500,11.471366455078124,-0.019300328275561333,0.010830533028766512,0.017122408847743645
1746576077923331600,11.48133154296875,-0.02753039648234844,-0.015851955087087116,-0.007369578919932246
1746576077933295600,11.491295654296875,-0.02827858450114727,-0.0007437219062354415,0.005934915607469156
1746576077943260400,11.501260498046875,-0.0014940379500389099,0.006198082888568751,-0.0018290968569926915
1746576077953224400,11.511224365234375,-0.005534253251552581,0.0016299027567729352,-0.016816411638492717
1746576077963189200,11.521189208984374,0.0007499415844678879,-0.01553332215854898,0.00023980010524392127
1746576077973153300,11.5311533203125,-0.01361526837646961,-0.00174289357799571,0.0011499006874859333
1746576077983118600,11.54111865234375,-0.017655483677983284,0.006188214515103027,-0.006791623768350109
1746576077993082600,11.55108251953125,-0.01361526837646961,-0.010983915225882082,-0.01011421058611013
1746576078003047400,11.56104736328125,-0.007779401829838752,-0.0035492534467950463,-0.00545181739879772
1746576078013011500,11.571011474609374,-0.011219897672533988,0.020369108284544198,0.00031276487675495443
1746576078022975500,11.5809755859375,-0.014661562559008598,-0.0015026276818709448,0.006451797354733571
1746576078032940300,11.590940185546875,-0.009575053074955939,0.01080304223364219,-0.020124933398282155
1746576078042904300,11.600904296875,-0.020797288835048673,-0.0042281619219342245,-0.016049299723515285
1746576078052869600,11.61086962890625,0.004790156885981559,0.0016500687619671224,0.01222906558192335
1746576078062833700,11.620833740234374,0.0000023380875587463378,-0.010799900428485125,0.010560757910367102
1746576078072798500,11.630798583984374,-0.013614099332690238,-0.012265607333183288,-0.002828172630630433
1746576078082762500,11.640762451171875,-0.01346504625082016,-0.001159883225383237,-0.005055557223362848
1746576078092727300,11.650727294921875,-0.01780512128174305,-0.0006681313527980818,0.005740909139020368
1746576078102691300,11.66069140625,-0.013466215294599532,-0.004470501044136471,-0.00008815320748835802
1746576078112656400,11.670656494140625,-0.01615852311849594,-0.009772735638101585,0.006148375695059076
1746576078122620400,11.680620361328126,-0.027530981004238127,-0.00736461048386991,0.0032647830827627327
1746576078132585500,11.69058544921875,-0.006731354081630707,0.0024184136528056116,-0.00932675913600251
1746576078142549500,11.700549560546875,-0.008377367722988128,0.01057234331688378,0.00006077201021835208
1746576078152514600,11.7105146484375,-0.011221066716313361,-0.0007875793142709881,-0.008894870524760335
1746576078162478300,11.720478271484374,-0.021097148564457893,-0.014729764390434138,-0.0031542262472212313
