time,seconds_elapsed,z,y,x
1746576142031242500,0.019242431640625,-0.14144962112903595,0.05504384182989597,-0.050012067340919744
1746576142041320400,0.029320556640625,-0.16586685402691365,0.03934183030724525,-0.052791414127452294
1746576142051398400,0.0393984375,-0.12849603153169153,0.01844283466339111,-0.004441279516229406
1746576142061477400,0.049477294921875,-0.08661036196053028,-0.011598667857050896,-0.008309681914793327
1746576142071555300,0.059555419921875,-0.031247371178865432,-0.00602057546377182,-0.03729987615086138
1746576142081633300,0.06963330078125,-0.0014063596665859221,-0.011860533663630485,-0.03564161494928412
1746576142091712500,0.07971240234375,0.021328034710884094,-0.025249592068791387,-0.02277407793388702
1746576142101790500,0.08979052734375,0.049292730957269666,-0.04133621899485588,0.04141125699244439
1746576142111868400,0.099868408203125,0.05842705452740192,-0.025299860951304435,0.0723369676020462
1746576142121947600,0.10994775390625,-0.01205459493100643,0.006451368096470832,0.04679185405224561
1746576142132025900,0.12002587890625,-0.03380348540246486,0.049643444091081616,0.010544153835438191
1746576142142103800,0.130103759765625,-0.008784779480099678,0.08798048126995563,-0.004329982895171269
1746576142152182800,0.140182861328125,0.024658640438318252,0.09049977061450482,-0.00018405133001506328
1746576142162260700,0.1502607421875,0.04217559242844581,0.059253568479418754,-0.04599442006424069
1746576142172339000,0.1603388671875,0.05945113687813282,0.03496668396294117,-0.08549701215745881
1746576142182418000,0.17041796875,-0.017221768435835838,0.008123685222864151,-0.08214270589402876
1746576142192495900,0.180495849609375,-0.10938450382649897,-0.052281975901126855,-0.06647049585459754
1746576142202574800,0.190574951171875,-0.13658230735361576,-0.050583355289697644,-0.01690307614179328
1746576142212652800,0.20065283203125,-0.13227262746095655,-0.026193010398745536,0.03476636648471467
1746576142222730800,0.210730712890625,-0.11455927611589431,0.0035293431699275966,0.020514334574667736
1746576142232809700,0.220809814453125,-0.03491699960231781,0.027453824114799498,0.02960133013804443
1746576142242888000,0.230887939453125,0.05437982496321201,0.04649111754000187,0.12485861574425361
1746576142252966000,0.2409658203125,0.12598784810304642,0.06506897675991058,0.1104671662303619
1746576142263044900,0.251044921875,0.18011048343479633,0.04392974261939525,0.03363722545746713
1746576142273122800,0.261122802734375,0.20099252794384956,0.05898819554150104,0.007344152217730879
1746576142283201000,0.271200927734375,0.22171967415213584,0.04708732986748218,-0.0010931381321046501
1746576142293280000,0.281280029296875,0.2271405301570892,0.05165595295727252,0.01256738502504304
1746576142303358000,0.29135791015625,0.19890461575388907,0.04988894328474998,0.037190625356417144
1746576142313436000,0.301435791015625,0.10114216066002846,0.023494272834062576,0.030698066733032464
1746576142323515000,0.311514892578125,0.009371639457345008,0.004698971471190453,0.025929263162333516
1746576142333592800,0.3215927734375,-0.10997019475996493,0.019321955585479736,0.01199031578944996
1746576142343670800,0.3316708984375,-0.19285364515185355,0.013845570001006125,-0.059201518631773066
1746576142353750000,0.34175,-0.25182956573367116,-0.018315408891439438,-0.08191659638741984
1746576142363828000,0.351827880859375,-0.23902444469630718,-0.022535656934976576,-0.05077922492166981
1746576142373906000,0.361906005859375,-0.1652852547466755,-0.016418050837516785,-0.0020677279184572396
1746576142383985000,0.37198486328125,-0.06929565454423427,0.02223229007422924,0.035838288298854604
1746576142394063000,0.38206298828125,0.05446107350587844,0.039838089391589164,0.013048062947764992
1746576142404141800,0.392141845703125,0.1673275742292404,0.04779752396345138,0.0017022008080035448
1746576142414219800,0.4022197265625,0.19493980377614498,0.042810967722535134,0.006415547864418477
1746576142424297700,0.412297607421875,0.2043459300249815,0.020531915897130965,0.02975041061937809
1746576142434377000,0.422376953125,0.19304478380978107,0.018922142612934113,0.09521402185321785
1746576142444455000,0.432454833984375,0.16945874103903769,0.011001286485791205,0.11721062174174003
1746576142454532900,0.442532958984375,0.10753799917697907,-0.008889993420243263,0.0921086579827126
1746576142464611800,0.45261181640625,0.025443068814277648,-0.00518880081474781,0.010466814282909034
1746576142474690000,0.46268994140625,-0.06754559600651264,0.01824643530845642,-0.07162293758117594
1746576142484768000,0.47276806640625,-0.12916121744215486,0.028150574207305906,-0.09759795784768648
1746576142494846700,0.4828466796875,-0.15277707082927225,0.04066051169037819,-0.09608274011230096
1746576142504924700,0.492924560546875,-0.14407646250128744,0.03016425211727619,-0.04507609050977043
1746576142515003000,0.5030029296875,-0.10550737013220786,0.023186229798197743,0.009970308603392913
1746576142525081900,0.513081787109375,-0.08305471530556678,0.0022550854504108427,0.01963989896085113
1746576142535159800,0.523159912109375,-0.03380523896813392,0.016347323688864705,0.021603362787235528
1746576142545237800,0.53323779296875,-0.019830489629507064,0.024434184032678604,0.007195564926741644
1746576142555317000,0.54331689453125,0.03029927667379379,-0.005429039311408996,0.039527434273529796
1746576142565395000,0.55339501953125,0.12071429161429405,0.018977672192454338,0.035150981888128444
1746576142575473000,0.563472900390625,0.12487667199075221,-0.01823942104578018,0.013775774434115737
1746576142585552000,0.5735517578125,0.0860129805892706,0.024649288088083265,0.003230625084834173
1746576142595629800,0.5836298828125,0.06370820980072021,0.05380173281431198,-0.02891027000080794
1746576142605708800,0.593708740234375,-0.005554126995801926,0.08561492118239403,-0.06316147177130915
1746576142615786800,0.603786865234375,-0.01681026502549648,0.07065525245964527,-0.06444320041122846
1746576142625865000,0.613864990234375,-0.06427402698993682,0.04732230766713619,-0.06397489791288971
1746576142635944000,0.62394384765625,-0.0744224960386753,0.02933890720903873,-0.045172984146140516
1746576142646022000,0.63402197265625,-0.06870704100131989,0.018853753551840782,-0.032000829027825965
1746576142656099800,0.644099853515625,-0.0461760602414608,0.0030979660153388974,0.03514843373801559
1746576142666178800,0.6541787109375,-0.0025508535265922547,-0.005766308441758156,0.11762184202428906
1746576142676256800,0.6642568359375,0.09088497053980826,-0.015372341176867484,0.16271682903077453
1746576142686335000,0.6743349609375,0.11943243511021137,-0.03793196350932121,0.08712620252817868
1746576142696414000,0.6844140625,0.12645195848345755,-0.03345452583432197,0.00891474426900968
1746576142706492000,0.694491943359375,0.12142857736349105,0.005949263793230056,-0.04670038550966419
1746576142716569900,0.70456982421875,0.08355155891180038,0.0349608387440443,-0.025058946601208297
1746576142726648800,0.71464892578125,0.06572305675446986,0.05004325706362724,-0.005394305924745276
1746576142736726800,0.724726806640625,0.02277297282218933,0.062248074120283124,0.03111873069736175
1746576142746805000,0.734804931640625,-0.028331191471219062,0.04519523251056671,-0.0007498593860771507
1746576142756884000,0.744884033203125,-0.09821721312403678,0.015656418815255164,-0.046284927443414926
1746576142766962000,0.7549619140625,-0.162277889624238,0.004720014259219169,-0.0650511031765025
1746576142777041000,0.765041015625,-0.19747195260226724,-0.004663315635919571,-0.05797602282427251
1746576142787118800,0.775118896484375,-0.16989479436874388,-0.016159692162275315,-0.060339363555284214
1746576142797196800,0.78519677734375,-0.08482815471887588,0.004072948527336121,-0.027150895645469426
1746576142807275800,0.79527587890625,0.06036942076683044,-0.0023076924204826353,0.00925195860043168
1746576142817354000,0.80535400390625,0.1296177290380001,-0.005490414109826087,0.04518905849810689
1746576142827432000,0.815431884765625,0.16854454880356787,-0.013109656941890716,0.05881202612384222
1746576142837511000,0.825510986328125,0.15695114164352417,0.029154782813787458,0.05580164706041105
1746576142847588900,0.8355888671875,0.12619126172065734,0.01544482189118862,0.03138064216971397
1746576142857667000,0.8456669921875,0.08209376131892204,0.032117139750719066,0.04355667152330279
1746576142867745800,0.855745849609375,0.05676175166368484,0.05096037190854549,0.04689049212113022
1746576142877823700,0.86582373046875,0.014195114091038703,0.03151332863867283,0.00015679799690842628
1746576142887901700,0.875901611328125,-0.03639057928621769,0.021733692902326584,-0.021013443203223868
1746576142897981000,0.88598095703125,-0.0890489872843027,0.01883037267625332,-0.047777759817056356
1746576142908059000,0.896058837890625,-0.10679507185518741,0.029825813943147657,-0.0344550172469113
1746576142918136800,0.90613671875,-0.12743863143324852,0.021903788772225378,-0.02388442292911932
1746576142928216000,0.916216064453125,-0.13139759819209576,0.013337035956978797,-0.01195575593272224
1746576142938294000,0.9262939453125,-0.06612403877079487,-0.0008417115211486816,-0.010997149166790768
1746576142948372000,0.9363720703125,-0.0359977805763483,-0.013235913670063017,0.0006089348117355257
1746576142958450700,0.94645068359375,0.013517653220891952,-0.01568798299729824,0.01770720473206602
1746576142968529000,0.95652880859375,0.04023497975468635,0.006897942820191383,0.026184918423835187
1746576142978606800,0.96660693359375,0.08397533728182316,0.026809096470475195,0.037767283600056545
1746576142988685800,0.976685791015625,0.1457306594491005,0.043939679491519924,0.035326722047524524
1746576142998763800,0.986763671875,0.16053426082730293,0.030920038920640942,0.0022754249855410306
1746576143008843000,0.996843017578125,0.14815876337885855,0.04908522568643093,-0.0037921131588052955
1746576143018921000,1.0069208984375,0.08288754204511642,0.04471417099535465,-0.00043429976403713225
1746576143028999000,1.0169990234375,0.008607084825634955,0.0379804788261652,0.007957845402974634
1746576143039078000,1.027077880859375,-0.0425900184482336,0.017750760746002195,0.0050236733809113495
1746576143049155800,1.03715576171875,-0.10505495018959045,0.013299626556038856,0.011089731954224406
1746576143059233800,1.04723388671875,-0.11080723010599612,0.0025929391026496885,0.004268608096754179
1746576143069312800,1.057312744140625,-0.1170826571136713,0.008445172262191773,0.0008875964894890784
1746576143079390700,1.067390625,-0.07830956660509109,-0.01412204885482788,-0.032012802593410015
1746576143089469000,1.077468994140625,-0.030685061120986935,0.005346621724963188,-0.033983006687834855
1746576143099548000,1.0875478515625,0.02087678381204605,0.007123568269610405,-0.0011984068711753935
1746576143109625900,1.0976259765625,0.07080255197584628,0.02279518465399742,0.02361213619322516
1746576143119703300,1.107703369140625,0.10092530303895472,0.03221124777495861,0.03308568338877521
1746576143129782500,1.117782470703125,0.1440706172823906,0.039348260048031804,0.009312904140586033
1746576143139860500,1.127860595703125,0.15602292088270187,0.03993102837204933,0.027504339592484755
1746576143149938400,1.1379384765625,0.13197802842855452,0.04654840068519115,0.012476820664759724
1746576143160017200,1.14801708984375,0.08849076887965202,0.050287002691626545,0.004149767490057275
1746576143170095400,1.158095458984375,0.01937105542421341,0.047481882143020626,-0.009413770699175074
1746576143180173300,1.16817333984375,-0.06370178005993365,0.03783785548508167,0.01176335689947009
1746576143190252300,1.178252197265625,-0.14690379488170147,0.0048573769032955166,0.0023988504358101637
1746576143200330200,1.188330322265625,-0.16748773322701452,-0.005104045140743255,-0.05530258409762755
1746576143210408400,1.198408447265625,-0.15612755030095576,-0.014043722921609878,-0.054146071006264535
1746576143220487400,1.2084873046875,-0.10707330427467822,-0.029367548781633376,-0.050577701867045834
1746576143230565400,1.2185654296875,-0.04951660284101963,-0.011730185282230377,-0.030125765004102138
1746576143240643300,1.228643310546875,0.03912555720806122,0.021365444111824033,0.019457208470860497
1746576143250722300,1.238722412109375,0.08586275846362114,0.008817512705922126,0.04041105784079991
1746576143260800300,1.24880029296875,0.15356675990223884,0.027046412357687948,0.04870622717305086
1746576143270879200,1.258879150390625,0.18888357247710227,0.04185761252045631,0.039352643962204455
1746576143280957200,1.268957275390625,0.1888473321199417,0.04558510861098766,0.03565053804125637
1746576143291035400,1.279035400390625,0.10547580595016479,0.05224690458774566,0.015135975137725471
1746576143301114400,1.2891142578125,0.012125322079658508,0.07231003392934798,0.009209434632956981
1746576143311192300,1.2991923828125,-0.0772241094559431,0.053526423004269595,0.004569600337324664
1746576143321270300,1.309270263671875,-0.11454875472187995,0.009685527712106705,-0.0461887461930979
1746576143331349200,1.319349365234375,-0.10943418818712233,-0.006532032117247581,-0.050954955947911364
1746576143341427200,1.32942724609375,-0.12074117962121962,-0.030085926184058188,-0.04947665442312136
1746576143351505200,1.339505126953125,-0.11971125205159186,-0.042300095590949056,-0.046486057772394264
1746576143361584400,1.34958447265625,-0.08619418237507342,-0.011254968985915183,-0.02728483335659839
1746576143371662300,1.359662353515625,-0.011539046624302864,-0.007568973949551582,-0.002818354489514604
1746576143381740300,1.369740234375,0.04481587780416012,0.013664368215203284,0.05375718128653243
1746576143391819300,1.3798193359375,0.09661562314629554,0.029704233390092847,0.038728639445500444
1746576143401897500,1.3898974609375,0.11175181747972965,0.05619359638690948,0.049208294943673535
1746576143411975400,1.399975341796875,0.16023557014167308,0.0632207185447216,0.02138947344138287
1746576143422054400,1.410054443359375,0.1433212602198124,0.05389934796988964,0.032911441066721454
1746576143432132400,1.42013232421875,0.09630699558854103,0.027810966989398,0.032411839247820894
1746576143442210600,1.43021044921875,0.026693945658206937,0.018926818788051605,-0.016882873603980986
1746576143452289300,1.440289306640625,-0.0728407798051834,0.000779167678952217,-0.05703188297511078
1746576143462367200,1.4503671875,-0.14505962831974029,-0.02848024455308914,-0.04766135776261799
1746576143472445200,1.460445068359375,-0.14777590154111384,-0.03845920225381851,-0.01711244457615539
1746576143482524400,1.4705244140625,-0.12982640335261822,-0.02388064180314541,-0.00746377827571705
1746576143492602400,1.480602294921875,-0.09037585197389125,-0.0060930561780929565,-0.003300667246896773
1746576143502681300,1.490681396484375,0.011349077010154723,0.024696049839258192,0.015697408412769436
1746576143512759600,1.500759521484375,0.09089490741193294,0.022881693893671035,0.01466421117382124
1746576143522837500,1.51083740234375,0.13628420118987558,0.020323826104402542,0.03088744269213639
1746576143532916200,1.520916259765625,0.1729956829935312,0.024167057529091835,0.03884536116034724
1746576143542994200,1.530994140625,0.16870003162622452,0.03307224851846695,0.02012271404173225
1746576143553072400,1.541072265625,0.14430208795070648,0.03990414036512375,0.015412609255174174
1746576143563151400,1.5511513671875,0.100669282451272,0.00997720413506031,0.030658447108697143
1746576143573229300,1.561229248046875,0.03680851243734359,0.01627659654021263,-0.005442474181717261
1746576143583307300,1.571307373046875,-0.049102761343121526,0.015306874725222587,-0.01106190323238261
1746576143593386500,1.581386474609375,-0.08411211540400981,0.019271102181077002,-0.0009489438884425908
1746576143603464400,1.59146435546875,-0.09314707025289536,0.024218495455384254,-0.00074425162919797
1746576143613542400,1.60154248046875,-0.10613456211984157,-0.00008124854266643523,-0.03127944681756198
1746576143623621000,1.61162109375,-0.09009469694495201,0.013355740657448769,-0.0328972846772056
1746576143633699300,1.62169921875,-0.09690262339413165,0.007456745746731758,-0.020415349445911123
1746576143643777300,1.63177734375,-0.08162088311016559,-0.0023906945288181304,-0.034373586041154335
1746576143653856300,1.641856201171875,-0.018137129715085028,0.0052688803136348725,-0.03433110773945227
1746576143663934200,1.651934326171875,0.05275719219744205,0.014192776003479957,-0.004919400155683979
1746576143674012400,1.662012451171875,0.08667933554351329,0.0054524201869964595,0.026327030308265238
1746576143684091400,1.67209130859375,0.10793079788684844,0.024161796832084654,0.03839404632942751
1746576143694169300,1.68216943359375,0.09099895230829715,0.0313531696408987,0.0635616044042632
1746576143704247300,1.692247314453125,0.0845049141138792,0.032875849163532256,0.02241083411206491
1746576143714326300,1.702326171875,0.059033788248896595,0.037359716579318046,-0.01128237758264877
1746576143724404200,1.712404296875,0.03264788562655449,0.042156303206086154,-0.015495035974774508
1746576143734482200,1.722482177734375,0.0010971475869417189,0.030870354560017584,0.006096682040439918
1746576143744561400,1.7325615234375,-0.029503157860040662,0.019081717088818548,0.047933224373403936
1746576143754639400,1.742639404296875,-0.07188333294987678,-0.0035088849037885664,0.04919287817883305
1746576143764717300,1.75271728515625,-0.06512333729565144,-0.007587094128131866,-0.007675621794955805
1746576143774796300,1.76279638671875,-0.048402504119277,-0.014417232409119605,-0.049072101343376556
1746576143784874500,1.77287451171875,-0.05977788461446762,-0.016921908706426618,-0.07287700189603492
1746576143794952400,1.782952392578125,-0.009380407285690307,-0.01310205815732479,-0.032674015581654385
1746576143805031400,1.793031494140625,0.007818564796447753,0.01866904463469982,0.007519216523692011
1746576143815109400,1.803109375,0.03147182758450508,0.04038286379277706,0.017436635029222814
1746576143825188400,1.813188232421875,0.03604103519618511,0.04421791191101074,0.013325930041074753
1746576143835266300,1.823266357421875,0.07729016042947769,0.04981470900475979,0.020935172068933024
1746576143845344300,1.83334423828125,0.09485562773644923,0.03342822234928608,0.03415837238789536
1746576143855423500,1.843423583984375,0.09658581252992153,0.025220950496196746,0.038879994082311166
1746576143865501400,1.85350146484375,0.0995756419956684,0.015291677156090736,0.003626145474752411
1746576143875579400,1.863579345703125,0.07059680027067661,-0.0006838906109333038,0.0017224124789703636
1746576143885658400,1.873658447265625,0.006427402698993683,-0.015130349114537239,0.006189767151372507
1746576143895736300,1.883736328125,-0.021755320212244987,0.0038660277783870694,0.012801422109780832
1746576143905814500,1.893814453125,-0.04466448663473129,0.0071270754009485245,-0.01863571775383316
1746576143915893200,1.903893310546875,-0.0476572387099266,0.024914661026000977,-0.04031327828844078
1746576143925971200,1.91397119140625,-0.034783728611469264,0.02310147412419319,-0.028722967267781493
1746576143936049200,1.924049072265625,-0.02513327221274376,0.012398293802142142,-0.017175993065349757
1746576143946128400,1.93412841796875,-0.030004677641391753,0.014867898786067962,-0.0029879754353780296
1746576143956206300,1.944206298828125,-0.06758826610445975,-0.004248305094242096,0.003659947279654443
1746576143966284300,1.9542841796875,-0.07286474520266055,0.012581249153614044,-0.010371308886026963
1746576143976363500,1.964363525390625,-0.06659925506711006,-0.006647767451405525,0.01823711949083954
1746576143986441500,1.97444140625,-0.018954291316866875,0.01326806237399578,0.01447231446406804
1746576143996519400,1.98451953125,0.03948445364832878,0.032254502394795416,-0.020363043869938702
1746576144006598100,1.99459814453125,0.10012743065953254,0.041381227180361746,-0.014154983010049908
1746576144016676400,2.00467626953125,0.11585574566721915,0.03598842822611332,-0.00328727804236114
1746576144026754300,2.01475439453125,0.08744447469711303,0.025037410622835158,0.018491413912316783
1746576144036833300,2.024833251953125,0.06183306357860565,0.01037935519516468,0.010667350956844165
1746576144046911200,2.0349111328125,0.03960603420138359,-0.0006388824254274368,0.033395817917026574
1746576144056989400,2.044989501953125,0.032598201265931125,-0.017003157249093053,0.019462916692439467
1746576144067068400,2.055068359375,-0.01911561935842037,-0.01604044969677925,-0.01699090055571869
1746576144077146400,2.065146484375,-0.04752046058773994,0.002927285623550415,-0.026379345017392187
1746576144087225300,2.075225341796875,-0.06017711306512356,0.017983400458097456,-0.017540031471615657
1746576144097303300,2.08530322265625,-0.048907531031966205,0.02513619482219219,0.013485340120177715
1746576144107381200,2.09538134765625,-0.016107669714093206,0.024686112967133522,0.004167586274538189
1746576144117460200,2.105460205078125,-0.02369067218899727,0.045022798553109165,-0.005837857574317604
1746576144127538200,2.1155380859375,-0.02136778219938278,0.03644903147518635,-0.02192444796776399
1746576144137616100,2.1256162109375,-0.04944938282370567,0.014755670583248138,-0.01766831576009281
1746576144147695400,2.1356953125,-0.04008884928226471,0.023270400950312613,-0.006464748167851939
1746576144157773300,2.145773193359375,-0.021474749705195424,-0.008131868529319762,-0.0002623589969240129
1746576144167851300,2.155851318359375,0.03734510353207588,-0.0026905542582273483,0.030344613652862607
1746576144177930200,2.16593017578125,0.08231938676834107,0.00640226825773716,0.01078285796213895
1746576144188008200,2.17600830078125,0.08951952740550041,0.028859599259495734,-0.02155670150076039
1746576144198086100,2.186086181640625,0.11901450195908546,0.010301613783836365,-0.013119420284079386
1746576144208165000,2.1961650390625,0.11006664087176322,0.0213408941924572,0.007179444909002631
1746576144218243300,2.206243408203125,0.07746025629937649,0.022510522493720053,-0.0061071212360635395
1746576144228321300,2.2163212890625,0.08441255965530872,0.029437106886506078,0.02919797350154258
1746576144238400300,2.226400146484375,0.05737140799462795,0.01647182685136795,0.011475616866117342
1746576144248478200,2.236478271484375,0.01841068595945835,0.0067442135632038115,0.0009922533072065562
1746576144258556400,2.246556396484375,-0.03524316281676292,0.011850596791505814,0.006440563574666157
1746576144268635400,2.256635498046875,-0.07560264573395252,0.026872224834561347,-0.017907494810828938
1746576144278713300,2.26671337890625,-0.0734030898630619,0.008938508737087248,-0.005428409123746678
1746576144288791300,2.276791259765625,-0.05407704262435436,0.014750994408130646,-0.004870345982722938
1746576144298870300,2.286870361328125,-0.029140754288434982,0.02858253588378429,-0.013968045603204518
1746576144308948200,2.2969482421875,-0.022029460978507994,0.024476269608736036,0.002530249129980802
1746576144319026200,2.307026123046875,-0.003392565047740936,0.03338087607622146,0.009924578898679464
1746576144329105200,2.317105224609375,0.03355740168690681,0.026961072161793706,-0.0011924794538877904
1746576144339183400,2.327183349609375,0.05575345140397548,0.01524140827357769,-0.022224033702537418
1746576144349261300,2.33726123046875,0.06751403182446956,0.010951017603278159,-0.00008662797068245708
1746576144359340300,2.34734033203125,0.0627893413901329,0.01040156702697277,0.04121904062228277
1746576144369418200,2.357418212890625,0.0379366396844387,0.00392915614247322,0.07710036434526554
1746576144379496400,2.367496337890625,-0.014930442628264427,0.0012356792747974395,0.053457833013776684
1746576144389575200,2.3775751953125,-0.038382045364379884,0.004158873245120048,-0.01800435191458091
1746576144399653000,2.387653076171875,-0.03466974684298038,-0.005399228695034981,-0.041905187122384085
1746576144409732400,2.397732421875,-0.016854104167222977,-0.0012105448335409164,-0.04702442069910467
1746576144419810300,2.407810302734375,0.01594166549742222,0.01298573830127716,-0.040549552996037526
1746576144429888300,2.41788818359375,0.03984802626371384,0.043397243177890774,-0.03211268277131021
1746576144439967200,2.42796728515625,0.06532616639137268,0.05351882421970367,-0.03221091898139566
1746576144450045400,2.43804541015625,0.08101999460756779,0.03959200567603111,-0.007263250734936446
1746576144460123400,2.448123291015625,0.02925239796936512,0.03835691092312336,0.024933393125934525
1746576144470202000,2.4582021484375,-0.002802197939157486,0.02713175255358219,0.04438030853164382
1746576144480280000,2.468280029296875,-0.009845102187991141,0.007649053448438644,0.034416594065818935
1746576144490358300,2.478358154296875,-0.04955401224195957,-0.005198153164982795,0.008946299317898228
1746576144500437200,2.488437255859375,-0.03991290819346904,-0.005724807387590408,-0.04164986065444536
1746576144510515200,2.49851513671875,-0.02583469848036766,0.00758650960624218,-0.005230658061942085
1746576144520593200,2.50859326171875,-0.0204781398832798,0.005538929426670074,0.011772362189833074
1746576144530672400,2.51867236328125,-0.004494388809800148,0.0024456395864486695,0.0006979648020584136
1746576144540750300,2.528750244140625,0.028504794472455977,0.01570318056643009,0.011503436454804613
1746576144550828300,2.538828369140625,0.026316344517469406,0.03256312995254993,0.024203343552025032
1746576144560907300,2.5489072265625,0.026726678884029388,0.04771744446456432,0.02044173512933776
1746576144570985200,2.558985107421875,0.04802548750042915,0.025514965006709096,-0.020163073451584204
1746576144581063200,2.569063232421875,0.040270051068067546,0.03998597342967987,-0.04364904424818233
1746576144591142100,2.57914208984375,0.05389350275099277,0.03457271620929241,-0.02397995572546497
1746576144601220400,2.589220458984375,0.05737725321352481,0.03450432714819908,0.000362549702078104
1746576144611298300,2.59929833984375,0.06430091499686241,0.017511106771230696,0.013016608363576232
1746576144621377300,2.609377197265625,0.03720949445366859,-0.002146364378929138,0.005728488048864528
1746576144631455200,2.619455322265625,0.010924129596352576,0.006562427255511283,0.004047613156680017
1746576144641533200,2.629533203125,-0.02717325360774994,-0.0014922843843698502,-0.009911938612814992
1746576144651612200,2.639612060546875,-0.06597615473270416,-0.01854629503786564,-0.006383855818212032
1746576144661690000,2.649690185546875,-0.11078092662096023,-0.0012888707667589186,-0.01541970571624115
1746576144671768000,2.65976806640625,-0.11547697548270225,-0.004053074783086776,-0.021068013801518827
1746576144681847300,2.669847412109375,-0.08611059574484825,0.003454524368047714,-0.046109607409127056
1746576144691925200,2.67992529296875,-0.05856032551825046,0.03510696921646595,-0.05609452905976213
1746576144702004200,2.690004150390625,0.008548048114776611,0.028251696494221684,-0.02535729936012067
1746576144712082200,2.700082275390625,0.08740005103349685,0.023840309792757034,0.03784581959582865
1746576144722160400,2.710160400390625,0.12828501912951468,0.021591069561243056,0.059422166511975225
1746576144732239400,2.7202392578125,0.14728724124133585,0.02293371634185314,0.016834266955591738
1746576144742317300,2.7303173828125,0.151390000385046,0.030756957313418386,0.029752492978610098
1746576144752395300,2.740395263671875,0.10757891570925712,0.01657762531340122,0.0538290866121184
1746576144762474200,2.75047412109375,0.02532265730500221,0.022417583513259887,0.020720826065354046
1746576144772552200,2.76055224609375,-0.046512160328030586,0.0135024556517601,0.014872830689512192
1746576144782630100,2.770630126953125,-0.10694763206839561,0.015063713619112967,-0.013452058905083684
1746576144792709400,2.78070947265625,-0.12407704604566097,0.011821370697021483,-0.019671545341284943
1746576144802787300,2.790787353515625,-0.1292564945101738,-0.008123100700974464,-0.024834252733550964
1746576144812865300,2.800865234375,-0.0847965905368328,-0.003606500059366226,-0.027857007221365346
1746576144822944300,2.8109443359375,-0.03612754443585872,0.005846387940645218,-0.012812007435876875
1746576144833022500,2.8210224609375,0.010003507620096205,0.002583586752414703,-0.014278645922336727
1746576144843100400,2.831100341796875,0.06928454862833022,0.03764437873959541,-0.02904555028565228
1746576144853179100,2.84117919921875,0.13256021223068237,0.0547550880163908,0.029750949475495142
1746576144863257000,2.851257080078125,0.1447802268564701,0.04179214606881142,0.05482664628210477
1746576144873335300,2.861335205078125,0.25852994015514846,0.05715630393922329,0.010061631015501915
1746576144883414300,2.871414306640625,0.25999475201070305,0.05857084691226482,0.1487200870560482
1746576144893492200,2.8814921875,0.1274269409954548,0.010341361272335052,0.08033601266508922
1746576144903570200,2.891570068359375,0.056985039025545116,0.03897065890729427,0.004548941141786053
1746576144913649400,2.9016494140625,-0.016903788527846336,0.02765899129807949,-0.02860382526698522
1746576144923727400,2.911727294921875,-0.06262684430480003,0.03324117534458637,-0.04114993004198186
1746576144933805300,2.921805419921875,-0.05083937587738037,0.03429506831169128,-0.021946769397426395
1746576144943884000,2.931884033203125,-0.0825005885541439,-0.0057400049567222595,-0.018149678669404236
1746576144953962200,2.941962158203125,-0.12544658083319662,-0.03100947076976299,-0.03076258333660662
1746576144964040200,2.952040283203125,-0.14742343484163284,-0.03829319803714752,-0.027635089832684024
1746576144974119200,2.962119140625,-0.17782558736801146,-0.05115034152269363,-0.03245761461830698
1746576144984197000,2.972197021484375,-0.16267127285599708,-0.03334054406583309,-0.040491685328958554
1746576144994276400,2.9822763671875,-0.09907412221431731,0.00011398176848888397,-0.028241549559542906
1746576145004354300,2.992354248046875,-0.026641338688135147,0.03328618353009224,-0.011521885426947846
1746576145014432300,3.002432373046875,0.09804887081980705,0.046214638686180115,0.02105305369440466
1746576145024511200,3.01251123046875,0.21400749233961103,0.06377718338370322,0.07100355444066227
1746576145034589200,3.022589111328125,0.2329226206898689,0.04781389057636261,0.054865571786696085
1746576145044667100,3.032667236328125,0.22512509868144986,0.04457447026371956,-0.0021224355140700936
1746576145054746000,3.04274609375,0.15706512341201304,0.05217150126397609,-0.03144993541310541
1746576145064824300,3.05282421875,0.05793605614006519,0.0189835174113512,-0.008673318462260066
1746576145074902300,3.06290234375,-0.011420973202586173,0.008548632636666298,-0.03278705663522705
1746576145084981200,3.072981201171875,-0.06349778192043304,-0.0014753332495689392,-0.025691636747866866
1746576145095059200,3.08305908203125,-0.11879822885990142,-0.01632102020382881,-0.01481448809839785
1746576145105137400,3.093137451171875,-0.1695101789653301,0.0017114800930023192,-0.002571905447775498
1746576145115216100,3.103216064453125,-0.19410744460523127,0.0007446808874607086,-0.02767210650797933
1746576145125294000,3.113294189453125,-0.13048866665363312,-0.006081365740299225,0.010386533854622394
1746576145135372000,3.1233720703125,-0.07419803963303566,-0.011547229930758476,0.040787051546340804
1746576145145451000,3.133450927734375,-0.029670915642380714,-0.0032931963264942166,0.010118914160691201
1746576145155529000,3.143529052734375,0.04581248762607574,0.008565583771467208,-0.032717809057608245
1746576145165607000,3.15360693359375,0.10492577085196972,0.03557049507498741,-0.021975091309612615
1746576145175686000,3.163685791015625,0.10559797102510929,0.032095512440800666,0.008459483915334567
1746576145185764000,3.17376416015625,0.08476268826723098,0.04651625198125839,0.00604754566908814
1746576145195842000,3.183842041015625,0.0873544583261013,0.0333007965773344,0.018657281131669878
1746576145205921000,3.193921142578125,0.08429039458036422,0.019122633621096608,0.032058048240933563
1746576145215999000,3.2039990234375,0.07948737821280956,0.006347323200106621,0.02558873349581845
1746576145226077200,3.2140771484375,0.0353401934504509,0.021981530183553696,0.008637196836108342
1746576145236156000,3.224156005859375,-0.04851297875642776,0.021812603357434273,0.0003146919723600149
1746576145246233900,3.23423388671875,-0.10253332275748252,0.003220131090283394,-0.009105380603438244
1746576145256311800,3.244311767578125,-0.12254033799767493,-0.010431962165236473,-0.056933783762343225
1746576145266391000,3.25439111328125,-0.13260931206941604,0.0077735566109418865,-0.0403961159999948
1746576145276469000,3.264468994140625,-0.10738251635432243,0.009736381116509436,-0.04896801991439424
1746576145286547000,3.274546875,-0.05205167427659035,0.003323591464757919,-0.01880037026363425
1746576145296626000,3.2846259765625,0.01725041000843048,0.011977438041567801,0.02833682662756182
1746576145306704100,3.2947041015625,0.08743921400010585,0.000713116705417633,0.052176150039630005
1746576145316782800,3.304782958984375,0.10306991385221481,0.013436404678225516,0.04284879724858329
1746576145326860800,3.31486083984375,0.10070201567709446,0.04233575142621994,0.0006714969202410429
1746576145336938800,3.324938720703125,0.06493921290040015,0.034731121641397474,0.00508703007386066
1746576145347018000,3.33501806640625,0.025736498802900312,0.014694295784831047,0.012835726238181813
1746576145357096000,3.345095947265625,-0.024191022926568984,0.023028993409872054,0.021794364447845146
1746576145367174000,3.355173828125,-0.0552384876191616,0.010700257712602615,-0.0019741952829528597
1746576145377253000,3.365253173828125,-0.04349368928968906,0.022347440886497497,-0.04862910681623034
1746576145387331000,3.3753310546875,0.00042202480435371396,0.028487843337655066,-0.03938357795658521
1746576145397409000,3.385408935546875,0.04656768990755081,0.03748071261048317,0.016591169781563803
1746576145407487700,3.39548779296875,0.06204173789322376,0.016364859345555306,0.014827174050034954
1746576145417566000,3.40556591796875,0.03604629589319229,0.013955460116267204,0.0005341890750918538
1746576145427644000,3.415643798828125,0.026929507979750633,0.02728255920112133,0.012188423044281079
1746576145437723000,3.425722900390625,0.033303719186782835,0.030805472630262374,0.016895376892527566
1746576145447800800,3.43580078125,0.050747021418809886,0.01516600494980812,0.05362522546993568
1746576145457879000,3.445879150390625,0.06782675103545188,0.014225509229302406,0.06150609664656222
1746576145467958000,3.4559580078125,0.05496726946234703,0.015811901637911796,0.005372340688109397
1746576145478036000,3.466035888671875,0.010789105039834976,0.01624210974872112,-0.004916852005571126
1746576145488114000,3.476114013671875,-0.02332417696416378,0.019197452422976494,-0.01651029569823295
1746576145498193200,3.486193115234375,-0.01286065061688423,0.013052958318591117,-0.014847084326902403
1746576145508271000,3.49627099609375,-0.019876666858792302,0.011232757154107093,-0.03219402264552191
1746576145518349000,3.50634912109375,-0.04948445413708687,0.009130231916904449,-0.028459567091241478
1746576145528428000,3.516427978515625,-0.03868424318134785,0.009128478351235389,-0.02675026068901643
1746576145538506000,3.526506103515625,-0.009938041168451308,0.013939678025245665,-0.0038640550170093773
1746576145548585000,3.5365849609375,0.01914835258424282,0.02380290039181709,-0.0027295162954367696
1746576145558663000,3.546662841796875,0.09427402845621108,0.03923135567009449,0.017587313812598586
1746576145568740900,3.556740966796875,0.12245265971422195,0.027948329633474347,0.045351875243848185
1746576145578820000,3.566820068359375,0.11500117466449737,0.010649988830089569,0.023566917945165185
1746576145588898000,3.57689794921875,0.045993104889988895,0.013736264407634735,-0.009680778471753
1746576145598976000,3.58697607421875,-0.0327343948662281,0.028939678758382794,-0.0033681521256919947
1746576145609055000,3.597054931640625,-0.09635025020837783,0.010513795229792594,0.029521031443448736
1746576145619133000,3.6071328125,-0.08876666321158408,-0.0012608137160539626,0.030872080726223064
1746576145629211000,3.6172109375,-0.07954115422666072,-0.012255670461058616,-0.0016370722830761223
1746576145639289900,3.627289794921875,-0.0533475593060255,0.011422726768255233,-0.049586380141600966
1746576145649368000,3.6373681640625,-0.049041386544704434,0.030969138759374615,-0.06106413416587747
1746576145659446000,3.647446044921875,0.003274491626024246,0.038140637823939325,-0.024111162623390553
1746576145669525000,3.65752490234375,0.049860886234045027,0.04533785585165023,0.0279515353707131
1746576145679603000,3.66760302734375,0.06399813265800476,0.02570084296762943,0.0553587803974282
1746576145689681200,3.67768115234375,0.07509235812425613,0.00024725275933742524,0.04049893705365248
1746576145699759900,3.687759765625,0.06511047781407833,0.011564765587449073,0.023664176907716317
1746576145709837800,3.697837890625,0.0456488214969635,0.013649170646071433,-0.007382931591849774
1746576145719915800,3.707915771484375,0.025095862811803815,0.0033598318219184875,-0.013742493219021707
1746576145729995000,3.7179951171875,0.0435486343473196,0.012719196319580078,0.005750782079063356
1746576145740073000,3.728072998046875,0.028476152899861332,0.02312368595600128,0.007999419522378592
1746576145750152000,3.73815185546875,-0.012629179948568343,0.030087679749727248,-0.00620025201276876
1746576145760230100,3.748230224609375,-0.023795886129140853,0.022526304584741592,0.0023109346903394906
1746576145770308000,3.75830810546875,-0.026572949627041816,0.03247895880043507,0.008147860682895407
1746576145780386800,3.76838671875,-0.02726677711009979,0.03183656924366951,0.00011546133952215313
1746576145790464800,3.77846484375,-0.026944705548882484,0.018064064478874205,0.008283688957011327
1746576145800543000,3.78854296875,-0.012144611302018165,-0.011679331877827643,0.0037261535168159753
1746576145810622000,3.7986220703125,0.005475801062583923,-0.0018909283131361007,-0.02374748954330571
1746576145820700000,3.808699951171875,0.030262451794743538,-0.006309329277276993,-0.0007829305386170745
1746576145830777900,3.81877783203125,0.03103577425479889,-0.009467501047253609,0.023973726914077995
1746576145840857000,3.828857177734375,0.04271685969829559,0.006091302612423896,0.028198614600114524
1746576145850935000,3.83893505859375,0.13547054671943187,0.03246259218752384,-0.02209623347125016
1746576145861013000,3.849012939453125,0.24871640214920043,0.06684416973888874,0.1386387375599239
1746576145871092000,3.859092041015625,0.16757424246668814,0.010620762735605239,0.11231864844909868
1746576145881170000,3.869169921875,0.13264321433901785,0.02815992655754089,-0.0007594400651752949
1746576145891247900,3.879247802734375,0.053498950475454325,0.04830196635425091,-0.04499696085895411
1746576145901326800,3.889326904296875,-0.04625964687168598,0.0012310030996799469,-0.04261486062854528
1746576145911404800,3.89940478515625,-0.16479367183744906,-0.02404956862926483,-0.044340268782200286
1746576145921483000,3.90948291015625,-0.23279753300547598,-0.02676934898197651,-0.05811105651394464
1746576145931562000,3.91956201171875,-0.3016466128259897,-0.042159225815534586,-0.10488939349749125
1746576145941640000,3.929639892578125,-0.3063034987211227,-0.045022798553109165,-0.10134277953235432
1746576145951719200,3.93971923828125,-0.2305190666794777,-0.017362638211250305,-0.05274925548615865
1746576145961797000,3.949797119140625,-0.09360124376118183,0.053504795694351195,-0.0008730747737921774
1746576145971875000,3.959875,0.08473229312896728,0.09221534236073493,0.08002639872664585
1746576145981953800,3.969953857421875,0.21379297280609608,0.06369651936292647,0.11825893435142934
1746576145992032000,3.980031982421875,0.23661153833568094,0.03569499823749065,0.03661667965967208
1746576146002110000,3.99010986328125,0.20675591377615926,0.020832944670319556,-0.06711958001363091
1746576146012189000,4.00018896484375,0.17999241001307964,-0.0005821838021278381,-0.04867875464423559
1746576146022267000,4.010266845703125,0.15649346100389958,-0.017369067952036858,0.020756902025733142
1746576146032345000,4.020344970703125,0.11651508635878562,-0.004703647646307945,0.06288747713551857
1746576146042424000,4.030424072265625,0.09298281960189342,0.030093524968624115,0.016040239634225142
1746576146052502000,4.040501953125,0.05189385336637497,0.06898351985514163,-0.005698138576373458
1746576146062580000,4.050580078125,-0.015935820278525352,0.06295709917247296,-0.017546013687830417
1746576146072659000,4.060658935546875,-0.04921148241460323,0.03690320498347282,0.018235228927852586
1746576146082737000,4.07073681640625,-0.04795534487366676,0.002789338457584381,0.050724115467257795
1746576146092816000,4.08081591796875,-0.056150341767072676,-0.018726327779889106,0.04960993454712443
1746576146102894000,4.09089404296875,-0.10422668267190456,-0.021724925073981285,-0.049377897623227904
1746576146112972000,4.100971923828125,-0.12275193492174148,-0.011579963156580924,-0.08036719325464219
1746576146123051500,4.111051513671875,-0.060194648721814153,-0.022919103294610974,-0.030547442748583852
1746576146133129500,4.12112939453125,-0.06831541133522986,-0.009945055431127548,-0.03802208034503273
1746576146143207400,4.13120751953125,-0.03202712337970733,0.01564998907446861,-0.042464656769204884
1746576146153286400,4.141286376953125,0.025628362253308296,0.04997194539308548,-0.002806654918566346
1746576146163364400,4.1513642578125,0.09868599967956543,0.03744914842844009,0.025589491547644137
1746576146173442300,4.1614423828125,0.14631635038256643,0.021129297268390655,0.03498516033454798
1746576146183521300,4.171521240234375,0.14533610717356205,0.03974573493301868,0.018834135535918176
1746576146193599500,4.181599609375,0.11956219896972178,0.044665071156620974,-0.0006267261967528612
1746576146203677400,4.191677490234375,0.08457681030631065,0.04411386701464653,0.024515971431462093
1746576146213756400,4.20175634765625,0.09234452169835566,0.02667348739206791,0.03833767649969086
1746576146223834400,4.21183447265625,0.06816285112202167,0.003732756787538528,0.040849960714718324
1746576146233913300,4.221913330078125,-0.013445172506570815,-0.002343348255753517,0.009775041759619489
1746576146243991300,4.2319912109375,-0.1037976436048746,-0.008913958817720412,-0.06738617679425515
1746576146254069200,4.2420693359375,-0.14496201316416263,0.010064882418513298,-0.0990746702035889
1746576146264148500,4.2521484375,-0.12769523654282092,0.005536591339111328,-0.04262487969906069
1746576146274226400,4.262226318359375,-0.09646949267387389,-0.009919920989871024,0.003046007499238476
1746576146284304400,4.272304443359375,-0.06292728855609893,0.0004658639460802078,-0.000044323198916390537
1746576146294383400,4.28238330078125,-0.03626023090481758,0.018773089531064033,0.0029025439079385248
1746576146304461600,4.292461669921875,-0.0026063831061124802,0.0178290866792202,0.005698622633563354
1746576146314539500,4.30253955078125,0.03097147684693336,0.03701367962062359,-0.008228469904744996
1746576146324618200,4.3126181640625,0.0738087480545044,0.033899931514263154,0.01876911660884507
1746576146334696200,4.3226962890625,0.09916764571666717,0.03326221813261509,0.019733933919854462
1746576146344774400,4.3327744140625,0.15088321990668774,0.01640343779027462,0.006983483945485204
1746576146354853400,4.342853271484375,0.1623480322510004,0.03093231388032436,0.0037992552856449036
1746576146364931300,4.352931396484375,0.12075403910279273,0.041166123124957085,0.007386091663315892
1746576146375010600,4.363010498046875,0.06110416478216648,0.022443302476406097,0.03506156830531545
1746576146385088500,4.373088623046875,0.04060907376408577,-0.0014683189868927,0.018539783098688346
1746576146395166500,4.38316650390625,-0.032004327026009555,-0.005275310054421425,-0.007195784122450277
1746576146405245200,4.3932451171875,-0.08267711416482924,-0.008694178587198257,-0.024749825853109357
1746576146415323400,4.403323486328125,-0.1152308917671442,-0.01268120239675045,-0.02009561597225256
1746576146425401300,4.4134013671875,-0.1412245802015066,0.0070434887707233424,0.00009928652285598218
1746576146435480300,4.423480224609375,-0.11214403166770934,0.016032266390323638,-0.02207003958406858
1746576146445558300,4.433558349609375,-0.03230126414597034,0.029049568873643874,0.0034069132335018365
1746576146455636200,4.44363623046875,0.024684359401464462,0.039926936718821526,0.029564076000731437
1746576146465715500,4.453715576171875,0.05456044222712517,0.0400368268340826,0.04271306030601263
1746576146475793400,4.46379345703125,0.07677227403521537,0.049885436153411865,0.016258777755731715
1746576146485871400,4.473871337890625,0.13193828094005583,0.02435936523079872,-0.013219948915950953
1746576146495950300,4.483950439453125,0.12134440621137618,0.004990063372254372,0.008607386219734326
1746576146506028300,4.4940283203125,0.08619768950641155,0.006699205377697944,0.013974639740772545
1746576146516106200,4.504106201171875,0.013623451682925223,0.0027308862686157226,0.024044846788374704
1746576146526185200,4.514185302734375,-0.04110241023898124,0.021476503270864485,0.02237811001939699
1746576146536263400,4.524263427734375,-0.06446575016975402,0.016081950750946997,-0.00930810010130517
1746576146546342400,4.53434228515625,-0.08805997624695301,0.0022755437165498734,-0.0515405007509049
1746576146556420400,4.54442041015625,-0.06534019491672516,0.018798223972320557,-0.03398913503452204
1746576146566498300,4.554498291015625,-0.03563654604852199,0.018335867157578466,-0.021002346420474348
1746576146576577500,4.56457763671875,0.00021978023052215574,0.02460954059958458,-0.0009913217254448681
1746576146586655500,4.574655517578125,0.06589023001492023,0.03172083390951157,-0.006702319783391431
1746576146596733400,4.5847333984375,0.060362406504154205,0.009598433950543403,0.026392277564201504
1746576146606812400,4.5948125,0.040406829190254206,0.018500117808580397,-0.002291060946090147
1746576146616890400,4.604890380859375,0.06267126796841621,0.035760464689135546,-0.013352288325037806
1746576146626968300,4.61496826171875,0.07524374929368495,0.020205168160796164,0.02421697935173288
1746576146637047300,4.62504736328125,0.08964461508989334,0.02882277438044548,0.04873011037213727
1746576146647125500,4.63512548828125,0.07750117283165454,0.026250878065824507,0.04101161754983477
1746576146657203500,4.645203369140625,0.07353752989768982,0.034630583876371385,0.015598085357295349
1746576146667282400,4.655282470703125,0.04956219554841518,0.020220950251817704,0.009540255756210534
1746576146677360400,4.6653603515625,0.016882745739817618,-0.0017979893326759337,0.005439715969050303
1746576146687439400,4.675439453125,-0.05200491252541542,0.0019300912797451017,-0.006282377338269725
1746576146697517300,4.685517333984375,-0.10597849477529525,-0.010721300500631331,-0.04330246843337081
1746576146707595300,4.69559521484375,-0.10378303055763244,-0.0010889642804861068,-0.046725483418302606
1746576146717674500,4.705674560546875,-0.09177110572457313,0.017321137157082556,-0.019420694119064136
1746576146727752400,4.71575244140625,-0.04094926550388336,0.036001872229576105,-0.011704648982174694
1746576146737830400,4.725830322265625,0.030981413719058035,0.04136310700178146,0.000794721441110596
1746576146747909400,4.735909423828125,0.06797521959543228,0.04662731114029884,0.010460612870985642
1746576146757987300,4.7459873046875,0.10156593903005122,0.02863748094141483,0.02047916279658675
1746576146768065500,4.7560654296875,0.11267302397787571,0.015724807876348494,0.04004638011371717
1746576146778144300,4.766144287109375,0.08787234472036361,0.010851064360141754,0.04003074415316805
1746576146788222200,4.77622216796875,0.044186932250857354,-0.012113631641864776,0.021306370868347583
1746576146798300200,4.786300048828125,0.008282675176858902,0.01640285326838493,-0.0010980974350124598
1746576146808379400,4.79637939453125,0.014725859966874122,-0.0022118308305740355,-0.006782408415433019
1746576146818457300,4.806457275390625,-0.007731471034884452,0.0002922609448432922,-0.00862513193897903
1746576146828536300,4.816536376953125,-0.01348024381995201,0.008833294796943664,-0.01371128523000516
1746576146838614500,4.826614501953125,-0.04346563223898411,0.02158873147368431,-0.034811173740820954
1746576146848692500,4.8366923828125,-0.06053776307106018,0.016977438285946844,-0.053414943720120935
1746576146858771200,4.846771240234375,-0.020445406657457352,0.032144027757644654,-0.015819920547585933
1746576146868849200,4.85684912109375,0.028854338562488556,0.01864157210588455,0.039865854181349275
1746576146878927400,4.86692724609375,0.07109539744257927,0.011120528951287269,0.04052546886755153
1746576146889006300,4.87700634765625,0.08474982878565787,0.024382746106386185,0.014419040773715823
1746576146899084300,4.887084228515625,0.052629766425490374,0.005741758522391319,-0.012580427169706672
1746576146909162200,4.897162353515625,0.008973580050468444,0.00641921939253807,0.00825012461412698
1746576146919241500,4.907241455078125,0.011638999867439269,0.010464110869169235,0.0178086740788538
1746576146929319400,4.9173193359375,-0.0062765960514545435,0.01818973668515682,-0.01714948865091428
1746576146939397400,4.9273974609375,-0.04288403295874595,0.017383096477389334,-0.004617120140325278
1746576146949476600,4.9374765625,-0.04188333148360252,0.015194646522402763,-0.0021735537799540904
1746576146959554600,4.947554443359375,-0.04178746989369392,0.022615736433863637,0.003735341470269486
1746576146969633300,4.95763330078125,-0.03297054170966148,0.022834932142496107,-0.00846290884828195
1746576146979711200,4.967711181640625,-0.006053893211483955,0.04446574919223785,-0.007462371769919991
1746576146989789400,4.97778955078125,0.03129413293004036,0.02603986566364765,0.017640678834496066
1746576146999868400,4.987868408203125,0.05284837761223316,0.009769698864221573,0.015433560711657628
1746576147009946400,4.9979462890625,0.06111059452295303,0.019191022682189942,0.0038589861162472514
1746576147020024300,5.0080244140625,0.06242167712152004,-0.005603226834535599,0.004854545625392347
1746576147030103600,5.018103515625,0.06891220818459987,0.004217909955978393,0.007057325499830767
1746576147040181500,5.028181396484375,0.07231120297312736,0.031176644030213353,0.02518658243571408
1746576147050259500,5.038259521484375,0.07097264784574508,0.03277063522338867,0.022879657200211657
1746576147060338400,5.04833837890625,0.047935471129417415,0.01744330223202705,0.015659999011829493
1746576147070416400,5.05841650390625,-0.01196750116944313,0.020433716219663618,-0.029689556410768998
1746576147080494300,5.068494384765625,-0.03351063993573188,0.012173252874612808,-0.043123513403581455
1746576147090573300,5.0785732421875,-0.05586626412868499,0.0031061493217945098,-0.01262507916218601
1746576147100651300,5.0886513671875,-0.02914601498544216,0.017251579052209854,0.019455263108946384
1746576147110730500,5.09873046875,-0.007969371443986892,0.020775077003240584,0.05591916335970163
1746576147120808200,5.10880810546875,-0.0037070378243923186,0.02191723277568817,0.01991709020072594
1746576147130886100,5.11888623046875,-0.007139934882521629,0.024184008663892746,-0.01832572022289969
1746576147140964900,5.12896484375,0.02401215922832489,0.015222119051218033,-0.02327839246052317
1746576147151043000,5.13904296875,0.07187748773097992,0.01945464205443859,0.025484770797844974
1746576147161121000,5.14912109375,0.09202245013713836,0.020845219630002975,0.02297744588572532
1746576147171200000,5.159199951171875,0.08784019601643085,0.014951485416293143,0.004841804874828085
1746576147181278000,5.16927783203125,0.046205286335945124,0.003701777127385139,-0.018855653247982263
1746576147191356200,5.179356201171875,0.019782558834552762,0.03155541421473026,0.0001283390874043107
1746576147201435100,5.18943505859375,-0.007238719081878662,0.02605214062333107,0.004510380963375792
1746576147211513000,5.19951318359375,-0.03248246593177318,0.013694763353466987,0.002180001787049696
1746576147221591000,5.209591064453125,-0.03271919729709625,0.021245617124438284,-0.01441571630546823
1746576147231670000,5.219669921875,-0.008594809865951538,0.016416297271847725,-0.008345566078927367
1746576147241748000,5.229748046875,0.007799275574088096,0.012435118681192398,0.017200506452098488
1746576147251827000,5.239826904296875,0.021557167291641234,0.006152677410840988,0.025997323429863897
1746576147261905200,5.2499052734375,0.03973579806089401,0.001727262184023857,0.013399031809903681
1746576147271983000,5.259983154296875,0.02802840913236141,0.0053320086777210235,0.014796925042243673
1746576147282062000,5.27006201171875,0.006185410636663437,0.019520693027973175,0.03151075308909639
1746576147292140000,5.28014013671875,0.0019043723165988922,0.029772622451186177,-0.013781373057840392
1746576147302218200,5.29021826171875,-0.016563012266159055,0.018154665371775625,-0.020579527031676842
1746576147312297200,5.300297119140625,-0.04044365406930446,0.016151508855819702,-0.03755239874036051
1746576147322375200,5.310375244140625,-0.03783434835374355,0.01879588588476181,-0.03781519612870179
1746576147332453000,5.320453125,-0.022324060010910033,0.026208792489767072,0.0006082863577641547
1746576147342532000,5.330531982421875,0.001986205381155014,0.021999650362133978,0.02975767147722654
1746576147352610000,5.340610107421875,0.021086627170443534,0.031825463327765466,0.0059894405399914825
1746576147362689000,5.35068896484375,0.05620820943415165,0.020230887123942373,-0.003565035537816584
1746576147372767000,5.36076708984375,0.06911386823654174,0.010770400339365004,0.0019693181784357873
1746576147382845200,5.37084521484375,0.07773147445619105,0.012452654337882995,0.03220790504040196
1746576147392924200,5.380924072265625,0.06689619218707084,0.022041735938191413,0.01698621524744667
1746576147403002000,5.391002197265625,0.018393734824657438,0.024414894810318947,0.0064515781590249385
1746576147413080000,5.401080078125,-0.0129272861123085,0.00961772317290306,-0.003089463048474863
1746576147423159000,5.411158935546875,-0.01575637205839157,-0.016154431465268133,0.01873869407111779
1746576147433237000,5.421237060546875,-0.025488076999783515,-0.001048047748208046,0.0000031600714661180972
1746576147443315000,5.43131494140625,-0.03393558734953403,0.003822773158550262,-0.013541582085750997
1746576147453394200,5.441394287109375,-0.01765256106853485,0.028572014489769933,0.014084803850669413
1746576147463472000,5.45147216796875,-0.00474222609102726,0.023485505005717278,0.006394788204180077
1746576147473550000,5.461550048828125,0.011646598652005196,0.040215106010437006,-0.0044368042705114925
1746576147483629000,5.471629150390625,0.04415127641558647,0.03078910601735115,-0.012444014373701065
1746576147493707300,5.481707275390625,0.06982113972306252,0.02937690113186836,-0.010006247566454112
1746576147503786000,5.491785888671875,0.05585515821278095,0.02103928089737892,-0.0005825308619998395
1746576147513864000,5.501864013671875,0.05423778614401817,0.031306992411613464,0.01368799568596296
1746576147523942000,5.51194189453125,0.03134264824688435,0.020934651479125023,0.02740824054055847
1746576147534021000,5.522021240234375,0.004492050722241401,0.023808745610713958,-0.014210768317896872
1746576147544099000,5.53209912109375,0.006136310797929764,0.020488661277294158,-0.011713919134018941
1746576147554177000,5.542177001953125,-0.021712650114297866,0.0056575873702764505,0.02912682622778229
1746576147564256300,5.55225634765625,-0.036170214533805846,0.005737082347273826,0.005333926640171557
1746576147574334200,5.562334228515625,-0.042112464064359666,0.005263035094738007,-0.0042669823952484875
1746576147584412200,5.572412109375,-0.02241173829436302,0.010890227326750756,-0.011428763783397152
1746576147594491000,5.582490966796875,-0.018406009784340857,-0.016416297271847725,-0.0022752149229869245
1746576147604569000,5.592569091796875,0.008019640326499938,0.021553075638413428,0.027689751762524247
1746576147614647000,5.60264697265625,0.03320902664065361,0.036219314372539516,0.015237535816058516
1746576147624726000,5.61272607421875,0.03619008827805519,0.02176467256247997,0.0021003606795798988
1746576147634804000,5.622803955078125,0.04251870677769184,0.014879589223861693,0.006489243288291618
1746576147644883200,5.63288330078125,0.06086451080739498,0.023331775748729706,0.011275582515681162
1746576147654961200,5.642961181640625,0.05713233854174614,0.0149316116720438,0.026272249647416174
1746576147665039000,5.6530390625,0.04786474398076534,0.02791910353899002,-0.0007642258381471037
1746576147675118000,5.6631181640625,0.05724573578834533,0.02495090138316154,-0.011462748251389711
1746576147685196300,5.6731962890625,0.0787146402746439,0.019897125124931334,0.010872719069523737
1746576147695274200,5.683274169921875,0.06260697056055069,0.009897124636173248,0.0063260520832147445
1746576147705353000,5.69335302734375,0.0326689284145832,0.006385317122936249,0.004333416961273178
1746576147715431000,5.703430908203125,0.0043634559065103525,0.011722001975774764,-0.008799894850840791
1746576147725509000,5.713509033203125,-0.02434066053032875,0.020326748713850974,-0.010762554959626868
1746576147735588000,5.723588134765625,-0.04216857816576958,0.0059521864026784894,-0.0005868691103998572
1746576147745666000,5.733666015625,-0.05522329005002975,0.002382511222362518,0.007215073344809934
1746576147755745300,5.743745361328125,-0.05808335565626621,0.016615034714341163,-0.010351718269567937
1746576147765823200,5.7538232421875,-0.060760465911030764,0.015865093129873276,-0.03264659785176627
1746576147775901200,5.763901123046875,-0.025171850657463073,0.02146189022362232,-0.019637515207519753
1746576147785980000,5.77397998046875,0.0022562544941902157,0.019363456639647482,0.01310053292051889
1746576147796058000,5.78405810546875,0.05054360780119896,0.02736789939701557,0.0327287779761944
1746576147806136000,5.794135986328125,0.10516951647996901,0.03783434835374355,0.0214298602506984
1746576147816215000,5.804215087890625,0.10412322229743003,0.007855389675498009,0.013080686575733124
1746576147826293000,5.81429296875,0.028054712617397306,0.011734861457347869,-0.007907329925289378
1746576147836371200,5.82437109375,-0.023782442125678063,0.0026280104160308834,-0.03170140768983401
1746576147846450200,5.8344501953125,-0.03990881654024124,0.01111176112294197,-0.007404549768613651
1746576147856528100,5.844528076171875,-0.046375382205843925,-0.010689736318588257,-0.014777416624175383
1746576147866607000,5.854607177734375,-0.03401508232653141,-0.016299977415800092,-0.021093340039020404
1746576147876685000,5.86468505859375,-0.027490064471960066,0.0060737669557332985,-0.01719815009823069
1746576147886763000,5.874762939453125,-0.01461830793917179,0.027066286101937294,-0.02205474155023694
1746576147896842000,5.884842041015625,0.029666823989152907,0.028775428107380867,0.008694699177006259
1746576147906920200,5.894920166015625,0.07883797439336776,0.038137130692601204,0.03813764214925468
1746576147916998100,5.904998046875,0.11301146215200424,0.017860650861263275,0.051063357358984644
1746576147927077000,5.9150771484375,0.08906360033154487,0.016155600509047508,0.03939444641047157
1746576147937155000,5.925155029296875,0.04830371991991996,0.009991817182302474,-0.019789061640575527
1746576147947233300,5.9352333984375,-0.028518238475918768,0.01702770716845989,-0.06767462921366095
1746576147957312000,5.94531201171875,-0.01634557012319565,0.01604921752512455,-0.0503842707873322
1746576147967390000,5.955389892578125,-0.03296235840320587,0.003919803792238235,0.028054740016860886
1746576147977469200,5.96546923828125,-0.04227379210591316,0.012477204257249831,0.007403764317324385
1746576147987547100,5.975547119140625,-0.05459083736538887,0.026900281885266303,0.0003256608909461647
1746576147997625000,5.985625,-0.04006371484100819,0.01720773991048336,0.005030532379960641
1746576148007704000,5.9957041015625,-0.021812018835544584,0.018927987831830976,-0.021523666880838573
1746576148017782000,6.005781982421875,0.027269699719548224,0.013010288220643996,0.0047664654831402
1746576148027860200,6.015860107421875,0.05475684158205986,0.014753917017579077,0.017972002281248567
1746576148037939000,6.02593896484375,0.06116378601491451,0.01450374164879322,0.02428934133504517
1746576148048017200,6.03601708984375,0.10208148733675479,0.030141455763578413,0.01526234146375209
1746576148058095000,6.04609521484375,0.07862579294741154,0.03320902664065361,0.007725233090342953
1746576148068174000,6.056174072265625,0.07758008328676223,0.030904256829619406,-0.0009063103231135755
1746576148078252000,6.066251953125,0.040457098072767254,0.01768178716301918,-0.0027281645885668692
1746576148088331000,6.0763310546875,-0.013152911561727524,0.02019873842000961,0.009862930105626583
1746576148098409200,6.0864091796875,-0.04478489814400673,0.022900983116030692,-0.021012045830581336
1746576148108487200,6.096487060546875,-0.05891980648040771,0.004993570503592491,-0.02923408599453978
1746576148118566100,6.106566162109375,-0.06353402227759361,0.00034311434924602505,-0.002507197047956288
1746576148128644400,6.116644287109375,-0.061796238699555396,-0.008677227452397346,-0.0007800627280957997
1746576148138722300,6.126722412109375,-0.05669628521203995,0.003950783452391624,-0.01602792814192362
1746576148148801500,6.136801513671875,-0.010002338576316832,0.015103461107611656,-0.012316606868058442
1746576148158879500,6.14687939453125,0.0254494985550642,0.01130523786842823,0.02711767836245708
1746576148168957400,6.15695751953125,0.06396832204163073,0.037485973307490345,0.02157408189382404
1746576148179036400,6.167036376953125,0.11364859101176261,0.05397650485932827,0.021069895231351256
1746576148189114600,6.177114501953125,0.1273521221935749,0.042810383200645445,0.027330544795002788
1746576148199193600,6.187193603515625,0.08820435315370559,0.0076899699807167045,0.024408866928331552
1746576148209271600,6.197271484375,0.044592005920410155,0.021909633991122245,-0.009084182551782578
1746576148219349500,6.207349609375,-0.009606617256999015,0.02697100903391838,-0.025816368239233268
1746576148229428500,6.217428466796875,-0.053418870976567265,0.01689092904627323,-0.03163720161351375
1746576148239506400,6.22750634765625,-0.059792497661709784,0.013401917886734008,-0.0052135425303597
1746576148249584400,6.23758447265625,-0.043185646253824234,0.021218144595623014,-0.004664804340107367
1746576148259663400,6.247663330078125,0.0024795418560504914,0.021236849296092986,0.002251075995573774
1746576148269741600,6.257741455078125,0.05174772289395332,0.032306524842977524,0.015449452400533482
1746576148279820500,6.267820556640625,0.08356617195904255,0.02024550017118454,0.032127359750634056
1746576148289898500,6.2778984375,0.1045645363241434,0.0204693720549345,-0.009488443370582536
1746576148299976400,6.2879765625,0.04919453127980232,0.008461538875102996,0.0021649868810083715
1746576148310055400,6.298055419921875,0.01567570803761482,-0.0029535891085863113,0.01781978912791237
1746576148320133400,6.30813330078125,-0.034900048467516896,-0.0023860183537006375,-0.0038760377157479524
1746576148330211300,6.31821142578125,-0.03229717249274253,-0.0036468320697546,-0.012036164225172251
1746576148340290600,6.32829052734375,-0.03505319320261478,0.014237784188985823,-0.01482771290615201
1746576148350368500,6.338368408203125,-0.01171907936632633,0.021751813080906866,-0.011730221814848481
1746576148360446500,6.348446533203125,0.00021568857729434965,0.027210663008689878,0.006809004161413759
1746576148370525400,6.358525390625,0.009281623086333275,0.0484153636008501,-0.02634642912847921
1746576148380603600,6.368603759765625,0.03037467999756336,0.03169686851203441,-0.014279595770407468
1746576148390682400,6.378682373046875,0.046292380097508426,0.02013736362159252,0.01633654656652361
1746576148400760300,6.38876025390625,0.05649520968198776,0.03221826203763485,0.04107507470748387
1746576148410838300,6.39883837890625,0.06778758806884289,0.015950433325767517,0.051534655532008034
1746576148420917500,6.40891748046875,0.038953123250603676,0.01540390535891056,0.02595524698696099
1746576148430995500,6.418995361328125,0.026848259437084198,0.023714053064584732,0.013720884175412356
1746576148441073400,6.429073486328125,-0.008184475499391556,0.013667875346541404,0.003932416678639129
1746576148451152600,6.439152587890625,-0.012924363502860069,0.009257657688856124,-0.012540707080671563
1746576148461230600,6.449230712890625,-0.013608838635683058,0.024139585000276565,-0.003954738108301535
1746576148471309300,6.459309326171875,-0.02654255448877811,0.014914660537242889,-0.004730891846260056
1746576148481387300,6.46938720703125,-0.01349251877963543,0.003514145600795746,-0.01427535798670724
1746576148491465500,6.479465576171875,-0.025814824736118316,0.023336451923847198,-0.02430664866287261
1746576148501544400,6.48954443359375,-0.011914894199371338,0.023686580535769462,-0.007174257277231663
1746576148511622400,6.499622314453125,0.014938625934720038,0.01556815600991249,0.01271137833930552
1746576148521700400,6.509700439453125,0.04134557134509086,0.026593407893180845,0.01599575203852728
1746576148531779600,6.519779541015625,0.08429740884304046,0.01656418130993843,0.02002289779591374
1746576148541857500,6.529857421875,0.07178571779429913,0.026954642421007154,0.027034475324722005
1746576148551935500,6.539935546875,0.038598318463563916,0.013249942195415495,0.03263270632373169
1746576148562014500,6.550014404296875,0.01368891813457012,0.002353285127878189,0.02334614220079966
1746576148572092400,6.560092529296875,-0.000800210466980934,0.018307225584983825,-0.019436503609549252
1746576148582171400,6.57017138671875,-0.01478957285284996,0.019863807377219198,-0.011773914826102554
1746576148592249300,6.580249267578125,-0.02478548168838024,0.015639467680454253,-0.003986859412770718
1746576148602327300,6.590327392578125,0.019053075516223907,0.009207388806343078,-0.002726438422361389
1746576148612406500,6.600406494140625,0.019351766201853752,0.024623569124937055,0.000676958546647802
1746576148622484500,6.610484375,-0.006553659427165985,0.004001052334904671,0.01441226397305727
1746576148632562400,6.6205625,0.01374912388920784,0.024563947892189023,0.024874995735893024
1746576148642641700,6.6306416015625,0.023205519020557404,0.04654664711952209,-0.01457223117458634
1746576148652719600,6.6407197265625,0.018553893822431562,0.03219195855259895,-0.016587717449152842
1746576148662798300,6.65079833984375,0.023068740898370743,0.001771101325750351,-0.0020231033254414794
1746576148672876300,6.660876220703125,0.006259644916653633,0.0110842885941267,-0.007236892450973391
1746576148682954500,6.67095458984375,-0.004537643429636955,0.01679506745636463,0.0008484152565710246
1746576148693033500,6.681033447265625,-0.009931611427664756,0.013519406786561012,-0.028182138389348983
1746576148703111400,6.691111328125,0.00644493835568428,-0.003735679396986961,0.0012937387381214648
1746576148713189400,6.701189453125,0.007290157008171081,0.008158172014355659,0.015418975063879042
1746576148723268600,6.7112685546875,-0.00282031811773777,0.01676291875243187,0.02611016355403699
1746576148733346600,6.7213466796875,0.0009252981513738632,0.017945406535267827,0.004334220678871497
1746576148743424500,6.731424560546875,0.01988251207768917,0.028505378994345663,0.021458702752692623
1746576148753503500,6.74150341796875,0.010174188011884688,0.015483984857797622,0.004114705309830605
1746576148763581400,6.75158154296875,0.020425532913208005,0.019444705182313917,0.0018403032375965266
1746576148773660400,6.761660400390625,0.03111410018801689,0.008742693904042243,-0.009840005887765436
1746576148783738400,6.77173828125,0.028597148931026457,0.009181085321307183,-0.01103733504670672
1746576148793816600,6.781816650390625,0.04273790248632431,0.02946925559043884,0.011709306890983134
1746576148803895600,6.7918955078125,0.03808101659119129,0.02154255424439907,0.007899740273877978
1746576148813973500,6.801973388671875,0.03718202192485332,0.021368951243162154,-0.0028214506288990375
1746576148824051500,6.812051513671875,0.028569676402211187,0.010063128852844237,0.011541923567978665
1746576148834130400,6.82213037109375,0.03514963931441307,0.003762567403912544,-0.013407187716895714
1746576148844208400,6.83220849609375,0.020694412982463835,0.016703882041573522,-0.02304049205142073
1746576148854287400,6.842287353515625,0.012195464706420897,0.026848259437084198,0.01850810018563643
1746576148864365600,6.852365478515625,-0.005158405676484108,0.008439911565184593,0.015903187517402693
1746576148874443500,6.862443603515625,-0.0257283154964447,0.016747721183300018,0.0056207168254535644
1746576148884522500,6.8725224609375,-0.05179390012323856,0.00019289222359657285,-0.009694733931869268
1746576148894600400,6.882600341796875,-0.032271453529596324,0.006451368096470832,-0.02880666349586099
1746576148904678400,6.892678466796875,-0.01109656355381012,0.031124037060141562,-0.022033415634417904
1746576148914757400,6.90275732421875,0.021822540229558943,0.02400339139997959,-0.00039088074741885063
1746576148924835300,6.91283544921875,0.05102759192585945,0.0335971491754055,0.04618121134061366
1746576148934914300,6.922914306640625,0.08181962055265903,0.0195762226074934,0.03245542266122065
1746576148944992500,6.932992431640625,0.09588613982796669,0.026294717207551,0.0035136524104513226
1746576148955070500,6.943070556640625,0.08687164324522018,0.03272036634087563,-0.00709062498123385
1746576148965149400,6.9531494140625,0.059095747569203376,0.020472294664382933,-0.0037096316402778027
1746576148975227400,6.963227294921875,0.03413374027013778,0.012740823629498481,0.01632968756747432
1746576148985305600,6.9733056640625,-0.018846154767274855,0.005958616143465042,-0.0003245283797848969
1746576148995384600,6.983384521484375,-0.0649111558496952,-0.004268763360381126,-0.01825014336919412
1746576149005462500,6.993462646484375,-0.08657645969092845,-0.005644143366813659,-0.02844936535763554
1746576149015540500,7.00354052734375,-0.07954758396744728,0.0020259528696537016,-0.015703390628984196
1746576149025619500,7.013619384765625,-0.06753565913438797,0.009086392775177955,0.0002568882373627275
1746576149035697400,7.023697509765625,-0.012966449078917502,0.026573534148931502,0.007637710070516913
1746576149045776400,7.0337763671875,0.04345101919174194,0.03561959491372108,-0.003422713590832427
1746576149055854600,7.0438544921875,0.09805880769193172,0.04330255063176155,0.00445599302817136
1746576149065932500,7.0539326171875,0.09522212296128273,0.03073591452538967,-0.0016608367511536926
1746576149076011500,7.064011474609375,0.08747428531348705,0.02589256614744663,0.02328606431032531
1746576149086089500,7.07408935546875,0.05011573777794838,0.010243746116757392,0.013667254292033613
1746576149096167700,7.084167724609375,0.04397884245812893,0.0030213936477899547,0.005071439779084175
1746576149106246400,7.094246337890625,0.018346388551592825,0.002426350364089012,0.030931254434399306
1746576149116324400,7.104324462890625,-0.025955694511532783,-0.012258593070507048,0.03096424338854849
1746576149126403600,7.114403564453125,-0.05332125582098961,0.0002846621602773666,-0.0049232817463576795
1746576149136481500,7.1244814453125,-0.03830781108438969,0.005039747732877731,-0.026953500776691362
1746576149146559500,7.1345595703125,-0.030568741264939307,0.026208792489767072,-0.05056883357400074
1746576149156638500,7.144638427734375,-0.01849602615535259,0.04767945054173469,-0.030472605680394917
1746576149166716700,7.154716552734375,-0.014169395127892493,0.0559486817151308,-0.0018445592876058072
1746576149176794600,7.164794677734375,0.023273323559761045,0.052046998101472855,-0.0016052706390153617
1746576149186873300,7.174873291015625,0.030147885504364966,0.04758066634237766,0.0018115246676839887
1746576149196951300,7.184951416015625,0.04788695581257343,0.02012391961812973,0.0103742680280935
1746576149207030500,7.195030517578125,0.026523265266418454,0.009461655828356742,-0.014263530551595613
1746576149217108500,7.2051083984375,0.03397358127236366,0.0009527706801891326,0.017168640875956043
1746576149227186400,7.2151865234375,0.006672317370772361,-0.007518120545148849,0.03158506956747733
1746576149237265400,7.225265380859375,-0.012166823133826256,0.0038601825594902035,0.013612884623138232
1746576149247343600,7.235343505859375,0.02791033571064472,-0.0019119711011648178,0.005952022005897015
1746576149257421600,7.245421630859375,0.04160159193277359,-0.00525543631017208,0.021605865271575746
1746576149267500300,7.255500244140625,0.0378103829562664,-0.010871522626280784,0.01015289862868376
1746576149277578200,7.265578125,0.08296645250022411,0.03046703445613384,0.0031239589731208977
1746576149287657500,7.275657470703125,0.07721183449625968,0.027825580036640166,-0.00001860423577018082
1746576149297735400,7.2857353515625,0.06980828024148941,0.02440729602575302,-0.0021082517250906674
1746576149307813400,7.2958134765625,0.06412438938617705,0.04767302080094814,0.02042359668444842
1746576149317892600,7.305892578125,0.02567746209204197,0.04472995308637619,0.006133470386872068
1746576149327970600,7.315970458984375,-0.02855564787685871,0.04933773914277553,-0.006259425720945001
1746576149338048500,7.326048583984375,-0.05259294154644012,0.03424012325406074,-0.022045087805902586
1746576149348127500,7.33612744140625,-0.07284370241463184,0.005649404063820839,-0.012848174727801233
1746576149358205400,7.346205322265625,-0.10310381612181663,0.015538345393538475,-0.019292775156768038
1746576149368284400,7.356284423828125,-0.0893628755390644,0.000037409400939941404,-0.026695881886966526
1746576149378362400,7.3663623046875,-0.016832476857304574,0.008376198679208755,-0.038893474618392064
1746576149388440300,7.3764404296875,0.019794249272346496,-0.024440029251575467,-0.005440136094158515
1746576149398519600,7.38651953125,0.06665478464663029,-0.0055599722146987916,0.025809545772802082
1746576149408597500,7.396597412109375,0.09364508290290832,0.012510522004961966,0.04728969317232258
1746576149418675500,7.406675537109375,0.12941022376716135,0.019364625683426857,0.05833735781679861
1746576149428754700,7.416754638671875,0.1394821204483509,0.023444588473439214,0.056877112538507205
1746576149438832600,7.42683251953125,0.10611410385370254,0.02782324194908142,0.03695244181952439
1746576149448911400,7.436911376953125,0.07639934906959533,0.025522563791275023,-0.017478172616008668
1746576149458989300,7.4469892578125,-0.003233575093746185,0.0059545244902372355,-0.0336226215433795
1746576149469067500,7.457067626953125,-0.06848200007379054,0.02768997095823288,-0.014187286977609619
1746576149479146500,7.467146484375,-0.13962766639888285,0.02109773308634758,-0.04062297442527488
1746576149489224400,7.477224365234375,-0.1550105289697647,0.011783961296081542,-0.04965427601234987
1746576149499302400,7.487302490234375,-0.12117255677580832,0.011364859101176262,-0.042355086314352225
1746576149509381600,7.497381591796875,-0.07645546317100524,-0.006484685844182968,-0.018574023295007645
1746576149519459600,7.50745947265625,-0.009186930540204048,-0.014707155266404152,0.007345074666338041
1746576149529537500,7.51753759765625,0.051741293153166765,0.015283493849635123,0.033250527694821355
1746576149539616300,7.5276162109375,0.09078910894989967,0.02208849768936634,0.008821147701423615
1746576149549694500,7.537694580078125,0.1455459505319595,0.02586567814052105,0.017480784698203206
1746576149559773400,7.5477734375,0.1708656852275133,0.019959668967127798,0.018485175967775283
1746576149569851400,7.557851318359375,0.14739713135659693,0.03989887966811657,0.023679538873629644
1746576149579929300,7.567929443359375,0.11752864731550217,0.0407557887583971,0.030333918728912248
1746576149590008600,7.578008544921875,0.04150689938664436,0.01726911470890045,0.019619559425720943
1746576149600086500,7.58808642578125,-0.011824293306469917,0.004912906482815742,-0.0058352820247411724
1746576149610165200,7.598165283203125,-0.044452889710664745,0.009585574468970298,-0.008004250961123035
1746576149620243500,7.608243408203125,-0.09355448201000689,-0.00800035110414028,-0.025610004612710326
1746576149630321400,7.6183212890625,-0.13646423393189908,0.00687456194460392,-0.036275081414077426
1746576149640400400,7.628400390625,-0.15305179611742495,0.02497252869307995,-0.029000286371819672
1746576149650478300,7.638478271484375,-0.14247253443598745,0.036164953836798665,-0.027153580792900173
1746576149660556500,7.648556640625,-0.11843231815695762,0.005513210463523864,-0.007177837473805993
1746576149670635500,7.658635498046875,-0.05399754764735698,0.008260463345050812,-0.027011587639478966
1746576149680713500,7.66871337890625,0.007288403442502022,0.025247838503122327,-0.005992098287958651
1746576149690791400,7.67879150390625,0.05558920075297355,0.02858078231811523,-0.00641388563029468
1746576149700870400,7.688870361328125,0.07828910833895206,0.03699439039826393,0.005559433358581736
1746576149710948400,7.6989482421875,0.09368716847896576,0.033365678507089616,0.02203993670674972
1746576149721027300,7.70902734375,0.11961948211491107,0.00929272900223732,0.03962254694476723
1746576149731105500,7.71910546875,0.14288579141199587,-0.0021381810724735257,0.03846848153881728
1746576149741183500,7.72918359375,0.15927929233014582,0.032143443235754965,0.050582323243236166
1746576149751262500,7.739262451171875,0.05713935280442237,0.007006079369783401,0.011884754789434373
1746576149761340400,7.74934033203125,0.012978139516711234,0.026105916637182234,-0.03361252940762788
1746576149771419600,7.759419677734375,-0.0066869304180145256,0.026714988446235655,-0.019788595849694682
1746576149781497600,7.76949755859375,-0.003641571372747421,0.014649287599325178,0.007529454789916053
1746576149791575600,7.779575439453125,0.005181202030181884,0.01595160236954689,0.008205454355338588
1746576149801654500,7.789654541015625,-0.02177811656594276,0.010391045632958411,-0.03371215385720133
1746576149811732500,7.799732421875,-0.015066051706671715,0.005735328781604767,-0.027210452946135773
1746576149821810400,7.809810546875,-0.031772271835803986,0.019450550401210784,-0.03240328148202971
1746576149831889400,7.819889404296875,0.019584405913949013,0.03739887954592704,-0.04661295382138341
1746576149841967400,7.82996728515625,0.0784089353263378,0.044405543437600135,0.019763781068846582
1746576149852046600,7.840046630859375,0.08757716116607189,0.02395896773636341,0.07952708003553562
1746576149862124500,7.85012451171875,0.03325929552316666,0.003677811729907989,0.05410836934437975
1746576149872202500,7.860202392578125,0.011526771664619444,-0.01431201846897602,-0.013240434581553563
1746576149882281500,7.870281494140625,-0.023336451923847198,0.0027098434805870055,-0.012713122771820053
1746576149892359400,7.880359375,-0.03464402787983417,-0.016976269242167472,-0.010447890386730432
1746576149902437400,7.890437255859375,-0.020740590211749076,0.0041226328879594805,-0.011226546609029173
1746576149912516400,7.900516357421875,-0.0018903437912464142,0.03210428026914596,0.004454294261429459
1746576149922594600,7.910594482421875,0.03344517348408699,0.031326866155862804,0.003319993001874536
1746576149932673500,7.920673583984375,0.05022562789320945,0.03083352968096733,-0.008358498625736684
1746576149942751500,7.93075146484375,0.015247253492474555,0.02252981171607971,-0.02747012679562904
1746576149952829400,7.940829345703125,-0.0481669417977333,0.00630114597082138,-0.02198762199762277
1746576149962908400,7.950908447265625,-0.07535539297461509,0.006704466074705123,-0.012517892460664733
1746576149972986400,7.960986328125,-0.09000935674905776,0.0018061726391315459,-0.025986190114496273
1746576149983064300,7.971064208984375,-0.06053776307106018,0.011175474008917809,-0.033437812161538745
1746576149993143600,7.9811435546875,0.020851649370789527,0.022960019826889038,-0.006214746329002082
1746576150003221500,7.991221435546875,0.022438626301288605,0.011127543213963509,0.03676123009636067
1746576150013300500,8.001300537109374,0.04436404238343238,0.031017069554328917,0.06608030922692269
1746576150023378400,8.01137841796875,0.03733282857239246,0.020741174733638762,0.021927242713049053
1746576150033456600,8.02145654296875,0.022583587729930875,0.006651859104633331,-0.021334309188043698
1746576150043535400,8.031535400390625,-0.018722820648550985,-0.004810030630230903,-0.018273524244781583
1746576150053613300,8.04161328125,-0.011357844838500022,0.006592237871885299,-0.012057681937236338
1746576150063691300,8.051691162109375,-0.008209025418758393,0.007860065850615501,-0.006173327473225071
1746576150073770500,8.0617705078125,0.052044075492024416,0.02833937477767467,0.012924993690522387
1746576150083848400,8.071848388671874,0.13242109602093696,0.04511515301167965,0.012198542579496279
1746576150093927400,8.081927490234374,0.1448532920926809,0.06514671817123889,0.019026909028505904
1746576150104005600,8.092005615234376,0.11235212146043777,0.04865969375073909,0.033007549251802264
1746576150114083600,8.10208349609375,0.04620587085783481,0.020598551392555235,0.025671032351255417
1746576150124162600,8.11216259765625,-0.01138882449865341,0.015111059892177581,0.007219950449327006
1746576150134240500,8.122240478515625,-0.052629766425490374,0.00886485897898674,-0.020475199007522312
1746576150144318500,8.132318359375,-0.088578447163105,-0.0012853636354207992,-0.05553338804566301
1746576150154397400,8.1423974609375,-0.08505085755884646,0.008977087181806565,-0.04948165025864727
1746576150164475600,8.1524755859375,-0.06392915907502174,0.019179916766285894,-0.030588898136978966
1746576150174554600,8.1625546875,-0.028262217888236043,0.0018389058649539945,-0.008241630780417472
1746576150184632600,8.172632568359376,0.03614683365821838,0.01965162593126297,0.006633958121761679
1746576150194710500,8.18271044921875,0.059629416054487225,0.01881459058523178,0.012708236534148454
1746576150204789800,8.192789794921875,0.08889993420243263,0.02219137354195118,0.01305976251871325
1746576150214867700,8.20286767578125,0.09048749565482139,0.01731704550385475,-0.0038687129258178172
1746576150224945700,8.212945556640625,0.1013058267891407,0.015007599517703056,0.021810886324383317
1746576150235024600,8.223024658203125,0.09582534955143927,0.024029694885015485,0.02471919325282797
1746576150245102600,8.2331025390625,0.02208791316747665,0.011957564297318458,0.024654019062127917
1746576150255181600,8.243181640625,-0.02015431475639343,0.03079378219246864,-0.016998526739748193
1746576150265259500,8.253259521484376,-0.04264320994019508,0.018835633373260496,-0.005059046088391915
1746576150275337700,8.263337646484375,-0.052121816903352734,0.013344050219655037,0.004606516547920182
1746576150285416700,8.273416748046875,-0.07332008775472641,-0.007943652480840682,-0.004342056925455108
1746576150295494700,8.28349462890625,-0.05948328558206558,0.012228197932243346,-0.031807671942748125
1746576150305572600,8.293572509765625,-0.03827975403368473,0.01816752485334873,-0.022310935667855664
1746576150315651600,8.303651611328124,-0.01753448764681816,0.018594810354709623,-0.009778777219820766
1746576150325729500,8.3137294921875,0.020358897417783735,0.033300212055444714,-0.021773248594580217
1746576150335808500,8.32380859375,0.08485621176958083,0.03918342487514019,-0.020747604474425314
1746576150345886500,8.333886474609375,0.0938636940896511,0.03842705354988575,-0.024572341261198744
1746576150355964700,8.343964599609375,0.06970891152024268,0.0043634559065103525,0.003383221830660477
1746576150366043600,8.354043701171875,0.058446928271651266,0.009009235885739326,0.023902734903944654
1746576150376121600,8.36412158203125,0.050579848158359524,0.009952069693803786,0.04137134510716423
1746576150386200600,8.37420068359375,0.04389993200302124,-0.0033089784175157544,0.04509667664007284
1746576150396278500,8.384278564453124,0.018729250389337537,-0.009307342049479484,0.022820465225726366
1746576150406356500,8.3943564453125,-0.03479775713682175,-0.028686580780148505,-0.0006441796550527214
1746576150416435500,8.404435546875,-0.07078618536293506,-0.003013210341334343,-0.01861086644036695
1746576150426513700,8.414513671875,-0.04674070838689804,0.02266834340393543,-0.035607840543845665
1746576150436591600,8.424591552734375,-0.030528409254550932,0.023428806382417677,-0.024379558635456485
1746576150446670600,8.434670654296875,0.017561375653743744,0.03569675180315971,0.006834896654495969
1746576150456748500,8.44474853515625,0.01984159554541111,0.06233399883806705,0.012993291420070453
1746576150466827500,8.45482763671875,0.04295826723873615,0.04687164129018783,-0.000938751287991181
1746576150476905500,8.464905517578124,0.0364250660777092,0.03815641991496086,-0.00524041227097623
1746576150486983400,8.4749833984375,0.05351239447891712,0.02525660633146763,0.006836979013727977
1746576150497062700,8.485062744140626,0.07867839991748332,0.009200959065556525,0.022960503884078932
1746576150507140600,8.495140625,0.06145253982841968,-0.00025017536878585813,0.023861672241194173
1746576150517218600,8.505218505859375,0.016604513320326805,-0.013068155887722968,0.004260826649097726
1746576150527297500,8.515297607421875,-0.01189209784567356,-0.007497077757120132,-0.0043066294190473855
1746576150537375700,8.525375732421875,-0.04053016330897808,0.00002864157259464264,-0.001243506388226524
1746576150547454700,8.535454833984375,-0.043051790741086005,-0.010898995155096054,-0.01968151874602772
1746576150557532700,8.54553271484375,-0.05286474422514438,-0.003438742277026176,-0.008575867703463882
1746576150567610600,8.555610595703126,0.0032569559693336487,0.011124036082625388,-0.004721046305680647
1746576150577689600,8.565689697265626,0.01969078889787197,0.01300795013308525,0.003396830230904743
1746576150587767600,8.575767578125,0.021408114209771154,0.016879823130369186,0.002136865898221731
1746576150597845500,8.585845458984375,0.04218319121301174,0.025028058272600174,-0.03426311140400357
1746576150607924700,8.5959248046875,0.07968260852396487,0.04276829762458801,-0.008185534945316613
1746576150618002700,8.606002685546875,0.08333528581261634,0.03776829738020897,0.014606252175197005
1746576150628081700,8.61608154296875,0.0690676910072565,0.04063011655211449,0.037919953411119055
1746576150638159600,8.62615966796875,0.06850362738370895,0.03529576978683471,0.007517654754268005
1746576150648237800,8.63623779296875,0.028670798689126968,0.03435059789121151,-0.006611152634909376
1746576150658316500,8.646316650390625,-0.008879472026228904,0.014212065225839614,-0.003583904635068029
1746576150668394500,8.65639453125,-0.04126140019297599,-0.003593640577793121,-0.010277356125414371
1746576150678472400,8.666472412109375,-0.051098903596401214,-0.014130816683173179,-0.02160127129484899
1746576150688551700,8.6765517578125,-0.06200199040472507,-0.023263386687636375,-0.013832071198616175
1746576150698629600,8.686629638671874,-0.06272562850415707,-0.019055413603782653,-0.025860737103922293
1746576150708708600,8.69670849609375,-0.03120996177792549,-0.00322246917784214,-0.017881209592102095
1746576150718786600,8.70678662109375,0.010091185903549195,0.014042553877830504,0.01698985024294816
1746576150728864800,8.71686474609375,0.041437925803661346,0.026133389165997504,0.011529009287478402
1746576150738943500,8.726943603515625,0.07185878303050995,0.04137187483012676,0.0022106343873310834
1746576150749021400,8.737021484375,0.08513502871096133,0.045154315978288645,0.003975223773904145
1746576150759100700,8.7471005859375,0.06072364103198051,0.032578327521681785,0.01363287709839642
1746576150769178600,8.7571787109375,0.05648761089742183,0.0406599271684885,0.02203030122872442
1746576150779256600,8.767256591796874,0.05697334858775138,0.0420627797037363,0.00847465408500284
1746576150789335600,8.77733544921875,0.043483752417564386,0.012837854263186455,-0.003071498133521527
1746576150799413800,8.787413818359376,-0.0036357261538505553,-0.011039864930510521,0.0016622889227233826
1746576150809491700,8.79749169921875,-0.04535071533322334,-0.004386836782097816,0.011877302135340868
1746576150819570400,8.8075703125,-0.0609071809053421,-0.002457330024242401,-0.007027295687748119
1746576150829648400,8.8176484375,-0.03740647833049297,-0.00020399813950061797,-0.0034116807401645926
1746576150839727600,8.8277275390625,0.005407412001490593,0.015073065969347953,0.018881463542673737
1746576150849805600,8.8378056640625,0.015799626678228377,0.023861352580785748,0.03568247668263502
1746576150859883500,8.847883544921874,0.0486333902657032,0.030692075383663177,0.003824316661665216
1746576150869962800,8.857962646484374,0.06694295393824577,0.024057167413830755,-0.01928713086727075
1746576150880040700,8.868040771484376,0.06055822133719921,0.028626375025510787,-0.016985301931994035
1746576150890118700,8.87811865234375,0.05272562801539898,0.016072013878822327,0.00020081980172544716
1746576150900197600,8.88819775390625,0.030120412975549696,0.017834931898117065,0.0034477841000072657
1746576150910275600,8.898275634765625,-0.00319850378036499,0.012051087799668311,-0.0004926332219969481
1746576150920354600,8.9083544921875,-0.019563363125920295,0.018508885636925695,-0.008965899067511782
1746576150930432500,8.9184326171875,-0.03943944546282291,0.02041091986596584,-0.000019828078476712105
1746576150940510500,8.928510498046874,-0.021420389169454573,0.021685762107372282,-0.013912004567030817
1746576150950589700,8.938589599609376,-0.056578211790323255,0.015997195076942444,-0.024032809290708973
1746576150960667600,8.948667724609376,-0.046641339665651316,0.017319383591413495,-0.05001534614339471
1746576150970745600,8.95874560546875,0.006097147831320762,0.02419160744845867,0.028768770037731154
1746576150980824600,8.968824462890625,0.018194997382164,0.008709376156330108,0.037487781672086565
1746576150990902800,8.97890283203125,0.06487023931741714,0.021468319964408872,0.036840295815095306
1746576151000981500,8.9889814453125,0.09335749813318252,0.02890285387933254,-0.000008767828345298767
1746576151011059500,8.9990595703125,0.0986129344433546,0.014797756159305571,0.0011506861387751996
1746576151021137400,9.009137451171876,0.10080956770479678,0.00431610963344574,-0.011570400743791833
1746576151031216600,9.019216552734376,0.057625090494751924,0.010019289711117743,0.0030284809757024048
1746576151041294600,9.029294677734375,0.026954057899117468,0.015312719944119452,0.021644379784213377
1746576151051373600,9.03937353515625,-0.019029694640636443,0.03518354158401489,-0.0025743348668795076
1746576151061451800,9.04945166015625,-0.05602057790756225,0.018859598770737646,-0.04139710060292855
1746576151071529700,9.05952978515625,-0.06957914766073227,0.004420739051699638,-0.027576107920752838
1746576151081608400,9.0696083984375,-0.06801321351826191,0.008248188385367393,0.00013918927498161792
1746576151091686400,9.079686279296874,-0.06444996807873249,0.0077174425095319745,0.009642318758042528
1746576151101764600,9.0897646484375,-0.03419277698099613,0.008953121784329414,0.028486628628103063
1746576151111843600,9.099843505859376,0.013524082961678504,0.014280454286932944,-0.0032403062286321073
1746576151121921500,9.109921630859375,0.07278174309432506,0.009548749589920044,-0.0020805326011031863
1746576151132000500,9.12000048828125,0.1068260515153408,0.03553717732727527,0.013945614575687795
1746576151142078500,9.130078369140625,0.09427169036865234,0.04284896164536476,-0.0037273134274408218
1746576151152156700,9.14015673828125,0.0967827964067459,0.04255027095973491,0.0067810841080266976
1746576151162235400,9.1502353515625,0.08919628680050373,0.035408582511544225,0.009225253256596625
1746576151172313300,9.160313232421874,0.03180149793028831,0.0033949031352996824,0.007580326460627839
1746576151182391300,9.170391357421876,0.015168927559256553,0.010209259325265884,-0.021493701000837608
1746576151192470500,9.180470458984376,-0.026367782443761825,0.020991934624314305,-0.005973229190707206
1746576151202548500,9.190548583984375,-0.07349544432163238,-0.0022638532787561416,-0.019570779247395694
1746576151212627500,9.20062744140625,-0.08235036642849444,0.00043722237348556514,-0.007410066193947568
1746576151222705700,9.21070556640625,-0.06951952642798423,0.009776713126897811,-0.03101690515754744
1746576151232783600,9.22078369140625,-0.03948094651699066,0.00028349311649799344,-0.018488180775614454
1746576151242862300,9.2308623046875,-0.030023382341861724,0.015569325053691864,0.013702754863677545
1746576151252940500,9.2409404296875,-0.0014916998624801634,0.028991116684675217,0.02064101142794825
1746576151263019500,9.25101953125,0.02852349917292595,0.030156653332710264,0.011655065086251123
1746576151273097500,9.261097412109375,0.05956278055906295,0.02489829441308975,0.0014690313729457556
1746576151283175400,9.271175537109375,0.10501461817920207,0.015813655203580856,0.02093405782408081
1746576151293254700,9.281254638671875,0.11509352912306785,0.02261222930252552,0.03716825826098211
1746576151303332600,9.29133251953125,0.10042378325760364,0.034979543444514274,0.004977907143579796
1746576151313410600,9.30141064453125,0.06601824030876159,0.02380991465449333,-0.001795221986854449
1746576151323489500,9.311489501953124,0.013985855254530905,0.0027320553123950956,0.00917365093352273
1746576151333567700,9.321567626953126,-0.04017535852193832,0.003706453302502632,-0.00912672478556633
1746576151343646500,9.331646484375,-0.04188333148360252,-0.005101122531294822,-0.007322077383240685
1746576151353724400,9.341724365234375,-0.06435001483559608,0.0014934534281492232,0.007935341310221701
1746576151363802400,9.35180224609375,-0.0794897163003683,-0.012678279787302016,-0.0018754932819865643
1746576151373881600,9.361881591796875,-0.06940437561571598,0.003930909708142281,0.006005761487130075
1746576151383959600,9.37195947265625,-0.022941899648308752,0.01965337949693203,-0.006974241193104535
1746576151394037500,9.38203759765625,0.034438276174664495,0.031633155626058576,-0.013110287129553035
1746576151404116500,9.392116455078124,0.07218962242007256,0.030595044749975202,0.000378751918207854
1746576151414194700,9.402194580078126,0.09201075969934464,0.021115268743038176,0.011097157208854331
1746576151424273400,9.4122734375,0.09408990406095981,0.036976270219683645,0.019089096677675842
1746576151434351400,9.422351318359375,0.06947860989570617,0.03162146518826484,0.011664536167494952
1746576151444429300,9.43242919921875,0.05969488250613212,0.008873042285442351,0.01326310307108797
1746576151454508500,9.442508544921875,0.0275713130146265,0.0030687399208545684,0.02555855755326338
1746576151464586500,9.45258642578125,-0.000083002108335495,0.0010357727885246277,-0.008667738104844466
1746576151474665500,9.46266552734375,-0.026834815433621404,-0.006976853275299072,-0.024905098613211885
1746576151484743700,9.47274365234375,-0.05094751242697239,0.008884732723236083,-0.041053100337693466
1746576151494821600,9.482821533203126,-0.02809679819345474,0.016111761367321013,-0.019634875725861638
1746576151504900400,9.492900390625,-0.018096797704696653,0.00791325734257698,0.006518597246939316
1746576151514978300,9.502978271484375,-0.019296236622333526,0.019597265395522118,0.0028347211024258284
1746576151525056500,9.513056396484375,0.018819266760349274,0.025939912420511243,-0.008168702541524544
1746576151535135500,9.523135498046875,0.0447422280460596,0.020229133558273313,-0.0021591416621115057
1746576151545213400,9.53321337890625,0.06045534548461437,0.0274058933198452,0.011244657654454931
1746576151555292700,9.543292724609374,0.06605564970970153,0.01205459493100643,0.024898522741952908
1746576151565370600,9.55337060546875,0.03291910378336906,-0.0003419453054666519,0.0209446248838678
1746576151575448600,9.563448486328125,0.027633856856822965,0.02002279733121395,-0.005403366014035418
1746576151585527300,9.57352734375,0.012046996146440505,0.02285480588674545,-0.007236088733375072
1746576151595605500,9.58360546875,0.0007014262676239013,0.021452537873387335,-0.00010820048167370259
1746576151605684500,9.5936845703125,0.002861234650015831,0.01971826142668724,0.021260120573826133
1746576151615762400,9.603762451171875,-0.01160802020728588,0.00587678307890892,-0.010150944133615121
1746576151625840400,9.61384033203125,-0.029386253482103344,0.02080839475095272,-0.029607147957477715
1746576151635919600,9.623919677734374,-0.029977205112576483,0.009751578685641289,-0.004706131864339113
1746576151645997600,9.63399755859375,-0.01715805554986,0.008488426882028579,-0.0016808200932573525
1746576151656075500,9.644075439453125,0.003771335232257843,-0.01374386319220066,0.038255459842644626
1746576151666154500,9.654154541015625,0.03537526476383209,0.007965279790759085,-0.0037984972338192162
1746576151676232700,9.664232666015625,0.031651860326528544,0.012321136912703513,-0.010288078448828309
1746576151686311400,9.6743115234375,0.01542436362504959,0.01809212152957916,-0.02048394856955856
1746576151696389400,9.684389404296875,0.04255319356918335,0.02345569438934326,0.013746922798966988
1746576151706467300,9.69446728515625,0.07804419366717338,0.028210779961943624,0.03148995689623989
1746576151716546600,9.704546630859374,0.09759294374585151,0.03645604573786258,0.019036672370694577
1746576151726624500,9.71462451171875,0.06804945387542248,0.019988310539722443,0.01524914405546151
1746576151736703500,9.724703369140625,-0.0019511340677738189,0.023334113836288452,0.002607113758474588
1746576151746781700,9.73478173828125,-0.03620937750041485,0.018939093747735024,-0.02071418626201339
1746576151756859600,9.744859619140625,-0.05695347484350204,0.005099953487515449,-0.011342857331922277
1746576151766938400,9.7549384765625,-0.06357143167853355,-0.002329319730401039,-0.006234099483443424
1746576151777016300,9.765016357421874,-0.060278235352039335,0.0038420623809099193,-0.004395823806151748
1746576151787094500,9.775094482421874,-0.02749474064707756,0.016151508855819702,0.022481798722734675
1746576151797173500,9.785173583984376,-0.003040098348259926,0.004769698619842529,0.021562126594549043
1746576151807251500,9.79525146484375,-0.0009942717343568801,0.02761982833147049,0.014845084166061132
1746576151817330700,9.80533056640625,0.0212058696359396,0.020149054059386252,-0.00640652430774644
1746576151827408600,9.81540869140625,0.06256430046260357,0.03226969996392727,0.01573546626768075
1746576151837486600,9.825486572265625,0.0865308669835329,0.032124738535285,0.020237015470629557
1746576151847565300,9.8355654296875,0.06948445511460304,0.016702128475904465,0.006912227073870599
1746576151857643500,9.8456435546875,0.054659810948371884,0.02641629776060581,-0.009952188424812628
1746576151867722500,9.855722412109374,0.03992401410937309,0.006105915659666061,0.009082913043303414
1746576151877800400,9.865800537109376,0.022089082211256026,0.010887304717302322,0.002567786395084113
1746576151887878400,9.87587841796875,0.014948562806844711,0.010808978784084319,0.0017743527287617325
1746576151897957600,9.88595751953125,-0.00841653068959713,0.005414426264166832,-0.0071866966336965555
1746576151908035600,9.89603564453125,0.00803133076429367,0.02574877376258373,0.006891129486914724
1746576151918113500,9.906113525390625,0.003791793498396873,0.015298691418766974,0.024065213722968472
1746576151928192500,9.916192626953125,-0.034838673669099804,0.019206220251321793,0.008788314010901375
1746576151938270500,9.9262705078125,-0.0031073183655738828,0.03447217844426632,0.004154799858201295
1746576151948349400,9.936349365234374,0.00902735606431961,0.02026069774031639,-0.009581126622715964
1746576151958427400,9.946427490234376,-0.0071019409596920005,-0.009530044889450072,0.007041452077263966
1746576151968505600,9.956505615234375,-0.021071429601311684,0.001173135432600975,0.008216761200642212
1746576151978584600,9.96658447265625,-0.03470306459069252,0.005427285745739936,-0.021322509152395648
1746576151988662500,9.97666259765625,0.0012017770051956176,0.03647884209156036,-0.031632196644833306
1746576151998741500,9.986741455078125,0.00549684385061264,-0.010552958196401596,0.017942063800711183
1746576152008819500,9.9968193359375,0.026326281389594076,-0.00215805481672287,0.011557723925309255
1746576152018897400,10.0068974609375,0.022436872735619545,0.03604512684941292,0.00918319508000277
1746576152028976400,10.016976318359376,0.051826048827171324,0.03139116356372833,0.01479933619503863
1746576152039054300,10.027054443359376,0.08519172733426093,0.031254969963431356,0.029533233337895943
1746576152049132500,10.037132568359375,0.08646832314133644,0.014393851533532141,0.02168759787143208
1746576152059211500,10.04721142578125,0.06389993298053741,0.004441197317838669,-0.02765868990398012
1746576152069289500,10.05728955078125,0.03981295495033264,0.013210779228806495,-0.015346677012648432
1746576152079368700,10.06736865234375,-0.018103811967372894,0.022456746479868887,0.0049946664821356535
1746576152089446700,10.07744677734375,-0.060415013474225995,0.002057517051696777,0.025124769245879724
1746576152099524600,10.087524658203124,-0.04686988772451877,0.008578443253040312,-0.007173124766070395
1746576152109603300,10.097603271484376,-0.049803018566966055,-0.008208440896868705,-0.010222885991819202
1746576152119681500,10.107681640625,-0.03743044372797012,0.012385434320569037,-0.00034361667274497446
1746576152129760800,10.1177607421875,-0.02723988910317421,0.020961539486050604,-0.023574334066640584
1746576152139838700,10.127838623046875,0.030908348482847212,0.030821839243173596,-0.01874985478594899
1746576152149916700,10.137916748046875,0.10907061557173728,0.04681669623255729,0.027867683879006653
1746576152159996000,10.147995849609375,0.10542378350198268,0.032788755401968954,0.027003322134632617
1746576152170073900,10.158073974609374,0.14522212540507315,0.06086217271983623,0.03393671072754077
1746576152180151800,10.16815185546875,0.11719956149160861,0.028026071044802665,0.03201170661486685
1746576152190230800,10.178230712890626,0.0718909317344427,0.0016734861701726913,0.030557653615344314
1746576152200308700,10.188308837890625,0.02256254494190216,0.019438275441527365,0.016385545940557494
1746576152210387700,10.1983876953125,-0.030858079600334164,0.007344517543911934,-0.022209064462268724
1746576152220465700,10.208465576171875,-0.06559037028551101,-0.00021568857729434965,-0.027577094301441684
1746576152230544000,10.2185439453125,-0.08026829945743083,-0.00594341857433319,-0.03433667896371335
1746576152240622800,10.228622802734375,-0.093889997574687,0.019188100072741507,-0.02531609970005229
1746576152250700800,10.23870068359375,-0.06784720930159091,-0.0014443535894155502,-0.003830253212107345
1746576152260779800,10.24877978515625,-0.034762101301550864,0.02866846060156822,-0.008399195962306111
1746576152270857700,10.258857666015626,0.007946575090289116,0.018489011892676353,-0.02568997451374307
1746576152280935700,10.268935791015625,0.042481881898641584,0.04280395345985889,-0.007477879866305738
1746576152291014700,10.2790146484375,0.06570201396644115,0.035160160708427424,0.0322797281675972
1746576152301092900,10.2890927734375,0.07153203529417515,0.012564882540702819,0.013497889074496923
1746576152311170800,10.2991708984375,0.042028292912244795,0.015568740531802176,0.0033872038860339668
1746576152321249800,10.309249755859375,0.028007366344332693,0.0039747488498687745,0.012141588227869942
1746576152331327700,10.31932763671875,-0.0004945055186748505,-0.006758826610445976,0.013370618566172197
1746576152341406700,10.32940673828125,-0.02677577872276306,0.003499532553553581,0.001533721506455913
1746576152351484700,10.339484619140626,-0.05130231721401214,0.004707739299535751,-0.020172307070810348
1746576152361562600,10.349562744140625,-0.03336801659464836,0.0028436989933252332,-0.028953506354335693
1746576152371641600,10.3596416015625,-0.029575054052472113,0.03010112375319004,-0.00736032703439705
1746576152381719800,10.3697197265625,0.030870354560017584,0.011037526842951773,0.013649115847144275
1746576152391798800,10.379798828125,0.1287853698670864,0.02015489927828312,0.03599350626002997
1746576152401876700,10.389876708984374,0.14529635968506335,0.024719430714845655,0.04863794770981185
1746576152411954700,10.39995458984375,0.09901683906912803,0.02738894218504429,0.024363493416644632
1746576152422033700,10.41003369140625,0.09430500811636447,0.0339589682251215,0.010949501499626785
1746576152432111600,10.420111572265625,0.051261400681734084,0.03888824132084846,0.02653570462288335
1746576152442190600,10.430190673828125,0.03491524603664875,0.03776479024887085,0.00037449586819857355
1746576152452268800,10.440268798828125,-0.006757073044776916,0.027696400699019432,-0.0023057744580321014
1746576152462346800,10.4503466796875,-0.04539689256250858,0.018339958810806273,-0.020281822726735843
1746576152472425700,10.46042578125,-0.05132978974282741,0.003233575093746185,-0.041016722983215
1746576152482503700,10.470503662109374,-0.0465203436344862,0.014081716844439505,-0.03211731328065507
1746576152492582000,10.480581787109376,-0.032229367953538895,0.008299626311659812,-0.029507706170994786
1746576152502660900,10.490660888671876,-0.021964579048752784,-0.010196399843692779,-0.003141713825520128
1746576152512738800,10.50073876953125,-0.009516016364097594,-0.020396891340613364,0.03850308706131764
1746576152522817800,10.51081787109375,-0.028510639691352844,-0.022789339435100555,0.03046540875462815
1746576152532895700,10.520895751953125,-0.05110474881529808,-0.0083873045951128,-0.009593639044417068
1746576152542973700,10.5309736328125,-0.07462240252494812,0.004283960929512978,-0.016995868991781026
1746576152553052700,10.541052734375,-0.05016600666046142,0.0246826058357954,-0.03430873151086271
1746576152563131000,10.551130859375,0.010105214428901672,0.02976911531984806,-0.020526235075015574
1746576152573209900,10.5612099609375,0.07505202611386776,0.055745268097519875,0.03368041614522226
1746576152583287800,10.571287841796876,0.09712474171221255,0.04822890111804008,0.03743301927754655
1746576152593365800,10.58136572265625,0.08870762650072574,0.025670447829365728,0.03903304748586379
1746576152603444700,10.59144482421875,0.05493921241164207,0.007055763730406761,-0.00008252718430012465
1746576152613522700,10.601522705078125,0.03916062852144241,0.0033721067816019057,-0.04045435812640935
1746576152623601700,10.6116015625,0.04581891736686229,0.004348842859268188,-0.009171166715491563
1746576152633680000,10.621679931640625,0.054098669934272765,0.02567863113582134,0.04403417110824957
1746576152643757800,10.6317578125,0.032415830436348915,0.01589315018057823,0.04253291796613484
1746576152653836800,10.6418369140625,0.026692192092537877,0.02651215935051441,0.021672025842964647
1746576152663914800,10.651914794921876,-0.026125790381431577,0.02064531314373016,0.008531654102401807
1746576152673993000,10.661992919921875,-0.056473582372069356,0.0034101007044315336,-0.011993311464134604
1746576152684071700,10.67207177734375,-0.06747428433597087,-0.014137246423959731,-0.03304568017194979
1746576152694149600,10.682149658203125,-0.08142156114578247,-0.024216741889715194,-0.04646985555626452
1746576152704228600,10.692228515625,-0.07164601706266403,0.010241408029198646,-0.004787380407005548
1746576152714306800,10.702306884765624,-0.01039981346130371,0.013001520392298698,0.023102807564754038
1746576152724384800,10.712384765625,0.03977262293994426,0.047775896653532976,0.012945579820824787
1746576152734463700,10.722463623046876,0.08944880025684833,0.041571781316399575,0.025347335088532416
1746576152744541700,10.732541748046875,0.1341921973466873,0.04235620969235897,0.027926802788255736
1746576152754620700,10.74262060546875,0.11562778213024139,0.038166941308975216,0.005685854483535513
1746576152764698600,10.75269873046875,0.10389584328234196,0.028758476972579956,0.002108909312216565
1746576152774776600,10.762776611328125,0.07707973254919051,0.002831424033641815,0.024053559817792846
1746576152784855800,10.772855712890625,0.008252864560484886,-0.019257073655724523,0.011302169128507376
1746576152794933800,10.782933837890624,-0.051399347847700116,-0.007097849306464195,-0.01784222928858362
1746576152805011700,10.79301171875,-0.06709960580468177,0.014275778111815452,-0.04001769287534989
1746576152815090700,10.803090576171876,-0.045482817280292506,0.014387421792745589,-0.0065633588372729715
1746576152825169000,10.8131689453125,-0.0047474867880344385,0.013645078992843626,0.025258688690699634
1746576152835247900,10.823247802734375,0.038996962392330164,0.013621698117256163,0.017990999242663383
1746576152845325800,10.833325927734375,0.05877367600798607,0.01526011297404766,0.018219803029857574
1746576152855403800,10.84340380859375,0.06122866794466972,0.010863923841714859,-0.015637102193431927
1746576152865482800,10.853482666015625,0.0846399386703968,0.030237317353487014,-0.004145684969983994
1746576152875560700,10.863560791015624,0.07833762365579605,0.018103227445483205,0.009476469804998488
1746576152885639700,10.8736396484375,0.0442459689617157,0.01129822360575199,0.007888068102393299
1746576152895718000,10.8837177734375,0.021481179445981977,0.02952244708240032,0.020517814306542276
1746576152905795800,10.8937958984375,0.012279635858535766,0.02550210552513599,0.001014949196204543
1746576152915874800,10.903874755859375,0.007933131086826323,0.01542962432205677,-0.0012910992564633488
1746576152925952800,10.913952880859375,-0.01037760162949562,0.0018166940331459044,-0.03367479925518855
1746576152936031700,10.92403173828125,-0.010290507867932319,0.0022936638951301575,-0.015098373940540477
1746576152946109700,10.934109619140624,-0.016148586246371267,0.0024485621958971024,-0.014460048637539148
1746576152956187600,10.944187744140624,-0.030676293292641637,0.012192542096972465,-0.016928785971784963
1746576152966267000,10.954266845703126,-0.021871640068292616,0.006558920124173164,-0.013104505842737852
1746576152976344800,10.9643447265625,0.020049100816249846,0.011059738674759864,0.017994113648356867
1746576152986423800,10.974423828125,0.025818331867456433,0.012802198427915572,0.024175660960655657
1746576152996501800,10.984501708984375,0.029473931765556335,0.03250993846058845,-0.0382630038282834
1746576153006579700,10.994579833984375,0.058635144320130346,0.04840191959738731,-0.031196901366952804
1746576153016658700,11.00465869140625,0.06882920607626437,0.03370353215932846,0.020514635968767105
1746576153026736600,11.014736572265624,0.06778641902506351,0.020932897913455963,0.029644886151980607
1746576153036815600,11.024815673828124,0.05113163682222366,0.020921791997551918,0.0018169588946271686
1746576153046893800,11.034893798828126,0.03074117522239685,0.013429974937438964,-0.03521629307614639
1746576153056971800,11.0449716796875,0.043342298120260234,0.000027472528815269467,0.003439253733679652
1746576153067050800,11.05505078125,0.014072949016094207,0.007547346639633178,0.01951038169651292
1746576153077128700,11.065128662109375,-0.005208674558997154,0.007180266892910003,-0.002029067275347188
1746576153087207700,11.075207763671875,-0.008318331012129783,0.0195458274692297,-0.016898007241031153
1746576153097285600,11.08528564453125,-0.02189677450954914,0.021594576692581177,0.0005995915946550667
1746576153107363600,11.095363525390624,0.007446808874607086,0.008712883287668227,0.020470413234550504
1746576153117442800,11.10544287109375,-0.000983165818452835,0.022681202885508536,0.0039029348558280615
1746576153127520500,11.1155205078125,-0.002869417956471443,0.008115501916408538,-0.03452381729995831
1746576153137599500,11.125599609375,0.01666355003118515,0.024361118796467778,-0.00708451490085572
1746576153147677400,11.135677490234375,-0.013093874850869177,0.017776479709148404,-0.0017077081001829356
1746576153157755400,11.14575537109375,-0.0035796120524406432,0.021757658299803733,-0.008826947254547848
1746576153167834600,11.155834716796875,0.01647299589514732,0.034817630881071086,0.004707657101145014
1746576153177912600,11.16591259765625,0.033837387672066684,0.003717559218406677,0.017766268842387942
1746576153187991300,11.1759912109375,0.04788929390013218,0.009286883783340454,0.0261365766369272
1746576153198069500,11.186069580078126,0.04136427604556083,0.019711247164011,-0.012327511854562908
1746576153208147500,11.1961474609375,0.07132102289199829,0.01893091044127941,-0.02572496362873353
1746576153218226400,11.206226318359375,0.04260638506114483,0.01096270804107189,0.032358812152640894
1746576153228304400,11.216304443359375,0.02484334935545921,0.001616203024983406,0.020611009015329182
1746576153238382600,11.226382568359375,0.002948328411579132,0.018861352336406706,-0.024050463678408414
1746576153248461600,11.236461669921875,0.02750292395353317,0.02317980005741119,-0.012562873246707022
1746576153258539500,11.24653955078125,0.0035761049211025238,0.024804770910739897,0.0349501986190211
1746576153268618200,11.2566181640625,-0.01695405741035938,0.018109657186269758,0.0037906244546175
1746576153278696400,11.266696533203126,0.012774141377210616,0.02400631400942802,-0.01593098883978091
1746576153288775400,11.276775390625,0.019664485412836073,0.013995207604765891,-0.05016102909124456
1746576153298853400,11.286853271484375,0.0168225399851799,-0.008576105165481566,-0.018462142152059824
1746576153308931300,11.296931396484375,-0.004538812473416328,0.021198855373263357,0.015185047576995566
1746576153319010600,11.307010498046875,-0.011887421670556068,0.02139993090331554,-0.0095626319848001
1746576153329088500,11.317088623046875,-0.0059784898877143855,0.020033903247117995,0.00047642187271267175
1746576153339167200,11.327167236328124,-0.0064268181771039955,0.03836275614202022,-0.02887487902701832
1746576153349245400,11.337245361328126,0.03541968842744827,0.03280921366810798,-0.03340929845310747
1746576153359323400,11.347323486328126,0.06328267786502838,0.02056172651350498,0.027618577089300378
1746576153369402400,11.35740234375,0.03722878367602825,0.021647183662652968,0.0329142632114701
1746576153379480300,11.367480224609375,0.040535424005985254,0.008661445361375808,-0.012096753572300075
1746576153389559600,11.3775595703125,0.11114917541146278,0.02335515662431717,0.04542398149883374
1746576153399637500,11.387637451171875,0.06760930889248848,-0.002714519655704498,0.01595518256612122
1746576153409715500,11.397715576171874,0.09095043699145317,0.028207272830605506,-0.025692897123191505
1746576153419794400,11.40779443359375,0.08660451674163341,0.04743044421672821,-0.005332830661628395
1746576153429872600,11.41787255859375,0.02791851901710033,0.03226034761369228,0.012007221258478239
1746576153439951400,11.427951416015626,-0.0033802900880575176,0.026223990058898923,0.015616178136412053
1746576153450029300,11.438029296875,-0.03921557357907295,-0.007135843229293823,0.014242305100476369
1746576153460107500,11.448107421875,-0.09557985035777092,-0.0368342314004898,0.019758520371839405
1746576153470186500,11.4581865234375,-0.05697568667531013,-0.03725508716106415,0.014037877702713012
1746576153480264400,11.468264404296875,-0.03699497492015361,-0.016207622957229613,0.016161171733308582
1746576153490343700,11.47834375,-0.046042789250612254,0.0041238019317388535,-0.04547224108735099
1746576153500421600,11.488421630859374,0.016621464455127716,0.051686932617425914,-0.08300884860353544
1746576153510499600,11.49849951171875,0.07839023062586783,0.06916647520661354,-0.011179930988326668
1746576153520578300,11.508578369140626,0.13690437891483306,0.032843115937709805,0.0584905756171327
1746576153530656500,11.518656494140625,0.15846856046915053,-0.0017705168038606642,0.06647678859806619
1746576153540735500,11.528735595703125,0.141539052978158,-0.0031739538609981536,0.028044848810508845
1746576153550813400,11.5388134765625,0.07848726125955581,0.0009738134682178497,0.008357493978738785
1746576153560891400,11.548891357421875,0.04103694378733635,0.013790624943375587,0.00908405468761921
1746576153570970600,11.558970703125,-0.0066296472728252405,-0.00012859481573104857,-0.006082982308650389
1746576153581048600,11.569048583984374,-0.05532908851206302,-0.013890578186511992,-0.02897434821296483
1746576153591127300,11.579127197265626,-0.0449123239159584,0.0031967502146959302,-0.045889827178604896
1746576153601205200,11.589205322265625,-0.05799567737281322,0.033494273322820664,-0.06830193079914897
1746576153611283500,11.599283447265625,-0.0213145907074213,0.038731004932522774,-0.04555755388378165
1746576153621362400,11.609362548828125,0.0295668707460165,0.058198506468534465,0.009967303795553743
1746576153631440400,11.6194404296875,0.05620411778092384,0.032309447452425956,0.04259311458761804
1746576153641519600,11.62951953125,0.040511458608508105,0.012971709775924682,0.021584475423675028
1746576153651597600,11.63959765625,-0.023936171382665634,0.01756020660996437,-0.0030315314493142066
1746576153661676300,11.64967626953125,-0.061226329857110975,-0.005866846206784248,-0.03094649766930379
1746576153671754200,11.659754150390626,-0.05933072536885738,-0.002152209597826004,-0.017293335834704337
1746576153681832400,11.66983251953125,0.0004845686465501785,0.006054477733373641,-0.001836640842631459
1746576153691911400,11.679911376953125,0.04490004895627498,0.023368016105890274,-0.01610482930303551
1746576153701989400,11.6899892578125,0.09354922131299973,0.026988544690608976,-0.013504985535563901
1746576153712068600,11.700068603515625,0.13369067756533623,0.03744388773143291,0.026338382819341494
1746576153722146600,11.710146484375,0.15545827273726462,0.025520225703716277,0.04769020026461221
1746576153732224500,11.720224609375,0.13021627945303915,0.015951017847657203,0.039270838297111914
1746576153742303500,11.730303466796874,0.06723287679553032,0.00443418305516243,-0.00946231341548264
1746576153752381400,11.74038134765625,0.007355623459815978,-0.0033066403299570083,-0.025389475463517008
1746576153762460400,11.75046044921875,-0.049587329989671705,0.004757423660159111,-0.03662613247460685
1746576153772538400,11.760538330078125,-0.07485270414948463,0.007669511714577674,-0.03804490409819409
1746576153782616300,11.7706162109375,-0.10535948609411716,0.007790507745742798,-0.0044807621432468294
1746576153792695600,11.780695556640625,-0.14862228923738002,-0.0002297171026468277,-0.02626191091649234
1746576153802773500,11.7907734375,-0.14094751682579518,0.009555763852596282,-0.07327651347448118
1746576153812852500,11.8008525390625,-0.10473287862837315,0.0058294368058443066,-0.024170491595193744
1746576153822930700,11.8109306640625,-0.02342646829485893,0.00776946495771408,0.0040190446493215855
1746576153833008600,11.821008544921876,0.06393441977202892,0.0251923089236021,0.028069590526120736
1746576153843087400,11.83108740234375,0.14462299046814442,0.020796119791269302,0.054659655684744936
1746576153853165300,11.841165283203125,0.19392098212242126,0.032899814561009405,0.05061017023138702
1746576153863244500,11.85124462890625,0.2093523600101471,0.040648821252584455,0.022205329002067446
1746576153873322500,11.861322509765625,0.20624679521024225,0.04128361202478409,0.03218629599679261
1746576153883401500,11.8714013671875,0.1538777255475521,0.011504559832811356,0.05782380967093631
1746576153893479400,11.8814794921875,0.0641004239886999,-0.013076923716068268,0.03204439417491667
1746576153903557600,11.8915576171875,-0.02752513578534126,-0.006608019962906837,-0.012923669383116065
1746576153913636400,11.90163623046875,-0.11712883434295654,-0.018406594306230543,-0.09079597708210349
1746576153923714300,11.91171435546875,-0.15982406673133373,-0.015678046125173567,-0.07842895520105958
1746576153933793500,11.92179345703125,-0.14573358205854892,-0.005785013142228126,-0.02314852813631296
1746576153943871500,11.93187158203125,-0.127208329808712,0.026204700836539266,0.010702915460569784
1746576153953949400,11.941949462890625,-0.0698871906965971,0.030659342157840726,0.009594250965770334
1746576153964028400,11.9520283203125,0.022205402067303655,0.046745969083905214,-0.006290040054917335
1746576153974106600,11.962106689453124,0.07897124538421631,0.020918284866213797,0.0027753190653864294
1746576153984185300,11.972185302734376,0.11666297039687633,0.0141167881578207,0.010490980609785764
1746576153994263300,11.98226318359375,0.1559820043504238,0.01999181767106056,0.037728211964992805
1746576154004342500,11.992342529296875,0.13688918134570122,0.034551673421263696,0.009759341866988689
1746576154014420500,12.00242041015625,0.12613397857546807,0.016193009909987448,0.011831773360027
1746576154024498400,12.01249853515625,0.0771066205561161,-0.0073059390991926185,0.00927224333663471
1746576154034577400,12.022577392578125,0.003965981021523475,-0.0050362406015396115,-0.016142284369748086
1746576154044655600,12.032655517578124,-0.029309096592664716,0.002878770306706428,-0.0044556825009174645
1746576154054734600,12.042734619140624,-0.0630769261598587,0.009085808253288268,-0.02389541011401452
1746576154064812500,12.0528125,-0.07246259414255618,0.01578209102153778,-0.03491236909297295
1746576154074890500,12.062890380859375,-0.06088613811731338,0.016203531304001807,0.006344683718448504
1746576154084969500,12.072969482421875,-0.07322130355536938,0.014229016360640525,0.0051252705918624995
1746576154095047400,12.08304736328125,-0.026528525963425635,0.02193593747615814,-0.029983333459263666
1746576154105126400,12.09312646484375,0.03400046927928924,0.02478898881971836,-0.028542870593676342
