time,seconds_elapsed,z,y,x
1746734677093983700,0.020983642578125,-0.03236380798816681,-0.01720207735467702,0.023320724631752818
1746734677103950800,0.030950927734375,-0.03311082696318626,-0.008251257125288248,-0.009300218188948928
1746734677113916700,0.040916748046875,-0.022939561560750006,0.0036683132492005823,-0.029339455198310313
1746734677123883800,0.0508837890625,-0.013967150554060935,0.0009221928788349031,-0.02338967994842678
1746734677133850600,0.0608505859375,-0.02683598447740078,0.004012742772698402,0.0038030272784642873
1746734677143817700,0.070817626953125,-0.05511573802232742,0.007492511179856955,0.02051817963272333
1746734677153783800,0.08078369140625,-0.017553776869177817,-0.005278378794342279,0.01686879027970135
1746734677163750700,0.090750732421875,-0.02429097616970539,-0.0020355244155973195,-0.0014032178614288569
1746734677173717800,0.1007177734375,-0.03461889343857765,-0.005844269048795103,-0.006479461679793894
1746734677183683600,0.11068359375,-0.013667875346541404,0.003591302490234375,-0.03965968235107138
1746734677193650700,0.120650634765625,0.0024918168157339097,-0.0038842940874397754,-0.013115757889114319
1746734677203617500,0.130617431640625,-0.013371522748470305,-0.012566088117100298,0.01838498526262119
1746734677213583600,0.14058349609375,-0.04045417546331882,-0.008711202787235379,0.03857437133239582
1746734677223550200,0.15055029296875,-0.02399170096218586,0.0035155703729018565,0.005626534644886851
1746734677233517000,0.16051708984375,-0.015310381856560706,-0.00026318098083138466,-0.014339728459808975
1746734677243483400,0.1704833984375,-0.01965162593126297,-0.017311821339465676,-0.01232530163116753
1746734677253450200,0.1804501953125,-0.021002456018328664,0.0038795083144679663,-0.015420545966457574
1746734677263417300,0.190417236328125,-0.03356967664659023,-0.001179345977678895,0.011003113116696476
1746734677273384400,0.200384521484375,-0.022797522741556168,-0.008182502738013863,0.029295177665166556
1746734677283350300,0.210350341796875,-0.015313304466009139,0.0023655600875616073,0.0059729917286895215
1746734677293317400,0.2203173828125,-0.030275895798206328,0.00504541028868407,-0.014254607459623366
1746734677303284200,0.2302841796875,-0.03566284953355789,-0.00855648714955896,0.0017165763932280242
1746734677313250300,0.240250244140625,-0.023239421290159223,-0.016442235430702567,0.0029366745064035057
1746734677323217200,0.250217041015625,-0.017854221120476722,-0.026866160419955848,0.0018911109762266276
1746734677333184300,0.260184326171875,-0.015755203014612196,-0.003027275399304926,0.006508395513333379
1746734677343151400,0.2701513671875,-0.02473404376208782,0.018703093034774063,0.011695223566703498
1746734677353117200,0.2801171875,-0.00348608855009079,-0.007557904566265642,0.01745347656616941
1746734677363084300,0.290084228515625,-0.024435353076457975,-0.015977138669602573,0.003889883578009903
1746734677373051100,0.300051025390625,-0.03685352062284946,-0.006300817177258431,-0.0029870712530799207
1746734677383017200,0.310017333984375,-0.018895839127898214,0.008340031387284397,-0.00914650719827041
1746734677392984000,0.319984130859375,-0.0016880992174148558,0.006288432619720697,-0.008449464844819158
1746734677402951200,0.329951171875,-0.010967384216189384,-0.017862952416203916,0.009010313597973435
1746734677412917200,0.339917236328125,-0.027128245422244072,0.003562660917639732,0.013595741692092269
1746734677422884400,0.34988427734375,-0.03460778752267361,0.006187383398041129,0.002365761016961187
1746734677432851200,0.359851318359375,-0.010517302361130713,-0.012452069815993309,-0.010551533424295484
1746734677442817300,0.3698173828125,-0.010969137781858443,0.005872654893063009,-0.004548603215068578
1746734677452784400,0.379784423828125,-0.036411037552356716,-0.003204348999261856,-0.010156634088885038
1746734677462751200,0.389751220703125,-0.04643383439481258,-0.01642188676241785,-0.009612261546496302
1746734677472718300,0.39971826171875,-0.022937807995080946,-0.011873064351640641,0.002966430323850363
1746734677482684200,0.40968408203125,-0.006177227330207824,0.009947283920831978,-0.007371990072727203
1746734677492651300,0.4196513671875,-0.03341068669259548,-0.004893982586637139,-0.0018150135327130556
1746734677502618400,0.429618408203125,-0.03610124095082283,-0.018137421976029872,-0.0010585691422224045
1746734677512584200,0.439584228515625,-0.00961421604156494,-0.020282799974270165,0.00869609654964879
1746734677522551300,0.44955126953125,-0.015899579921364784,-0.018661226654425263,-0.0030518618512898684
1746734677532518100,0.45951806640625,-0.035948096215724944,0.0016335925512015819,-0.0057890134639106685
1746734677542485200,0.4694853515625,-0.036249124988913535,0.003908515213243663,-0.0014255392910912633
1746734677552451000,0.479451171875,0.008787117567658424,0.014652392871864138,0.016697214838769285
1746734677562418200,0.489418212890625,-0.029369302347302437,-0.0020131299206987024,0.013738091038540005
1746734677572385300,0.49938525390625,-0.05734802711904049,-0.008696370544284581,0.005660035055689514
1746734677582351000,0.50935107421875,-0.013058803537487984,-0.008473740769550204,-0.008358242897409945
1746734677592318200,0.519318115234375,-0.0021352584630250928,-0.006245872119627892,-0.01640829662848264
1746734677602285000,0.52928515625,-0.025180033963918685,0.007366692843101918,0.0005307824084535241
1746734677612252200,0.539252197265625,-0.018892916518449782,0.01658376279324293,-0.0021493235209956766
1746734677622218200,0.54921826171875,-0.018148235630989072,-0.008804324430786072,0.0033023477473296224
1746734677632185300,0.559185302734375,-0.015005845952033995,-0.02568571846373379,-0.0007810125761665404
1746734677642152200,0.569152099609375,-0.018747370567917823,-0.01533829277679324,0.006696520230267197
1746734677652118300,0.5791181640625,-0.02249181779325008,-0.002647847627662122,-0.007573229999560862
1746734677662085400,0.58908544921875,-0.02234510279893875,-0.001670636625960469,0.002606017779931426
1746734677672052200,0.59905224609375,-0.027733810099959372,-0.012282741131074726,0.007473185424879193
1746734677682018300,0.609018310546875,-0.015462357547879219,-0.012463906384259461,0.010453534676227718
1746734677691985200,0.618985107421875,-0.027581249886751175,0.0020387758186087013,0.01128397588469088
1746734677701952300,0.6289521484375,-0.03985036435127258,-0.0027756387257948517,-0.006363032225891948
1746734677711919400,0.63891943359375,-0.009323124140501023,-0.013292320032417773,-0.019232834263611585
1746734677721885200,0.64888525390625,-0.006032850423455238,-0.004870419047959149,0.00965323287770152
1746734677731852300,0.658852294921875,-0.03985153339505195,0.018435235878825187,0.010060936895757914
1746734677741819100,0.668819091796875,-0.03670855919420719,-0.002238316978700459,0.007092789538856595
1746734677751785200,0.67878515625,-0.004386836782097816,-0.016461743848770857,0.0009704342010430991
1746734677761752000,0.688751953125,-0.02653261761665344,-0.01724595302902162,0.008772595851961523
1746734677771719200,0.69871923828125,-0.03625906186103821,0.007586546138860285,-0.016354977272357792
1746734677781686300,0.708686279296875,-0.01845394057929516,0.00840323281660676,-0.003063789751101285
1746734677791652000,0.718652099609375,0.017606968361139296,-0.022396321529522537,-0.0034872210612520572
1746734677801619200,0.728619140625,-0.021147417446970938,-0.02620342219490558,0.006566555441357195
1746734677811586000,0.7385859375,-0.02982172228991985,-0.008431837856583297,-0.0042524880790151655
1746734677821552400,0.748552490234375,-0.013658522996306419,0.007556735522486269,0.00554983441317454
1746734677831519200,0.758519287109375,-0.012759528329968451,-0.00907671163138002,-0.000736954238731414
1746734677841486300,0.768486328125,-0.02877133645415306,-0.014295724921301007,-0.006445321948174387
1746734677851453200,0.778453125,-0.028320085555315015,-0.014099289033748208,0.00799216779768467
1746734677861419300,0.788419189453125,-0.03310731983184814,-0.008494418231397866,0.005521265905816108
1746734677871386400,0.798386474609375,-0.004975450325012207,0.017346015870012343,0.014745112656615674
1746734677881353200,0.808353271484375,-0.0022831425011157988,0.004635733509249985,0.001915679161902517
1746734677891319300,0.8183193359375,-0.023684242448210716,-0.0017360300123691558,0.0017989574470557272
1746734677901286100,0.8282861328125,-0.029221418309211728,-0.015023820000141859,0.002082121769990772
1746734677911253200,0.838253173828125,-0.018449264404177664,-0.006461414566449821,-0.004480323751829564
1746734677921220400,0.848220458984375,-0.013064064234495161,-0.013917539258673787,0.004091671494115144
1746734677931186200,0.858186279296875,-0.03371580711901188,-0.01853800213355571,-0.00872532264413312
1746734677941153300,0.8681533203125,-0.040001755520701406,-0.016376403652876615,0.009165650290157645
1746734677951120100,0.8781201171875,-0.0012426935374736784,-0.011784874611534178,0.010305175714101642
1746734677961086200,0.888086181640625,-0.010819500178098677,0.014974829759262502,-0.006405793655384332
1746734677971053000,0.898052978515625,-0.04433890794217586,0.011492504068836569,0.015384597870241849
1746734677981020200,0.908020263671875,-0.02563596103787422,-0.017204744235798715,0.0034589813474565742
1746734677990987300,0.9179873046875,-0.013667290824651717,-0.010903415601886807,-0.010078691748157143
1746734678000953000,0.927953125,-0.023093290817737578,-0.016867803899012504,-0.010635576712246984
1746734678010920200,0.937920166015625,-0.02264437800645828,0.012522504703700543,-0.021350867597199976
1746734678020887000,0.947886962890625,-0.02383914074897766,0.006944412310421467,0.0044784423219971356
1746734678030853400,0.957853271484375,-0.025038579666614533,-0.027091018684394657,0.022100644784886388
1746734678040820200,0.9678203125,-0.02204407402575016,-0.028637882800213992,0.014040581116452813
1746734678050787300,0.977787353515625,-0.0443371543765068,-0.015532098315842449,0.007713570052012801
1746734678060754200,0.987754150390625,-0.028625205981731412,-0.0018551628800109027,-0.0066025948691181835
1746734678070720300,0.99772021484375,-0.02264262444078922,0.006761310828477144,0.005050232594273984
1746734678080687400,1.007687255859375,-0.012769465202093124,-0.0017010317642241716,0.02065345991756767
1746734678090654200,1.017654296875,-0.016512158861756325,0.008316979305259884,0.0030782749341800807
1746734678100620300,1.027620361328125,-0.03342237713038921,-0.018127375506050883,-0.012326488941255957
1746734678110587100,1.037587158203125,-0.02624327928125858,-0.006622450347058475,0.0021133206258527933
1746734678120554200,1.04755419921875,-0.02055880390405655,0.0051319925935938955,-0.004218841537740082
1746734678130521300,1.057521240234375,-0.043453357279300685,0.018284246568195522,-0.0019529058997519314
1746734678140487200,1.067487060546875,-0.0254974293500185,-0.004449234493821859,0.0049354288418777285
1746734678150454300,1.077454345703125,-0.012333411872386933,-0.028432423355989157,0.009425762531068176
1746734678160421000,1.087421142578125,-0.03717091600894928,-0.017228965361602604,-0.0026183110059238967
1746734678170387200,1.09738720703125,-0.035222704550623894,0.002448525663278997,-0.009369703228585421
1746734678180354000,1.10735400390625,0.0006868132203817367,-0.001259790802747011,0.014407240738067775
1746734678190321200,1.117321044921875,0.009813538005948067,-0.004959083712100983,0.0235022186785005
1746734678200288300,1.127288330078125,-0.02176291899681091,-0.0032575039586052296,-0.005174498294759541
1746734678210254000,1.137254150390625,-0.037626843082904815,-0.0053268941111862655,-0.002716127090901136
1746734678220221400,1.147221435546875,-0.023559154763817786,-0.0007253551324829458,-0.004663352168537676
1746734678230188500,1.1571884765625,-0.0008189151674509048,-0.01767320199776441,0.015548885053861886
1746734678240154600,1.167154541015625,-0.022816227442026136,-0.015234430543519556,-0.017860194203536957
1746734678250121500,1.17712158203125,-0.03223988934755325,-0.005894866724871098,-0.024004158584959804
1746734678260088300,1.18708837890625,-0.02430968087017536,0.00011924246549606323,0.00679429978262633
1746734678270055400,1.197055419921875,-0.024759178203344345,-0.022727672375738618,0.009443663513939828
1746734678280021800,1.207021728515625,-0.020571663385629654,-0.017740093221515416,0.004361592742986977
1746734678289988600,1.216988525390625,-0.01892564974427223,0.007409399473667144,-0.008970474777929484
1746734678299955700,1.226955810546875,-0.016382979524135588,-0.00047141690403223037,-0.01049081621300429
1746734678309921500,1.236921630859375,-0.02282090361714363,-0.011738185925595461,0.004313113958761096
1746734678319888600,1.246888671875,-0.026713819402456283,-0.00048409372251480813,0.017832429413776843
1746734678329855500,1.25685546875,-0.028811083942651746,0.0039040947664529084,-0.000544938797969371
1746734678339822600,1.266822509765625,-0.010402151548862457,-0.012916983914002776,0.011226637940574437
1746734678349788700,1.27678857421875,-0.007857727763056755,-0.010947875798121095,-0.0002237805522046983
1746734678359755500,1.286755615234375,-0.024171149182319638,-0.0044218350302428,0.012022080900892615
1746734678369722600,1.29672265625,-0.04078150772154331,-0.003072173986956477,-0.005760865081660449
1746734678379688400,1.3066884765625,-0.0035223289072513577,-0.0072784665703773494,-0.005094437062181532
1746734678389655600,1.316655517578125,-0.01354863288104534,-0.02373125992771238,-0.0013493322497233748
1746734678399622400,1.326622314453125,-0.01878361092507839,-0.016851729547046123,-0.005479673520103097
1746734678409589500,1.336589599609375,-0.03644201721251011,-0.005149053326249122,-0.005801069227885454
1746734678419555600,1.3465556640625,-0.02282441074848175,-0.005281447534263134,0.021233616159390657
1746734678429522400,1.3565224609375,-0.009209726893901824,-0.001472227977029979,0.020476148855593054
1746734678439489500,1.366489501953125,-0.03404840007424354,-0.00025978344734758137,-0.009379512236546724
1746734678449455600,1.37645556640625,-0.030756957313418386,-0.017464527683146297,0.0005072371360845863
1746734678459422500,1.38642236328125,-0.02088029094338417,0.0006555778319016098,-0.001176423368230462
1746734678469389300,1.396389404296875,-0.00935585736632347,-0.012120865100249647,-0.0020928806260228157
1746734678479356400,1.4063564453125,-0.02462123103737831,0.0042379663633182645,-0.008508665952458977
1746734678489322800,1.41632275390625,-0.04527355844378471,0.0007299947749823332,-0.007779748889710753
1746734678499289600,1.42628955078125,-0.035248423513770104,-0.015567936814203858,0.015270890096388757
1746734678509256700,1.436256591796875,-0.003527589604258537,-0.006361095997132361,0.014664393836911767
1746734678519222500,1.446222412109375,-0.012355623704195021,-0.0034923721604049203,-0.013251476565375923
1746734678529189600,1.456189697265625,-0.04033844012916088,0.005950688565336168,-0.012202186708152294
1746734678539156500,1.466156494140625,-0.020434885263442993,-0.000945610287040472,0.0028328853383660316
1746734678549123600,1.47612353515625,-0.0029249475359916684,-0.005805690604075789,0.0085479750495404
1746734678559089700,1.486089599609375,-0.024022680622339247,-0.005844524777121842,-0.010892802876327186
1746734678569056500,1.496056396484375,-0.03060556614398956,0.004127857052348554,-0.005474248426314443
1746734678579023600,1.506023681640625,-0.01190086567401886,-0.004367255298793316,0.007325520582497119
1746734678588990500,1.515990478515625,-0.005315642064809799,0.0005658171892166138,-0.006323175139538943
1746734678598956500,1.52595654296875,-0.03883504982888698,-0.005287110090069472,-0.014649214534088968
1746734678608923600,1.535923583984375,-0.02387128945291042,-0.0054861763261258596,-0.011563633076287806
1746734678618890500,1.545890380859375,-0.022377251502871513,-0.004403970579989255,-0.002406111293658614
1746734678628856600,1.555856689453125,-0.014593758019804953,-0.012969627416692673,0.020302728517446664
1746734678638823400,1.565823486328125,-0.025070728370547295,0.004544036637805402,0.007242609805706888
1746734678648790500,1.57579052734375,-0.0315016382008791,-0.0008151523077860474,0.014014496827125548
1746734678658757400,1.58575732421875,-0.026267244678735733,-0.010626206095702945,0.008351411297824234
1746734678668723500,1.595723388671875,-0.009658055183291435,-0.015424071364104747,0.0058658963587135075
1746734678678690600,1.605690673828125,-0.02103402020037174,0.008267587205581366,0.00519258194072172
1746734678688657400,1.615657470703125,-0.0406423915117979,0.006260119840689003,-0.007397672503255307
1746734678698623700,1.625623779296875,-0.02148936275243759,-0.01302935824729502,0.017909074846561998
1746734678708590600,1.635590576171875,-0.0027852468043565747,-0.018534202741272748,0.024002076225727795
1746734678718557700,1.6455576171875,-0.03435878119766712,-0.0008548632636666297,0.016028046872932463
1746734678728524500,1.655524658203125,-0.024186346751451492,-0.004046864238008856,0.00567925121281296
1746734678738490600,1.66549072265625,-0.002639700853824615,-0.003279167801141739,-0.012846969151403754
1746734678748457700,1.675457763671875,-0.025832944914698598,-0.005272497042827308,-0.01625074971290305
1746734678758424600,1.685424560546875,-0.04273907153010368,-0.0031126155951991677,-0.007552242010459303
1746734678768390700,1.695390625,-0.030769232273101806,-0.0023281141540035604,-0.0024660978525876997
1746734678778357500,1.705357421875,-0.010274141255021095,-0.01042918568626046,0.016715755142457784
1746734678788324600,1.71532470703125,-0.004739888003468513,-0.005868417109362781,0.02537435095962137
1746734678798291500,1.72529150390625,-0.03376490695774555,-0.014503522453084587,0.010214921881072222
1746734678808257500,1.735257568359375,-0.023137129959464073,-0.0160785897500813,-0.006108582540787756
1746734678818224600,1.745224609375,-0.01565875690281391,-0.006883695099130272,-0.008596691295783967
1746734678828191500,1.75519140625,-0.022540917631983754,0.002361724162660539,-0.0027679303433746096
1746734678838157600,1.765157470703125,-0.034511925932765,-0.0008061287511140108,-0.0018235804316587745
1746734678848124400,1.77512451171875,-0.022094342908263204,-0.01315937783513218,0.003544613804295659
1746734678858091500,1.785091552734375,-0.027336335214972494,-0.016896518536843357,0.004713273991178721
1746734678868058400,1.795058349609375,-0.02329495086967945,-0.013940774003788828,-0.0023024682560935615
1746734678878024700,1.805024658203125,-0.02060264304578304,0.009723740830644964,-0.00169845621464774
1746734678887991600,1.814991455078125,-0.02329670443534851,0.004996821906603872,-0.017791403283644466
1746734678897958400,1.82495849609375,-0.03601823884248733,-0.010684073762781918,0.004105937481485307
1746734678907924700,1.8349248046875,-0.012377251014113426,-0.001965235658362508,0.005167812825646251
1746734678917891600,1.8448916015625,-0.029735797572135923,-0.005277721207216382,0.0012002974341623483
1746734678927858700,1.854858642578125,-0.03646890521943569,0.002964402763545513,0.0029623021380044516
1746734678937825500,1.864825439453125,-0.005193476989865302,-0.007184029752574861,0.0035933665831573303
1746734678947791600,1.87479150390625,-0.01641863535940647,0.009240523890964686,0.002601031077560037
1746734678957758700,1.8847587890625,-0.03107844435274601,0.000742233202047646,0.009040014616493135
1746734678967725600,1.8947255859375,-0.025094693768024444,-0.008350479716062545,-0.015790456991083918
1746734678977691600,1.904691650390625,0.005578676915168762,0.009561791734583675,-0.020792028138041495
1746734678987658500,1.914658447265625,-0.027341595911979672,0.01635821040906012,0.0018448058827780186
1746734678997625600,1.92462548828125,-0.028537527698278425,-0.007301774380728602,0.004965056795161217
1746734679007592400,1.934592529296875,-0.02090250277519226,-0.01784786444492638,0.013881591162458061
1746734679017558500,1.94455859375,-0.017162147203087806,-0.02260857604071498,-0.0006474310580641031
1746734679027525600,1.954525634765625,-0.011474164694547652,0.009118395348638295,0.01122625434808433
1746734679037492500,1.964492431640625,-0.01372165136039257,0.018751827547326683,-0.007445493700355291
1746734679047459600,1.97445947265625,-0.004594342052936554,0.003085033468529582,-0.0020949995178729296
1746734679057425400,1.98442529296875,-0.03317629341483116,-0.023987207450158893,-0.009545205925963819
1746734679067392500,1.994392578125,-0.03212532305717468,-0.00893905672635883,0.007749828675482422
1746734679077359400,2.004359375,-0.03691021924614906,0.005815335215255618,-0.004591255046706646
1746734679087325700,2.01432568359375,-0.020149054059386252,-0.00525273289643228,0.0009980711266398428
1746734679097292500,2.02429248046875,-0.026883915272355077,-0.001654818002320826,0.0010673187042586506
1746734679107259400,2.03425927734375,-0.028080431580543515,-0.0015331278514117,0.00750617437902838
1746734679117226500,2.0442265625,-0.033465631750226016,0.0008013064455240965,0.014568440915457904
1746734679127192600,2.054192626953125,-0.008474982878565789,-0.0030883944693952795,-0.0028492884838953614
1746734679137159700,2.06415966796875,-0.02643383341729641,0.0016127689588814973,-0.011088361981045455
1746734679147126500,2.07412646484375,-0.010270049601793289,0.009941438701935111,-0.006331595908012241
1746734679157092600,2.084092529296875,-0.031520927423238754,0.0023402064505964517,0.022584263583365828
1746734679167059700,2.094059814453125,-0.009379822763800621,-0.002801065427996218,0.01626357266185805
1746734679177026600,2.104026611328125,-0.016114683976769448,-0.013565620548464358,0.0019340550688095389
1746734679186993700,2.11399365234375,-0.03646890521943569,-0.012705606185644864,0.02286492542196065
1746734679196959500,2.12395947265625,-0.01148293252289295,0.0008982640139758586,-0.008941924536880105
1746734679206926600,2.133926513671875,-0.0011596914291381836,0.009518244853802024,-0.019775234044622628
1746734679216893700,2.143893798828125,-0.013579028019309044,0.0020222996078431603,-0.01589254739237949
1746734679226859800,2.15385986328125,-0.02135784532725811,0.0003319353681057691,0.0018744703686796127
1746734679236827000,2.163826904296875,-0.01941314100027084,-0.015825820565409956,-0.0017008308348245918
1746734679246793700,2.173793701171875,-0.03138298025727272,-0.024524346534162758,-0.020861239183042196
1746734679256760800,2.1837607421875,-0.033629297879338264,-0.010896437871828675,-0.011829499204549938
1746734679266726700,2.1937265625,0.005126841494441032,0.028098734422214326,-0.0009259557384997606
1746734679276693800,2.20369384765625,-0.01732055263519287,0.04092025860510766,0.010351626938022673
1746734679286660900,2.213660888671875,-0.012684125006198883,-0.0033211437793448564,0.009941511767171323
1746734679296626700,2.223626708984375,-0.019573299998044965,-0.03970353975910693,0.01554722281973809
1746734679306593800,2.23359375,0.0016740706920623778,-0.032602183321304615,-0.018953304936178028
1746734679316560600,2.243560546875,-0.057283729711174965,0.006891293883696198,-0.02428091143341735
1746734679326527700,2.25352783203125,-0.06985621103644371,0.020437332948856055,-0.013952902832999825
1746734679336493800,2.263493896484375,0.017379589346051216,0.012386676429584622,0.0015422975385561584
1746734679346461000,2.2734609375,0.009742810857295989,-0.014108312590420245,0.02325463712560013
1746734679356428000,2.283427978515625,-0.060135612010955804,-0.012549940699897707,0.01131955865472555
1746734679366393900,2.293393798828125,-0.04607259986698627,-0.00020582477040588854,-0.013953834414761513
1746734679376361000,2.30336083984375,0.001810264292359352,0.004181486935727298,-0.022051526679843662
1746734679386327800,2.313327880859375,-0.010461772781610488,0.008300795355439186,-0.000255892723519355
1746734679396295000,2.323294921875,-0.04054010018110275,-0.010710706041380762,0.011486604051012546
1746734679406260700,2.3332607421875,-0.005224456650018691,-0.007438990894332528,-0.0009520400278270245
1746734679416227800,2.343227783203125,-0.00208440505862236,-0.009188574508018792,0.013427673382498322
1746734679426195000,2.35319482421875,-0.026629648250341413,-0.009915281347371636,0.006468958552088588
1746734679436160800,2.363160888671875,-0.03501110762655735,0.0019859861854463813,-0.018426066191680728
1746734679446127900,2.3731279296875,-0.013613514810800552,-0.006770115189440548,-0.030470559853781012
1746734679456094700,2.3830947265625,-0.010472294175624846,0.011351926554366945,-0.015032368632778525
1746734679466061800,2.393061767578125,-0.03726210142374038,-0.0033824820451438427,0.008542020232789218
1746734679476028000,2.40302783203125,-0.04279869276285171,0.0005205898080021142,0.025730891046021134
1746734679485994800,2.412994873046875,-0.023497195443511008,0.009347235668450594,0.004266644468531013
1746734679495961900,2.4229619140625,-0.005691489639878273,0.0029383550068363545,0.0032303054244257508
1746734679505928700,2.4329287109375,-0.00943476782143116,-0.0012020692661404609,-0.005256166962534189
1746734679515894800,2.442894775390625,-0.04205810352861881,-0.000753594846278429,-0.012485679824650287
1746734679525861600,2.452861572265625,-0.018860183292627335,-0.019703648379445073,-0.000692694971896708
1746734679535828700,2.462828857421875,-0.020802549532055854,-0.02439359629396349,0.03352271396601572
1746734679545795000,2.472795166015625,-0.027537995266914365,-0.013298457512259483,0.01261113283522427
1746734679555762000,2.482761962890625,-0.04594458957314491,-0.001484649067185819,-0.002716766411717981
1746734679565729000,2.49272900390625,-0.017218845826387403,0.0068512906668707725,-0.005080810395628213
1746734679575694800,2.50269482421875,-0.003005611556768417,0.0023989874331280586,-0.0032404432259500026
1746734679585662000,2.512661865234375,-0.033382045120000835,-0.013292941086925565,-0.004607804322708398
1746734679595628800,2.52262890625,-0.02470364862382412,0.0044737113479524845,0.0005683196735568344
1746734679605596000,2.532595947265625,-0.01018763201534748,0.003153166801296174,-0.005808777610305697
1746734679615562000,2.54256201171875,-0.022457915523648262,0.0017073884397745133,0.015187157335691153
1746734679625528800,2.55252880859375,-0.037270284730195995,0.0006404533280059695,0.014255813036020845
1746734679635496000,2.562495849609375,-0.03652560384273529,0.0013041779337450861,-0.01875348978145048
1746734679645462800,2.572462890625,-0.026050971579551694,0.009996054966002702,-0.015184216459933668
1746734679655428900,2.582428955078125,-0.030988427981734273,-0.023544285988248884,0.010711655889451503
1746734679665395700,2.592395751953125,-0.03488017472326755,0.0020252952825278044,0.023806827648263425
1746734679675362800,2.60236279296875,-0.027848376390337944,0.0008594663735479116,0.000903707374073565
1746734679685329000,2.612328857421875,-0.01348550451695919,0.010350896285660565,-0.018686087101045995
1746734679695295700,2.622295654296875,-0.01049567505121231,-0.002142345790937543,-0.010307331138569862
1746734679705262800,2.632262939453125,-0.03533668631911278,-0.019729148146882654,0.01581387439928949
1746734679715229700,2.642229736328125,-0.0461105937898159,-0.010442593157105147,0.02357944863317534
1746734679725195800,2.65219580078125,-0.014833411994576454,-0.01755074466187507,0.01578958020824939
1746734679735162600,2.66216259765625,-0.022765374037623406,-0.0015505904428660868,0.0004559270739555359
1746734679745129700,2.672129638671875,-0.02889993126988411,0.027175007173418995,-0.01377977475579828
1746734679755096000,2.682095947265625,-0.029348844081163405,0.004914806178957224,-0.026715134576708075
1746734679765063000,2.69206298828125,-0.01902326489984989,-0.011320545035414397,0.005270542547758669
1746734679775030000,2.702030029296875,-0.025613164684176442,-0.006903276582434773,0.01842270519081503
1746734679784996900,2.711996826171875,-0.00945697965323925,0.021198526579700408,0.01785394712584093
1746734679794963000,2.721962890625,-0.0269657483369112,0.010892565414309502,-0.004730864446796477
1746734679804929800,2.7319296875,-0.023968320086598396,-0.0030584742551669477,-0.01911289767837152
1746734679814897000,2.74189697265625,-0.026207038924098012,-0.006470766916684806,-0.010037482954934238
1746734679824863000,2.751863037109375,-0.002563128486275673,-0.013878084031119942,0.007690152643807232
1746734679834829800,2.761829833984375,-0.03458382212519646,0.004576039211265742,-0.007926390818785876
1746734679844797000,2.771796875,-0.026951719811558722,0.010134550121240317,-0.0005202610144391655
1746734679854763800,2.781763671875,-0.004655132329463958,-0.013650449287705122,0.01800683613261208
1746734679864729900,2.791729736328125,-0.04924363111853599,-0.019289441555365917,-0.0012936565397307276
1746734679874696700,2.80169677734375,-0.03547872513830662,-0.022123021013475953,-0.006032667760364711
1746734679884663800,2.811663818359375,0.003425298273563385,-0.003239091519080102,-0.015119078801851718
1746734679894630000,2.8216298828125,-0.017376082214713096,-0.0035109307304024696,0.0037741482438519596
1746734679904596700,2.8315966796875,-0.039815877559781075,-0.0033575302669778466,0.00629999519335106
1746734679914563800,2.841563720703125,-0.028593641799688336,0.002351714225299656,-0.004331654262449592
1746734679924530700,2.85153076171875,-0.0019587328523397443,-0.014673727920837699,0.005504734896123409
1746734679934496800,2.861496826171875,-0.021113515177369115,-0.005044204712286591,0.004703939907252788
1746734679944463600,2.871463623046875,-0.034734044250845905,-0.008873992133513092,0.0013341894795186817
1746734679954430700,2.8814306640625,-0.022912673553824422,-0.0048193464478477836,-0.008102989494707434
1746734679964397000,2.89139697265625,-0.01094224977493286,0.01940280226934701,0.023066201881412417
1746734679974364000,2.901364013671875,-0.008698270240426064,0.014036014539189635,0.025602990350034088
1746734679984331000,2.9113310546875,-0.02590659467279911,0.007906462275609373,0.002566708682850003
1746734679994296800,2.921296875,-0.029196868389844893,-0.031344146084226664,-0.00043031770866364236
1746734680004264000,2.931263916015625,-0.019769699352979658,-0.01600947003662586,-0.004749824875593185
1746734680014230800,2.941230712890625,-0.012735562932491302,-0.003498728835955262,0.01533018253557384
1746734680024198000,2.951197998046875,-0.0064507835745811455,0.007121632040850818,0.01430270265135914
1746734680034164000,2.9611640625,-0.010788520517945288,0.009459610001742839,0.004884155312366784
1746734680044130800,2.971130859375,-0.010337269619107246,0.028326223035156726,0.007008928913995623
1746734680054098000,2.981097900390625,-0.02111117708981037,0.006048413318768144,0.01385505021540448
1746734680064063700,2.991063720703125,-0.06510170998573303,-0.02248403634559363,-0.011702639688178897
1746734680074030800,3.00103076171875,-0.04115735529661178,-0.03515015077106654,-0.03648229442397132
1746734680083998000,3.010998046875,-0.0003074585139751434,-0.02186572178415954,0.004479428702685982
1746734680093964800,3.02096484375,-0.002100187149643898,0.02157192646935582,0.021741748344618825
1746734680103931000,3.030930908203125,-0.04489771086871624,0.007826090515777468,0.027736586578935383
1746734680113897700,3.040897705078125,-0.02006020673215389,-0.02067950767427683,0.0028844511288218196
1746734680123864800,3.05086474609375,-0.015273556977510452,-0.01598616222627461,-0.017335311812907456
1746734680133831000,3.060830810546875,-0.029489713856577872,0.01606423243116587,-0.02573850809689611
1746734680143797800,3.0707978515625,-0.05343348402380943,-0.005597418148256838,-0.028713724515400826
1746734680153764900,3.080764892578125,-0.027252748584747313,-0.01771481264978647,-0.0059537755715660745
1746734680163731700,3.090731689453125,-0.014236030623316765,-0.023058913624100386,0.014417816931009292
1746734680173698000,3.100697998046875,-0.009895371070504188,-0.0058117550186812875,0.02342727201245725
1746734680183665000,3.110664794921875,-0.035032734936475754,0.026824842028878627,0.011474877080600708
1746734680193632000,3.120632080078125,-0.019619477227330206,-0.01387786483541131,-0.012621836892329156
1746734680203597800,3.130597900390625,-0.02665770530104637,-0.015441314759850501,-0.016720212121866643
1746734680213565000,3.14056494140625,-0.032794016098976135,-0.004668905126489699,-0.0163519998639822
1746734680223531300,3.15053125,-0.032193127596378324,-0.0011699205622076987,-0.0004290573333390057
1746734680233498400,3.160498291015625,-0.019922844088077544,-0.006679952687956393,0.03512806680342182
1746734680243464200,3.170464111328125,-0.013192074528336524,-0.017818199959024787,0.03632069238778204
1746734680253431300,3.180431396484375,-0.00331657720208168,-0.001164805995672941,0.008892185377329588
1746734680263398400,3.1903984375,-0.028452187502384183,0.004567307915538549,-0.023721980642713605
1746734680273364200,3.2003642578125,-0.032192543074488635,0.021603344520926476,-0.029252872893400488
1746734680283331300,3.210331298828125,-0.02485913144648075,-0.006127323773875832,-0.0021335048973560333
1746734680293298200,3.220298095703125,-0.01528232480585575,-0.014665471549145876,0.002529408879764378
1746734680303264300,3.23026416015625,-0.04147007450759411,-0.0025069413196295498,0.02720291809365153
1746734680313231000,3.240231201171875,-0.033240006300807,0.002154620750620961,0.012944511241745203
1746734680323198200,3.2501982421875,-0.015884382352232933,-0.004177724076062441,-0.011203658923786133
1746734680333165300,3.260165283203125,-0.009900631767511367,-0.01340462130047381,-0.0017978797348216175
1746734680343131400,3.27013134765625,-0.0372831442117691,0.010921608845703304,0.013515917921531945
1746734680353098500,3.280098388671875,-0.024563947892189023,0.002080678731575608,0.003680460344720632
1746734680363065300,3.2900654296875,-0.020973814445734023,-0.0077362568078562614,-0.0005586385297589003
1746734680373031400,3.300031494140625,-0.029802433067560193,-0.002044182646088302,0.0009199826554395257
1746734680382998300,3.309998291015625,-0.03728548229932785,-0.00652527358289808,-0.0059306138916872435
1746734680392965400,3.31996533203125,-0.024264088162779807,-0.003909501593932509,-0.009505294040683657
1746734680402932500,3.329932373046875,-0.009454057043790817,-0.0013023513028398155,-0.016612093838583676
1746734680412898300,3.339898193359375,-0.016190087300539016,0.009055522712878883,-0.0015827574131079018
1746734680422865400,3.349865478515625,-0.021728432205319403,-0.00437335624601692,0.004268215371109545
1746734680432832300,3.359832275390625,-0.000030979660153388974,-0.01234481004923582,0.000005881751514971256
1746734680442798300,3.36979833984375,0.0005675707548856735,0.0018715294929221272,0.00028884514505043627
1746734680452765400,3.379765380859375,-0.015441899281740187,0.010219890317134559,0.0007034903605468571
1746734680462732300,3.389732177734375,-0.031004210072755813,-0.00247899386677891,0.0014225984153337775
1746734680472699400,3.399699462890625,-0.013198504269123076,-0.02179503116812557,0.011679003084264694
1746734680482665200,3.409665283203125,-0.020232640689611434,-0.021932941801473496,0.0175617775125429
1746734680492632300,3.41963232421875,-0.020978490620851515,-0.013758695435151456,-0.00594780248850584
1746734680502599200,3.42959912109375,-0.02277472638785839,0.013786971681565046,-0.007444196792412549
1746734680512565200,3.439565185546875,-0.016339140382409096,-0.0024152079155668614,-0.0044403753339312966
1746734680522532400,3.449532470703125,-0.00017594108879566192,-0.013067096441797911,0.004920012077037245
1746734680532499200,3.459499267578125,-0.01827916853427887,0.020195121690817178,0.00632969621187076
1746734680542466300,3.46946630859375,-0.04670972872674465,0.0033726547708734867,-0.01064925817772746
1746734680552432400,3.479432373046875,-0.01109480998814106,-0.01025244087986648,0.0015793598796240984
1746734680562399500,3.4893994140625,-0.01528057124018669,-0.008992650077119468,-0.0005609218183904885
1746734680572366300,3.499366455078125,-0.027848376390337944,-0.01076119411960244,0.00030923034595325586
1746734680582332400,3.50933251953125,-0.03997019133865833,-0.002570982999168336,0.0004220065380446613
1746734680592299500,3.519299560546875,-0.028597148931026457,-0.02443235740177333,0.007166347965411842
1746734680602266400,3.529266357421875,-0.01648059467971325,-0.023593970348872242,0.007040694025438278
1746734680612232400,3.539232421875,-0.036382395979762075,0.01740428539589047,-0.0016270349462516604
1746734680622199300,3.54919921875,-0.045207507470250125,0.03004848025050014,-0.008407233138289302
1746734680632166400,3.55916650390625,-0.016475333982706068,-0.00360686538554728,-0.0004242898266762495
1746734680642133200,3.56913330078125,-0.013929156631231307,-0.01955510675422847,-0.009525880170986056
1746734680652099300,3.579099365234375,-0.03518237254023552,0.002198825218528509,0.0013789602030068635
1746734680662066400,3.58906640625,-0.04296528150141239,-0.011222528021037579,0.01544852995192632
1746734680672033300,3.599033203125,-0.004808277064561843,0.0001974953334778547,0.017961371289379895
1746734680681999400,3.608999267578125,-0.012291910818219185,-0.013228278352878988,0.0025381401754915713
1746734680691966200,3.61896630859375,-0.042515784168243406,0.0022451120456680653,0.013329126645158975
1746734680701933300,3.628933349609375,-0.019915829825401306,0.007066321657039225,0.003734272891189903
1746734680711900200,3.638900146484375,-0.018570260435342788,-0.00683108812905848,-0.005076755275018513
1746734680721866500,3.648866455078125,-0.021414543950557707,-0.014880502539314328,0.003023731735348701
1746734680731833300,3.658833251953125,-0.03353109820187092,0.016304763188771904,-0.0067531823209486894
1746734680741800200,3.66880029296875,-0.046697453767061234,0.004354724610783159,0.0009141557028517126
1746734680751766500,3.6787666015625,-0.0028559739530086515,-0.0033642888013273474,0.010180690817907453
1746734680761733400,3.6887333984375,-0.004801847323775291,-0.0065056920995935795,0.017548589237406848
1746734680771700500,3.698700439453125,-0.02395721417069435,-0.0030311478568241,-0.013257303517963736
1746734680781666300,3.708666259765625,-0.020815993535518645,0.02008475665152073,-0.0010563954514451325
1746734680791633400,3.71863330078125,-0.013189736440777778,-0.010164579933322966,0.010493665757216513
1746734680801600500,3.7286005859375,-0.016931261056661605,-0.021224062879756093,0.008554313458781689
1746734680811567400,3.7385673828125,-0.029198621955513954,-0.010280023006536066,0.009536145836673676
1746734680821533400,3.748533447265625,-0.03428162430822849,0.0018927549440413713,0.0015493666001595557
1746734680831500300,3.758500244140625,-0.017222352957725524,-0.0012509133765473961,-0.0062601746396161615
1746734680841467400,3.76846728515625,-0.007495908713340759,-0.0019599018961191177,-0.00870486437799409
1746734680851433200,3.77843310546875,-0.022609306693077084,-0.0055350569691509,-0.021023845866229383
1746734680861400300,3.788400390625,-0.030691490861773488,-0.0005616524707525968,-0.02980256093172356
1746734680871367400,3.798367431640625,-0.026205285358428955,-0.022358254541456696,0.0034548531616106627
1746734680881334300,3.808334228515625,0.0071627312362194055,-0.01586911171786487,0.014488324883952736
1746734680891300400,3.81830029296875,0.0037187282621860504,0.02026124572958797,0.0031117570786736905
1746734680901267200,3.82826708984375,-0.03399170145094395,0.03114434919580817,0.0074930957017466425
1746734680911234300,3.838234375,-0.020972060880064963,0.006259535318799317,0.01948414214355871
1746734680921200400,3.848200439453125,-0.013194997137784957,-0.008768705128133297,0.013416001211013644
1746734680931167500,3.85816748046875,-0.04342354666292667,-0.003932553675957024,-0.011572620100341737
1746734680941134300,3.86813427734375,-0.040433132675290105,-0.00916797011140734,-0.010864106504805385
1746734680951100400,3.878100341796875,-0.000187047004699707,-0.01409680481571704,0.00802437130054459
1746734680961067500,3.888067626953125,-0.017400047612190245,-0.012629362611658871,0.022695888997986913
1746734680971034400,3.898034423828125,-0.03325871100127697,-0.0019371420750394462,0.009691172001603991
1746734680981001500,3.90800146484375,-0.03056114248037338,-0.0021889614116400477,-0.004244834495522082
1746734680990967300,3.91796728515625,-0.012151625564694403,-0.02304948820862919,0.0014988419893197714
1746734681000934400,3.927934326171875,-0.005115735578536987,0.002187280911207199,0.0015745741066522895
1746734681010901500,3.937901611328125,-0.03653729428052902,0.005763641560636461,-0.01435549228452146
1746734681020867300,3.947867431640625,-0.0323468568533659,0.007856924045458435,0.004165449116379023
1746734681030834400,3.95783447265625,-0.01977612909376621,-0.01418240073993802,0.02439514893023297
1746734681040801300,3.96780126953125,-0.02381692891716957,-0.031103944120183587,0.023223310405574737
1746734681050768400,3.977768310546875,-0.02142097369134426,0.001321384796872735,-0.00834746577506885
1746734681060734200,3.987734130859375,-0.031445524099469185,0.004153137624077498,-0.029015191680006682
1746734681070701300,3.997701416015625,0.0020697920113801954,0.015498342176713049,-0.004685710130818188
1746734681080668400,4.00766845703125,-0.018731003955006598,0.0058172714440152045,0.012513700342737138
1746734681090634200,4.01763427734375,-0.040430210065841674,-0.012082798112183808,0.014142415789421646
1746734681100601300,4.027601318359375,-0.030555881783366202,-0.03147654029224068,-0.0051954680175520475
1746734681110568200,4.037568115234375,-0.01738718813061714,-0.01858187780790031,-0.005559789551608264
1746734681120534500,4.047534423828125,-0.015295768809318542,0.020073979529179633,-0.004737622981145977
1746734681130501400,4.05750146484375,-0.028909868142008778,0.03734375182520598,0.005749101578630507
1746734681140468500,4.067468505859375,-0.03639291737377643,0.006389481841400265,0.009078172936104238
1746734681150435300,4.077435302734375,-0.03654080141186714,-0.026566081494838,0.00906131313284859
1746734681160401400,4.0874013671875,-0.03758475750684738,-0.04192852233219892,-0.009793700794316828
1746734681170368500,4.097368408203125,-0.04716682484447956,-0.007137487197108566,-0.03601458558067679
1746734681180335400,4.10733544921875,0.00011164368093013762,0.01669602752868086,-0.017142839714419097
1746734681190301400,4.117301513671875,0.009534721064567566,0.0057435120880603785,0.025925829096231607
1746734681200268300,4.127268310546875,-0.01575286492705345,0.008451748133450745,0.03019470205446705
1746734681210235400,4.1372353515625,-0.050613750427961346,-0.023212094891816377,0.007071710218209773
1746734681220201200,4.147201171875,-0.0342985754430294,-0.04566489584892988,-0.012168448835331946
1746734681230168300,4.157168212890625,-0.01903729342520237,-0.0003807064132764935,-0.03425511989379301
1746734681240135400,4.167135498046875,0.0110363577991724,0.06262490807604044,-0.018046766284201293
1746734681250102300,4.177102294921875,-0.023382629153132436,0.03422825015317649,0.014909253709763287
1746734681260068400,4.187068359375,-0.05959376021921634,-0.04828450376279652,0.03921235870867967
1746734681270035200,4.19703515625,-0.04312719406485557,-0.08182700014151632,0.01270814520260319
1746734681280002300,4.207002197265625,-0.027560207098722457,-0.010091039773076772,-0.02670496024256572
1746734681289968000,4.216968017578125,-0.022470775005221367,0.042708859054930506,-0.026741712056379763
1746734681299935200,4.226935302734375,-0.01709434266388416,0.05027582371048629,-0.0073616513418033715
1746734681309902300,4.23690234375,0.01956394764780998,-0.01822214111741632,0.027002591482270508
1746734681319869200,4.246869140625,-0.03161211283802986,-0.042078379131667315,0.01079608276989311
1746734681329835500,4.25683544921875,-0.06348141530752181,-0.0016515300666913389,0.007558598686009645
1746734681339802400,4.26680224609375,-0.014105097720026969,-0.003310439722239971,-0.013296101158391683
1746734681349769500,4.27676953125,0.0022048165678977966,0.004536109059676528,-0.014555197841394692
1746734681359735300,4.2867353515625,-0.028768413844704625,0.005378332037478685,0.008035093623958527
1746734681369702400,4.296702392578125,-0.05465104312002658,0.00985737714767456,-0.01690174270123243
1746734681379669500,4.30666943359375,-0.015595044016838073,0.0005575973501428962,0.010190938217286019
1746734681389635300,4.31663525390625,-0.012304185777902602,-0.0141579604184255,-0.0009913308585993946
1746734681399602400,4.3266025390625,-0.010811316871643066,0.006613792116567492,-0.0040296756411902605
1746734681409569300,4.3365693359375,-0.05345744942128658,0.020954123364575205,-0.02480235975794494
1746734681419536400,4.346536376953125,-0.02951367925405502,0.010875577746890484,0.0019731267038732765
1746734681429502200,4.356502197265625,0.008943769434094428,-0.006187858322076499,0.004808477993961423
1746734681439469300,4.36646923828125,0.0019131401449441908,-0.023853205806948243,0.000816978938691318
1746734681449436400,4.3764365234375,-0.06392623646557331,-0.01793663870692253,0.0010292882488109171
1746734681459402200,4.38640234375,-0.04028291054964065,0.01303063688892871,0.004159731761645525
1746734681469369300,4.396369384765625,0.0061035775721073144,0.007857545099966227,-0.01236061040656641
1746734681479336200,4.406336181640625,0.015379355439543723,-0.0024323417134582996,-0.01698368536364287
1746734681489303300,4.41630322265625,-0.04612053066194057,-0.017270904807187615,0.007260675185360014
1746734681499269000,4.42626904296875,-0.05120704014599323,-0.017357706307806073,0.00016202216129750012
1746734681509236200,4.436236328125,-0.0024228432327508924,-0.010073394518531857,0.014647241772711277
1746734681519203300,4.446203369140625,0.007899228817224503,0.014843677660264074,-0.011815817739069461
1746734681529169400,4.45616943359375,-0.03504968607127666,0.009978373178839683,-0.01211101955967024
1746734681539136500,4.466136474609375,-0.025322072783112524,-0.022224508626572787,-0.007915522364899516
1746734681549103400,4.476103271484375,0.00011924246549606323,-0.01973280140869319,0.011777074897568672
1746734681559069400,4.4860693359375,-0.026668226695060727,0.006077456750161946,0.011471534346044063
1746734681569036300,4.496036376953125,-0.03056289604604244,0.015037081340514123,-0.002635061211325228
1746734681579003400,4.50600341796875,-0.01799625993967056,-0.0006907587431371212,0.016571104241069404
1746734681588970500,4.515970458984375,-0.013956629160046577,-0.013823979223705827,0.02236388056464493
1746734681598936300,4.525936279296875,-0.04014437886178493,-0.012900325040146708,-0.00035513358060270544
1746734681608903400,4.5359033203125,-0.043886487999558445,-0.011723280617408453,-0.01014273342769593
1746734681618870300,4.545870361328125,-0.0013894085317850112,0.01102108716480434,0.0028828619599342345
1746734681628836400,4.55583642578125,-0.017851298511028287,0.011191438763029873,-0.0020120339421555397
1746734681638803200,4.56580322265625,-0.029673838251829145,0.00625449381750077,0.009561006283294409
1746734681648770300,4.575770263671875,-0.03236497703194618,0.0077134969867765895,0.013123064412735402
1746734681658736000,4.585736083984375,-0.0027338088780641556,-0.03379336586724967,0.012179773946944623
1746734681668703200,4.595703125,-0.008271569260954856,-0.01192179886419326,-0.002464472151082009
1746734681678670300,4.60567041015625,-0.02278524778187275,0.011057510185055434,0.006998480585217476
1746734681688637200,4.61563720703125,-0.011261398726701736,0.02167487538717687,0.002899849627353251
1746734681698603300,4.625603271484375,-0.0015343699604272842,-0.00689812548328191,0.008543901662621646
1746734681708570400,4.6355703125,-0.0199421333104372,-0.020643523045442997,0.009067688074707984
1746734681718537200,4.645537109375,-0.023984102177619933,-0.001017250751145184,0.0016123853663913906
1746734681728503300,4.65550341796875,-0.03401157519519329,-0.009946808996796607,-0.008540248400811105
1746734681738470400,4.665470458984375,-0.021893851900100708,-0.00013988339472562075,-0.017676215938758105
1746734681748437500,4.6754375,-0.025337270352244375,0.003923420521430671,0.005116941154934465
1746734681758404400,4.685404296875,-0.02533668583035469,-0.0014531579503789544,-0.0006266622646711766
1746734681768370400,4.695370361328125,-0.03356266238391399,-0.0026332345804199577,-0.0011878580776974559
1746734681778337300,4.705337158203125,-0.018896423649787903,-0.006292158946767449,-0.005204217579588294
1746734681788304400,4.715304443359375,-0.007823240971565245,-0.0012116042794659734,0.0008162482863292098
1746734681798270500,4.7252705078125,-0.02907061166167259,0.009976619613170623,-0.009226495365612208
1746734681808237300,4.7352373046875,-0.03609890286326408,-0.003433919971436262,-0.007487908069975673
1746734681818204400,4.745204345703125,-0.001381225225329399,-0.003616363866254687,0.004767963320482522
1746734681828170200,4.755170166015625,0.0011620295166969298,-0.002095912833325565,0.01597355847302824
1746734681838137300,4.765137451171875,-0.04058452384471893,-0.015033208882994949,0.016282606155890972
1746734681848104200,4.775104248046875,-0.030856910556554793,-0.005057137259095907,-0.018278419615607708
1746734681858071300,4.7850712890625,-0.0010784428864717482,-0.0017399024698883294,-0.018940865579713136
1746734681868037400,4.795037353515625,-0.003918634748458862,-0.004770940728858113,-0.016011735058948397
1746734681878004200,4.805004150390625,-0.05359715015292167,-0.014222550087235867,0.002081665112264454
1746734681887971300,4.814971435546875,-0.02665945886671543,-0.0201082105923444,0.019235281949024647
1746734681897937400,4.8249375,0.00027530981004238127,0.008201426634192465,0.020230247803125528
1746734681907904500,4.834904541015625,-0.002867079868912697,-0.0021139964792877435,0.009423716704454273
1746734681917871400,4.844871337890625,-0.02920388265252113,0.0006217120949178934,0.016705398145224898
1746734681927837400,4.85483740234375,-0.03698386900424957,-0.008225318966433406,-0.00859077301165089
1746734681937804500,4.864804443359375,-0.006460720446705818,-0.01279138477295637,-0.019662622249312697
1746734681947771400,4.874771484375,-0.028012042519450185,0.004760784661024808,0.007073226321861147
1746734681957738500,4.884738525390625,-0.02322247015535831,0.011603818956203759,0.015027089669462293
1746734681967704300,4.894704345703125,-0.0369914677888155,0.0008513195997104048,0.003725121470354497
1746734681977671400,4.90467138671875,-0.022478958311676976,-0.00911748203318566,0.005981850888580083
1746734681987638300,4.91463818359375,-0.006169628545641899,-0.008060483793541788,0.013047825485747306
1746734681997604400,4.924604248046875,-0.03639467093944549,0.008678177300468087,-0.013338844321575016
1746734682007571500,4.934571533203125,-0.033552140989899636,-0.0047341523824259634,-0.012638386168330906
1746734682017538300,4.944538330078125,-0.024873744493722913,-0.0072647303059697145,-0.006956961264740675
1746734682027504400,4.95450439453125,-0.013355156135559081,-0.008106003435701132,0.0034492819373495875
1746734682037471200,4.96447119140625,-0.016347323688864705,0.0003945157429203391,0.016921908706426618
1746734682047438300,4.974438232421875,-0.02247837378978729,0.005382460223324596,0.001332362848613411
1746734682057405200,4.9844052734375,-0.03474807277619839,-0.008984393705427645,-0.002288585861213505
1746734682067371300,4.994371337890625,-0.021131050834059716,-0.013438340906985103,0.0029107180812396106
1746734682077338400,5.00433837890625,-0.03250409324169159,-0.002063508401066065,0.010698284951224922
1746734682087305200,5.01430517578125,-0.029661563292145726,0.003215089588984847,-0.005039163210988044
1746734682097271600,5.024271484375,-0.01065817213654518,-0.013250965108722448,-0.014277148084994406
1746734682107238400,5.03423828125,-0.014400865796208381,-0.002029898392409086,0.0033026765408925712
1746734682117205500,5.04420556640625,-0.03310615078806877,0.020698468103073537,0.011439476973656564
1746734682127172400,5.05417236328125,-0.02771861253082752,0.0022617709195241332,0.004431370043568313
1746734682137138400,5.064138427734375,-0.0028811083942651746,-0.0087748060753569,-0.0038808417550288137
1746734682147105500,5.07410546875,-0.016797990065813062,-0.009667626729235053,-0.004611768111772835
1746734682157072400,5.084072265625,-0.03804828336536884,-0.014158106548897922,0.00040430648457258936
1746734682167038500,5.09403857421875,-0.03475450251698494,-0.0010536737713962793,0.0016179017917253076
1746734682177005300,5.10400537109375,-0.01649754581451416,0.00791555889751762,-0.0027444946688599883
1746734682186972400,5.113972412109375,-0.02263619470000267,-0.009372589305415749,0.004617631596978753
1746734682196938200,5.123938232421875,-0.027574820145964622,0.0004709785126149654,0.010553140859492122
1746734682206905300,5.1339052734375,-0.02891863597035408,0.002321319087035954,-0.009476378473453223
1746734682216872400,5.14387255859375,-0.03340717956125736,-0.011937288694269955,-0.01166661852672696
1746734682226839600,5.153839599609375,-0.01350596278309822,-0.0005320975827053189,-0.014380590193159877
1746734682236805400,5.163805419921875,-0.009316109877824783,0.02641925690267235,0.015652034901082516
1746734682246772500,5.1737724609375,-0.02697100903391838,0.014270444349572062,0.011104034474212675
1746734682256739300,5.1837392578125,-0.025922376763820646,-0.019999854847043752,0.0071655077151954166
1746734682266705400,5.193705322265625,-0.02412614099681377,-0.017902078850194812,0.0077327496765181416
1746734682276672300,5.20367236328125,-0.03774024032950401,-0.013501944195106625,-0.0194867724920623
1746734682286639400,5.213639404296875,-0.01783726998567581,-0.0021688319390639663,-0.001383837307523936
1746734682296605400,5.22360546875,-0.013943769678473472,-0.004062281002849341,-0.002402092705667019
1746734682306572500,5.233572509765625,-0.02112520561516285,-0.013067827094160019,0.012859792100358754
1746734682316539600,5.24353955078125,-0.04611234735548496,0.0022433219473809002,0.00902046966580674
1746734682326506500,5.253506591796875,-0.0007692308068275451,-0.009772402277961372,-0.0027050759739242493
1746734682336472600,5.26347265625,-0.006757073044776916,0.006593005056865513,-0.014366287673171609
1746734682346439400,5.273439453125,-0.01977612909376621,0.01081741781886667,-0.009446385193988681
1746734682356406500,5.283406494140625,-0.035187633237242694,-0.005402845424227416,0.00779518392086029
1746734682366372400,5.293372314453125,-0.022620412608981132,-0.015202026111260055,-0.0009080730219371616
1746734682376339500,5.30333935546875,-0.00481236871778965,-0.013082147880457341,0.006174980574194341
1746734682386306600,5.313306640625,-0.027855975174903867,-0.004700725036859512,0.0072125982599332925
1746734682396272400,5.3232724609375,-0.03683364687860012,0.005436163171939552,0.005451415539998561
1746734682406239500,5.333239501953125,-0.005856909334659576,-0.0024153175134211777,0.015068645522557197
1746734682416206300,5.343206298828125,-0.003162263423204422,0.013128032848797738,-0.008159213193971664
1746734682426173400,5.35317333984375,-0.034436522608995435,-0.00502677865345031,-0.007931194858066737
1746734682436139300,5.36313916015625,-0.02949848168492317,-0.01342562755588442,-0.007890698450896889
1746734682446106400,5.3731064453125,-0.010498013138771056,-0.0016946750886738299,0.011623710966762155
1746734682456073500,5.383073486328125,-0.015883797830343247,0.0012638824559748172,-0.007958448191173374
1746734682466039300,5.393039306640625,-0.01902501846551895,0.021036540951021015,-0.006857355081476271
1746734682476006400,5.40300634765625,-0.032792262533307075,0.0021733985163271425,-0.0032321685879491266
1746734682485973200,5.41297314453125,-0.030846389162540434,-0.00757233495041728,-0.0003917757965624332
1746734682495939600,5.422939697265625,-0.012140519648790359,0.0030429844250902532,0.0106549207335338
1746734682505906400,5.432906494140625,-0.023064649245142937,-0.00129164724573493,-0.0038543556069023906
1746734682515873500,5.44287353515625,-0.03399053240716457,0.02236388056464493,0.00836461783926934
1746734682525840600,5.452840576171875,-0.014389759880304335,-0.0013920754129067062,-0.01450556827969849
1746734682535806500,5.462806396484375,-0.010052607458829878,-0.0029991452833637595,0.01502153671151027
1746734682545773600,5.472773681640625,-0.04282148911654949,-0.010688384611718355,0.006793185537774115
1746734682555740400,5.482740478515625,-0.029053076004981995,0.00017444325145334004,-0.004254917498119175
1746734682565706500,5.49270654296875,-0.013489596170186996,-0.0008711933439597487,-0.0031041217614896596
1746734682575673300,5.50267333984375,-0.0010685060143470764,0.008110022023692726,0.014037128784041852
1746734682585640400,5.512640380859375,-0.03593640577793121,0.017301994065195322,0.014346304331067948
1746734682595607600,5.522607666015625,-0.028602409628033638,-0.018979133497178554,0.0063025159440003335
1746734682605573400,5.532573486328125,-0.024863223099708554,-0.02859583375677466,0.00045463016601279377
1746734682615540500,5.54254052734375,-0.03698620709180832,0.0003354790320619941,-0.0027965536496601996
1746734682625507300,5.55250732421875,-0.01244680911898613,0.008460881287977099,-0.004030296695698052
1746734682635473400,5.562473388671875,-0.026364275312423704,-0.005865056108497082,0.013459694222267716
1746734682645440300,5.572440185546875,-0.02247662022411823,-0.023007731426134704,-0.0002791822675615549
1746734682655407400,5.582407470703125,-0.010356558841466903,-0.0024753406049683687,0.002245806165412068
1746734682665373400,5.59237353515625,-0.011102993294596672,0.0028953926479443905,0.006371379929129034
1746734682675340300,5.60234033203125,-0.026514497438073156,-0.0029484014768153427,-0.0081837631133385
1746734682685307400,5.612307373046875,-0.013347557350993156,-0.007833543169870972,-0.015103680303320289
1746734682695274200,5.622274169921875,-0.027414661148190498,-0.015109598587453364,0.006108820002805442
1746734682705240600,5.632240478515625,-0.0269657483369112,-0.0038591961788013575,0.01772675881590694
1746734682715207400,5.64220751953125,-0.03459668160676956,-0.005333396917209029,0.0009155987412668764
1746734682725174500,5.652174560546875,-0.01320142687857151,-0.004770977261476218,-0.006638542965333908
1746734682735140400,5.662140380859375,-0.01709142005443573,0.013177096154913305,0.0024692761903628707
1746734682745107500,5.672107421875,-0.022179683104157445,0.009336093219928444,-0.006866323839221149
1746734682755074600,5.682074462890625,-0.03938800753653049,-0.005898446921445429,-0.0007797704671509563
1746734682765040400,5.692040283203125,-0.00647065731883049,-0.013147577799484132,0.007008417457342147
1746734682775007500,5.702007568359375,-0.023980595046281812,-0.013869535398483275,-0.006543795620277524
1746734682784974300,5.711974365234375,-0.022485972574353218,0.009928725350834429,-0.004664612543862313
1746734682794941400,5.72194140625,-0.0338584304600954,0.005887377538159489,-0.006924100174754858
1746734682804907300,5.7319072265625,-0.011713234147429466,-0.010653349830955266,0.0012650332334451376
1746734682814874400,5.741874267578125,-0.01664952150583267,-0.008137092693708837,0.0018244389481842517
1746734682824841500,5.751841552734375,-0.020835282757878302,-0.004660648754797876,0.005718596842512488
1746734682834807300,5.761807373046875,-0.033255788391828536,0.006083155838586389,0.01641059818342328
1746734682844774400,5.7717744140625,-0.00003799392282962799,-0.0011895385781303047,-0.005610295896138996
1746734682854741200,5.7817412109375,0.003253448837995529,-0.00461801518946886,0.0003914470029994845
1746734682864707600,5.79170751953125,-0.02308919916450977,0.008675072027929127,0.0004722754205577075
1746734682874674400,5.80167431640625,-0.04643441891670227,0.0014108531786128878,-0.0034388518748804924
1746734682884641500,5.8116416015625,-0.019501988327503203,0.003276172126457095,0.009117719495203345
1746734682894608400,5.8216083984375,-0.014862638089060782,0.003417516825906932,0.004160115354135632
1746734682904574500,5.831574462890625,-0.02892915736436844,0.011780198436416684,-0.0008658047827892005
1746734682914541600,5.84154150390625,-0.01905249099433422,-0.009450988303869963,0.015392963839787988
1746734682924508400,5.85150830078125,-0.018607085314393042,-0.021344035997614263,0.002101173530332744
1746734682934474500,5.861474609375,-0.027290742507576942,-0.006715791186317801,0.00003653261810541153
1746734682944441300,5.87144140625,-0.015017536389827727,-0.0012700199358165263,0.004401796889211982
1746734682954408400,5.881408447265625,-0.01367021343410015,0.008727423269674182,-0.015643541067373007
1746734682964374500,5.89137451171875,-0.022799860829114914,-0.012458609154634178,0.01561318246172741
1746734682974341400,5.90134130859375,-0.01187514671087265,-0.003988192853331566,0.014316128388512879
1746734682984308500,5.91130859375,-0.01352116035223007,0.0006405263932421803,-0.0007886296270415186
1746734682994275300,5.921275390625,-0.03342646878361702,0.007147314471378922,0.010622662431746721
1746734683004241400,5.931241455078125,-0.01861643766462803,0.0018378829516470432,0.0051668629775755105
1746734683014208300,5.941208251953125,-0.027746669581532477,-0.005438099400699138,0.007266337741166353
1746734683024175400,5.95117529296875,-0.022359131324291227,0.007105630754120648,-0.004394800892844796
1746734683034141400,5.961141357421875,-0.009939794734120369,0.012668306382559238,-0.003353895271476358
1746734683044108300,5.9711083984375,-0.02789163101017475,-0.008829020480625331,0.017546159818302837
1746734683054075400,5.981075439453125,-0.01547404798567295,-0.0207542534109205,0.009632738078944384
1746734683064041500,5.99104150390625,-0.023552725023031233,0.008807100909762083,0.0099852413110435
1746734683074008600,6.001008544921875,-0.032384850776195524,0.006922054348140955,-0.004022095122933387
1746734683083975400,6.010975341796875,-0.019219079732894898,-0.004311798784509301,0.007025277260597795
1746734683093942500,6.020942626953125,-0.012634440645575522,-0.005104593130014837,0.0067897149390541015
1746734683103908600,6.03090869140625,-0.02954290534853935,-0.008295315462723375,0.006100253103859722
1746734683113875500,6.04087548828125,-0.0159293905377388,0.013650339689850806,-0.0066190710798837244
1746734683123842600,6.050842529296875,-0.005158405676484108,-0.003949943202175199,0.002388118979241699
1746734683133808400,6.060808349609375,-0.011444938600063324,0.00374492214936763,-0.0037610513002611693
1746734683143775500,6.070775390625,-0.03523614855408668,-0.0018206760885193943,0.013569821799546479
1746734683153742300,6.080742431640625,-0.025060206976532936,-0.006165756088122725,0.003978694372624159
1746734683163708400,6.09070849609375,-0.03628068917095661,-0.02161079717501998,0.013209153527300803
1746734683173675500,6.100675537109375,-0.01862462097108364,0.00027008564565330744,-0.0047443815154954785
1746734683183642400,6.110642333984375,-0.008303717964887618,0.011927826746180653,0.003432860525511205
1746734683193609500,6.120609375,-0.013840893825888633,-0.001389846923202276,0.0009311251039616763
1746734683203575300,6.1305751953125,-0.023716391152143478,-0.017712328431755305,0.01664066234594211
1746734683213542400,6.14054248046875,-0.015337269863486288,0.000541778726503253,-0.008316778375860303
1746734683223509500,6.150509521484375,-0.022818565529584882,0.011600713683664799,-0.011026786253228784
1746734683233475300,6.160475341796875,-0.021772271347045898,-0.0035826807923614976,-0.0015395393258891999
1746734683243442400,6.1704423828125,-0.0048620530784130095,-0.0013191197745501995,0.01632938617337495
1746734683253409500,6.180409423828125,-0.006209376034140586,-0.013693338581360875,0.003400309962779283
1746734683263375600,6.190375732421875,-0.04346621676087379,-0.008217756714485585,0.008320322039816528
1746734683273342700,6.2003427734375,-0.05199439113140106,-0.012608977410756051,0.005200436453614384
1746734683283309600,6.2103095703125,-0.012189619487524032,-0.013053323644772172,0.004703848575707525
1746734683293276700,6.220276611328125,-0.018921558091044424,-0.003996924149058759,-0.010237846098933369
1746734683303242500,6.230242431640625,-0.028352234259247776,0.023636969240382312,0.006229359376244247
1746734683313209600,6.240209716796875,-0.018026070556044577,-0.0006240867150947451,0.01593404844654724
1746734683323176700,6.2501767578125,-0.005158990198373794,-0.02258110351189971,0.01728875099113211
1746734683333142500,6.260142578125,-0.0211707983225584,-0.008557071671448648,0.00826983396159485
1746734683343109600,6.270109619140625,-0.025061960542201993,0.012093575234524905,-0.02463390785586089
1746734683353076500,6.280076416015625,-0.012940730115771293,0.020369163083471357,0.006842815099470317
1746734683363042600,6.29004248046875,-0.005009937116503715,-0.004013254229351878,0.004130688330251723
1746734683373009400,6.300009521484375,-0.009648702833056449,-0.006595818068459629,0.004630746806878596
1746734683382976500,6.3099765625,-0.032090836265683174,0.0034792569505050774,0.007651281938143074
1746734683392943600,6.319943603515625,-0.010694997015595436,-0.005296024048887193,0.00004157411940395832
1746734683402909400,6.329909423828125,-0.0159293905377388,0.003394757004827261,-0.00013098770221695304
1746734683412876500,6.33987646484375,-0.01981938371360302,0.01325293787010014,0.004060545703489333
1746734683422843400,6.349843505859375,-0.018920389047265052,-0.0005256313093006611,0.011049253813363611
1746734683432809500,6.3598095703125,-0.035382279026508326,0.0023592034120112656,0.012713314568065107
1746734683442776300,6.3697763671875,-0.015484569379687308,-0.005938157877326012,0.008722308703139423
1746734683452743400,6.379743408203125,-0.01249298634827137,-0.004395129686407744,-0.0013078129292465746
1746734683462709800,6.389709716796875,-0.015033903002738951,0.014544731246307492,-0.01827390783727169
1746734683472676600,6.399676513671875,-0.02625847685039043,0.004605959425494075,-0.00755215067891404
1746734683482643700,6.409643798828125,-0.023268647384643553,-0.016723280861787496,0.004896704266685992
1746734683492610600,6.419610595703125,-0.027307693642377853,-0.009692688105255365,0.00544047402087599
1746734683502576600,6.42957666015625,-0.03329436683654785,0.0007900178665295243,-0.0009701419400982559
1746734683512543500,6.43954345703125,-0.023721651849150656,0.0016552929263561962,0.0027711086811497807
1746734683522510600,6.449510498046875,-0.0027758944541215894,0.0045906157258898015,0.008168145419098436
1746734683532476700,6.4594765625,-0.023876550149917602,0.009080401425808668,0.009016378012578935
1746734683542443500,6.469443603515625,-0.016693360647559163,-0.004168773584626615,0.0008885280712507664
1746734683552410600,6.47941064453125,-0.009663900402188301,-0.008739880892448126,0.0012171937700361012
1746734683562376400,6.48937646484375,-0.02238601933121681,0.001534443025663495,0.007031414740439504
1746734683572343600,6.499343505859375,-0.015057283878326415,-0.00006893705036491155,0.006226893424522132
1746734683582310400,6.509310302734375,-0.0325642989963293,-0.00040898265969008203,-0.011246274222806095
1746734683592277500,6.519277587890625,-0.01101765309870243,-0.003962875748984515,-0.00048005686821416015
1746734683602243600,6.52924365234375,-0.016855273211002348,-0.012894151027686894,0.001028356667049229
1746734683612210400,6.53921044921875,-0.021498130580782888,-0.0037106180209666487,0.017446224841475486
1746734683622177500,6.549177490234375,-0.04678980822563171,0.005030030056461692,-0.009914112303592263
1746734683632143600,6.5591435546875,-0.015963877329230308,0.0008244315927848219,-0.013654394810460506
1746734683642110500,6.5691103515625,-0.011923662027716636,-0.002918700458295643,0.007141487518791109
1746734683652077300,6.579077392578125,-0.018059388303756713,0.001356273447163403,0.007782744564395397
1746734683662044400,6.58904443359375,-0.03751461488008499,0.01499284033998847,-0.00531949625601992
1746734683672010800,6.5990107421875,-0.02404430793225765,-0.011540398331172763,0.006447568704187869
1746734683681977600,6.6089775390625,-0.01042728599011898,0.0007923559540882706,-0.0005560629801824689
1746734683691944700,6.61894482421875,-0.032871172988414764,-0.001444791980832815,-0.007090780244860798
1746734683701910500,6.62891064453125,-0.040950434547662735,-0.0024841084333136676,-0.016588457234669476
1746734683711877600,6.638877685546875,-0.016261398971080778,-0.010057356699183582,-0.007506046514865011
1746734683721844700,6.6488447265625,-0.013420038065314293,-0.019561098103597758,0.006374046810250729
1746734683731810600,6.658810546875,-0.029877836391329765,0.0004591419443488121,0.0022747947978787124
1746734683741777700,6.668777587890625,-0.05651157629489898,-0.002826272934488952,0.005912329316325485
1746734683751744500,6.67874462890625,-0.009379238241910934,0.004899170218408107,0.007259798402525484
1746734683761711600,6.688711669921875,-0.013869535398483275,-0.003034435792453587,0.00630006825858727
1746734683771677400,6.698677490234375,-0.02195113504528999,-0.010999386789649724,-0.012287106778938323
1746734683781644500,6.70864453125,-0.046342648980021474,-0.0069564680743962526,-0.0014949695318005978
1746734683791611600,6.718611572265625,-0.011921908462047576,-0.0045160891849547625,-0.006593260785192251
1746734683801577500,6.728577392578125,-0.0027969372421503065,0.00556260256320238,0.011709982744418083
1746734683811544600,6.738544677734375,-0.01372165136039257,-0.009392389984428881,0.0020052206088788807
1746734683821511400,6.748511474609375,-0.02360124033987522,0.016017836006172,0.00346637920262292
1746734683831477800,6.758477783203125,-0.018366846817731857,0.010704860822483897,-0.008342113746516406
1746734683841444600,6.768444580078125,-0.023007950621843336,-0.009750263511389494,0.011458254739362746
1746734683851411500,6.778411376953125,-0.03677694825530052,0.0038882030775770544,0.004202438392210752
1746734683861378600,6.788378662109375,-0.03722527654469013,0.019144333996251223,-0.007493296631146222
1746734683871344600,6.7983447265625,-0.026751228803396223,0.0039026334617286917,0.0008822992598637938
1746734683881311700,6.808311767578125,0.000039162966609001156,-0.00431395420897752,0.003410867889411747
1746734683891278600,6.818278564453125,0.018293197059631346,0.016209047729335724,-0.005545980221964419
1746734683901244700,6.82824462890625,-0.03572422433197498,0.017065810689143836,0.004027775945048779
1746734683911211500,6.83821142578125,-0.025249592068791387,-0.004202420125901699,0.01259533247789368
1746734683921178600,6.8481787109375,-0.004001052334904671,-0.023527298320829868,0.006641629971563816
1746734683931145700,6.858145751953125,-0.01597206063568592,0.006670161946304142,-0.006779759800620377
1746734683941111600,6.868111572265625,-0.049936289557814595,0.0059827642040327185,-0.002737827466055751
1746734683951078700,6.87807861328125,-0.010431962165236473,0.0015203414350748062,0.006038713908661156
1746734683961045500,6.88804541015625,-0.013123685467243193,-0.012586436785385012,0.013813110769819467
1746734683971011600,6.898011474609375,-0.0337713366985321,-0.005760207494534552,0.007799659166578203
1746734683980978400,6.907978515625,-0.015815993291139602,0.01521481252759695,-0.017615389129612594
1746734683990945500,6.917945556640625,0.007228197687864303,0.022110490325465797,-0.0025147227672860026
1746734684000911400,6.927911376953125,-0.0001052139401435852,-0.0002579568164423108,-0.0008134718073531985
1746734684010878500,6.93787841796875,-0.030331425377726554,-0.013295315707102417,0.0032259032439440486
1746734684020845600,6.947845458984375,-0.04364975663423538,-0.006848221926949918,-0.012328425170015544
1746734684030812400,6.9578125,-0.03347439957857132,-0.020009755186550317,0.00038017669031396503
1746734684040778800,6.96777880859375,-0.021952304089069365,0.0033570918755605815,0.0010964899998158217
1746734684050745600,6.97774560546875,-0.018812252497673033,0.009870127031393349,0.0055669682110659775
1746734684060712400,6.98771240234375,-0.02629705529510975,0.006778152365423739,0.0009724617613479494
1746734684070678500,6.997678466796875,-0.012232289585471153,-0.012501315785199403,0.015356303357519209
1746734684080645600,7.007645751953125,-0.018366262295842168,-0.010162351443618536,0.012258282543253153
1746734684090612700,7.01761279296875,-0.035277065086364745,-0.0007372647659853101,-0.011896262564137578
1746734684100578600,7.02757861328125,-0.028397242444753647,0.015507584929093718,-0.01337128528645262
1746734684110545700,7.037545654296875,-0.004756254616379738,-0.0008806552920490502,0.0012507855123840273
1746734684120512500,7.047512451171875,-0.011788637471199036,-0.006424735817871987,0.014262699434533715
1746734684130479600,7.057479736328125,-0.034683775368332864,0.00582223988007754,0.006232939572818577
1746734684140445400,7.067445556640625,-0.03183890733122825,0.003124013772048056,0.006454071510210633
1746734684150412500,7.07741259765625,-0.013433482068777083,-0.006724266753718257,-0.007355586927197873
1746734684160379600,7.087379638671875,-0.020468787533044815,0.001891403237171471,-0.001112984476890415
1746734684170345500,7.097345458984375,-0.04381400728523731,0.01390358379855752,-0.006922803266812116
1746734684180312600,7.1073125,-0.02107318316698074,0.009166983730718493,0.005741064402647316
1746734684190279400,7.117279541015625,-0.010900164198875427,-0.009202420370280743,0.010875194154400377
1746734684200246500,7.12724658203125,-0.017485972329974172,-0.01800703706201166,0.014223883527796714
1746734684210212400,7.13721240234375,-0.023618191474676132,0.003314787103794515,-0.00838102098479867
1746734684220179500,7.147179443359375,-0.011194178709387778,0.007578289767168462,-0.017587039817962793
1746734684230147000,7.15714697265625,-0.002815641942620277,0.0026940613895654678,-0.006090754623152316
1746734684240113200,7.167113037109375,-0.00042202480435371396,0.0043521307948976755,0.003634246582817286
1746734684250080000,7.177080078125,-0.043211949738860125,-0.009981003527343272,0.011164130630996078
1746734684260047000,7.187047119140625,-0.045749943783879275,-0.0020229206623509524,0.008264244471024721
1746734684270014200,7.19701416015625,-0.006693360158801079,-0.022085611612536013,0.007016765160579234
1746734684279980300,7.206980224609375,-0.023902269113063812,-0.009784421509318053,0.01703296786546707
1746734684289947400,7.216947509765625,-0.039164135652780534,0.0014050444923341273,-0.0063146813058294355
1746734684299914200,7.226914306640625,-0.033329438149929044,0.005620616360753774,-0.011839965799637139
1746734684309880300,7.23688037109375,-0.006840075153112411,-0.012311565366759895,0.003164364048745483
1746734684319847200,7.24684716796875,-0.018512392768263816,0.009555873450450598,0.008402155104372649
1746734684329814300,7.256814208984375,-0.031681670942902564,0.018405973251722753,-0.0007092990468256175
1746734684339780000,7.266780029296875,-0.019111527705192564,-0.00031735885348170995,-0.002347987898252904
1746734684349747200,7.276747314453125,-0.02629997790455818,-0.006295739143341779,0.005143938759714365
1746734684359714300,7.28671435546875,-0.0273491946965456,-0.01285571871344,0.004725877744425088
1746734684369681200,7.29668115234375,-0.03902034326791763,-0.004374671420268714,-0.00538741039307788
1746734684379647200,7.306647216796875,-0.034680268236994743,0.0030898557741194962,-0.0058274640444666145
1746734684389614000,7.316614013671875,-0.011337971094250679,-0.002589066645130515,0.012915139016788452
1746734684399581200,7.326581298828125,-0.022859482061862946,0.010724844164587556,0.01603476887466386
1746734684409547000,7.336547119140625,-0.027046412357687948,0.0066367346007376905,-0.012752842860855162
1746734684419514000,7.34651416015625,-0.017771803534030912,-0.010831336746364831,-0.002946593112219125
1746734684429481200,7.356481201171875,-0.008942600390315055,-0.01694130752664059,0.006551047344971448
1746734684439448000,7.366447998046875,-0.02031213566660881,-0.004132679357938468,0.006678162589669227
1746734684449414100,7.3764140625,-0.033329438149929044,0.01343446844946593,-0.016428846226166933
1746734684459381000,7.386381103515625,-0.023604162949323652,0.013728117633797228,0.0041300672757439314
1746734684469348000,7.39634814453125,-0.023303718698024747,0.008903437423706055,0.02449181423773989
1746734684479314200,7.406314208984375,-0.014772621718049049,-0.0008164309494197368,0.020346932985354213
1746734684489281300,7.41628125,-0.0291354935914278,-0.0018973215213045477,0.0081854618800804
1746734684499248400,7.426248291015625,-0.03407236547172069,-0.006382029187306761,-0.00356116308029741
1746734684509215200,7.43621533203125,-0.005494505763053894,-0.006306114406883717,-0.005643211785051972
1746734684519181300,7.446181396484375,-0.011632570126652716,0.005904547868669033,-0.010156433159485459
1746734684529148200,7.456148193359375,-0.04051262765228748,0.01084591326098889,0.00033770752176642414
1746734684539115300,7.466115234375,-0.02764496277272701,0.0031410379720851777,-0.0030588395813480017
1746734684549081000,7.4760810546875,-0.015671616384387015,0.005060644390434027,0.00662559215221554
1746734684559048200,7.486048095703125,-0.035572833162546155,-0.018157149589806795,0.016355506995320318
1746734684569015300,7.496015380859375,-0.04215747224986553,0.0039712051859125495,-0.0015373291024938225
1746734684578982100,7.505982177734375,-0.016419219881296156,0.007371917007490992,-0.011361899959109722
1746734684588948200,7.5159482421875,-0.00983516531586647,0.005422792233712971,0.006872917976789176
1746734684598915000,7.5259150390625,-0.02435059740245342,0.004970628019422292,0.02592886130353436
1746734684608882200,7.535882080078125,-0.012979893082380295,-0.0032559695886448022,0.009840718273818492
1746734684618848000,7.545847900390625,-0.01148293252289295,0.002956329054944217,-0.01953943426106125
1746734684628815000,7.555815185546875,-0.01956394764780998,0.0017919614506885409,-0.008337638500798493
1746734684638782200,7.5657822265625,-0.01716974598765373,-0.002708126447536051,-0.0074264054073952136
1746734684648748000,7.575748046875,-0.02869242599904537,0.00673657824601978,-0.013551445892639458
1746734684658715100,7.585715087890625,-0.033629297879338264,-0.009809081026539206,-0.0038850430061109363
1746734684668682000,7.595681884765625,-0.017167992421984673,-0.010012640774622559,0.0015330547861754893
1746734684678649000,7.605649169921875,0.008268062129616737,0.018209537364169952,0.009281513488478959
1746734684688615200,7.615615234375,-0.015075988578796386,0.001467588334530592,0.0005871157055720687
1746734684698582300,7.625582275390625,-0.026896190232038496,0.003217208480834961,-0.011064140855241567
1746734684708549400,7.63554931640625,-0.00265606746673584,0.005053630127757788,0.0031327268014661965
1746734684718515200,7.64551513671875,-0.009240122032165527,-0.0006086699502542615,0.010736589401308446
1746734684728482300,7.655482421875,-0.0403635745704174,0.003990494408272207,-0.00690366017492488
1746734684738449200,7.66544921875,0.006624386575818061,-0.0064978741193190215,0.0021674436995759603
1746734684748416300,7.675416259765625,-0.005044423907995223,0.004388626880384982,0.0019270042735151946
1746734684758382000,7.685382080078125,-0.04200549655854702,0.004204392887279391,0.005147518956288695
1746734684768349200,7.69534912109375,-0.03826455646455288,0.003795154499262571,-0.002982833469379693
1746734684778316300,7.70531640625,-0.0044458734929561615,-0.0030880291432142256,-0.005417732466105371
1746734684788282000,7.7152822265625,-0.01717208407521248,0.0003663125617429614,-0.007767528728954493
1746734684798249200,7.725249267578125,-0.02315641918182373,0.01773432106785476,0.013729304943885653
1746734684808216000,7.735216064453125,-0.020314473754167554,0.0068710548132658,-0.007717862634640187
1746734684818183200,7.74518310546875,-0.030639468413591383,0.004019464774429798,-0.0045588688807561995
1746734684828149000,7.75514892578125,-0.03318038506805897,-0.004928871236927807,-0.004511741803400218
1746734684838116000,7.7651162109375,-0.033031916508078574,-0.005372669481672346,0.002869436222780496
1746734684848083200,7.775083251953125,-0.02256020685434341,0.00800338331144303,0.0024631935094483197
1746734684858049300,7.78504931640625,-0.01058627594411373,0.0004506298443302512,0.004847348699625581
1746734684868016000,7.79501611328125,-0.008942600390315055,0.01621266445852816,0.012944748703762889
1746734684877983000,7.80498291015625,-0.023604747471213338,0.010611227722279726,-0.0023086240022443232
1746734684887950000,7.8149501953125,-0.0337801045268774,-0.0073494859799742695,-0.016061474218498916
1746734684897916200,7.824916259765625,-0.019416063609719276,-0.008671711027063428,-0.008881298657134174
1746734684907883300,7.83488330078125,-0.023754385074973104,-0.019297259535640477,-0.003541636395920068
1746734684917850400,7.844850341796875,-0.02225625547170639,0.005036678992956877,0.016069639258645473
1746734684927816200,7.854816162109375,-0.03961363298594951,-0.0097739366479218,0.031605445635225625
1746734684937783300,7.864783203125,-0.020607903742790222,-0.022826420042477546,0.002997409984003752
1746734684947750100,7.874750244140625,-0.010429624077677726,-0.013013831884600221,-0.028018234798219053
1746734684957717200,7.88471728515625,-0.026289456510543822,0.016017397614754736,-0.01028552116556093
1746734684967683000,7.89468310546875,-0.033925650477409364,0.021861703196167946,-0.007040310432948171
1746734684977650200,7.904650146484375,-0.01208382102549076,-0.012861344736628234,-0.007802654841262847
1746734684987617300,7.9146171875,-0.00789279907643795,-0.01209010463580489,0.008571447256673127
1746734684997583000,7.9245830078125,-0.04290507574677467,-0.00020067367125302553,0.011564509859122335
1746734685007550200,7.93455029296875,-0.018958967491984367,0.005245207177102565,-0.004921729110088199
1746734685017517000,7.94451708984375,-0.01776537379324436,-0.008633863234706222,-0.018297252180241048
1746734685027484200,7.954484130859375,-0.02389700841605663,-0.011452720047719776,-0.00658610039204359
1746734685037450000,7.964449951171875,-0.028383798441290853,0.003431180025078356,-0.0007021021210588514
1746734685047417000,7.9744169921875,-0.009527122280001639,0.008806699050962924,0.007582819811813533
1746734685057384200,7.98438427734375,-0.00907879399061203,-0.005415887568891048,0.006119213532656431
1746734685067350300,7.994350341796875,-0.027481881165504454,0.0021541092939674853,0.0035788996663875874
1746734685077317000,8.004317138671874,-0.021495207971334456,0.01543576180189848,0.008950692365225403
1746734685087284000,8.014283935546874,-0.02568564539849758,-0.002974887624941766,-0.01912528223590925
1746734685097250300,8.024250244140624,-0.018652678021788598,-0.007211575346626341,-0.014412592766620217
1746734685107217200,8.034217041015625,-0.014610124632716178,0.0011147563088685273,0.002188102895114571
1746734685117184300,8.044184326171875,-0.03495966970026493,0.0007673311106860637,0.007747380990069359
1746734685127151400,8.0541513671875,-0.02328969017267227,-0.010879852063208817,0.002711049056984484
1746734685137117200,8.0641171875,-0.016557751569151877,-0.012798070242069661,0.012764770760666578
1746734685147084300,8.074084228515625,-0.0035427871733903884,-0.0019647972669452427,0.023739991223439574
1746734685157051100,8.084051025390625,-0.025236732587218282,0.00572765693180263,0.004591474242415279
1746734685167018200,8.094018310546875,-0.020598551392555235,0.0010791004735976456,0.0016288433108478783
1746734685176984000,8.103984130859375,-0.0005476970106363296,0.0013909429017454386,0.0035939876376651224
1746734685186951200,8.113951171875,-0.02493745737969875,0.00377199281938374,-0.005418353520613164
1746734685196918300,8.123918212890626,-0.03076981679499149,0.00042863720823079344,0.005576484958082437
1746734685206884000,8.133884033203126,-0.03226619283258915,0.013314458798989653,-0.0028386574920266864
1746734685216851200,8.143851318359374,-0.01954699651300907,-0.005984152443520724,0.007334270144533366
1746734685226818000,8.153818115234374,-0.03690378950536251,-0.01061502711456269,0.015798074041958897
1746734685236783900,8.163783935546874,-0.019096330136060713,0.011804565692692994,-0.017410715136677024
1746734685246751000,8.1737509765625,-0.030469372543692586,0.0017966010931879282,-0.024893983564153312
1746734685256718000,8.183718017578125,-0.0304687880218029,0.0004204904343932867,0.005786163919698446
1746734685266685000,8.193684814453125,-0.016852935123443602,-0.00657097588814795,0.009965349300485104
1746734685276651300,8.2036513671875,-0.02418283962011337,0.009841339328326284,0.01920939858909696
1746734685286618000,8.2136181640625,-0.032114217141270635,0.006562098461948335,-0.0006831782248802483
1746734685296585000,8.2235849609375,-0.011164368093013763,-0.009506773611716925,0.008220533193461596
1746734685306552000,8.233552001953125,-0.022684710016846656,0.0025970307558774944,-0.006646708005480468
1746734685316518100,8.24351806640625,-0.03061433397233486,0.011838723690621554,0.008016242793016135
1746734685326485200,8.2534853515625,-0.026724925318360328,-0.010759842412732541,-0.004934862586297094
1746734685336452000,8.2634521484375,-0.01160977377295494,0.005204655971005559,-0.01630434306366369
1746734685346418200,8.273418212890626,-0.011457798081636428,-0.007423172270692884,-0.009280636705644428
1746734685356385000,8.283385009765626,-0.047073301342129704,-0.0029433234428986907,0.0012807605255395174
1746734685366352100,8.29335205078125,-0.016546061131358147,0.005539002491906285,-0.009295213220268488
1746734685376318000,8.30331787109375,-0.025225626671314238,-0.01255834320206195,0.01015279816398397
1746734685386285000,8.31328515625,-0.03210603383481502,-0.012730375300720333,-0.0001109312948770821
1746734685396252200,8.323252197265624,-0.02312251691222191,0.007661693734303116,0.005068663300108164
1746734685406219000,8.333218994140625,-0.04212415450215339,0.019489311509020626,-0.007637326478026807
1746734685416185000,8.34318505859375,-0.020574585995078085,0.003736044723168015,0.023199911263678222
1746734685426152000,8.35315185546875,-0.015337269863486288,0.003238251268863678,0.004427132259868085
1746734685436119000,8.363119140625,-0.032848961156606675,-0.0016065584138035772,-0.006314900501538068
1746734685446085000,8.373085205078125,-0.03734159640073776,-0.0004838014615699649,-0.0016514752677641807
1746734685456052000,8.383052001953125,-0.019236615389585494,-0.007504384280741214,0.0075064301073551176
1746734685466019000,8.39301904296875,-0.02686637961566448,-0.005698102043755352,0.0018921704221516846
1746734685475986000,8.40298583984375,-0.0175894327044487,0.004231171296350657,-0.007476656023599207
1746734685485952300,8.4129521484375,-0.043027240821719166,0.019631569523923097,-0.009711904262378812
1746734685495919000,8.422919189453125,-0.01205634849667549,-0.006168642164953052,0.008117237215768545
1746734685505886000,8.432885986328126,-0.0032277298748493192,-0.009284399565309286,0.018091591806616632
1746734685515852300,8.442852294921876,-0.05605155756771564,0.009647789517603814,0.017164375692792236
1746734685525819100,8.452819091796876,-0.02058744547665119,0.00425217755176127,-0.001230436844099313
1746734685535786200,8.4627861328125,-0.0015828852772712706,-0.0003752265205606818,0.0007939633892849087
1746734685545753000,8.472753173828124,0.0003635726153850555,-0.0010977321088314056,0.004749002891685813
1746734685555719200,8.48271923828125,-0.028515315866470336,0.007291326051950454,0.007538067354634404
1746734685565686000,8.49268603515625,-0.0470692096889019,0.005149637848138809,0.0006672682696953415
1746734685575653000,8.502653076171875,-0.024769115075469014,-0.022002390308491885,0.0002938683800399303
1746734685585619200,8.512619140625,-0.005465279668569564,-0.011126849094219505,-0.007434004191961139
1746734685595586000,8.5225859375,-0.029407296270132062,0.010113068941794335,-0.009948927888646722
1746734685605553200,8.53255322265625,-0.021475334227085113,0.023504209706187246,0.004175404254812747
1746734685615520000,8.54252001953125,-0.011302315258979796,0.0037792993430048223,0.01741170151736587
1746734685625486000,8.552486083984375,-0.008160510101914405,-0.00503434090539813,0.010982892312575132
1746734685635453000,8.562452880859375,-0.03688917645812034,-0.00025613018553704024,0.006434343896433711
1746734685645420000,8.572419921875,-0.035392215898633,-0.013277232061140239,-0.009457911235000938
1746734685655386000,8.58238623046875,-0.022073884642124175,-0.010865312081202864,-0.004120294800400734
1746734685665353000,8.59235302734375,-0.025064883151650428,-0.010623210421018301,0.00636352541623637
1746734685675320000,8.602320068359376,-0.035392215898633,0.013792232378572225,-0.008833020802307873
1746734685685287000,8.612286865234376,-0.023872458496689796,-0.0019039704577997326,-0.005742671837843954
1746734685695253200,8.622253173828126,-0.014145429730415344,-0.02289685493018478,0.007308076257351786
1746734685705220000,8.63222021484375,-0.009804770177602767,-0.0009388152200728654,-0.0028582755079492924
1746734685715187200,8.642187255859374,-0.03703589145243168,-0.0024907573698088525,0.007274922906421124
1746734685725153300,8.6521533203125,-0.03628770343363285,0.0026147856082767247,-0.008462415657937527
1746734685735120100,8.6621201171875,-0.013394319102168083,-0.007831680006347597,0.004713913311995566
1746734685745087200,8.672087158203125,-0.037188451665639874,-0.007222206338495016,0.0145002345174551
1746734685755054000,8.68205419921875,-0.04033259491026401,0.0004456248756498098,0.0018191051859408616
1746734685765020200,8.692020263671875,-0.02476853055357933,-0.001392659934796393,-0.0026789368856698272
1746734685774987000,8.701987060546875,-0.01594108097553253,-0.007909786743856966,-0.0040971331205219026
1746734685784954000,8.7119541015625,-0.021177228063344954,0.01348733114786446,-0.021662947487365452
1746734685794920200,8.721920166015625,-0.025063129585981368,0.0013100962178781627,-0.005929536179453134
1746734685804887000,8.731886962890625,-0.02446341012716293,-0.00998038247283548,0.011045965877734125
1746734685814854100,8.741854248046875,-0.01054886654317379,-0.014077771321684121,-0.0008643800106830895
1746734685824821000,8.751821044921876,-0.022818565529584882,0.012149360542371868,-0.005461736004613339
1746734685834787000,8.761787109375,-0.03194119866192341,-0.0008020370978862047,-0.009743651107512415
1746734685844754000,8.77175390625,-0.0265519068390131,-0.010254705902189016,-0.008613350169640033
1746734685854721000,8.781720947265624,-0.010245499682426452,0.0020911635929718613,0.005509210141841322
1746734685864687000,8.79168701171875,-0.03463584457337856,0.0011576456025242806,0.0127338641657494
1746734685874654000,8.801654052734374,-0.035981998485326766,0.005459945906326175,0.007380703102145344
1746734685884621000,8.81162109375,-0.016231003832817077,-0.0018326222546398638,0.0021207732799462973
1746734685894588000,8.821587890625,-0.010993103179335594,-0.009026260085776448,-0.00701154099619016
1746734685904554200,8.83155419921875,-0.025209260058403012,-0.0007961553463712334,-0.01699347610529512
1746734685914521000,8.84152099609375,-0.030897827088832854,-0.0006254749545827507,-0.012297372444625943
1746734685924488200,8.85148828125,-0.04152034339010715,-0.006169555480405688,0.01248434638408944
1746734685934454300,8.861454345703125,-0.026256723284721374,-0.004677380693890154,-0.008930909952521323
1746734685944421000,8.871421142578125,-0.012040566405653952,0.0038372035427019,0.01140177531177178
1746734685954388200,8.88138818359375,-0.03059329118430614,0.015281703751347958,-0.0002579385501332581
1746734685964355000,8.89135498046875,-0.01368365743756294,0.0015059110509231686,-0.007891410836949945
1746734685974321200,8.901321044921875,-0.0005149637848138809,0.0037571240438148377,0.0010382752728648483
1746734685984288300,8.911288330078126,-0.026698621833324433,0.008977379442751407,-0.010873093528859316
1746734685994255000,8.921255126953126,-0.030440730971097944,0.02049699071422219,0.007585011768899858
1746734686004221200,8.93122119140625,-0.011882745495438576,0.003374006477743387,0.021465689615905285
1746734686014188000,8.94118798828125,-0.012182020702958107,-0.012936601929925382,0.0014118212929926813
1746734686024155100,8.951155029296874,-0.027744916015863416,0.0035497649034485217,-0.008921557602286339
1746734686034121000,8.961120849609374,-0.037325814309716224,0.010936148827709257,-0.0052417731110006565
1746734686044088000,8.971088134765624,-0.01951777041852474,0.00355535439401865,-0.017164028632920235
1746734686054055200,8.98105517578125,-0.024157705178856848,-0.010364121093414723,0.011767083226516843
1746734686064022000,8.99102197265625,-0.031190672555565832,-0.009217837135121226,-0.006982643695268779
1746734686073988000,9.000988037109375,-0.03313245427310466,0.008602883574552833,-0.005438994449842721
1746734686083955000,9.010954833984375,-0.027144027513265608,0.0006012538287788629,0.010128449174016714
1746734686093922000,9.020922119140625,-0.016668226206302643,0.004894676706381142,0.008186356929223985
1746734686103888100,9.03088818359375,-0.03208031487166881,-0.004400098122470081,-0.00824809705382213
1746734686113855200,9.040855224609375,-0.03896247560083866,0.0064547290973365305,-0.020026596723496912
1746734686123822300,9.050822265625,-0.011575286981463432,-0.01114551726207137,0.0028781857848167417
1746734686133789200,9.0607890625,-0.00903086319565773,-0.011455058135278522,0.0035913938217796383
1746734686143755300,9.07075537109375,-0.021450784307718275,0.005417714199796319,0.00022761647710576653
1746734686153722000,9.08072216796875,-0.031770518270134926,-0.002804609091952443,0.008301306812092662
1746734686163689200,9.090689208984376,-0.012464929297566414,-0.0011693725729361175,0.004612644894607365
1746734686173655000,9.100655029296876,-0.0012415244936943054,0.011982844869047403,0.014196794591471553
1746734686183622100,9.1106220703125,-0.03520867602527141,-0.0025637495407834646,0.000007434387784451246
1746734686193589200,9.12058935546875,-0.04657879582345485,-0.007694536557979881,-0.018301617828104643
1746734686203556000,9.13055615234375,-0.021439093869924545,-0.007863755645044148,-0.00541090086651966
1746734686213522200,9.140522216796874,-0.015008768561482429,0.002647153507918119,-0.0001961618929170072
1746734686223489000,9.150489013671875,-0.03969429700672626,0.006878215206414461,-0.0045761122765019535
1746734686233455400,9.160455322265625,-0.009466916525363921,0.003124561761319637,-0.0036688795047812163
1746734686243421400,9.17042138671875,-0.004830488896369934,-0.0025218831604346633,0.004899298082571476
1746734686253388300,9.18038818359375,-0.02473579732775688,-0.010694229830615222,0.007511562940198928
1746734686263355100,9.190355224609375,-0.04328969115018844,0.0000196545485407114,-0.019688469076622275
1746734686273321500,9.200321533203125,-0.0153062902033329,0.0013103519462049006,-0.003025010376982391
1746734686283288300,9.210288330078125,-0.011717325800657272,-0.022725480418652296,0.0026831381367519495
1746734686293255400,9.22025537109375,-0.013964227944612502,-0.0022087986232712862,0.002453494099341333
1746734686303222500,9.230222412109375,-0.02009644708931446,-0.0069149304876104,0.01636339804083109
1746734686313188400,9.240188232421875,-0.02578150698840618,0.005157090502232313,0.0017132153923623264
1746734686323155500,9.250155517578126,-0.03400982162952423,-0.0195775743143633,0.0057592211138457056
1746734686333122300,9.260122314453126,-0.015604980888962745,0.0020001243086531758,0.00035116979153826833
1746734686343088400,9.27008837890625,-0.02054477537870407,-0.014175824868679045,-0.01630596876516938
1746734686353055200,9.28005517578125,-0.009175824624300003,0.011489910252951084,-0.009843403421249241
1746734686363022300,9.290022216796874,-0.027733810099959372,0.01817603695336729,0.014510335786361246
1746734686372989400,9.299989501953124,-0.014866729742288589,0.009091872667893767,0.0387562124390155
1746734686382955300,9.309955322265624,-0.044346506726741786,-0.009849997558817266,0.00982835198258981
1746734686392922400,9.31992236328125,-0.040453590941429134,-0.008404438393004239,-0.013980941617395728
1746734686402889200,9.32988916015625,-0.013368600139021873,0.025886720928549763,-0.01136674053100869
1746734686412855300,9.339855224609375,0.012814473387598991,0.044847478518821295,0.002683795723877847
1746734686422822100,9.349822265625,-0.0467424619525671,-0.010184088351391255,0.018687384008988738
1746734686432789200,9.359789306640625,-0.06185293732285499,-0.04931760967019945,0.025135336305666712
1746734686442756400,9.36975634765625,-0.036711481803655625,-0.034478096728399396,0.0003961231781169772
1746734686452722400,9.379722412109375,-0.009624152913689612,0.013609715418517588,-0.028923677471652625
1746734686462689300,9.389689208984375,-0.018301964887976644,0.04311484603993594,-0.01748250173125416
1746734686472656100,9.39965625,-0.019647534278035162,0.03233217074088752,0.0014772146794013678
1746734686482622500,9.40962255859375,-0.02069675107002258,-0.01854373775459826,0.011272760370932519
1746734686492589300,9.41958935546875,-0.019796002838015556,-0.02388403933662921,0.0024952874144539236
1746734686502556400,9.429556396484376,-0.05450900430083275,-0.001517491890862584,-0.02264876192063093
1746734686512523500,9.4395234375,-0.025479309171438216,0.009409669912792741,-0.014720069546904415
1746734686522489300,9.4494892578125,0.00025718963146209714,-0.005073576937243342,0.0033874687475152314
1746734686532456400,9.45945654296875,-0.041488779208064076,-0.0005291384406387805,0.03452705043666065
1746734686542423300,9.46942333984375,-0.03160919022858143,0.007294285194016993,0.033351394253410396
1746734686552389400,9.479389404296874,-0.02293371634185314,-0.0003863689690828323,0.010608761770557612
1746734686562356200,9.489356201171875,-0.015901333487033844,-0.006377170349098742,-0.001639602166879922
1746734686572323300,9.4993232421875,-0.02518237205147743,0.0008624255156144499,-0.015628398297168312
1746734686582289200,9.5092890625,-0.024136077868938444,0.0028068375816568732,-0.014834343576338142
1746734686592256300,9.51925634765625,-0.0173977095246315,0.010495309725031257,0.00740971000092104
1746734686602223400,9.529223388671875,-0.023231237983703613,-0.008240260807238518,0.01213363325027749
1746734686612190200,9.539190185546875,-0.04298632428944111,-0.022239706195704638,0.014398710371740162
1746734686622156300,9.54915625,-0.034606033957004546,-0.008916552633605896,-0.0014886311225593089
1746734686632123100,9.559123046875,-0.016799159109592437,0.022689861115999518,-0.026545203103590754
1746734686642090200,9.56909033203125,-0.007669511714577674,0.011159472722187638,-0.01779109275639057
1746734686652056300,9.579056396484376,-0.023081600379943848,-0.0000729191057384014,0.010945336781162768
1746734686662023400,9.5890234375,-0.03191197256743908,0.0031776801880449056,0.024853067031875252
1746734686671990300,9.598990234375,-0.028766660279035565,-0.019238149759545922,0.03092089743716642
1746734686681957000,9.60895703125,-0.010956278300285338,-0.013195837388001381,0.014588278127089143
1746734686691923500,9.61892333984375,-0.0369914677888155,0.019528255279920994,-0.019228779143001883
1746734686701890300,9.628890380859374,-0.03504617893993854,0.011138977923430502,-0.016223514646105466
1746734686711857400,9.638857421875,-0.019931027394533157,-0.008532667882554232,-0.00391443349737674
1746734686721823200,9.6488232421875,-0.005562310302257538,-0.017579459299705922,0.007125376634206622
1746734686731790300,9.658790283203125,-0.01992518217563629,-0.003093472503311932,0.0019558102428913113
1746734686741757400,9.66875732421875,-0.009299158743023872,0.003047916328534484,0.0018562223259359597
1746734686751723300,9.67872314453125,-0.010794365736842155,-0.0035188217759132383,0.009993643813207744
1746734686761690400,9.6886904296875,-0.011543722799420356,-0.008422631636820733,0.003558313536085188
1746734686771657200,9.6986572265625,-0.02231470766067505,-0.01882175097838044,-0.009155987412668765
1746734686781624300,9.708624267578125,-0.03068973729610443,0.0028949177239090203,-0.0025715309884399174
1746734686791590100,9.718590087890625,-0.011533785927295684,0.002231046987697482,-0.0034895956814289092
1746734686801557200,9.72855712890625,-0.020058453166484833,-0.005958287349902093,0.01639898081086576
1746734686811524400,9.7385244140625,-0.00913198548257351,0.008148417805321514,0.030939419474545864
1746734686821490200,9.748490234375,-0.026941198417544363,-0.0006054550798609852,0.0015967128732241689
1746734686831457300,9.758457275390626,-0.014074702581763267,0.009637487319298088,-0.010233224722743033
1746734686841424100,9.768424072265624,-0.023949615386128425,-0.004632774367183447,-0.008682396817859261
1746734686851390500,9.778390380859374,-0.024995325046777723,0.0013970803815871477,0.0005363353664055466
1746734686861357300,9.788357421875,-0.02424479894042015,0.008071333981119096,-0.007112042228598147
1746734686871324400,9.798324462890625,-0.018558569997549054,-0.005701316914148628,0.007568334628734737
1746734686881291300,9.808291259765625,-0.01586275504231453,-0.014712562093883752,0.0039319326214492314
1746734686891257300,9.81825732421875,-0.026934184154868125,-0.010280497930571435,0.006329641412943602
1746734686901224400,9.828224365234375,-0.02813303855061531,-0.006366283628903329,-0.007693586709909141
1746734686911191300,9.83819140625,-0.02110065569579601,-0.0014515870478004217,-0.001924300859775394
1746734686921157400,9.848157470703125,0.0016436755537986754,0.01027059759106487,0.010875102822855115
1746734686931124200,9.858124267578125,-0.011673486658930778,0.0072969155425205824,0.006182981217559427
1746734686941091300,9.86809130859375,-0.04159983836710453,-0.00589271130040288,-0.010299641022458672
1746734686951058400,9.878058349609375,-0.02304302193522453,-0.013957615540735423,-0.00816230020020157
1746734686961024300,9.888024169921875,-0.0014940379500389099,-0.01969612266011536,-0.00005691781900823116
1746734686970991400,9.897991455078126,-0.026184827092289923,-0.002769135919772088,-0.011281856992840766
1746734686980958200,9.907958251953126,-0.027534488135576247,0.006445376747101545,-0.002474317691661417
1746734686990924300,9.91792431640625,-0.010628361520171164,0.008022599468566477,0.006070497286412865
1746734687000891100,9.92789111328125,-0.036517420536279675,-0.020961393355578183,0.026588439457118508
1746734687010858200,9.937858154296874,-0.0389127912402153,-0.01840520606674254,0.004619750488828868
1746734687020824300,9.94782421875,-0.030533085429668424,0.015872399653494358,-0.0010909735744819044
1746734687030791200,9.957791259765624,-0.013922726890444754,0.009169358350895345,-0.011642598330322652
1746734687040758300,9.96775830078125,-0.012129998254776,-0.002123823753558099,0.000785378224030137
1746734687050725000,9.97772509765625,-0.02470189505815506,-0.00012512421701103447,0.012759729259368031
1746734687060691500,9.98769140625,-0.033680151283740994,-0.002827149717323482,-0.00920192717993632
1746734687070658300,9.997658203125,-0.029793665239214895,-0.014580058288015424,-0.00555584402885288
1746734687080625400,10.00762548828125,-0.014980126988887786,-0.008748100731521845,-0.005518927818257361
1746734687090591200,10.01759130859375,-0.027102526459097862,-0.003774477037414908,0.011727390536945312
1746734687100558300,10.027558349609375,-0.02156242798864841,-0.0062438993582502,0.00779207864832133
1746734687110525400,10.037525390625,-0.010787935996055603,-0.011930457094684243,0.01600050127888098
1746734687120492300,10.0474921875,-0.014229016360640525,-0.010617913191393017,0.02065826395684853
1746734687130458400,10.057458251953125,-0.029044308176636693,-0.015523074759170412,-0.003866484436113387
1746734687140425200,10.06742529296875,-0.03667582596838474,0.00973126654997468,-0.031036778901796788
1746734687150392300,10.077392333984376,-0.0028618191719055174,0.011003916834294795,0.00073415949344635
1746734687160358100,10.087358154296876,-0.007054594686627388,-0.014081351518258452,0.033704975197743625
1746734687170325200,10.0973251953125,-0.018726327779889106,-0.008692863412946462,0.024593027856200933
1746734687180292400,10.107292236328124,-0.030844635596871374,0.0008717048006132244,0.009832955092471092
1746734687190258200,10.117258056640624,-0.02381166822016239,-0.007059234329126775,-0.010377966955676674
1746734687200225300,10.127225341796875,-0.009445289215445518,-0.0072899012798443436,-0.0014675700682215392
1746734687210192100,10.137192138671875,-0.021117022308707236,-0.0004275777623057365,-0.016228062957059593
1746734687220159200,10.1471591796875,-0.03428396239578724,-0.0025856325790286063,-0.008260006687324494
1746734687230125300,10.157125244140625,-0.036978023785352705,-0.00464636450111866,0.017147625487390905
1746734687240092200,10.167092041015625,-0.020668694019317625,-0.004893288466893136,0.02833475340148434
1746734687250059000,10.17705908203125,-0.03653203358352184,-0.004248633887805045,0.016071045764442533
1746734687260025300,10.187025390625,-0.023812837263941764,0.004449672885239124,-0.021075557787157594
1746734687269992200,10.1969921875,-0.022015432453155515,0.005150843424536288,-0.021811068987473845
1746734687279959300,10.206959228515625,-0.014383330139517782,-0.00984327555708587,0.005289886569045484
1746734687289926400,10.216926513671876,-0.03398410266637802,0.009399331181868911,0.003957286258414387
1746734687299892200,10.226892333984376,-0.03353518985509872,-0.003746237323619425,0.010199121523741632
1746734687309859300,10.236859375,-0.01752279720902443,-0.0069517188340425485,0.00443202763069421
1746734687319826200,10.246826171875,-0.01243628772497177,-0.011877484798431396,0.002965389144234359
1746734687329792300,10.256792236328126,-0.021266659912467,0.004745514026656746,-0.004162763968948275
1746734687339759000,10.266759033203124,-0.03383504958450794,0.004259374477528035,-0.012070906744990497
1746734687349726200,10.276726318359374,-0.014082301366329193,-0.0029186273930594323,0.006751392222661525
1746734687359692000,10.286692138671874,-0.010192308190464973,-0.015796083014272152,0.014854217320587485
1746734687369659100,10.2966591796875,-0.011388239976763725,-0.002834638904035091,0.01744072668245062
1746734687379626200,10.306626220703125,-0.01752221268713474,-0.003167231859266758,-0.0001949563165195286
1746734687389593000,10.316593017578125,-0.014382745617628097,-0.014940744826570153,-0.0019573080802336336
1746734687399559200,10.32655908203125,-0.002109539499878883,-0.007782470569759607,0.004398929078690708
1746734687409526000,10.336526123046875,-0.022903905725479123,-0.014816826185956597,0.008138170405942946
1746734687419493000,10.3464931640625,-0.0335275910705328,-0.003330861455760896,0.006530863073468208
1746734687429459200,10.356459228515625,-0.003450432714819908,-0.002284201947040856,0.007714044976048171
1746734687439426300,10.36642626953125,-0.01362403620481491,0.006611928953044116,-0.0001448883634060621
1746734687449393200,10.37639306640625,-0.02634089443683624,-0.0067814403010532254,0.008093947671726345
1746734687459359200,10.386359130859375,-0.03247369810342789,-0.0026381299512460827,-0.006301493030693382
1746734687469326300,10.396326416015626,-0.023047113588452336,-0.014567198806442319,0.002781630075164139
1746734687479293200,10.406293212890626,-0.022151041531562804,-0.014638400879129767,-0.00025275091836228963
1746734687489260300,10.41626025390625,-0.023348726883530617,0.01699110148511827,0.007612411232478916
1746734687499226000,10.42622607421875,-0.033522914895415305,0.010855265611223876,-0.007101630432438105
1746734687509193200,10.436193115234374,-0.011376549538969993,-0.013385916600003838,-0.0023332104542292654
1746734687519160300,10.446160400390625,-0.017962942191958427,-0.010020970211550594,0.015602861997112631
1746734687529126100,10.456126220703124,-0.025592121896147728,-0.00888261383138597,-0.00025212986385449767
1746734687539093200,10.46609326171875,-0.03486673071980476,-0.004614252329804003,-0.0002800773167051375
1746734687549060000,10.47606005859375,-0.0025438392639160153,-0.004491648863442242,-0.0038726767148822543
1746734687559026200,10.486026123046875,-0.02468962009847164,-0.005591536396741867,0.0039708033271133895
1746734687568993000,10.495992919921875,-0.020348376023769377,-0.0020409312430769203,0.006484174387529492
1746734687578960100,10.505960205078125,-0.04698328497111797,0.003930580914579332,-0.005335278347041458
1746734687588927200,10.51592724609375,-0.0026899697363376614,-0.012064385672658681,-0.0011832732341252267
1746734687598893000,10.52589306640625,-0.012266191855072975,0.009632628481090068,0.010911288381088525
1746734687608860200,10.535860107421875,-0.03980301807820797,-0.003164163119345903,0.009606014468800276
1746734687618827000,10.545826904296876,-0.028577275186777114,-0.009666348087601364,0.0011922237255610525
1746734687628793300,10.55579345703125,-0.004635258585214614,-0.016074242368526757,0.0035295440993271766
1746734687638760200,10.56576025390625,-0.016606266885995865,-0.008283771155402063,-0.0023168621076270937
1746734687648727300,10.575727294921874,-0.0456353774935007,-0.0051629357211291785,-0.0012629143415950237
1746734687658694100,10.585694091796874,-0.013314239603281021,0.0083224957305938,0.00846378563111648
1746734687668660200,10.59566015625,-0.024986557218432424,-0.004259484075382351,-0.006151526633370668
1746734687678627300,10.60562744140625,-0.03202069363892078,-0.008877133938670158,0.010776062895171344
1746734687688594200,10.61559423828125,-0.03426291960775852,-0.00412486137766391,0.002363222000002861
1746734687698560300,10.625560302734375,-0.01555938818156719,-0.0008083937734365463,-0.013508812327310443
1746734687708527000,10.635527099609375,-0.0034364041894674297,-0.005956752979941666,-0.00587523044263944
1746734687718494200,10.645494140625,-0.017208324432373044,0.006324563379026949,0.017009568723570553
1746734687728460000,10.6554599609375,-0.025589199286699293,0.003532667638175189,0.00947831470221281
1746734687738427100,10.66542724609375,-0.014064181187748909,-0.01085212380606681,0.0071400079477578395
1746734687748394200,10.675394287109375,-0.024391513934731483,-0.008102423239126801,-0.0004880209789611399
1746734687758361000,10.685361083984375,-0.020052607947587966,-0.01943169957026839,0.011893047693744302
1746734687768327200,10.6953271484375,-0.03307166399657726,-0.0022061317421495914,-0.008766604502592236
1746734687778294000,10.7052939453125,-0.023942016601562498,-0.004611512383446097,-0.00570098812058568
1746734687788261000,10.71526123046875,-0.017658406287431715,-0.0038064430782571435,-0.014258607781305908
1746734687798227000,10.72522705078125,-0.026487609431147575,-0.0036093861361965536,0.007529555254615843
1746734687808194000,10.735194091796876,-0.035764556342363356,0.008996486002020538,0.0061036141047254204
1746734687818161200,10.7451611328125,-0.02154723041951656,-0.006135434015095234,-0.0069854384405538435
1746734687828127200,10.755127197265624,-0.009877250891923903,-0.0056454585410654545,-0.010408489958103746
1746734687838094300,10.76509423828125,-0.020051438903808592,-0.014370507190562784,-0.0011092033509165049
1746734687848061200,10.775061279296875,-0.02020049198567867,-0.003921338162198662,-0.0070729157946072515
1746734687858028300,10.7850283203125,-0.024544658669829366,-0.005915069262683391,-0.008671674494445324
1746734687867994000,10.794994140625,-0.0007581248909235,-0.0023331556553021072,0.01621569666583091
1746734687877961200,10.804961181640625,-0.01662029541134834,-0.007430551859550177,0.002922682513669133
1746734687887928300,10.81492822265625,-0.03293137874305248,-0.002782689521089196,0.0074322140936739734
1746734687897894100,10.82489404296875,-0.023956045126914977,-0.004846051791682839,-0.0007164959725923836
1746734687907861200,10.834861328125,-0.012432780593633652,0.0008114259807392954,-0.00041884646657854317
1746734687917828000,10.844828125,-0.02709609671831131,0.0014042407747358082,0.002838694024644792
1746734687927794200,10.854794189453125,-0.021408698731660843,0.006885119871236384,-0.009238898189458996
1746734687937761000,10.864760986328125,-0.010335516053438186,0.0028651801727712155,0.0025283129012212157
1746734687947728100,10.87472802734375,-0.019163550153374672,-0.014938552869483828,0.0045988355649635194
1746734687957695200,10.8846953125,-0.05657353561520576,-0.013803484424948692,0.0156485643023625
1746734687967661000,10.8946611328125,-0.014530045133829116,-0.005934248887188733,-0.007171864390745759
1746734687977628200,10.904628173828126,-0.01258709437251091,0.009555179330706596,-0.021086846366152167
1746734687987595000,10.914594970703124,-0.02830021181106567,-0.014680157661624251,-0.003988412049040198
1746734687997561300,10.924561279296874,-0.03383855671584606,-0.0015028788436204194,0.019124277588911352
1746734688007528200,10.934528076171874,-0.004064765220880508,0.001566920523159206,0.01754004060477018
1746734688017495000,10.9444951171875,-0.029800094980001447,-0.02286708084642887,-0.019308091456908733
1746734688027461400,10.95446142578125,-0.02082183875441551,-0.019267960375919938,-0.015429606055747717
1746734688037428200,10.96442822265625,0.00327039997279644,-0.00326020737234503,-0.012156119076721369
1746734688047395300,10.974395263671875,-0.035335517275333406,0.007591149248741567,0.003190503136999905
1746734688057362200,10.984362060546875,-0.03129530197381973,-0.004713146127015352,0.003258033681567758
1746734688067328300,10.994328369140625,-0.005257774397730827,0.0014011720348149537,0.01867594929952174
1746734688077295000,11.004295166015625,-0.026056232276558875,-0.004012377446517348,0.0002528787825256586
1746734688087262200,11.01426220703125,-0.04490706321895122,-0.014583163560554384,-0.015896091056335715
1746734688097228300,11.024228271484375,-0.012283142989873885,0.005416764351725578,-0.028670159368310123
1746734688107195100,11.034195068359375,0.002680617386102676,-0.004439443752169609,0.006011698037572205
1746734688117162200,11.044162353515626,-0.017371406039595604,0.010357399091683327,0.01670722477613017
1746734688127128000,11.054128173828126,-0.04520224677324295,-0.00012665858697146176,0.02395538753978908
1746734688137095200,11.06409521484375,-0.023805823001265526,-0.014749715766496956,-0.006095120271015912
1746734688147062000,11.07406201171875,-0.014080547800660132,-0.010667670617252588,-0.007911649907380343
1746734688157029000,11.084029052734374,-0.020367665246129034,0.008052921541593969,-0.004404664699733257
1746734688166995200,11.0939951171875,-0.025453005686402318,-0.0057658700503408905,-0.005166534184012562
1746734688176962000,11.103962158203124,-0.02679623698890209,-0.0019494900999590754,0.014256032231729476
1746734688186929200,11.11392919921875,-0.035326749446988104,-0.01929046446867287,0.026704521851148456
1746734688196895200,11.123895263671875,-0.014072949016094207,-0.011915222992934286,0.0007318579385057092
1746734688206862300,11.1338623046875,-0.03187982386350632,0.002462663786485791,-0.005417038346361368
1746734688216829200,11.1438291015625,-0.010932897424697875,-0.0027172230694442988,-0.015120649704430252
1746734688226795500,11.15379541015625,-0.005997779110074043,0.003008680296689272,0.0009469437276013195
1746734688236762400,11.163762451171875,-0.016476503026485442,-0.0016863091191276908,0.02059073341228068
1746734688246729500,11.1737294921875,-0.03772387371659278,-0.003353146352805197,0.012497096267808228
1746734688256696600,11.183696533203126,-0.017820903372764586,-0.0012527400074526668,0.0018021175185218453
1746734688266662400,11.193662353515625,-0.012882862448692321,-0.004667261158674955,-0.017254611259512602
1746734688276629500,11.20362939453125,-0.026797406032681464,0.002798508144728839,-0.009675316845346242
1746734688286596400,11.213596435546876,-0.02529927642941475,-0.0008324687687680125,-0.010143190085422247
1746734688296562400,11.2235625,-0.020959201398491858,-0.0060765434347093104,0.016024503208976238
1746734688306529300,11.233529296875,-0.025301029995083806,-0.007688691339083015,0.014724380395840852
1746734688316496400,11.243496337890624,-0.03472410737872123,-0.014077442528121173,0.012173307673539966
1746734688326462200,11.253462158203124,-0.02350011805295944,-0.006156513335742056,-0.007164411736652255
1746734688336429300,11.26342919921875,-0.025441899770498273,-0.0006964943641796708,-0.021116967509780076
1746734688346396400,11.273396484375,-0.017061024916172028,-0.006900427038222551,-0.007901950497273356
1746734688356363300,11.28336328125,-0.02184709014892578,-0.009904723420739173,-0.0008062018163502216
1746734688366329300,11.293329345703125,-0.029327801293134687,-0.002162438730895519,0.006990790469106286
1746734688376296200,11.303296142578125,-0.014511340433359145,0.0015227525878697633,0.00040090895108878613
1746734688386263300,11.31326318359375,-0.024983050087094307,-0.0018236352305859326,0.007377817025315016
1746734688396229400,11.3232294921875,-0.02587912214398384,0.007251688161306083,-0.009668704441469162
1746734688406196500,11.333196533203125,-0.04233399786055088,0.0008136179378256201,0.0018438195020891726
1746734688416163300,11.343163330078125,-0.010161913052201271,-0.013432057296670973,0.0023452844845131037
1746734688426129400,11.35312939453125,-0.01629354767501354,-0.01185198503099382,0.0024579145461320877
1746734688436096500,11.363096435546876,-0.0290092368632555,-0.000828961637429893,0.011496102531719952
1746734688446063400,11.3730634765625,-0.02676058115363121,-0.00479238537568599,-0.0003857479145750403
1746734688456030500,11.383030517578124,-0.008056465205550194,0.000910283245332539,0.002746942354273051
1746734688465996300,11.392996337890626,-0.016585808619856833,-0.009522007713466882,0.006862597512174397
1746734688475963400,11.40296337890625,-0.026759412109851836,0.011698255774006247,-0.010696092994138599
1746734688485930500,11.412930419921874,-0.0469558124423027,-0.0027721681270748374,-0.004901910164766013
1746734688495896300,11.422896240234374,-0.030944004318118095,-0.010395539144985377,0.0022492219652049243
1746734688505863400,11.432863525390625,-0.021665303841233254,-0.004695829666033387,0.0032161855675280093
1746734688515830300,11.442830322265625,-0.03707797702848911,-0.004520180838182568,-0.003709302846714854
1746734688525796400,11.45279638671875,-0.04635960011482238,0.00816303085256368,-0.007454846050590276
1746734688535763200,11.46276318359375,-0.013889993664622307,-0.004357537622377276,0.0012261077288538216
1746734688545730300,11.472730224609375,-0.00012216507494449615,0.00027209493964910507,0.01585723861698061
1746734688555697400,11.482697509765625,-0.03094984953701496,0.006893083981983363,0.004065842933114618
1746734688565663200,11.492663330078125,-0.03888122705817222,0.007777611731551587,-0.009193250683136284
1746734688575630300,11.50263037109375,-0.0005769231051206588,-0.009057897333055735,-0.008416074031870812
1746734688585597200,11.51259716796875,-0.013894085317850111,-0.007551657488569617,-0.010878609954193234
1746734688595563500,11.5225634765625,-0.0324514862716198,0.004782558101415634,0.0010985906253568828
1746734688605530400,11.5325302734375,-0.02272504202723503,0.004156096766144037,-0.0012358254052698611
1746734688615497500,11.54249755859375,-0.014496142864227294,-0.006300524916313588,0.015984901850949973
1746734688625463300,11.55246337890625,-0.02003331872522831,-0.011978862813673913,-0.008839560140948742
1746734688635430400,11.562430419921874,-0.052801031339168546,-0.0009714388480409979,0.005499602063279599
1746734688645397500,11.5723974609375,-0.031550738039612766,0.0018589622722938657,-0.01969369324101135
1746734688655364400,11.5823642578125,-0.01718669712245464,-0.005132650180719792,0.007964183812215924
1746734688665330400,11.592330322265624,-0.02182663188278675,-0.0003372325977310538,-0.00021261983737349508
1746734688675297300,11.60229736328125,-0.03618833471238613,0.02080178234707564,0.00790116504598409
1746734688685264400,11.612264404296875,-0.011498130092024803,-0.008678031169995664,0.00026707170465961095
1746734688695230200,11.622230224609375,-0.014340660041570663,-0.01300572164338082,-0.007125230503734201
1746734688705197300,11.632197265625,-0.025561142235994337,-0.011381846768595277,-0.014527944508288055
1746734688715164400,11.642164306640625,-0.020772154393792153,0.007153196222893893,0.0019481018604710697
1746734688725130200,11.652130126953125,-0.02481412326097488,0.004198620733618736,0.00615647680312395
1746734688735097300,11.662097412109375,-0.022568974682688713,-0.007005787108838557,0.008185699342098087
1746734688745064200,11.672064208984375,-0.02525952894091606,-0.01576338632106781,-0.0009415186338126659
1746734688755031300,11.68203125,-0.02899871546924114,-0.01567819225564599,-0.0022776443420909342
1746734688764997000,11.6919970703125,-0.022414660903811452,0.00815075589288026,-0.008612363788951187
1746734688774964200,11.701964111328126,-0.03707914607226848,-0.0043097164252772924,-0.005854333785083145
1746734688784931300,11.711931396484376,-0.026010055047273634,0.0004205634996294975,0.0018246581438928842
1746734688794897400,11.7218974609375,-0.053692427220940586,-0.0011079247092828154,0.006030895928386598
1746734688804864500,11.731864501953124,-0.030797873845696447,-0.006512121840380132,0.0045717831612564624
