time,seconds_elapsed,z,y,x
1746576092027109600,0.029109619140625,-0.08165303181409836,-0.02114435784020461,0.0005617027031024918
1746576092037125600,0.039125732421875,-0.08060439954400062,-0.023445565720973536,-0.0011639337794156744
1746576092047140600,0.049140625,-0.09586275895237922,-0.01810803148476407,-0.0014181277361931279
1746576092057156600,0.059156494140625,-0.08583353236913681,-0.015307504912884904,-0.0002590847610263154
1746576092067172900,0.0691728515625,-0.10139408959448337,-0.01853008368858136,0.0016076178597286342
1746576092077187800,0.079187744140625,-0.0961556044191122,-0.018225538650900125,-0.0017173070455901323
1746576092087203800,0.089203857421875,-0.09540507831275463,-0.016685917126620188,-0.010854475593357346
1746576092097219600,0.099219482421875,-0.07804536271095275,-0.014216248210612684,-0.003755681005399674
1746576092107234800,0.10923486328125,-0.09196049081683158,-0.011058560497825965,0.010592221627710386
1746576092117250600,0.11925048828125,-0.09315525355935096,-0.014446449370449407,-0.007782502535800449
1746576092127265800,0.129265869140625,-0.0916588775217533,-0.013488746786816044,-0.000524128905381076
1746576092137281500,0.139281494140625,-0.09105915806293487,-0.022379927517147732,-0.006692848702147603
1746576092147297500,0.149297607421875,-0.08986264175474643,-0.01596577702537179,-0.006083493765303865
1746576092157312500,0.1593125,-0.0916547858685255,-0.02147173576420173,0.003911739216791466
1746576092167328500,0.16932861328125,-0.09988368503153323,-0.016534818218136207,-0.010595765291666611
1746576092177343500,0.179343505859375,-0.07893442050516605,-0.01776592178251594,-0.00013197408290579915
1746576092187359500,0.189359375,-0.08686521350443363,-0.01740084219663404,0.006537315647141076
1746576092197375700,0.199375732421875,-0.09973170934021472,-0.018917274641571565,0.00040587738715112205
1746576092207390700,0.209390625,-0.08895546378195285,-0.02069913482335396,-0.007792014716239646
1746576092217406700,0.21940673828125,-0.08610767313539981,-0.016086298132501543,-0.0018822335500270127
1746576092227422700,0.229422607421875,-0.08715162923038006,-0.011684857436316087,-0.0038409253031713884
1746576092237437700,0.239437744140625,-0.09119009096622467,-0.01048608523895964,-0.01219690774483606
1746576092247453700,0.24945361328125,-0.09358195453882216,-0.016543531247554345,-0.005466453278926201
1746576092257468700,0.25946875,-0.0798123723834753,-0.010325149923050775,-0.004139072566106915
1746576092267484700,0.269484619140625,-0.07726619503200054,-0.024794185584643854,-0.008759941866365261
1746576092277500700,0.279500732421875,-0.08205284478664397,-0.024609020009776574,-0.003363183689629659
1746576092287515600,0.289515625,-0.09357084862291812,-0.025711574424197896,-0.005602888907818123
1746576092297531600,0.29953173828125,-0.09147358408272266,-0.016258028837060554,-0.0031357270427281037
1746576092307547600,0.309547607421875,-0.0875812528192997,-0.010109561810456216,0.006039924051635898
1746576092317562600,0.319562744140625,-0.09206979641020298,-0.018646120416838673,-0.00019510244699195027
1746576092327579000,0.329578857421875,-0.09072013536691666,-0.024228788520535453,-0.00474192469692789
1746576092337593300,0.33959326171875,-0.09550620059967041,-0.015505137243680654,-0.002328278550785035
1746576092347609300,0.349609375,-0.08817103540599346,-0.008041030174400656,0.00655718939139042
1746576092357625300,0.359625244140625,-0.08876666321158408,-0.007094068180490284,-0.010905045869969762
1746576092367640300,0.369640380859375,-0.09235387404859065,-0.013275843821652233,-0.0015454758763313293
1746576092377656300,0.37965625,-0.09399813412427901,-0.009669827819475903,0.0025987614886602384
1746576092387672000,0.389672119140625,-0.09145487938225269,-0.007094424373516812,-0.010921567746507935
1746576092397687300,0.399687255859375,-0.09848492414951324,-0.013753398205526172,-0.009210987269226461
1746576092407703300,0.409703369140625,-0.09923018955886363,-0.005415229981765151,-0.010792931831581518
1746576092417718500,0.419718505859375,-0.08202011156082153,-0.010219853784516453,-0.002225845656194724
1746576092427734300,0.429734375,-0.08321779691278934,-0.013843076649820431,0.0032461925467243418
1746576092437750300,0.439750244140625,-0.08980185147821902,-0.02463122270843014,-0.013151189962099305
1746576092447765200,0.44976513671875,-0.08815466879308223,-0.023781474011298268,-0.011819671930279583
1746576092457781200,0.45978125,-0.08605857329666614,-0.014859003093559295,0.007352130028209648
1746576092467796200,0.469796142578125,-0.09473463170528411,-0.00005618716664612293,0.01369321528377477
1746576092477812200,0.479812255859375,-0.0784223793298006,-0.021132475606165824,-0.0013000406147446483
1746576092487828200,0.489828125,-0.0845569365620613,-0.01446214926308021,-0.009398344801180064
1746576092497843200,0.49984326171875,-0.08725158247351646,-0.02200764187234454,-0.0037556992717087266
1746576092507859200,0.509859130859375,-0.0876987417191267,-0.007630430946359411,-0.0010921608845703304
1746576092517875200,0.519875244140625,-0.08245850297808646,-0.006028548707673326,0.005606715699564665
1746576092527890200,0.52989013671875,-0.09607435587644576,-0.013007237747032194,0.001651374803064391
1746576092537906400,0.539906494140625,-0.0906874021410942,-0.0065158938331995155,-0.011005382705596275
1746576092547921200,0.549921142578125,-0.08335574407875537,-0.006088644864456727,-0.005748727119294926
1746576092557937400,0.5599375,-0.09711948101520537,-0.011331002497347071,0.0024550376024562864
1746576092567953400,0.569953369140625,-0.08843874643146991,-0.007188578063528984,-0.004636217566439882
1746576092577968400,0.579968505859375,-0.10160510199666023,-0.005714222061494365,0.0016563021399313583
1746576092587984400,0.589984375,-0.09397299968302249,-0.013706252861861138,0.011931630705040878
1746576092598000400,0.60000048828125,-0.0842477244824171,-0.017036137070087717,-0.002505005090869963
1746576092608015400,0.610015380859375,-0.09352467139363288,-0.008939896976575256,-0.00858462183207739
1746576092618031400,0.62003125,-0.09038169719278812,-0.003884960807720199,-0.002967329939571209
1746576092628046300,0.63004638671875,-0.094721772223711,-0.009382663174858316,0.0008513606989057734
1746576092638062300,0.640062255859375,-0.09322481166422367,-0.0035673005601391194,0.0008998120836680754
1746576092648078000,0.650078125,-0.08604103763997555,-0.011693935791915282,-0.006530059355869889
1746576092658093300,0.66009326171875,-0.0896329246520996,-0.015778127232473342,-0.00838391162820626
1746576092668109000,0.670109130859375,-0.08843465477824211,-0.004412007755972445,-0.004573335797525942
1746576092678124300,0.680124267578125,-0.08873334546387195,0.00013910707659088074,-0.0006344163128640503
1746576092688140300,0.690140380859375,-0.08588847742676735,-0.011209202748583629,-0.000008215272496454417
1746576092698156300,0.70015625,-0.0908271028727293,-0.016553678182233123,-0.004864610361680388
1746576092708171300,0.710171142578125,-0.09681026893556118,-0.016130648730881512,0.0022657895075157285
1746576092718187300,0.720187255859375,-0.08498948276042938,-0.010464138268632813,0.0030181148453149943
1746576092728203300,0.730203369140625,-0.08558627960979938,-0.015081961661856621,-0.006552659346745349
1746576092738218200,0.74021826171875,-0.08483516898155212,-0.008708398908795788,-0.003974762549600564
1746576092748234200,0.750234130859375,-0.08662965118288993,-0.015869696239754556,-0.0013099500874057411
1746576092758249200,0.760249267578125,-0.09500760342776775,-0.021490897122398017,-0.00014104330535046755
1746576092768265200,0.77026513671875,-0.09291209245324135,-0.007682754788640886,0.00013741744300350546
1746576092778281200,0.78028125,-0.08632686884403228,-0.012962339159380644,-0.003546586565673351
1746576092788296200,0.790296142578125,-0.08722469446659088,-0.0035627248497214167,-0.0036555359660182148
1746576092798312200,0.800312255859375,-0.10383388396203518,-0.0078053308555390685,-0.003105281672114506
1746576092808328400,0.810328369140625,-0.09664718732833862,-0.009000897315656765,-0.004042334193363786
1746576092818343400,0.820343505859375,-0.09395195689499378,-0.011265353382611646,-0.000924722762638703
1746576092828359400,0.830359375,-0.08856383411586284,-0.0013140417406335473,-0.0007089930861489846
1746576092838374400,0.84037451171875,-0.08467091833055018,-0.007524157560290769,0.004555800140835345
1746576092848390400,0.850390380859375,-0.09409691832363605,-0.02148443084899336,0.00003782039289362728
1746576092858406400,0.860406494140625,-0.08362170153856277,-0.014644456160580738,-0.008835148827312513
1746576092868421400,0.87042138671875,-0.07703647792935371,-0.01093411213424988,0.009141406331467442
1746576092878437400,0.880437255859375,-0.08945581451952457,-0.010097898772126064,0.0025762984951026736
1746576092888453000,0.890453125,-0.0928963103622198,-0.0017480127111077308,-0.010426861298433504
1746576092898468400,0.90046826171875,-0.08541326113045215,-0.014171020829398185,0.0010905077836010604
1746576092908484000,0.910484130859375,-0.08137304582893848,-0.004070208580978215,0.004708894643583335
1746576092918499300,0.920499267578125,-0.09274491919279097,0.0020717282401397823,-0.00269507060314063
1746576092928515000,0.93051513671875,-0.09424012618660926,-0.007180239493446424,-0.01398338930280879
1746576092938531300,0.94053125,-0.08840250607430934,-0.002721963176643476,-0.0040649981163209305
1746576092948546300,0.95054638671875,-0.09708031804859638,0.004024223147938028,-0.004214795550284907
1746576092958562300,0.960562255859375,-0.07882394586801529,-0.002523408397240564,-0.004397728068870492
1746576092968577300,0.970577392578125,-0.09169161074757576,-0.009427808357682078,-0.0030179139159154144
1746576092978593300,0.98059326171875,-0.09453238713145255,-0.010866152331419288,-0.00536634933874011
1746576092988609300,0.990609375,-0.08540332425832747,-0.009368634649505839,0.004955480682640337
1746576092998624300,1.000624267578125,-0.0934843393832445,-0.005658107960084453,-0.004946648922213353
1746576093008640300,1.01064013671875,-0.0955804348796606,-0.008860082339169456,0.003226190938311629
1746576093018656300,1.02065625,-0.08615268132090569,-0.011194480103487147,-0.0030797682049451395
1746576093028671200,1.030671142578125,-0.08555413090586662,-0.009281951879896224,-0.0008990357655333355
1746576093038687200,1.040687255859375,-0.0924351225912571,-0.0122776722303126,-0.0031574456841917706
1746576093048702200,1.0507021484375,-0.08135960182547569,-0.012090689157694578,0.0013657262620981783
1746576093058718200,1.06071826171875,-0.08075988236665725,-0.0015429277262184768,0.0014391020255628973
1746576093068734500,1.070734375,-0.09108312346041202,-0.004300875531695783,0.009951151811773888
1746576093078749200,1.080749267578125,-0.09931260714530944,-0.00448910071332939,-0.0008445519322063773
1746576093088765400,1.090765380859375,-0.08225450483858585,-0.0034341117676813153,-0.003017918482492678
1746576093098781400,1.100781494140625,-0.07582008787691592,-0.012985455173486843,-0.003060552047821693
1746576093108796400,1.11079638671875,-0.09751870946586132,-0.004105426024831832,-0.0037193310503847894
1746576093118812400,1.1208125,-0.08824059351086616,0.0011936758971307427,-0.002367624180484563
1746576093128827400,1.130827392578125,-0.09108312346041202,-0.011607042959751561,-0.00998168851393275
1746576093138843400,1.140843505859375,-0.0946738414287567,-0.00840876750824973,-0.0005830286189215258
1746576093148859100,1.150859130859375,-0.08988485358655453,-0.009511312789516523,0.003111825577332638
1746576093158874400,1.160874267578125,-0.08674187938570976,-0.007902379755536093,0.00683691051506903
1746576093168890000,1.17089013671875,-0.08569383163750172,-0.008733113224944099,-0.00667293385870289
1746576093178906000,1.180906005859375,-0.08853577706515789,-0.006430599303077906,0.0037818337933858853
1746576093188921000,1.190921142578125,-0.07911036159396172,-0.015591902211681007,-0.005523887121165171
1746576093198937000,1.20093701171875,-0.09407470649182796,-0.010466430690418927,-0.009032808557571843
1746576093208952000,1.2109521484375,-0.09601941081881522,-0.0037537539097946136,0.0036203641879372296
1746576093218968300,1.22096826171875,-0.08030629338026046,-0.0054148281229659916,-0.0013172474778722972
1746576093228984300,1.230984375,-0.10304945558607578,0.0014258041525725274,0.0007203136311843991
1746576093238999300,1.240999267578125,-0.08434300155043602,-0.002921129877399653,-0.005338735246029683
1746576093249015300,1.251015380859375,-0.08464110771417617,-0.013292210434563457,0.00021925964071415363
1746576093259030300,1.2610302734375,-0.0755120448410511,-0.010398827080614865,0.0031251508497865867
1746576093269046300,1.27104638671875,-0.09705810621678829,-0.003105245139496401,-0.001436923768208362
1746576093279062300,1.281062255859375,-0.09002455431818962,-0.0023156382649205626,0.0011803049589041619
1746576093289077200,1.2910771484375,-0.08882628444433212,-0.007989190389309078,-0.0052920237272046505
1746576093299093200,1.30109326171875,-0.09525953236222266,-0.017540880854986608,-0.01162646461285185
1746576093309109200,1.311109130859375,-0.09076806616187096,-0.013933083887677639,0.0008946290184743702
1746576093319124200,1.321124267578125,-0.08837269545793533,-0.004493411562265828,0.0009832388836890458
1746576093329140200,1.33114013671875,-0.09974339977800846,0.0004077953496016562,0.013003666683612391
1746576093339156700,1.34115673828125,-0.08552665837705135,-0.007228535614581778,0.003108583307475783
1746576093349171700,1.351171630859375,-0.0847790548801422,-0.013039231187338008,-0.0033759518396575
1746576093359187700,1.361187744140625,-0.08986731792986392,-0.0066642162627074866,-0.0017238646505400538
1746576093369202700,1.37120263671875,-0.09091361211240291,-0.006475406559184193,-0.004798942980635911
1746576093379219000,1.381218994140625,-0.09495148932635783,0.004900019601779058,0.0020109059975715353
1746576093389234700,1.391234619140625,-0.09928981079161167,-0.00023358956016600131,0.009572089366312138
1746576093399250000,1.40125,-0.08836685023903847,0.001509208119707182,-0.0031727893837960436
1746576093409265700,1.411265625,-0.08298048102557659,-0.006549759570183232,-0.01118715074697975
1746576093419281700,1.42128173828125,-0.08612345522642136,-0.003682095179380849,-0.003525032320991158
1746576093429296600,1.431296630859375,-0.07968903826475143,0.008789894046634435,0.003729003061028197
1746576093439312600,1.441312744140625,-0.09076397450864314,-0.0018141276167239994,-0.001086973252799362
1746576093449327600,1.45132763671875,-0.0847790548801422,-0.008729112903261557,-0.00908657087169122
1746576093459343600,1.461343505859375,-0.08672492825090884,-0.008865781427593901,-0.0037674536415841426
1746576093469359600,1.471359619140625,-0.07625088050961494,-0.006231432602321728,-0.0010893981053261086
1746576093479374600,1.48137451171875,-0.08403203590512275,-0.00356845133760944,-0.0007744412714848295
1746576093489390600,1.491390625,-0.09046469930112361,-0.009192063373047859,-0.00375676785078831
1746576093499405600,1.501405517578125,-0.09659750296771526,-0.005983668386330828,0.0034913081479026
1746576093509421800,1.511421875,-0.09225801245868205,0.008331902879755944,-0.0004949347769375891
1746576093519437800,1.521437744140625,-0.09195756820738316,-0.006933726519625634,-0.0004898658761754632
1746576093529452800,1.531452880859375,-0.09300210882425308,-0.009370424747793003,-0.006117240771278738
1746576093539468800,1.54146875,-0.0946481224656105,-0.0038215310495346784,-0.004577824742975645
1746576093549484800,1.55148486328125,-0.09270283361673355,-0.003163121939729899,0.006567103430628776
1746576093559499800,1.561499755859375,-0.08536883746683598,-0.0024094174955971537,0.007900986949470825
1746576093569515800,1.571515869140625,-0.0919511384665966,-0.005553149748267605,-0.00428182377135381
1746576093579530800,1.58153076171875,-0.08431962067484855,-0.009061961586819961,0.00031291557380463926
1746576093589546800,1.591546630859375,-0.09135317257344722,-0.009810332268709317,0.0032367716978304087
1746576093599562800,1.601562744140625,-0.08461889588236808,-0.012419363989634438,0.001701223560469225
1746576093609577700,1.61157763671875,-0.09359715210795402,0.0006446271796245128,0.0009494644782505929
1746576093619593700,1.62159375,-0.09060556907653808,-0.002332123608840629,-0.0036917671900242566
1746576093629609700,1.631609619140625,-0.0886614492714405,-0.001567340648267418,0.0009581866408232599
1746576093639624700,1.641624755859375,-0.09120353496968746,-0.01087092897123657,-0.00015083404700271785
1746576093649640700,1.651640625,-0.08776128556132316,-0.01146260212091729,-0.0046459352428559215
1746576093659656000,1.661656005859375,-0.08401976094543934,0.00973977864999324,0.0020614625744521616
1746576093669671700,1.671671630859375,-0.09389584279358386,-0.0002747618207708001,0.0048675603705924005
1746576093679687700,1.681687744140625,-0.10347206491231918,0.0037615992895327507,0.0010771596782607957
1746576093689702700,1.69170263671875,-0.08790916959941386,-0.009563618365488946,-0.006928643919131718
1746576093699718700,1.70171875,-0.08730945014059543,-0.006658508041128516,-0.008044231345062144
1746576093709734700,1.711734619140625,-0.09045008625388144,-0.007998862399952485,0.0043191692402120676
1746576093719749600,1.72174951171875,-0.08057400440573692,-0.007570901045156642,0.007050229038763791
1746576093729765600,1.731765625,-0.0877548558205366,-0.010699106935132294,-0.005665688478341326
1746576093739781600,1.74178173828125,-0.0891015942543745,-0.00843330829446204,-0.0017551274384837597
1746576093749796600,1.751796630859375,-0.08700432971417904,-0.014773936892300844,0.00045922870931681243
1746576093759812600,1.7618125,-0.08176759810447692,-0.011792436863481998,0.006239972101803869
1746576093769827600,1.77182763671875,-0.0876028801292181,-0.0014706022755242884,0.008398378544976003
1746576093779843800,1.78184375,-0.08176584453880786,-0.006695771311596036,0.008574410965316928
1746576093789859800,1.79185986328125,-0.08984627514183521,0.0025060006047133354,0.003271742546511814
1746576093799874800,1.801874755859375,-0.0943342342108488,-0.002857663586596027,-0.007096196205494925
1746576093809890800,1.811890869140625,-0.08266133207380771,-0.004529615386808291,-0.012129779059067368
1746576093819906800,1.82190673828125,-0.08670096285343169,-0.004113691529678181,-0.0081151594231138
1746576093829921800,1.831921875,-0.09717501059472561,0.0011832275683525948,0.006231441735476255
1746576093839937800,1.841937744140625,-0.09193827898502349,-0.00484642625101842,-0.0026277638208586722
1746576093849952800,1.851952880859375,-0.08565408414900302,-0.005378414235869422,0.0005172151074046269
1746576093859968800,1.86196875,-0.08640227216780186,-0.005503565852344036,0.00036862781641539184
1746576093869984500,1.871984619140625,-0.09537935934960842,-0.0023905392651911825,0.004129902878962457
1746576093879999700,1.881999755859375,-0.08999123657047749,-0.0023573585147969424,0.007406189169851131
1746576093890015500,1.892015380859375,-0.08909048833847046,-0.012963636067323385,-0.004704848656128161
1746576093900030700,1.90203076171875,-0.09851590380966663,-0.004918057581968605,0.0031669167654355987
1746576093910046700,1.912046630859375,-0.09088497053980826,-0.002862431093258783,0.006588182751275599
1746576093920062700,1.922062744140625,-0.09163374308049678,-0.0031456684814300385,0.009372771968506275
1746576093930077700,1.93207763671875,-0.0819084678798914,-0.003555820184899494,-0.004271238445257767
1746576093940093700,1.94209375,-0.09028817369043826,-0.001765155642153695,0.005025098153017461
1746576093950109700,1.952109619140625,-0.09552490530014038,-0.002693038476258516,-0.0031500797950662672
1746576093960124700,1.962124755859375,-0.09253156870305537,0.0037919030962511894,-0.003316074878582731
1746576093970140700,1.972140625,-0.08968786970973014,0.003602015680493787,0.001150361911789514
1746576093980155600,1.98215576171875,-0.09971242011785507,-0.0006438691277988255,0.009379576168628409
1746576093990171600,1.992171630859375,-0.08624386673569678,0.007405280420975759,0.004601415681117214
1746576094000187600,2.002187744140625,-0.09387363096177577,-0.006880973419081419,0.0024650247069308534
1746576094010202600,2.01220263671875,-0.09192834211289883,-0.005065978152677416,0.004550516610941849
1746576094020218600,2.022218505859375,-0.10045827004909515,-0.007898498164862393,-0.003404059122712351
1746576094030235000,2.03223486328125,-0.09791443078517913,-0.0017823990378994495,-0.0032578692847862836
1746576094040249900,2.042249755859375,-0.08579203131496906,0.0019617650596424935,0.009987127307453192
1746576094050265900,2.052265869140625,-0.08399638006985187,-0.008929613044578582,0.0053190578646026545
1746576094060280800,2.06228076171875,-0.09462064993679523,0.0017452088326681404,-0.0008643206451786681
1746576094070296800,2.072296875,-0.08728957639634609,-0.00421471335189417,-0.004821410540770739
1746576094080312800,2.082312744140625,-0.08100479703843592,-0.00263490594769828,-0.010749211420863866
1746576094090327800,2.092327880859375,-0.08339899869859219,0.0011171491953544319,-0.012687682369886896
1746576094100343800,2.10234375,-0.08384908055365085,-0.005481728479871526,-0.002855060637556016
1746576094110359600,2.112359619140625,-0.0923784239679575,0.0006689305038191378,0.009363743845256976
1746576094120374800,2.122374755859375,-0.0863917507737875,-0.009204292666958644,0.007119083890737965
1746576094130390500,2.132390625,-0.09132979169785976,-0.008473978231567888,0.0017819606464821844
1746576094140406500,2.142406494140625,-0.0935761093199253,-0.005238156381808221,0.00032099841556046155
1746576094150421500,2.15242138671875,-0.08699205475449562,-0.00392993246060796,0.0030186856674728913
1746576094160437800,2.162437744140625,-0.0914805983453989,-0.011080900193797424,0.001737094024871476
1746576094170452500,2.172452392578125,-0.08893734360337256,-0.005454740008246153,-0.006165463827177882
1746576094180468700,2.18246875,-0.08714052331447601,0.0016684903346467761,0.003437938559427857
1746576094190484700,2.192484619140625,-0.08609247556626796,-0.004949640030320734,0.007080573944677598
1746576094200499700,2.202499755859375,-0.09372340883612632,-0.004569719068333506,0.0036406260912539437
1746576094210515700,2.212515625,-0.08504442781805992,-0.008945066342037171,0.00681001337498892
1746576094220531700,2.22253173828125,-0.09013269086778164,-0.011743044763803482,0.005477371965162456
1746576094230546700,2.232546630859375,-0.08669044145941734,0.00643048970522359,-0.0001852477732580155
1746576094240562700,2.242562744140625,-0.09132862265408039,-0.0002499196404591203,-0.0010916813939576967
1746576094250577700,2.25257763671875,-0.101353757584095,0.006186086490098387,0.0003532612839248031
1746576094260593700,2.26259375,-0.08983166209459305,0.005962972658174112,-0.004356185915507376
1746576094270609700,2.272609619140625,-0.09372107074856757,0.0004145995497237891,0.003716604803758673
1746576094280624600,2.282624755859375,-0.08504325877428054,-0.0015035546970553696,0.008475334505015052
1746576094290641000,2.292640869140625,-0.08788578872382641,-0.002375981016876176,0.010157099879765883
1746576094300657000,2.302656982421875,-0.0998544589370489,-0.00491927229152061,0.006650644395081326
1746576094310672000,2.312671875,-0.09102408674955367,-0.004173778553307056,0.003712814544630237
1746576094320687900,2.32268798828125,-0.09671031569242478,-0.006945005965465679,0.009490493763773701
1746576094330702800,2.332702880859375,-0.0829448251903057,-0.0030666575616225596,0.004455974761862307
1746576094340718800,2.34271875,-0.07830722851753234,-0.0036781587897799905,0.0003168382636737078
1746576094350734600,2.352734619140625,-0.08967910188138485,-0.00029834362575784323,0.002865892558824271
1746576094360749800,2.362749755859375,-0.09027648325264453,-0.0038445283326320346,0.0026354265375062823
1746576094370765600,2.372765625,-0.09760989488065243,-0.007171672594500705,-0.006592178506380878
1746576094380781600,2.382781494140625,-0.08698620953559875,-0.002447183089563623,0.0013071690418524668
1746576094390796500,2.392796630859375,-0.0920733035415411,-0.0032988314828369765,-0.0005553734270157293
1746576094400812500,2.4028125,-0.09910568639636039,-0.000580110576050356,-0.002626859638560563
1746576094410827500,2.41282763671875,-0.08444178574979305,0.0031599436019547284,-0.010826445942115969
1746576094420843500,2.422843505859375,-0.09012801469266414,0.002386749006062746,-0.0014939055192982778
1746576094430859800,2.43285986328125,-0.09042728990018367,0.0059682881541084495,-0.0015945209161378443
1746576094440874800,2.442874755859375,-0.0862350989073515,-0.0007155826571397483,0.0047538388970075176
1746576094450890800,2.452890869140625,-0.09416589190661907,-0.009292939064791426,-0.007148351084417663
1746576094460906800,2.46290673828125,-0.08294424066841602,-0.009142022819397971,0.003168277605460025
1746576094470921700,2.472921630859375,-0.08683423384428024,-0.009071889325790106,0.003188197015482001
1746576094480937700,2.482937744140625,-0.08518588211536407,-0.00637061274414882,0.008203047769120893
1746576094490953700,2.49295361328125,-0.09955167659819125,-0.0033426249587908386,0.006923625250719487
1746576094500968700,2.50296875,-0.0860860458254814,0.0024231811594683677,-0.004446494547463953
1746576094510984700,2.512984619140625,-0.08758359090685844,0.0008181753819342702,0.00019155878303572536
1746576094520999700,2.522999755859375,-0.09132570004463195,-0.003067954469565302,0.0009277549699414521
1746576094531015700,2.533015625,-0.09102525579333305,-0.0042944183914456514,0.006659188461140729
1746576094541031700,2.54303173828125,-0.08593757726550101,-0.0027892197265755383,0.009198127787653356
1746576094551046700,2.553046630859375,-0.08653554315865039,0.000861028142971918,0.004108229903271422
1746576094561063000,2.56306298828125,-0.0856377175360918,0.003467721776338294,-0.0026708220778731626
1746576094571078700,2.57307861328125,-0.08803191919624805,-0.010682356729730964,-0.005183905443921685
1746576094581094000,2.583093994140625,-0.09102408674955367,-0.017121458999672903,-0.0012913093190174548
1746576094591109600,2.593109619140625,-0.0817471398383379,-0.0039833614145871245,0.0065774923939025025
1746576094601124900,2.603124755859375,-0.09461597376167774,-0.0027424305759370326,0.003095413298648782
1746576094611140600,2.613140625,-0.08339315347969531,-0.014366579934116452,-0.000244115520757623
1746576094621156600,2.623156494140625,-0.08922960454821587,-0.009619230143399908,0.001659558109520003
1746576094631171600,2.633171630859375,-0.09132394647896289,-0.0016583342668134717,0.001359639014606364
1746576094641187600,2.6431875,-0.08279343402087688,-0.007190733487997204,0.01044386266558431
1746576094651203600,2.65320361328125,-0.09102408674955367,-0.005976389262173324,0.0031677250496111808
1746576094661218600,2.663218505859375,-0.08459083883166313,-0.003102176399575546,0.005831733794207684
1746576094671234600,2.673234619140625,-0.08982873948514461,0.0025770474137738345,0.009704090848681516
1746576094681249500,2.68324951171875,-0.09087678723335266,0.00044778943327255545,0.005900241586309857
1746576094691265800,2.693265869140625,-0.08863222317695617,0.0005261884317267686,0.0005832386814756318
1746576094701281800,2.70328173828125,-0.09312076676785945,-0.0007412194218952208,0.0008755726915551349
1746576094711296800,2.713296875,-0.10688625726997851,0.0036582485129125412,0.005451767166447826
1746576094721312800,2.723312744140625,-0.08907879790067673,-0.0011975300883408635,0.007385315345181152
1746576094731328800,2.733328857421875,-0.09192132785022258,-0.00728775498853065,0.006353538311761804
1746576094741343700,2.74334375,-0.09057634298205375,-0.002412504501827061,0.004151237927936017
1746576094751359700,2.75335986328125,-0.08534019589424133,0.0029247283402830363,0.0108496943869628
1746576094761375700,2.763375732421875,-0.0880336727619171,-0.0017629088861402123,0.005456493573915213
1746576094771390700,2.773390625,-0.0982078607738018,-0.002809842389496043,0.0017396787076024338
1746576094781406700,2.78340673828125,-0.096560678088665,-0.0016172168051358311,-0.0047612413187511264
1746576094791421700,2.793421630859375,-0.07561024451851844,0.0023327903291210533,0.0000016348346602171659
1746576094801437700,2.803437744140625,-0.08937748858630656,-0.007766259220475331,0.0015068061000667512
1746576094811453700,2.81345361328125,-0.09386661669909954,-0.000889240457303822,-0.003106806908920407
1746576094821469000,2.823468994140625,-0.09296996012032031,-0.004266142145032063,-0.001653292765514925
1746576094831484700,2.833484619140625,-0.09671031569242478,-0.005463279507728293,0.0012868158069904894
1746576094841500700,2.843500732421875,-0.09401800786852836,0.00039067068486474453,0.00788269324095454
1746576094851515600,2.853515625,-0.0926701003909111,-0.00966497811442241,-0.0009604744960321113
1746576094861531600,2.86353173828125,-0.08488894499540328,-0.008075790960527957,0.003176141251507215
1746576094871546600,2.873546630859375,-0.07770575549304484,-0.0023593860751017926,0.008883805708051659
1746576094881562600,2.883562744140625,-0.08279051141142844,-0.003910442308848724,0.010911160516925155
1746576094891578600,2.89357861328125,-0.07081833406686783,-0.00766711882809177,-0.00403733835783787
1746576094901593600,2.903593505859375,-0.12304185777902603,-0.009662886622035875,-0.004295130777498707
1746576094911609600,2.913609619140625,-0.08638064485788345,-0.009104814347857608,0.008490755836432799
1746576094921625600,2.92362548828125,-0.0844353560090065,-0.000731492612324655,0.006337080367305316
1746576094931640600,2.933640625,-0.0914677388638258,-0.013273843660810962,-0.0003467539113247767
1746576094941656800,2.94365673828125,-0.0935632498383522,-0.006185036177327856,-0.003266490982659161
1746576094951672800,2.9536728515625,-0.0914677388638258,0.004955549181299284,-0.0022448015184141695
1746576094961687800,2.963687744140625,-0.08488309977650642,0.0008769928970839828,0.0002505635278532281
1746576094971703800,2.973703857421875,-0.09984452206492424,-0.003026654344797134,0.004909339985973201
1746576094981718800,2.98371875,-0.07590250546336173,-0.005859731479408219,-0.009310013497178441
1746576094991734800,2.99373486328125,-0.09101473439931869,-0.001772864024573937,0.005860475831502117
1746576095001750800,3.003750732421875,-0.08981938713490963,0.0022737901508808134,0.005102757365955039
1746576095011765800,3.013765869140625,-0.06946691945791245,0.0014658073693979532,-0.00004178418195806443
1746576095021781800,3.02378173828125,-0.08607610895335674,-0.0014606471370905638,-0.0070533251781482245
1746576095031797800,3.0337978515625,-0.09819558581411839,0.0000947838776744902,0.004733207100932486
1746576095041812700,3.043812744140625,-0.0890665229409933,0.0016975154997315256,0.007151479189842939
1746576095051828700,3.053828857421875,-0.08787000663280486,-0.0030804668912664053,0.0058267059926409275
1746576095061843700,3.06384375,-0.09565057750642299,-0.006675395243847742,0.002761884195078164
1746576095071859700,3.073859619140625,-0.08173544940054416,-0.010587116194330155,0.004782749897660687
1746576095081875700,3.083875732421875,-0.07874386636912822,-0.0013999025263357907,-0.0006619710400700569
1746576095091890700,3.093890625,-0.09894494287669658,0.0001349240918178111,0.007676096718991175
1746576095101906700,3.10390673828125,-0.09310673824250698,-0.00582740011238493,-0.001114021089929156
1746576095111922700,3.113922607421875,-0.08323007187247276,0.010081459093978628,0.0010194792408496141
1746576095121937700,3.123937744140625,-0.0928051249474287,-0.0041469727447722106,-0.002540925787622109
1746576095131953700,3.13395361328125,-0.09250584973990916,-0.008127575946692377,-0.0023874065931886435
1746576095141968600,3.14396875,-0.09325345323681831,-0.004940726071503013,0.004514203188545071
1746576095151984600,3.153984619140625,-0.09549684824943543,0.006406606506137177,0.013897437185561284
1746576095162000600,3.164000732421875,-0.10627075572013854,0.003891381415352225,0.008034659799118526
1746576095172015600,3.174015625,-0.08577157304883003,-0.006039663756731897,0.001393883777502924
1746576095182031600,3.184031494140625,-0.08637012346386909,-0.002445484322821721,-0.005197134818253107
1746576095192047600,3.194047607421875,-0.08906476937532425,-0.0003877206759527325,0.00009899426191113889
1746576095202062600,3.2040625,-0.08951251314282417,0.0013196403643582016,0.004678508638474159
1746576095212078800,3.214078857421875,-0.08352817803621292,-0.004325507649453357,0.005138175739208236
1746576095222094800,3.2240947265625,-0.0857727420926094,0.002390968523453921,0.003928758850251324
1746576095232109800,3.23410986328125,-0.08592296421825885,0.0015955164299812166,0.005221917633060366
1746576095242125800,3.244125732421875,-0.08637304607331753,-0.0010837309829425067,0.01136730222001206
1746576095252140800,3.254140869140625,-0.09729659114778041,-0.007722392679285257,0.0037147599065443498
1746576095262156800,3.26415673828125,-0.1218359891206026,-0.007517928748903796,0.009152334150858223
1746576095272172800,3.2741728515625,-0.05704290669262409,-0.00043869281136430795,0.004352290625101886
1746576095282187800,3.284187744140625,-0.08307926522493361,0.0006498970097862184,0.005129051717836409
1746576095292203800,3.294203857421875,-0.0969967314183712,-0.001854934551147744,0.001156312161963433
1746576095302219500,3.304219482421875,-0.08832125753164291,-0.00556097686169669,-0.0045455070756841446
1746576095312234800,3.31423486328125,-0.07485504223704338,0.0016404515502508729,0.004615544671169482
1746576095322250500,3.32425048828125,-0.09819967746734619,0.0008442140054889023,0.009665288641676307
1746576095332266200,3.334266357421875,-0.09760054253041743,0.004175468186894431,0.005458900160132907
1746576095342281200,3.34428125,-0.08562836518585681,0.005195057025598361,0.001457112606288865
1746576095352297200,3.354297119140625,-0.09759820444285869,-0.0009986191159114242,0.009446216230629943
1746576095362312200,3.364312255859375,-0.08622516203522682,-0.007123467804910614,0.010500908348755911
1746576095372328200,3.374328125,-0.07709726820588111,-0.004816359906317666,0.0014754793800413608
1746576095382344200,3.38434423828125,-0.08398001345694064,-0.004514627880230546,0.0009599584728013724
1746576095392359200,3.394359130859375,-0.08802198232412338,-0.009164718708395957,0.013030417693220078
1746576095402375200,3.404375244140625,-0.08892039246857165,-0.0025876601393334565,0.011358356295153497
1746576095412391200,3.41439111328125,-0.1023860232412815,-0.006747693295078351,0.007677978148823604
1746576095422406100,3.42440625,-0.08607493990957736,-0.0028858941672369838,-0.0030095890455646437
1746576095432422400,3.43442236328125,-0.0934065979719162,-0.0022016838958952576,0.005906817457568832
1746576095442437400,3.444437255859375,-0.09714753806591034,0.004462952491920441,0.011076621310901827
1746576095452453400,3.454453369140625,-0.09295534707307815,0.0016160020955838263,-0.00027953846058808267
1746576095462469400,3.464469482421875,-0.09639584291577338,-0.005982252747379243,-0.0044019247533753515
1746576095472484400,3.474484375,-0.08966331979036331,-0.006177108599198982,-0.0003968766633654013
1746576095482500400,3.484500244140625,-0.08637363059520721,-0.0022066797314211723,0.001321284332172945
1746576095492516400,3.494516357421875,-0.08128595206737518,0.0008486435854341834,-0.0013140737066743894
1746576095502531300,3.50453125,-0.08996376404166222,-0.0014970610241871326,-0.002896054801647551
1746576095512547300,3.51454736328125,-0.0914589710354805,0.0035534546978771685,0.0003364745459053665
1746576095522563300,3.524563232421875,-0.09115911130607128,-0.0031482531641609966,0.003365722706587985
1746576095532578300,3.534578369140625,-0.09444938502311706,-0.0065892604635097085,0.004566011007595807
1746576095542594300,3.54459423828125,-0.09624503626823425,0.0004806505232583731,-0.0010016741561004892
1746576095552609300,3.554609375,-0.08696808935701847,-0.00509364247773774,0.00904522508115042
1746576095562625500,3.56462548828125,-0.0838251151561737,-0.001078643815871328,0.0028288941498380155
1746576095572641300,3.574641357421875,-0.08651917654573917,-0.0012948712492827324,0.008195353086432442
1746576095582656300,3.58465625,-0.08726794908642768,-0.016451359452074394,0.002125499687413685
1746576095592672300,3.59467236328125,-0.09145838651359081,-0.015108201214810832,-0.0025871441161027177
1746576095602688300,3.604688232421875,-0.09101064274609089,-0.0033898616340011355,0.009759236835711635
1746576095612703200,3.614703125,-0.09370353509187698,-0.001093603922985494,0.005457018730300478
1746576095622719200,3.62471923828125,-0.09445113858878612,-0.005189166140928864,0.008879650122742168
1746576095632735200,3.6347353515625,-0.08921557602286338,-0.00006710128630511462,0.005486815646942704
1746576095642750200,3.644750244140625,-0.08382920680940151,-0.002370464591542259,0.0040021939792204645
1746576095652766200,3.65476611328125,-0.08697159648835659,-0.002263095226930454,0.0018131686354987322
1746576095662781200,3.66478125,-0.0931055691987276,-0.005021262228116392,0.002264227738091722
1746576095672797200,3.674797119140625,-0.0835293470799923,-0.0009138177761342376,0.0040876985718961804
1746576095682813400,3.6848134765625,-0.08293138118684291,-0.00290656249593012,0.007023400397342629
1746576095692828200,3.694828125,-0.0847270324319601,-0.0019798852382227777,-0.005695896386937238
1746576095702844400,3.704844482421875,-0.08143558967113494,-0.0009730554163921624,-0.005456470741028897
1746576095712860400,3.7148603515625,-0.0865220991551876,0.0025820889150723813,0.0014667754837777464
1746576095722875400,3.72487548828125,-0.08607435538768768,-0.000029618820128962396,0.007090935508487745
1746576095732891400,3.734891357421875,-0.09325754489004612,-0.008168118019634856,0.009048645447520539
1746576095742907400,3.744907470703125,-0.10073650246858597,-0.010250577716343105,0.006222746972367167
1746576095752922400,3.75492236328125,-0.08038520383536815,0.0024795418560504914,0.003227072287723422
1746576095762938400,3.7649384765625,-0.08307926522493361,0.003634584509534761,0.005272944567399099
1746576095772953300,3.774953369140625,-0.08277999001741408,-0.0017132153923623264,0.006073232666193507
1746576095782969300,3.78496923828125,-0.08397825989127158,-0.003473000739654526,-0.0018950382326729594
1746576095792985000,3.794985107421875,-0.09610007483959197,-0.0007281772772315889,-0.0010330145758576691
1746576095803000300,3.805000244140625,-0.08293138118684291,-0.00142359392917715,0.002700386099074967
1746576095813016000,3.81501611328125,-0.08861702560782432,-0.003170346264960244,0.0036695370919071135
1746576095823032300,3.8250322265625,-0.10372983906567096,-0.0004398709882982075,0.001856674417085014
1746576095833047300,3.83504736328125,-0.06646949120759964,-0.006722896780539303,0.006740021445276215
1746576095843063300,3.845063232421875,-0.09789221895337104,0.004584971436392516,0.013799324273061938
1746576095853079300,3.855079345703125,-0.08711714243888855,-0.004716360997408628,0.0004738645894452929
1746576095863094300,3.86509423828125,-0.09609481414258479,-0.009117609897349029,-0.0019236478392267598
1746576095873110300,3.8751103515625,-0.0956459013313055,0.0034380207578185943,-0.005936650906829163
1746576095883125200,3.885125244140625,-0.08487374742627143,0.005746242901263758,0.005780665760673582
1746576095893141200,3.895141357421875,-0.09430208550691604,0.0009874766673892736,0.00801824752043467
1746576095903157200,3.9051572265625,-0.09894260478913783,-0.007733708657743409,0.007545529141882434
1746576095913172200,3.915172119140625,-0.08951660479605197,-0.005854242453537881,0.005696887334203348
1746576095923188200,3.925188232421875,-0.09176116885244846,-0.004768082051491365,-0.002925157598545775
1746576095933204500,3.93520458984375,-0.06886603095531463,-0.0075154171314090485,0.001693359914422035
1746576095943219200,3.94521923828125,-0.10657353805899619,0.011719700420834124,0.008504747829167172
1746576095953235500,3.9552353515625,-0.09938976403474807,0.0071741842119954526,0.016150846702116542
1746576095963250400,3.96525048828125,-0.0854722978413105,-0.004431196513632312,-0.0045866884694434696
1746576095973266400,3.975266357421875,-0.08562251996695995,-0.00009843713948503136,-0.002230635995743796
1746576095983282400,3.985282470703125,-0.08891513177156447,-0.0025811299338471144,0.0017095438642427325
1746576095993297400,3.99529736328125,-0.09684592477083205,0.006846833687461912,0.004093740153615363
1746576096003313400,4.0053134765625,-0.08876490964591503,-0.0017842074024956673,0.003984681155416183
1746576096013329200,4.0153291015625,-0.09594751462638378,-0.013972977506648748,0.0106291880706558
1746576096023344400,4.025344482421875,-0.09430150098502635,-0.011729993485985322,0.0007657145423348992
1746576096033360100,4.035360107421875,-0.04477203866243362,-0.006893010916747153,0.005727953759324737
1746576096043376000,4.045376220703125,-0.12692249860465527,0.003714737073658034,0.013558779815724118
1746576096053391000,4.05539111328125,-0.07380231831371784,-0.01363099566856399,0.008529270349070429
1746576096063407000,4.065406982421875,-0.09505085804760456,-0.001781823649164289,0.0007094817099161446
1746576096073423400,4.07542333984375,-0.10537468366324901,-0.00037698008622974157,0.004850860397540964
1746576096083438300,4.085438232421875,-0.09519991112947464,-0.005126357437251135,0.005814764393097721
1746576096093454300,4.095454345703125,-0.07305354577302932,-0.0041107871865388,-0.002823546687862836
1746576096103469300,4.10546923828125,-0.09340425988435745,-0.003228241331502795,0.004350874986150301
1746576096113485300,4.1154853515625,-0.09460194523632526,0.0037886151606217025,0.0023981015171390023
1746576096123501300,4.125501220703125,-0.09998772992789745,0.007443265210650861,0.00442834696942009
1746576096133516300,4.135516357421875,-0.08323065639436245,-0.011553714470472187,0.003964382719481364
1746576096143532300,4.1455322265625,-0.10941957513988017,-0.010962379247508942,0.001566564330132678
1746576096153548300,4.15554833984375,-0.07754735006093978,-0.007867134912218897,0.0020206967392237857
1746576096163563300,4.165563232421875,-0.08442951079010963,-0.003304905030597001,0.005938920495728962
1746576096173579300,4.175579345703125,-0.09266016351878642,-0.0014550028475932776,-0.00044038701152894645
1746576096183594200,4.18559423828125,-0.09505436517894267,-0.008818243358284234,0.006301031806389801
1746576096193610200,4.1956103515625,-0.09340952058136463,-0.006320617856271565,0.010593755997670814
1746576096203626500,4.20562646484375,-0.0944563992857933,-0.007952566439658403,0.009707250920147634
1746576096213641500,4.215641357421875,-0.0770978527277708,-0.001744551245542243,-0.0006242602450307459
1746576096223657500,4.225657470703125,-0.0866746593683958,-0.006939471273822709,-0.004666466574231163
1746576096233673200,4.235673095703125,-0.09580079963207244,-0.007513681832049041,0.00845936061774846
1746576096243688400,4.2456884765625,-0.07993921363353729,0.0008708645503968,0.0048228672789176925
1746576096253704200,4.2557041015625,-0.07529927887320519,0.004218942002439871,0.0017562142838723957
1746576096263720200,4.26572021484375,-0.13470599208772183,-0.006969674615841358,0.001535840398306027
1746576096273735200,4.275735107421875,-0.06871580882966517,-0.005986901523033157,-0.0005175210680812597
1746576096283751200,4.285751220703125,-0.10597440312206745,0.0035594277809374033,-0.001231135530420579
1746576096293766100,4.29576611328125,-0.05913724862337112,0.0009942352017387748,0.009495197338354773
1746576096303782100,4.3057822265625,-0.10716916586458683,-0.0015417038835119454,0.006402450920827686
1746576096313798100,4.315798095703125,-0.08322773378491401,0.0006262786721810698,0.004600844858959317
1746576096323813000,4.325813232421875,-0.09505027352571487,-0.0011214783105999231,0.002313638104079291
1746576096333830000,4.335829833984375,-0.08906535389721393,0.000012795549491420388,0.006329266953608021
1746576096343846000,4.345845947265625,-0.08367606207430363,0.0006230364023242145,-0.004911614141450263
1746576096353860900,4.35586083984375,-0.08158055109977722,0.0013725487285293637,0.0023157387296203523
1746576096363876900,4.365876953125,-0.09519757304191588,-0.005658528085192665,-0.0003283551715314388
1746576096373893000,4.37589306640625,-0.09115677321851252,-0.0065323517776560034,-0.0017468208344420418
1746576096383908000,4.385908203125,-0.07993278389275074,-0.008115839843126013,0.004124642181955278
1746576096393924000,4.395924072265625,-0.08352408638298511,-0.011949554520798846,0.001231057898607105
1746576096403939000,4.40593896484375,-0.10312778151929378,-0.003556011981144547,0.004517381526320241
1746576096413955000,4.415955078125,-0.08951251314282417,-0.0022155571576207875,-0.0031332062920788302
1746576096423970800,4.425970703125,-0.09010989451408385,-0.006212262110970914,-0.00024375476115383207
1746576096433986000,4.435986083984375,-0.09729074592888355,0.0012290394714567809,0.006631135977013036
1746576096444001800,4.446001708984375,-0.06571604249179362,0.010873751115985214,0.01328146071168594
1746576096454017800,4.456017822265625,-0.11030804841220378,0.0011606138777453452,0.001546946314210072
1746576096464032800,4.46603271484375,-0.10522036988437175,-0.010864773225085809,-0.006929050344508141
1746576096474048800,4.476048828125,-0.08187807274162769,0.0051346777410246425,-0.004792787234485149
1746576096484064800,4.486064697265625,-0.07843757689893245,0.007392375273630023,0.009557325622020288
1746576096494079700,4.496079833984375,-0.0821785169929266,0.009939009282831103,0.004370050044078379
1746576096504096000,4.506095947265625,-0.08337503330111504,-0.0004156224630307406,0.0065201909824041645
1746576096514112000,4.516112060546875,-0.09684475572705269,-0.010705628007464111,-0.007724073179718106
1746576096524127000,4.526126953125,-0.09729425306022167,-0.001987328759161755,0.005326656649168581
1746576096534143000,4.53614306640625,-0.08307926522493361,-0.004659744572499767,0.00854060002726037
1746576096544158000,4.546157958984375,-0.08996376404166222,-0.0043309236100874835,0.002506945886206813
1746576096554174000,4.556174072265625,-0.08712006504833698,-0.007034620477678254,0.006189050198742188
1746576096564190000,4.56618994140625,-0.08397884441316127,0.00040051622544415294,0.007611552715953439
1746576096574205000,4.576204833984375,-0.09056348350048064,-0.01650205759285018,0.007198286606790497
1746576096584221000,4.586220947265625,-0.09280804755687713,-0.007819240649882703,-0.004280577095760963
1746576096594237000,4.59623681640625,-0.09085983609855175,0.002309190257824957,-0.0021227323415922
1746576096604252000,4.606251953125,-0.099240710952878,-0.0038528029706329106,0.005261596622900106
1746576096614268000,4.616267822265625,-0.09624737435579299,-0.004922715490777045,-0.0073792783300392325
1746576096624284000,4.626283935546875,-0.08008534410595894,-0.002460380497854203,0.0034328924915520472
1746576096634299000,4.636298828125,-0.08966390431225299,0.0015095825790427625,0.0035909645635168997
1746576096644315000,4.64631494140625,-0.09550035538077353,0.001301666316250339,0.006756958880345337
1746576096654330000,4.656330078125,-0.09370411961376666,-0.005107342209527269,0.004677111265831627
1746576096664345900,4.666345947265625,-0.0944523076325655,0.004323635352775454,0.014850870019453576
1746576096674361900,4.67636181640625,-0.09520049565136432,-0.0007042484123725444,0.019313210590020752
1746576096684376800,4.686376953125,-0.06826514245271682,-0.012637171458778903,0.006293675050418824
1746576096694392800,4.696392822265625,-0.09564823941886424,-0.003125566408317536,-0.001976556203397922
1746576096704408800,4.706408935546875,-0.0893634600609541,-0.015641869700094683,-0.007256725096027366
1746576096714423800,4.716423828125,-0.06542202798128127,0.004474843859113752,0.006228692655963822
1746576096724439800,4.726439697265625,-0.09550152442455291,0.003236369839031249,0.013355037404550239
1746576096734455800,4.736455810546875,-0.09116378748118877,0.00004065167079679668,0.012267100603948346
1746576096744470800,4.746470703125,-0.09475508997142314,-0.0014903116229921579,-0.0091155549375806
1746576096754487000,4.756487060546875,-0.08144026584625244,-0.014730810136627404,-0.011416438591363839
1746576096764501800,4.766501708984375,-0.09266191708445548,-0.006413282842095941,0.009131487725651822
1746576096774518000,4.77651806640625,-0.08472937051951884,-0.010180992212006822,0.00456729421580676
1746576096784534000,4.786533935546875,-0.09670154786407947,-0.007293152682855725,0.003767814401187934
1746576096794549000,4.796549072265625,-0.10148995118439197,-0.011976168533088638,0.012693217061529866
1746576096804565000,4.80656494140625,-0.0800911893248558,-0.01617149219792336,-0.0029342953196493907
1746576096814581000,4.8165810546875,-0.06737140848338603,-0.010100867047347127,-0.0004455152777954936
1746576096824596000,4.826595947265625,-0.094604283323884,0.0026167035707272586,-0.0007055361871607601
1746576096834612000,4.836612060546875,-0.08951660479605197,0.0036003808458335697,0.012648807097645477
1746576096844628000,4.8466279296875,-0.08038871096670627,-0.0015116101393476127,0.008356772459531203
1746576096854643000,4.856642822265625,-0.09325579132437706,-0.008103866277541965,-0.0075748374347575
1746576096864659000,4.866658935546875,-0.08697042744457721,-0.0065759169247467065,-0.010531006659497506
1746576096874674000,4.876673828125,-0.09160977768301963,0.0013711239564232528,0.006006592604191973
1746576096884690000,4.88668994140625,-0.080087097671628,0.00742138217240572,0.01794837024391163
1746576096894706000,4.896705810546875,-0.09430325455069541,-0.002756468234444037,0.006385947310598567
1746576096904721000,4.906720947265625,-0.10492693989574908,-0.007025688252551481,0.0026483727840473873
1746576096914737000,4.91673681640625,-0.0809843387722969,-0.014293669961532578,-0.008295178465405478
1746576096924753000,4.9267529296875,-0.08801789067089558,-0.006400761287240311,0.0018468882420100271
1746576096934767900,4.936767822265625,-0.07918868752717971,0.0014708945364691316,0.014273636387079023
1746576096944784000,4.946783935546875,-0.08277706740796566,-0.0044148664333391935,0.016150540741439907
1746576096954799900,4.9567998046875,-0.0755944624274969,-0.0020883323150686917,0.0031784382398705926
1746576096964814800,4.96681494140625,-0.09085808253288269,-0.007021687930868938,-0.0025874729096656665
1746576096974830800,4.976830810546875,-0.09280278685986995,-0.004158087793830782,0.0024228158332873133
1746576096984845800,4.986845703125,-0.0844219120055437,0.0009830288211349397,0.005334588793874718
1746576096994861800,4.99686181640625,-0.08636661633253097,0.007356481976341455,0.009363478983775712
1746576097004877800,5.0068779296875,-0.07963117059767245,0.007261752897594124,0.0008274501003557816
1746576097014892800,5.016892822265625,-0.072897478428483,0.0017150785558857024,-0.0010674557015765457
1746576097024909000,5.026908935546875,-0.1174877307832241,-0.004539826253568753,-0.0012136729389661922
1746576097034925000,5.036925048828125,-0.08636252467930317,-0.010192436054628341,0.0035989834731910376
1746576097044940000,5.04693994140625,-0.07214695232212542,-0.0039774705299176275,0.005797470765002071
1746576097054956000,5.0569560546875,-0.08920388558506966,-0.007646477898862213,0.0059306230248417705
1746576097064972000,5.066971923828125,-0.08890344133377075,-0.009427817490836606,0.0023585184254217894
1746576097074987000,5.076987060546875,-0.07932721921503544,-0.011502358742570504,0.004169362673093565
1746576097085003000,5.0870029296875,-0.10102642532587051,-0.0013861205961555243,0.013464598726248368
1746576097095018800,5.097018798828125,-0.10521627823114395,-0.006524342001136392,0.003221619794471189
1746576097105034000,5.107033935546875,-0.08666121536493301,-0.0037895467423833904,0.006168920726166106
1746576097115049700,5.1170498046875,-0.07843231620192527,-0.005529759739525616,0.008566483387188054
1746576097125065000,5.12706494140625,-0.09923135860264301,0.0005758636591956019,0.006252329259878024
1746576097135080700,5.137080810546875,-0.08725918125808238,-0.006489024092582985,0.00791286918350961
1746576097145097000,5.147096923828125,-0.09429214863479136,-0.0008004844616167247,0.002359728568396531
1746576097155112000,5.15711181640625,-0.09354454513788223,-0.002785475133219734,0.005954442291846498
1746576097165128000,5.1671279296875,-0.09384323582351208,0.00501493295202963,0.015443310354114509
1746576097175144000,5.17714404296875,-0.06570961275100708,0.0017163480643648654,-0.0009783800454810261
1746576097185159000,5.187158935546875,-0.12436638438105582,0.0013431399709545075,0.007629887523665092
1746576097195175000,5.1971748046875,-0.07004851873815059,-0.0120626595064532,0.004207890885462984
1746576097205191000,5.20719091796875,-0.09608604631423949,-0.008804297031322494,-0.0001351615538354963
1746576097215206000,5.217205810546875,-0.09324176279902457,-0.0040649296176619824,0.007061604382726364
1746576097225222000,5.227221923828125,-0.07962532537877559,-0.004451572581380605,0.0074938491869950665
1746576097235236900,5.23723681640625,-0.09399111986160277,-0.006626222339877859,0.007686581580387428
1746576097245252900,5.2472529296875,-0.09010229572951793,-0.002259843823919073,0.005037277214578352
1746576097255268900,5.257268798828125,-0.07947802586257458,-0.002662241479195654,0.011556801476702093
1746576097265283800,5.267283935546875,-0.08516483932733536,-0.004891964159486815,0.004327653940767049
1746576097275300000,5.277300048828125,-0.09189736245274543,0.0008569273565895855,0.01156795305837877
1746576097285316000,5.287316162109375,-0.0911497589558363,-0.0033716409907210616,0.004610978093906305
1746576097295331000,5.2973310546875,-0.08142389923334122,-0.006945773150445893,-0.009683468185761011
1746576097305347000,5.30734716796875,-0.09534253447055815,0.0008644074101466685,0.004085949572804384
1746576097315362800,5.31736279296875,-0.09220014479160309,-0.00022759821079671382,-0.00021291209831833839
1746576097325378000,5.3273779296875,-0.09369476726353168,0.0012533701951149851,0.013900816452736034
1746576097335393800,5.337393798828125,-0.08980535860955714,-0.0018779866331722587,0.005840679719066247
1746576097345409800,5.347409912109375,-0.08905658606886863,-0.011323988234670831,-0.004293737971433438
1746576097355424800,5.3574248046875,-0.08187456561028957,-0.009235464123357087,0.0038952036405215038
1746576097365440800,5.367440673828125,-0.08501695528924465,-0.0007466262493748217,0.00767652141067665
1746576097375455700,5.377455810546875,-0.09115209704339504,-0.011746725425077601,0.01521120493155904
1746576097385471700,5.3874716796875,-0.08666296893060207,-0.008287698411848395,-0.0013033833493012934
1746576097395488000,5.397488037109375,-0.08426818274855613,-0.0020926796966232357,-0.005791525081405416
1746576097405503000,5.4075029296875,-0.10192541999220847,0.002554461122630164,0.0089135386926122
1746576097415519000,5.41751904296875,-0.0910007058739662,-0.004562485609948635,-0.0005656984582077711
1746576097425535000,5.427534912109375,-0.0932452699303627,-0.004929784552380442,0.008314636651123874
1746576097435550000,5.437550048828125,-0.08591302734613418,-0.00221712806019932,0.004965947277727536
1746576097445566000,5.44756591796875,-0.06316811157464981,0.005458740329928696,0.004525455234921537
1746576097455582000,5.45758203125,-0.11988251696527004,-0.013438961961492895,0.0045031338052591305
1746576097465597000,5.467596923828125,-0.07589023050367832,-0.006143964381422847,-0.003534987459424883
1746576097475613000,5.477613037109375,-0.09130290369093418,0.0005849054821766913,0.00230823127659969
1746576097485629000,5.48762890625,-0.08456804247796534,-0.0005509210141841322,-0.0009240240763174369
1746576097495644000,5.497643798828125,-0.07992927676141262,-0.0031014274809043852,-0.0036055091121001167
1746576097505660000,5.507659912109375,-0.079480948472023,-0.006737884287117048,0.0005499665995361284
1746576097515675000,5.5176748046875,-0.09833528654575348,-0.003411452411301434,0.014425214786175637
1746576097525691100,5.527691162109375,-0.08441957391798496,0.002352353546116501,0.003719431515084579
1746576097535707000,5.537706787109375,-0.08606441851556301,-0.0035107298010028896,0.0025665168866049496
1746576097545722000,5.54772216796875,-0.09025427142083645,-0.0059737589136697345,-0.0034814215081278234
1746576097555737900,5.55773779296875,-0.07663666495680808,-0.009730481098685413,-0.0022444498919649046
1746576097565753900,5.56775390625,-0.12272387787103652,-0.006063811817299574,0.010721314200363121
1746576097575768800,5.577768798828125,-0.10386837075352669,0.0020801033428404477,0.009333051879471168
1746576097585784800,5.587784912109375,-0.04476034822463989,0.0011811543422751128,0.007222704095416702
1746576097595800800,5.59780078125,-0.10371756410598754,-0.0013074567362200468,0.007893470363295636
1746576097605815800,5.60781591796875,-0.09967676428258418,-0.0035675014895386993,0.004247638373961672
1746576097615831800,5.617831787109375,-0.08575871356725692,0.001560015858337283,0.0012528496053069828
1746576097625846800,5.6278466796875,-0.0989268226981163,-0.004323023431422188,0.017869683551089838
1746576097635862800,5.63786279296875,-0.10012392352819442,-0.00893658164148219,0.007521417613932863
1746576097645879000,5.647879150390625,-0.08650748610794544,0.0035698669765610244,0.006313320465805009
1746576097655893800,5.657893798828125,-0.08186988943517208,0.0035217991842888294,0.011961802081018685
1746576097665910000,5.667909912109375,-0.09324293184280395,-0.002047077856073156,0.00606150569578167
1746576097675926000,5.677926025390625,-0.08187105847895144,0.00031038112342357635,-0.0005642554197926074
1746576097685941000,5.68794091796875,-0.09144728059768677,0.0010075330747291444,-0.0008699649346759542
1746576097695957000,5.69795703125,-0.08456453534662724,-0.004652730309823528,0.002760189994913526
1746576097705973000,5.707972900390625,-0.11599077022373676,0.004330695281224325,0.0019040252567268908
1746576097715988000,5.717988037109375,-0.09249883547723292,-0.0008453008508775382,0.0036388496926985678
1746576097726004000,5.72800390625,-0.09085106827020645,-0.005658875145064667,0.006388869920047
1746576097736020000,5.73802001953125,-0.09444237076044082,-0.0026776765103451905,0.0006213924345094711
1746576097746035000,5.748034912109375,-0.0802262138813734,-0.0009964910909067838,0.0006650671794544905
1746576097756051000,5.758051025390625,-0.07842997811436653,-0.000551587734464556,0.017639870550320482
1746576097766066000,5.76806591796875,-0.10790917057693004,-0.010463453282043338,0.017729571827501057
1746576097776082000,5.77808203125,-0.0610726006001234,-0.01116775649334304,0.006303803718788549
1746576097786098000,5.788097900390625,-0.09818331085443496,-0.006225322521943599,-0.0035028935544192787
1746576097796113000,5.79811279296875,-0.09159867176711559,-0.00903647095253691,0.0021055848439689726
1746576097806129000,5.80812890625,-0.08725801221430302,-0.0035437004888430237,0.008558062618714756
1746576097816145000,5.818144775390625,-0.10446458308100699,0.006767557906173169,0.013006808488769455
1746576097826159900,5.828159912109375,-0.08112111689448356,0.0006449833726510405,-0.00035274982727132736
1746576097836176000,5.83817578125,-0.08815408427119255,-0.008561519517702981,-0.0007018144266912713
1746576097846191900,5.84819189453125,-0.0896504603087902,-0.0034564971294254064,0.003721185080753639
1746576097856206800,5.858206787109375,-0.10521510918736457,-0.005197550376784056,0.005802667529927566
1746576097866222800,5.868222900390625,-0.0788800599694252,0.0003345839829184115,-0.001510555259999819
1746576097876238800,5.87823876953125,-0.10042787491083145,-0.0020675909211393443,0.005798379513877443
1746576097886253800,5.88825390625,-0.09204875362217425,-0.00009229965964332223,0.014352492043259554
1746576097896270000,5.89827001953125,-0.09279577259719371,-0.0017564700121991336,0.004038589600007981
1746576097906284800,5.908284912109375,-0.060173605933785436,-0.012715086400043218,-0.007560621679737232
1746576097916301000,5.918301025390625,-0.11569091049432755,-0.010193723829416558,0.007665104967518709
1746576097926317000,5.928317138671875,-0.1089566338032484,-0.001145909498957917,0.020796096958382984
1746576097936332000,5.93833203125,-0.10072481203079223,-0.0000070325289852917194,0.011028653983329422
1746576097946348000,5.94834814453125,-0.07394085000157356,-0.009116596117196604,-0.00705132045072969
1746576097956364000,5.958364013671875,-0.0845657043904066,-0.007524477220699191,-0.009038672042777762
1746576097966379000,5.96837890625,-0.09114800539016724,0.0007012162050697952,-0.002849777107662521
1746576097976395000,5.97839501953125,-0.09354220705032348,-0.004215051278611645,-0.0013053287112154066
1746576097986410800,5.98841064453125,-0.09773030638992786,0.005703463205462321,-0.003430326075130142
1746576097996426000,5.998426025390625,-0.09024784168004989,0.00959976739110425,0.013108670561201869
1746576098006441700,6.008441650390625,-0.07962474085688591,-0.0012970175405964254,0.003962341459444724
1746576098016458000,6.0184580078125,-0.09414192650914191,-0.007533382046362384,-0.007851183857838622
1746576098026472700,6.02847265625,-0.08142156114578247,-0.010300344275357202,-0.004962015454703941
1746576098036489000,6.038489013671875,-0.08830664448440075,-0.003334204190317541,0.009550302226189524
1746576098046504000,6.04850390625,-0.0793283882588148,-0.004175139393331482,0.0144380423017079
1746576098056520000,6.05852001953125,-0.0899514890819788,0.0009254899476189165,0.011221089549199677
1746576098066536000,6.068535888671875,-0.09593699323236941,-0.009856080239731817,-0.0022319877026136963
1746576098076551000,6.078551025390625,-0.09833236393630504,-0.011208207234740256,0.0004817373686470091
1746576098086567000,6.08856689453125,-0.08232114033401013,0.002234389722254127,0.007818409532820805
1746576098096583000,6.0985830078125,-0.09459200836420059,0.0067618496845941985,0.007590509927924722
1746576098106598000,6.108597900390625,-0.09653788173496723,-0.0030019765612669287,0.0076997515892144285
1746576098116614000,6.11861376953125,-0.08471651103794574,-0.0005920110763981938,-0.0027485954552423208
1746576098126630000,6.1286298828125,-0.09698679454624652,0.009750930231669917,-0.005327122440049424
1746576098136644900,6.138644775390625,-0.09399521151483059,0.0010066836913581938,-0.0015616917921928688
1746576098146660900,6.148660888671875,-0.08037935861647129,0.0032677330916747447,0.008039399906317702
1746576098156677000,6.158677001953125,-0.08980535860955714,0.005657404707185924,0.005950985392858274
1746576098166692000,6.168692138671875,-0.08232347842156887,-0.0015941829894203692,0.012508658841438591
1746576098176708000,6.1787080078125,-0.09893266791701316,-0.001726823792606592,0.004147461368539371
1746576098186723000,6.18872314453125,-0.09444412432610988,-0.004810176760703325,0.0012201437789481132
1746576098196739000,6.198739013671875,-0.10252397040724753,-0.0011941051553934813,0.005418476818199269
1746576098206754800,6.2087548828125,-0.08232581650912761,-0.00773726145485416,0.017181093932152725
1746576098216770000,6.21877001953125,-0.10222761780917644,-0.009734536219295114,0.0024348761638393625
1746576098226785800,6.228785888671875,-0.08576689687371253,-0.01423591189230792,-0.0004853860638802871
1746576098236801800,6.2388017578125,-0.0823264010310173,-0.007944647994684055,0.007784155636769719
1746576098246816800,6.248816650390625,-0.08980945026278496,0.004706250595347955,0.006484690410760231
1746576098256832800,6.258832763671875,-0.0886135184764862,-0.0006068889851216226,0.005056009314511902
1746576098266848800,6.268848876953125,-0.08128302945792674,-0.0033928299092222,0.008531380107766016
1746576098276863700,6.27886376953125,-0.08532324475944042,0.0029784678215160963,-0.005355010527395643
1746576098286880000,6.2888798828125,-0.09040975424349307,-0.0028896204942837358,-0.006230857213586569
1746576098296896000,6.29889599609375,-0.07649170352816581,-0.0049581521303392944,-0.006773170229629613
1746576098306911000,6.308910888671875,-0.09744155257642269,-0.0026021818550303576,0.00726836073489394
1746576098316927000,6.318927001953125,-0.06466916378736495,0.0009189688752871007,0.005155688563012518
1746576098326942000,6.32894189453125,-0.11180383992791175,0.008770805753674357,0.009365917536034248
1746576098336957700,6.338957763671875,-0.08531681501865386,-0.0019067743362393228,-0.005955844231066294
1746576098346973700,6.3489736328125,-0.0794815329939127,-0.008376920198416337,-0.0016802721039857714
1746576098356988700,6.35898876953125,-0.08696458222568035,-0.005506451929174363,0.004737358119664714
1746576098367004700,6.369004638671875,-0.09070610684156417,0.0001488430193159729,0.013827148428326472
1746576098377020700,6.379020751953125,-0.08531856858432292,0.0035870921059977263,0.018093491502758116
1746576098387035600,6.38903564453125,-0.09220189835727215,-0.0015238668327219784,0.009559115720307454
1746576098397052000,6.399052001953125,-0.08277472932040691,-0.008743936013057828,-0.009164380781678482
1746576098407067600,6.409067626953125,-0.09414894077181815,-0.005385693360026925,0.0012019322688225655
1746576098417083000,6.419082763671875,-0.10043372012972832,0.005523284332966432,0.007230923934490419
1746576098427098600,6.4290986328125,-0.07245148822665214,0.0024703630357515065,-0.005311897471453994
1746576098437114600,6.439114501953125,-0.0965437269538641,-0.0007083948645275086,0.00600349646480754
1746576098447129600,6.449129638671875,-0.1206377192467451,-0.006142384345689788,0.004891950459755026
1746576098457145600,6.4591455078125,-0.056144496548175805,-0.009486287946114317,-0.0012671886579133569
1746576098467161600,6.46916162109375,-0.0996890392422676,-0.0124773321214132,-0.005334661859110929
1746576098477176600,6.479176513671875,-0.09879062909781933,-0.0021338884898461402,0.0033975791495759037
1746576098487192600,6.489192626953125,-0.09146014007925987,0.0024187789789866655,0.007290061110048554
1746576098497207600,6.49920751953125,-0.08457973291575908,-0.002674863498751074,0.0029357885904144495
1746576098507223600,6.5092236328125,-0.09236147283315659,-0.008431591261411086,-0.008143211907241493
1746576098517239800,6.51923974609375,-0.09700023854970931,-0.009584551555663347,-0.015655587698193266
1746576098527254800,6.5292548828125,-0.08024082692861556,0.0022523637703619898,0.017210283494018947
1746576098537270800,6.539270751953125,-0.08876783225536346,0.009624874432897194,0.01115612542105373
1746576098547286800,6.549286865234375,-0.09220949714183807,-0.0047494686825666575,-0.0012264867547666653
1746576098557301800,6.5593017578125,-0.09879413622915745,0.006418689669575542,0.006489448784268461
1746576098567317800,6.56931787109375,-0.08338204756379126,0.0032417584002017974,0.006170391164044849
1746576098577333800,6.579333740234375,-0.10044014987051486,-0.005787944884831086,-0.003396104145119898
1746576098587348700,6.5893486328125,-0.07829319999217986,0.00017779511916451155,-0.003147860438516363
1746576098597364700,6.59936474609375,-0.08622340846955776,-0.009315160029754042,0.005356992421927861
1746576098607380700,6.609380615234375,-0.0947527518838644,-0.011224345518788321,0.004404518569260835
1746576098617395700,6.619395751953125,-0.10148702857494353,-0.0018636384474113583,0.007983518700348214
1746576098627411700,6.62941162109375,-0.09684709381461143,-0.011306434311671183,-0.0021867511882446705
1746576098637426700,6.6394267578125,-0.0990922423928976,0.007498831322789192,0.006189164363173768
1746576098647443000,6.64944287109375,-0.09146072460114955,0.0000393090970814228,0.008706380481645465
1746576098657458700,6.659458740234375,-0.08577449565827847,-0.00025019363509491086,-0.005057269689836539
1746576098667474000,6.669473876953125,-0.07140811665356159,-0.0034883444392587986,-0.010245992872770875
1746576098677489700,6.67948974609375,-0.07589782928824425,0.0032295382394455373,0.009310511254100129
1746576098687505700,6.689505615234375,-0.08427695057690143,-0.0004821666269097477,0.008017274839477614
1746576098697520600,6.699520751953125,-0.10388006119132041,-0.002614794741431251,0.0042540270155528555
1746576098707536600,6.70953662109375,-0.09535188682079315,0.00690939579596743,-0.007369574353354983
1746576098717552600,6.719552734375,-0.08951602027416229,-0.004044754479313269,-0.00500184970817063
1746576098727567600,6.729567626953125,-0.09101298083364963,0.00039378509055823085,0.0032126236372627317
1746576098737583600,6.73958349609375,-0.09250935687124728,-0.005188325890712439,0.009690564646827987
1746576098747599600,6.749599609375,-0.09624971244335175,-0.008378847294021398,0.000516493588197045
1746576098757614600,6.759614501953125,-0.09624912792146205,-0.0010709263002965598,0.0014750957875512539
1746576098767630800,6.769630859375,-0.09250994139313698,-0.0006126611387822777,0.011308201577072031
1746576098777646800,6.779646728515625,-0.09415595503449439,-0.002078916032752022,0.012602716633328235
1746576098787661800,6.789661865234375,-0.08487608551383018,-0.006109002665895968,-0.005538249006657861
1746576098797677800,6.799677734375,-0.0947527518838644,-0.002080386470630765,0.007855878299265168
1746576098807692800,6.80969287109375,-0.08936579814851284,-0.0021359708490781486,0.005815353481564671
1746576098817708800,6.819708740234375,-0.08607201730012894,0.006277609831606969,0.005845223463443108
1746576098827724800,6.829724853515625,-0.08562251996695995,0.0020811353893019258,0.004867478172201663
1746576098837739800,6.83973974609375,-0.09400222577750682,0.0008436842825263739,0.0015438182087847963
1746576098847755800,6.849755859375,-0.060032736158370965,-0.000691425463417545,0.0002583267092006281
1746576098857771500,6.859771484375,-0.11030921745598316,-0.007793804814526811,0.0021888152811676263
1746576098867786800,6.869786865234375,-0.10342530316114425,-0.001277180328965187,0.006326038383482955
1746576098877802500,6.879802490234375,-0.08995791882276534,0.005912082721153274,0.009308520226413384
1746576098887818800,6.88981884765625,-0.101031101500988,0.007765044510923326,0.011361657930514775
1746576098897833700,6.899833740234375,-0.09923545025587081,0.004146178160328418,0.01174929640807677
1746576098907849700,6.909849609375,-0.08217734794914722,-0.004924195061810314,-0.00483469471402932
1746576098917865700,6.91986572265625,-0.08666706058382988,-0.009993543348507956,-0.005968347519612871
1746576098927880700,6.929880615234375,-0.08172960418164729,0.0024744820884428915,0.004693372847465798
1746576098937896700,6.939896728515625,-0.0814291599303484,-0.006577597425179556,0.00011302735384088009
1746576098947912700,6.94991259765625,-0.08067980286777018,-0.0024093626966699955,0.006697237182897515
1746576098957927700,6.959927734375,-0.09534487255811691,-0.005861695107631385,0.009495868625212461
1746576098967943700,6.969943603515625,-0.10118132362663745,0.003509231963660568,0.0012453101862454786
1746576098977958700,6.979958740234375,-0.08457213413119316,0.0007318214058876037,-0.0042936740393517536
1746576098987974700,6.989974609375,-0.08861410299837588,0.0014716525882948188,-0.004625769237661734
1746576098997990700,6.99999072265625,-0.08966390431225299,0.0030616251934785393,0.009405665024532935
1746576099008005600,7.010005615234375,-0.08188391796052455,0.005614488014066592,0.006218888214579783
1746576099018022000,7.02002197265625,-0.08846855704784393,0.0014922752512153237,0.007141514918254688
1746576099028038000,7.030037841796875,-0.0835293470799923,-0.008129576107533648,-0.0025219973248662426
1746576099038052900,7.040052978515625,-0.09146130912303924,-0.006829498960170895,-0.0035090356008382513
1746576099048068900,7.05006884765625,-0.07440320681631565,-0.0033607268710620698,0.006979492756957188
1746576099058084600,7.060084716796875,-0.09101181178987025,0.0019392701000440864,0.012576618644269183
1746576099068099800,7.070099853515625,-0.08906593841910362,-0.01267809712421149,0.005128581360378302
1746576099078115600,7.080115478515625,-0.09026187020540237,-0.005958817072864621,-0.001156261929613538
1746576099088131600,7.090131591796875,-0.09609715223014355,0.0010980609023943542,-0.003955002969782799
1746576099098146600,7.100146484375,-0.10492460180819034,-0.0007729480007197708,0.0024937302116071806
1746576099108162600,7.11016259765625,-0.10312836604118347,-0.0005828231229446828,-0.005088537044357508
1746576099118178600,7.120178466796875,-0.09759177470207214,0.005059667142899706,-0.004563663786882535
1746576099128193500,7.130193603515625,-0.08562135092318057,0.0013219145198352634,0.002078856667247601
1746576099138209800,7.140209716796875,-0.09190613028109074,0.002466627575550228,0.0006661037924932315
1746576099148224800,7.150224853515625,-0.09759177470207214,-0.002337192509602755,0.0015581115956185385
1746576099158240800,7.16024072265625,-0.08322481117546558,-0.002640084446314722,-0.002010695935017429
1746576099168256800,7.1702568359375,-0.0793330644339323,0.000009598945407196878,0.004194076989241876
1746576099178271700,7.180271728515625,-0.08127893780469894,0.0035157713023014365,0.012278279585088602
1746576099188287700,7.190287841796875,-0.08426993631422519,0.000028321912186220285,0.008927521552192046
1746576099198303700,7.2003037109375,-0.08965572100579738,-0.009079853436537087,0.002036944621126167
1746576099208318700,7.210318603515625,-0.09683774146437645,-0.007141770646581426,0.0040241592158563435
1746576099218334700,7.220334716796875,-0.09548983398675918,-0.004772356367809698,0.014128337031719274
1746576099228350700,7.230350830078125,-0.08770809406936168,0.0005847410853952169,0.011688492431817576
1746576099238365700,7.24036572265625,-0.09010112668573855,-0.0034294903914909806,0.009271183890709652
1746576099248381700,7.250381591796875,-0.09429214863479136,0.001917332262871787,0.005282835773751139
1746576099258397700,7.260397705078125,-0.08291969074904919,-0.0005478979400359093,-0.0030683015294373033
1746576099268413000,7.270412841796875,-0.07708323968052863,0.002573768611298874,0.0003795876018470153
1746576099278428700,7.2804287109375,-0.09967968689203262,0.0022460527605842797,0.0002589797297492623
1746576099288444000,7.29044384765625,-0.10476736541986464,0.005291704066796228,0.005392999883648008
1746576099298459600,7.300459716796875,-0.09025310237705707,0.0000944368178024888,0.004245172422239557
1746576099308475600,7.3104755859375,-0.0923474443078041,-0.0071176225860137485,0.00563780495757237
1746576099318490600,7.32049072265625,-0.08740881886184215,-0.001242346477601677,0.004620919532608241
1746576099328506600,7.330506591796875,-0.07768062105178833,0.00014071451178751884,0.008529923369619063
1746576099338522600,7.340522705078125,-0.0921948840945959,-0.011759457042487338,0.00436839694310911
1746576099348537600,7.35053759765625,-0.09025076428949833,-0.010296709279855713,-0.005476970106363296
1746576099358553600,7.3605537109375,-0.09923018955886363,-0.009959905940387398,0.001369242526590824
1746576099368569600,7.370569580078125,-0.0883083980500698,0.006622614743839949,0.01094050990899559
1746576099378584600,7.38058447265625,-0.0682575436681509,0.002641965876147151,0.009012848048354498
1746576099388600600,7.3906005859375,-0.08950549888014793,-0.0008225501629523932,0.008056346474541351
1746576099398616600,7.400616455078125,-0.08890870203077793,-0.0017611187878530472,-0.007114846107037737
1746576099408631600,7.410631591796875,-0.07843406976759433,-0.0004489219444338232,0.005764038852858357
1746576099418647800,7.420647705078125,-0.08561725926995277,0.009073177100578322,0.010104625340434723
1746576099428663800,7.430663818359375,-0.08771218572258949,0.0010159629763569682,0.007651432635192759
1746576099438678800,7.4406787109375,-0.08696341318190097,-0.006612431276543066,0.0035623640901176258
1746576099448694800,7.45069482421875,-0.08726151934564114,-0.0032269444235600527,-0.005350384584628045
1746576099458710800,7.460710693359375,-0.09175006293654442,-0.0006469196014106273,0.010950035789166576
1746576099468725800,7.470725830078125,-0.07932955730259418,-0.010642563575459644,0.00713894393525552
1746576099478741800,7.48074169921875,-0.09100187491774558,-0.00887545343823731,0.006201512388093397
1746576099488756700,7.4907568359375,-0.08307283548414707,-0.0019408044700045138,0.01644176507324446
1746576099498772700,7.500772705078125,-0.07993103032708168,-0.0053261451925151046,0.005560972295119427
1746576099508788500,7.51078857421875,-0.09818798702955245,-0.004127199465222656,0.008389875578111968
1746576099518803700,7.5208037109375,-0.09205226075351237,-0.007610264941165223,0.011459875874291174
1746576099528819500,7.5308193359375,-0.08741349503695964,0.004984209020202979,-0.005003320146049373
1746576099538835700,7.540835693359375,-0.09085457540154457,0.00609868220128119,-0.0024491695506731045
1746576099548850700,7.5508505859375,-0.08786240784823894,0.005510945441201329,0.004366017756354995
1746576099558866700,7.56086669921875,-0.08920914628207684,0.0002794288627337664,0.003578365376847796
1746576099568882700,7.570882568359375,-0.10028349800407886,-0.0035105471379123627,-0.000850936007220298
1746576099578897700,7.580897705078125,-0.10043372012972832,0.0013693247249815612,0.0067387108376016835
1746576099588913700,7.59091357421875,-0.08412497488558292,-0.0020649240400176495,0.008892025547125376
1746576099598929700,7.6009296875,-0.09235562761425971,-0.0008831121106166392,0.0036074955732095983
1746576099608944600,7.610944580078125,-0.0890624312877655,-0.004379804253112524,0.010417942773038522
1746576099618960600,7.620960693359375,-0.08891104011833667,-0.006394888668879866,0.00476307251623366
1746576099628976600,7.6309765625,-0.08756196359694003,-0.006129643595125526,0.0074244006799766785
1746576099638991600,7.64099169921875,-0.09219839122593403,-0.0055686395783443,-0.004191295943688601
1746576099649007600,7.651007568359375,-0.08516542384922504,0.00007182312719523906,0.006236857696110382
1746576099659024000,7.66102392578125,-0.09369476726353168,-0.00014957367167808114,-0.006096243649022654
1746576099669038800,7.671038818359375,-0.09803484229445457,-0.01266436999295838,0.0045294007576769215
1746576099679054800,7.681054931640625,-0.09279752616286277,-0.0003952098626643419,-0.0020122577044414357
1746576099689069800,7.69106982421875,-0.09803367325067519,0.00019358634334057568,0.012595295945275574
1746576099699085800,7.7010859375,-0.0863607711136341,0.001954084076685831,0.014999416211247443
1746576099709101600,7.7111015625,-0.07858020024001598,0.0030551315206103027,0.008584110375423915
1746576099719116800,7.72111669921875,-0.09698913263380526,-0.007175873845582828,-0.0020720753000117837
1746576099729132500,7.731132568359375,-0.08426993631422519,-0.0029833357928786427,0.0056733100957935675
1746576099739148500,7.7411484375,-0.08621464064121245,-0.0035346860653255132,0.01558539483908098
1746576099749163500,7.75116357421875,-0.09100304396152496,-0.007568115433026105,0.014671554230060427
1746576099759179500,7.761179443359375,-0.08831015161573887,-0.00467934432211332,0.0016678510138299315
1746576099769195500,7.771195556640625,-0.09624094461500644,-0.006458875549491494,-0.0009179733614437281
1746576099779210500,7.78121044921875,-0.09085399087965487,-0.000730433166399598,0.011936169882840476
1746576099789226800,7.791226806640625,-0.09369652082920074,0.00033775318753905594,0.0017965599939925596
1746576099799242800,7.80124267578125,-0.089057755112648,-0.008335501342639327,-0.003588357047899626
1746576099809257700,7.8112578125,-0.09339607657790183,-0.0068191510960925366,-0.001060085245873779
1746576099819273700,7.821273681640625,-0.09010463381707667,0.0012368483185768127,0.00491782011995092
1746576099829289700,7.831289794921875,-0.09070376875400543,-0.006554253082210197,-0.0019007281879428774
1746576099839304700,7.8413046875,-0.09279752616286277,-0.0036838487450499085,-0.0010575188294518739
1746576099849320700,7.85132080078125,-0.093694182741642,-0.0028143267683684824,-0.012405833221203647
1746576099859335700,7.861335693359375,-0.08261983101963996,0.0011258348253089935,0.010308806143025867
1746576099869351700,7.8713515625,-0.08606149590611457,0.006343560340441763,0.003629451676690951
1746576099879367700,7.88136767578125,-0.10551379987299442,0.002658661282621324,0.003042874827235937
1746576099889382700,7.891382568359375,-0.0868096839249134,-0.009737221366725862,0.0037869255270343272
1746576099899398700,7.901398681640625,-0.09354396061599254,-0.0019217435765080152,0.010274734910065307
1746576099909414700,7.91141455078125,-0.0845657043904066,-0.0027365853570401667,0.008539275719854049
1746576099919430000,7.921429931640625,-0.0827712221890688,-0.0010361929136328398,0.00841046627499163
1746576099929445600,7.931445556640625,-0.09070201518833637,0.000928503888612613,0.0028106826397124676
1746576099939461600,7.941461669921875,-0.07858020024001598,-0.0008553747203201055,0.007898123705526814
1746576099949476600,7.9514765625,-0.08142389923334122,-0.0012243632963392882,0.00008939988308120518
1746576099959492600,7.96149267578125,-0.0910012903958559,-0.001556828387407586,0.007255546919093467
1746576099969508600,7.971508544921875,-0.08666063084304332,0.0021431860411539674,0.004112618384021334
1746576099979523600,7.981523681640625,-0.07498772870600223,0.006046522755781188,-0.004254835299728438
1746576099989539600,7.99153955078125,-0.09040157093703746,-0.0033349165763705965,-0.004940004552295431
1746576099999555600,8.0015556640625,-0.10012859970331191,-0.0028999774915166197,0.0002629343856591731
1746576100009570600,8.011570556640624,-0.08217267177402973,-0.002855836955690756,0.01017043885195162
1746576100019586600,8.021586669921875,-0.08247194698154926,0.00011735190250910817,0.013622058876859954
1746576100029602800,8.031602783203125,-0.09563947159051894,-0.008178612014185637,0.0004400856174295768
1746576100039617800,8.04161767578125,-0.08755787194371223,-0.010646052440488711,0.007824062955472617
1746576100049633800,8.0516337890625,-0.08127543067336082,-0.0036583489776123314,0.018062411377904937
1746576100059648800,8.061648681640625,-0.08067629573643208,-0.006137178447609767,0.012354185232357122
1746576100069664800,8.071664794921874,-0.09279577259719371,-0.014789207526668905,-0.002053676560218446
1746576100079680800,8.0816806640625,-0.10057809703648089,-0.009814232125692069,0.0033005850485060364
1746576100089695700,8.09169580078125,-0.09863280818760395,0.0034991032952908425,0.004222887525195256
1746576100099711700,8.101711669921874,-0.09758534496128558,-0.0020242541029118,0.0052755109838210044
1746576100109727700,8.111727783203126,-0.08651216228306292,0.005042807339644059,-0.000137431142735295
1746576100119742700,8.12174267578125,-0.09130115012526512,-0.001280988854402676,0.002070792091800831
1746576100129758700,8.1317587890625,-0.08366904781162739,-0.002142373190401122,-0.0021083110905950886
1746576100139774500,8.1417744140625,-0.09219839122593403,0.002957214970933273,0.002078025550185703
1746576100149789700,8.151789794921875,-0.09519114330112934,-0.0011001067290082574,0.0046051465747412295
1746576100159805700,8.1618056640625,-0.08890753298699855,-0.000538417725637555,0.00662928651322145
1746576100169821700,8.17182177734375,-0.08621464064121245,0.00007770487871021032,0.005504543099878355
1746576100179836700,8.181836669921875,-0.09399638055860995,-0.004525149274244905,0.005738128093467094
1746576100189852700,8.191852783203124,-0.0944429552823305,0.0040445444167591625,0.0022278001512633636
1746576100199868700,8.20186865234375,-0.0924959128677845,-0.0021538535656407476,0.004746217279555276
1746576100209883600,8.211883544921875,-0.08635960206985473,-0.003025375703163445,0.011489129368239082
1746576100219899600,8.221899658203125,-0.0883037218749523,0.005207478115754202,0.009227650709659791
1746576100229915600,8.23191552734375,-0.08516191671788692,-0.0032834421174600717,0.006348894102685153
1746576100239930600,8.2419306640625,-0.08665887727737426,-0.0043356271846685555,0.006734139693761244
1746576100249946600,8.251946533203125,-0.09055003949701786,-0.0010663505898788571,0.007283092513144947
1746576100259961600,8.261961669921876,-0.09863105462193489,0.0003878028743434697,0.0053100251747760915
1746576100269977600,8.2719775390625,-0.08501403267979621,-0.01205486892564222,0.006640095601603388
1746576100279993900,8.281993896484375,-0.07872808427810668,-0.00804122197064571,0.005361974557721987
1746576100290008800,8.2920087890625,-0.09518763616979121,-0.009882548121549189,0.006200375310354866
1746576100300024800,8.30202490234375,-0.08396715397536754,-0.0068097256806213405,0.007374081565113738
1746576100310040800,8.312040771484375,-0.08172375896275043,-0.0011519647804088889,0.010537851958815007
1746576100320055800,8.322055908203126,-0.09369476726353168,-0.006669075100915506,0.001514669746113941
1746576100330071800,8.33207177734375,-0.08726035030186176,-0.00517540247705765,0.008606518570054322
1746576100340088000,8.342088134765625,-0.08845569756627082,-0.0004772986555472016,0.014103038193681276
1746576100350103000,8.35210302734375,-0.0845657043904066,-0.0018807996447663753,0.005012617697357199
1746576100360119000,8.362119140625,-0.09638473699986934,-0.005307349160499871,0.008681424136902205
1746576100370135000,8.372135009765625,-0.08995032003819942,-0.0022688765137456354,0.0020488542546285315
1746576100380150000,8.38214990234375,-0.08351531855463981,0.0064221511351410295,0.006145329788024537
1746576100390166300,8.392166259765625,-0.0877069250255823,-0.009269530789740382,0.008191850521671585
1746576100400182300,8.402182373046875,-0.08187105847895144,0.0038619361251592634,0.0028811083942651746
1746576100410197200,8.412197265625,-0.08636018659174442,-0.0023482344934251157,0.00846308237821795
1746576100420213200,8.422213134765625,-0.08890402585566043,-0.00993721005138941,-0.001861588054220192
1746576100430229200,8.432229248046875,-0.09189560888707637,-0.00745375920520164,-0.00003625862346962094
1746576100440244200,8.442244140625,-0.08755611837804317,-0.008477914621168746,0.006870634688157588
1746576100450260200,8.45226025390625,-0.09144669607579707,0.00017047032923437654,0.008670226889452896
1746576100460275200,8.462275146484375,-0.09204583101272583,-0.00618337394320406,0.012570545096509157
1746576100470291200,8.472291259765624,-0.08007482271194458,-0.008476234120735898,-0.0016230209248373284
1746576100480307200,8.48230712890625,-0.08366729424595833,-0.0018884714945685117,0.0012820346005959435
1746576100490322200,8.492322265625,-0.08666004632115364,0.0064111274176277214,0.011531301709264516
1746576100500338200,8.502338134765624,-0.09159867176711559,-0.007566672394610941,0.006318375666835345
1746576100510354200,8.512354248046876,-0.0910007058739662,-0.001968815854936838,0.005580585744464769
1746576100520369200,8.522369140625,-0.0971364321500063,-0.005987823971640318,0.00980848280491773
1746576100530385200,8.53238525390625,-0.09653729721307754,-0.005479673520103097,0.009720548793138004
1746576100540401200,8.542401123046876,-0.09204875362217425,-0.004193049509357661,0.006537598774931393
1746576100550416100,8.552416015625,-0.09025427142083645,0.0010205660862382501,0.006598425584076903
1746576100560432000,8.56243212890625,-0.09967910237014294,-0.001723481058049947,0.010947894064430147
1746576100570448100,8.5724482421875,-0.0911497589558363,0.006433211385272443,0.006541658462118357
1746576100580463000,8.582463134765625,-0.08561316761672497,-0.00028064357228577136,-0.0019734600640134883
1746576100590479000,8.59247900390625,-0.08905483250319957,-0.002161963806860149,0.0029551234785467383
1746576100600495000,8.6024951171875,-0.08950374531447887,-0.012154739970387891,0.0013975142064271493
1746576100610510000,8.612510009765625,-0.08366612520217895,-0.004974345213314518,-0.00002644504893105477
1746576100620526000,8.622526123046875,-0.09817805015742778,-0.011205631685163826,0.009047170443064533
1746576100630542300,8.632542236328124,-0.0972796400129795,-0.008193161129346116,0.00331909338615369
1746576100640557300,8.642557373046875,-0.08620762637853623,-0.0010916585610713809,-0.004409651402104646
1746576100650573300,8.6525732421875,-0.08381693184971808,-0.0016287063135299832,0.01025201162160374
1746576100660589300,8.66258935546875,-0.09953063381016254,0.007062988055637106,0.007433953959611244
1746576100670604300,8.672604248046875,-0.09040273998081684,-0.0014317133035510778,0.004710543177975341
1746576100680620300,8.682620361328125,-0.08770926311314106,-0.005075403568148612,0.0036670300409896296
1746576100690635300,8.69263525390625,-0.08202186512649058,-0.0016672025598585606,-0.004851805679034441
1746576100700651300,8.7026513671875,-0.09833177941441536,0.004943959208205342,0.008994558906415477
1746576100710667000,8.7126669921875,-0.09279518807530403,0.0006398505398072302,0.0042739007598022
1746576100720682200,8.72268212890625,-0.08770809406936168,-0.0021233396963682024,0.0017736038100905716
1746576100730698000,8.732697998046875,-0.09668576577305793,-0.011043353795539588,0.0102454814161174
1746576100740714000,8.7427138671875,-0.09444003267288208,-0.004470012420369312,0.011486836946452967
1746576100750729000,8.75272900390625,-0.08621054898798465,-0.0031750315732322633,0.0043991802404401825
1746576100760745200,8.7627451171875,-0.09324410088658332,-0.0015698979315347968,-0.0008759014851180836
1746576100770761200,8.77276123046875,-0.08172142087519169,-0.0009500033343676478,0.010137897422374226
1746576100780776200,8.782776123046874,-0.09294365663528442,0.0006528287523891776,0.010040268567064777
1746576100790792200,8.792792236328125,-0.08980126695632934,-0.003971086454903706,0.005702138898056
1746576100800808200,8.80280810546875,-0.09099719874262809,-0.001859309332165867,0.007596455611521378
1746576100810823200,8.8128232421875,-0.08605681973099708,0.0028040245700627566,-0.0011427996598416938
1746576100820839200,8.822839111328125,-0.08860124351680278,0.00017127404683269559,-0.0011218527699355036
1746576100830855200,8.832855224609375,-0.09997487044632435,-0.0033836510889232157,0.0004121609974652529
1746576100840870100,8.8428701171875,-0.08471241938471794,-0.004404226308315992,0.0049036500307032835
1746576100850886100,8.85288623046875,-0.10311784464716911,-0.0034207134299911557,0.005418079525977373
1746576100860902100,8.862902099609375,-0.09129530490636825,-0.005966141862794756,0.01031263293477241
1746576100870917000,8.872917236328124,-0.08605565068721771,-0.005031600959040225,0.0002858768698293716
1746576100880933400,8.882933349609376,-0.09398527464270591,-0.004282390026934445,-0.0023273698019096625
1746576100890949400,8.892949462890625,-0.09952186598181724,-0.0012522924828808754,0.0019956216634716838
1746576100900964400,8.90296435546875,-0.08560790691971779,-0.0004349482180085033,0.004658328933548182
1746576100910980400,8.91298046875,-0.08710545200109482,-0.0038062695483211425,0.009667585630039685
1746576100920995300,8.922995361328125,-0.09204349292516707,-0.00880035150856711,0.01434587507280521
1746576100931011000,8.933010986328124,-0.08351414951086043,-0.003607532105827704,0.009030899728275836
1746576100941027000,8.943027099609376,-0.09144435798823833,0.005131682066339999,0.008342483639274723
1746576100951042000,8.9530419921875,-0.10146949291825294,-0.003505560435540974,0.009720530526828952
1746576100961058000,8.96305810546875,-0.08830196830928325,-0.0035549799346830694,0.0009817638792330398
1746576100971074000,8.973073974609376,-0.07348843005895614,-0.006718795994156971,0.002706573811266571
1746576100981089000,8.983089111328125,-0.0884527749568224,-0.000019828078476712105,0.009544909098441712
1746576100991105000,8.99310498046875,-0.09533552020788193,-0.0011309402586892248,-0.005423687282856553
1746576101001121300,9.003121337890626,-0.08575754452347754,-0.002928527732565999,0.003499482321203686
1746576101011136000,9.013135986328125,-0.08635726398229598,0.0033974604185670614,0.0018596563920378684
1746576101021152300,9.02315234375,-0.08186930491328238,0.003626821328187361,0.00450751771943178
1746576101031168300,9.033168212890626,-0.08052022839188576,-0.0024433471646625547,0.00824092296094168
1746576101041183200,9.043183349609375,-0.10057166729569435,-0.012007230391632765,-0.0005889012372819706
1746576101051199200,9.05319921875,-0.0977285528242588,-0.0022305446641985326,0.004337504047923721
1746576101061215200,9.06321533203125,-0.08096855668127537,-0.0011628058348316698,0.006445586809655651
1746576101071230200,9.073230224609375,-0.09159224202632904,-0.0017365323358681053,0.02191040117610246
1746576101081246200,9.08324609375,-0.09877484700679778,-0.0010990838157013058,0.005526439837855286
1746576101091262200,9.09326220703125,-0.09578209493160247,-0.007278968893876299,0.0006640259998384863
1746576101101277200,9.103277099609375,-0.09054536332190036,-0.00269650907497853,-0.0015955529625993222
1746576101111293200,9.113293212890625,-0.07887363022863865,0.005204281511669978,0.0018641179380239918
1746576101121309200,9.12330908203125,-0.0956324573278427,0.006562116728257387,0.0023740265218075364
1746576101131324200,9.13332421875,-0.09518354451656341,0.00432840285943821,0.007745147933787666
1746576101141340200,9.143340087890625,-0.08590659760534763,0.002077071135537699,0.015466042775730602
1746576101151355400,9.15335546875,-0.0936895065665245,-0.007315264049964025,0.008773687263927422
1746576101161371100,9.16337109375,-0.0859083511710167,-0.01201911262567155,-0.004533606575336307
1746576101171387100,9.17338720703125,-0.08575871356725692,-0.014525241094548254,-0.0009193753006635233
1746576101181402000,9.183402099609374,-0.09234159908890724,-0.005204473307915031,0.01127682919127401
1746576101191418000,9.193418212890625,-0.07917407447993755,-0.006766498460248112,0.013020202259882353
1746576101201434000,9.20343408203125,-0.08231704868078231,-0.010614177731191738,0.002284950865712017
1746576101211449000,9.213448974609374,-0.0981774656355381,-0.009936241937009618,-0.0020495072751771657
1746576101221465000,9.223465087890625,-0.09323884018957615,0.001431722436705604,-0.0018134563298663124
1746576101231481000,9.233481201171875,-0.09338906231522559,0.0008182849797885865,0.009786508435127324
1746576101241496000,9.24349609375,-0.08545826931595801,0.00438224280537106,0.005301910366979428
1746576101251512000,9.253511962890625,-0.0878513019323349,0.01037024030694738,0.011474639618583023
1746576101261528300,9.2635283203125,-0.09323825566768645,0.011398396044597029,0.0028455393239622934
1746576101271543300,9.273543212890624,-0.08755261124670505,-0.007615123779373243,-0.0058980496292235325
1746576101281559300,9.283559326171876,-0.09009586598873139,-0.007470792538393289,-0.009303227563365362
1746576101291575300,9.2935751953125,-0.08874971207678317,0.0006549202447757124,0.007250482584908604
1746576101301590300,9.30359033203125,-0.0942863034158945,0.002570069683715701,-0.0001069401063490659
1746576101311606300,9.313606201171876,-0.07947218064367771,0.0037438992360606786,0.008174369663908146
1746576101321622000,9.3236220703125,-0.08620587281286717,-0.015000987113825977,0.0012264045563759281
1746576101331637200,9.33363720703125,-0.09982347927689551,-0.022213941566785796,-0.007216826910478994
1746576101341652500,9.343652587890626,-0.08560966048538685,-0.010368258412415161,0.006306927257636562
1746576101351668500,9.35366845703125,-0.09099602969884872,-0.00765962964138016,0.014566253524948843
1746576101361683500,9.363683349609374,-0.09967559523880481,-0.007167517009191215,0.018093363638594744
1746576101371699500,9.373699462890626,-0.09099602969884872,-0.003548495394969359,0.00028385844267904756
1746576101381715200,9.383715087890625,-0.08949906913936137,0.0067818969587795435,-0.003074662771564908
1746576101391730400,9.39373046875,-0.08545885383784771,0.0014928689062595367,-0.004351244878908619
1746576101401746200,9.40374609375,-0.09413725033402442,0.004703912507789209,0.0007067463301355019
1746576101411761400,9.413761474609375,-0.08845102139115334,0.0068469706847798075,0.004450088443770073
1746576101421777200,9.423777099609374,-0.09294131854772567,0.010897031526872887,-0.002465513330698013
1746576101431793400,9.43379345703125,-0.09039806380569934,0.013345831184787675,0.0019047787419753147
1746576101441808100,9.44380810546875,-0.08441139061152934,0.001648351728916168,0.0008162711192155256
1746576101451824400,9.453824462890625,-0.08411153088212013,-0.0057344519987702364,0.00604133512401022
1746576101461840400,9.46384033203125,-0.13947861331701278,-0.007914198057493195,0.010886076308018527
1746576101471855400,9.47385546875,-0.08800327762365341,-0.009533049697289242,0.012203109156759455
1746576101481871400,9.483871337890625,-0.07124386600255966,-0.00911107055870816,0.003437107442365959
1746576101491887400,9.493887451171876,-0.10521218657791614,-0.010893433063989504,0.0038197272515157234
1746576101501902300,9.50390234375,-0.08246610176265239,-0.00781644590459764,0.016548020193004047
1746576101511918300,9.51391845703125,-0.06555880610346794,-0.004329553636908531,0.008389939510193654
1746576101521934300,9.523934326171876,-0.09099778326451778,0.006272129938891157,0.00071097041410394
1746576101531949300,9.53394921875,-0.08935118510127067,0.0033907292836811392,0.002601131542259827
1746576101541965300,9.54396533203125,-0.07124503504633903,-0.000905570537596941,0.002090355308796279
1746576101551981600,9.553981689453124,-0.08875263468623161,0.0027398367600515484,-0.0012836648686788976
1746576101561996300,9.563996337890625,-0.08381400924026966,-0.0012178239576984195,-0.0008546532011125236
1746576101572012500,9.574012451171875,-0.09219429957270622,0.0020258615381084383,0.00602852587478701
1746576101582028300,9.5840283203125,-0.08935118510127067,0.00654252611179836,0.008401890242891386
1746576101592043500,9.59404345703125,-0.08770458693802356,-0.004304181733634322,0.0019464898586971683
1746576101602059300,9.604059326171875,-0.09024784168004989,-0.00567874888931401,-0.0012633527330122888
1746576101612075300,9.6140751953125,-0.08755378029048443,-0.011773421635758131,0.006403040009294636
1746576101622090200,9.62409033203125,-0.08710486747920512,-0.0045137602305505425,0.022744628077116795
1746576101632106200,9.634106201171875,-0.09189385532140731,-0.012586400252766906,0.016833974694646894
1746576101642122200,9.644122314453124,-0.09009878859817981,-0.006366137498430908,-0.0010986819569021463
1746576101652137200,9.65413720703125,-0.08935235414505005,0.004914440852776169,0.004160823173611425
1746576101662153200,9.6641533203125,-0.09967851784825324,0.003875690655875951,0.0018755983132636173
1746576101672168200,9.674168212890624,-0.08875555729568003,-0.0005412216040771454,-0.002287444216897711
1746576101682184200,9.68418408203125,-0.08636194015741348,-0.0011606047445908189,-0.013873663584329187
1746576101692200400,9.694200439453125,-0.09189970054030418,-0.006913268253486603,-0.007037520254240371
1746576101702215400,9.70421533203125,-0.0883083980500698,0.004477419408690184,0.008005200809193775
1746576101712231400,9.7142314453125,-0.08352057925164699,-0.0018961068117525428,0.01150573344316799
1746576101722247400,9.724247314453125,-0.08905658606886863,0.001117459722608328,0.007473372654546983
1746576101732262400,9.734262451171874,-0.09608896892368793,-0.0034517387559171763,0.0015272141338558867
1746576101742278400,9.7442783203125,-0.08531447693109512,-0.008544586649211124,0.011618454836332238
1746576101752294400,9.75429443359375,-0.07798164982497692,-0.004933921871380881,0.019008793416502884
1746576101762309400,9.764309326171874,-0.0769324330329895,-0.007558525620773434,0.01615140839111991
1746576101772325400,9.774325439453126,-0.10641104097366333,-0.0014414127136580645,0.012914253100799395
1746576101782341000,9.784341064453125,-0.08935176962316035,-0.0109197365490254,0.0019520519498037172
1746576101792356400,9.7943564453125,-0.08396364684402942,-0.005100912468740716,-0.0010374304560711606
1746576101802372400,9.804372314453126,-0.1055102927416563,-0.0065049249146133655,-0.0033761938682524487
1746576101812388400,9.814388427734375,-0.09249299025833606,0.00025552739733830096,0.009046846216078847
1746576101822403300,9.8244033203125,-0.0794727651655674,0.007226398456422612,0.0016549412999069318
1746576101832419300,9.83441943359375,-0.09787877494990825,-0.0011539284086320549,-0.00005979019610676914
1746576101842435300,9.844435302734375,-0.08590893569290638,-0.005269930626405402,0.0024194548324216157
1746576101852450300,9.8544501953125,-0.08486264151036739,0.009012240693578496,0.0010433989725541323
1746576101862466300,9.86446630859375,-0.09294365663528442,0.003666961542330682,0.009845029122754931
1746576101872482300,9.874482421875,-0.0935410380065441,-0.0037473241690080612,0.019457628595968706
1746576101882497300,9.884497314453125,-0.08651040871739386,-0.00834180321926251,-0.001649927198071964
1746576101892513300,9.89451318359375,-0.09399287342727183,-0.00506995107489638,-0.003779778833617456
1746576101902529300,9.904529296875,-0.09743687640130519,0.004251903557125479,0.005566634850925766
1746576101912544300,9.914544189453125,-0.08486790220737457,-0.0009521861582994461,0.0023428459322545675
1746576101922560500,9.924560546875,-0.09938274977207183,-0.008734821124840527,-0.008715120910527185
1746576101932576500,9.934576416015625,-0.09175181650221348,-0.007083601585403085,0.0028386574920266864
1746576101942591500,9.944591552734375,-0.08516951550245284,0.006196817946666851,0.006746222857199609
1746576101952607500,9.954607421875,-0.08157821301221847,0.0005537066263146698,0.00036043081022799013
1746576101962622500,9.96462255859375,-0.08980828121900558,-0.0008154811013489961,-0.003388646924449131
1746576101972638500,9.974638427734375,-0.09534487255811691,-0.001947955729998648,0.0007136235954938456
1746576101982654200,9.984654296875,-0.08621697872877121,-0.0014431936787907033,-0.00156185162239708
1746576101992669400,9.99466943359375,-0.07948504012525082,0.004391668220842257,0.0025798101930180565
1746576102002685200,10.004685302734375,-0.10193184973299503,-0.007553155325911939,0.0015649157957406713
1746576102012701200,10.014701171875,-0.08472352530062198,-0.00008025302882306277,0.00496953204087913
1746576102022716200,10.024716064453125,-0.08038403479158877,0.00024351729913614688,0.009174436384811998
1746576102032732200,10.034732177734375,-0.09325228419303894,0.0046298334914259606,0.002402754859370179
1746576102042748400,10.04474853515625,-0.08996084143221378,-0.00585612388337031,-0.0016949993156595154
1746576102052763100,10.05476318359375,-0.09639701195955276,-0.0006005140432622283,0.002718812238331884
1746576102062779400,10.064779296875,-0.09804536368846893,0.002272484109783545,0.0031917954783653836
1746576102072795400,10.07479541015625,-0.08727379430532455,0.004342842376744374,0.0011499874524539336
1746576102082810400,10.084810302734375,-0.0794938079535961,-0.001496604366460815,0.00007521609410177916
1746576102092826400,10.094826416015625,-0.09101590344309807,-0.004241911886073649,-0.00289657082487829
1746576102102842400,10.10484228515625,-0.0977501801341772,0.002151177551364526,-0.0036269035265780983
1746576102112857300,10.114857421875,-0.09266191708445548,0.004240149187250062,0.004638478022185154
1746576102122873300,10.124873291015625,-0.08173954105377197,0.0003879033390432596,0.003726646707160398
1746576102132889300,10.134889404296874,-0.09056874419748782,-0.005144340618513524,0.004072304639942012
1746576102142904300,10.144904296875,-0.09850012171864508,-0.009546475434442982,0.002829250342864543
1746576102152920300,10.15492041015625,-0.08952303453683852,-0.007144629323948174,0.002212853743880987
1746576102162936600,10.1649365234375,-0.08832651822865009,-0.0031910785257350653,0.001183382831979543
1746576102172951300,10.174951416015626,-0.0920686273664236,-0.0023048794088885187,0.011110263285599649
1746576102182967600,10.184967529296875,-0.08832827179431915,-0.0011591708393301815,0.005402512064087204
1746576102192983300,10.1949833984375,-0.09296528394520283,0.002199802466062829,-0.013040441330312751
1746576102202998300,10.204998291015626,-0.09311492154896259,-0.005819728262582794,-0.005948642738722264
1746576102213014300,10.21501416015625,-0.085633625882864,-0.006667138872155919,-0.0009583099384093657
1746576102223030300,10.2250302734375,-0.09072305797636508,0.002719561157003045,0.001560792176472023
1746576102233045200,10.235045166015626,-0.09072364249825476,0.006995731505705044,0.014130994779686443
1746576102243061200,10.245061279296875,-0.09147241503894328,-0.004020049296319484,-0.00019800679013133048
1746576102253076200,10.255076171875,-0.09087444914579391,-0.008917118889186532,0.006711439238185994
1746576102263092200,10.26509228515625,-0.07231880175769329,-0.0028902689482551065,0.005383332439581863
1746576102273108200,10.275108154296875,-0.08264321189522743,-0.003973634605016559,0.007136907241796143
1746576102283123200,10.285123291015625,-0.08653378959298133,-0.006595288345497101,0.008685547756170853
1746576102293139200,10.29513916015625,-0.08937748858630656,-0.004317753601260483,0.009527752467663958
1746576102303155500,10.305155517578125,-0.10044950222074985,-0.01196742810420692,0.008186133166938088
1746576102313170400,10.31517041015625,-0.09147124599516392,-0.00963071965179406,-0.0002961471020942554
1746576102323186400,10.3251865234375,-0.08742986164987086,-0.005521622098842636,0.0023341192031046372
1746576102333202400,10.335202392578125,-0.09042202920317649,-0.002935541995242238,0.011922415352123789
1746576102343218200,10.34521826171875,-0.08398761224150657,-0.004464952652761712,0.009861185673112048
1746576102353234200,10.355234130859374,-0.0872802240461111,-0.0029256781883537767,0.006769539800705388
1746576102363250000,10.36525,-0.08234101407825946,-0.004393567916983738,-0.008574351599812508
1746576102373265200,10.37526513671875,-0.09386252504587173,-0.00044804516159929335,0.004964248510985635
1746576102383281000,10.385281005859374,-0.0899725318700075,-0.005062452755030244,0.01008663759259507
1746576102393297000,10.395296875,-0.09042086015939713,-0.004076072066184133,0.01230960173853673
1746576102403311900,10.405311767578125,-0.08503390642404555,0.0013030819552019238,-0.0012071609997889026
1746576102413328000,10.415327880859374,-0.09431143785715103,-0.0010457918590400367,-0.0015721583872800693
1746576102423344000,10.42534423828125,-0.08503273738026619,-0.0064931705447379496,0.004241966685000807
1746576102433359000,10.435359130859375,-0.08472878599762916,-0.007088725285092369,0.005231329348799772
1746576102443375000,10.445375,-0.08787117567658424,-0.008546376747498289,0.0071242943553952495
1746576102453391000,10.45539111328125,-0.09849661458730698,0.005696293679159134,0.009030589201021939
1746576102463406000,10.465406005859375,-0.09191489810943602,-0.0022774890784639863,0.002082820456312038
1746576102473422000,10.475422119140624,-0.08084229995310306,-0.004301670116139576,0.0073271188845392314
1746576102483438000,10.48543798828125,-0.0980512089073658,-0.002818153560115024,0.0024988676110282537
1746576102493453000,10.495453125,-0.08428396483957767,0.0013544194167945532,-0.0018932207349222152
1746576102503469000,10.505468994140625,-0.10972177295684814,0.0008959167932625859,0.007948620916903019
1746576102513485000,10.515485107421876,-0.09370938031077385,-0.0033448351821862158,0.0016506669835885987
1746576102523500000,10.5255,-0.07530395504832267,-0.00014110723743215203,-0.003011744470032863
1746576102533516000,10.53551611328125,-0.08667407484650612,0.0008153167045675218,-0.001761319717252627
1746576102543532000,10.545531982421876,-0.0959510217577219,0.007028181603737175,0.0071878839437849815
1746576102553547300,10.55554736328125,-0.08876900129914284,0.003649151891004294,-0.00009730919490102678
1746576102563563000,10.56556298828125,-0.09894494287669658,-0.009132816599635407,-0.0008625122805824502
1746576102573579000,10.5755791015625,-0.09385784887075424,-0.005012311736680567,0.0028510009503690524
1746576102583594000,10.585593994140625,-0.07844459116160869,0.004245857408829033,0.014911797293298877
1746576102593610000,10.59560986328125,-0.08697335005402565,-0.005543660400714725,0.0077425769507884976
1746576102603625000,10.605625,-0.09235913474559783,-0.008728747577080503,-0.0030604378833901137
1746576102613641000,10.615640869140625,-0.09041443041861057,-0.000051903717173263424,-0.00023198669154662638
1746576102623657000,10.625656982421875,-0.09370645770132541,-0.00019565043626353144,0.000024819347425363957
1746576102633672000,10.635671875,-0.09475450544953345,0.0022324900261126456,0.0003551975126843899
1746576102643688000,10.64568798828125,-0.0898158800035715,-0.00019000614676624537,0.008118894883315079
1746576102653704000,10.655703857421875,-0.07530103243887425,0.004356140249734744,0.0007253642656374722
1746576102663719000,10.665718994140626,-0.07949146986603736,-0.003614573767967522,-0.0015341781641822307
1746576102673735200,10.675735107421875,-0.08921732958853244,0.004704515295987949,0.004860879468056373
1746576102683751200,10.685751220703125,-0.09565291559398174,0.008500784040102734,0.0006602951062144711
1746576102693766100,10.69576611328125,-0.08607552443146706,0.00039946591267362233,0.0010235845938092096
1746576102703782100,10.7057822265625,-0.09385726434886454,-0.008343447187077253,0.0016609372158534824
1746576102713798100,10.715798095703125,-0.08338146304190158,-0.004606452615838498,0.0013173890417674556
1746576102723813000,10.725813232421874,-0.09415595503449439,-0.007715277951909229,0.004804756233491934
1746576102733829000,10.7358291015625,-0.09714987615346908,-0.002454270417476073,0.008105811639456078
1746576102743844900,10.745844970703125,-0.0830845259219408,0.0002880779600702226,-0.0008386519143823534
1746576102753860000,10.755860107421874,-0.08682605053782462,-0.008603550294833257,0.004837014535279013
1746576102763875800,10.765875732421875,-0.09356032722890377,-0.020351883155107497,0.0023409051369177175
1746576102773891800,10.775891845703125,-0.09490706566274165,-0.004501914529129862,0.00696381113063544
1746576102783906800,10.78590673828125,-0.09041676850616931,-0.002891346660489216,0.009215320951049216
1746576102793923000,10.795923095703126,-0.09056640610992908,-0.0035820049389265474,-0.002072454325924627
1746576102803939000,10.80593896484375,-0.09101531892120837,-0.0001462492034304887,0.0017010134979151188
1746576102813954000,10.8159541015625,-0.08024141145050526,0.0032966303925961254,-0.006232213487033732
1746576102823970000,10.825969970703126,-0.09685060094594955,0.002797932755993679,-0.00045718744928017254
1746576102833986000,10.835986083984375,-0.08054010213613509,0.005748288727877662,0.0015704139547655358
1746576102844001000,10.8460009765625,-0.09909516500234604,0.005330812234478071,0.002885332478233613
1746576102854017000,10.85601708984375,-0.09056406802237034,0.001741135445749387,-0.0032389316888758912
1746576102864033000,10.866032958984375,-0.08083820829987526,-0.002385369899729267,0.003854008547030389
1746576102874048000,10.876048095703124,-0.08966741144359111,-0.00546949918596074,0.004615097146597691
1746576102884064000,10.88606396484375,-0.09610299744904041,-0.002498118692357093,0.007488200330920517
1746576102894080300,10.896080322265625,-0.08308627948760985,-0.005408078721771016,0.0028669428715948015
1746576102904095000,10.906094970703125,-0.08877192390859126,-0.003410082438122481,0.0018350425405893474
1746576102914111200,10.916111328125,-0.09789981773793696,-0.009636254343437031,0.004176541332551278
1746576102924127000,10.926126953125,-0.09341127414703368,-0.006808483571605756,-0.000855310788238421
1746576102934142200,10.93614208984375,-0.09535539395213126,0.000071950991358608,0.006016232648794539
1746576102944158000,10.946157958984376,-0.09236088831126689,0.008483494978584348,0.007961366234044543
1746576102954174000,10.956174072265625,-0.08383096037507057,-0.0027458281094208357,0.011774819008400663
1746576102964189000,10.96618896484375,-0.08921966767609119,-0.0009400299296248704,0.0057615683345589785
1746576102974205000,10.976204833984376,-0.08817220444977283,0.0028293964733369648,0.0015833008358022197
1746576102984220000,10.986219970703125,-0.09281038564443587,0.00857119152834639,-0.0003387030356097966
1746576102994236000,10.99623583984375,-0.08472995504140854,0.0029837559179868548,0.00688785981759429
1746576103004252000,11.006251953125,-0.08607669347524642,-0.007063837439008056,-0.008786569578386843
1746576103014267000,11.016266845703125,-0.08817045088410377,-0.005547267996752634,-0.007213438510149717
1746576103024283000,11.026282958984375,-0.08966565787792205,-0.010957493009837343,0.001288309077755548
1746576103034299100,11.036299072265624,-0.08038695740103721,-0.0028907895380631088,0.00671504226764664
1746576103044314000,11.046314208984375,-0.08652151463329792,-0.0024211079333908854,0.009583126783557236
1746576103054330000,11.056330078125,-0.10507774654328822,-0.004130624398170039,0.00939701592719648
1746576103064346000,11.06634619140625,-0.09939093307852745,-0.005665140489069745,0.008420562977320514
1746576103074361000,11.076361083984375,-0.08592354874014854,-0.011736094433208926,-0.0017863399940775705
1746576103084377000,11.086377197265625,-0.0839776753693819,0.002013897105678916,-0.00021443276854697614
1746576103094393000,11.09639306640625,-0.09115911130607128,0.0029660010655876245,0.0016672253927448764
1746576103104408000,11.106407958984375,-0.08352817803621292,0.009830617004912346,0.013773893004283309
1746576103114424000,11.116424072265625,-0.08711948052644729,0.004638939246488735,0.0008595166058978065
1746576103124440000,11.126440185546874,-0.09370470413565635,-0.0048071536865551025,-0.00783601368817035
1746576103134455000,11.136455078125,-0.09460136071443558,-0.010618059321865438,-0.005886619486333802
1746576103144471000,11.146470947265625,-0.09295476255118847,-0.005350402850937098,-0.0029963505380786954
1746576103154487000,11.156487060546874,-0.08966273526847363,-0.0054084897137247024,0.022489319875487124
1746576103164502000,11.166501953125,-0.09310206206738948,0.0035124103014357384,0.006646086950972676
1746576103174518000,11.17651806640625,-0.08846271182894706,-0.012191455251583829,0.001174943797197193
1746576103184534000,11.186533935546874,-0.07783902648389339,-0.012189628620678558,0.001416036243806593
1746576103194549000,11.196549072265626,-0.0926525647342205,-0.0073922291431576005,-0.0037841901472536843
1746576103204565000,11.20656494140625,-0.09160451698601245,0.002845251629594713,0.0026661322030238806
1746576103214581000,11.2165810546875,-0.08457154960930346,0.004057239501550794,0.004787818798422813
1746576103224596000,11.226595947265626,-0.09444704693555832,0.010666775568109006,0.00046116950465366243
1746576103234612000,11.236612060546875,-0.08980886574089526,0.012580463702324777,0.0019147658464498817
1746576103244628000,11.2466279296875,-0.08756254811882973,-0.00541758633563295,-0.001120619794074446
1746576103254643000,11.256642822265626,-0.09384732747673988,-0.0035425862439908084,-0.0023821367630269376
1746576103264659000,11.266658935546875,-0.08531681501865386,0.008440276891365646,0.006552572581777349
1746576103274675200,11.27667529296875,-0.09638941317498684,0.010876162268780172,0.013045469131879508
1746576103284690200,11.286690185546876,-0.08741174147129058,0.0029024891090113666,0.002574321167147718
1746576103294706200,11.2967060546875,-0.09234919787347316,0.0018567155162803827,-0.001859542227606289
1746576103304722200,11.30672216796875,-0.08666530701816082,0.0028820582423359155,0.002813075526198372
1746576103314737200,11.316737060546876,-0.08606792564690112,-0.0036438546613790095,0.009461075873044318
1746576103324753200,11.326753173828125,-0.0939987186461687,-0.005278479259042069,0.009623627757304347
1746576103334768000,11.33676806640625,-0.10252806206047535,-0.0014448102471418679,0.008297717482363805
1746576103344783400,11.346783447265626,-0.08861001134514808,-0.0011814648695290088,0.0006106746776727959
1746576103354799400,11.35679931640625,-0.09309738589227198,-0.0025170791211538016,-0.008351635060110128
1746576103364815400,11.3668154296875,-0.09339724562168121,-0.003356863546697423,-0.006397464218456298
1746576103374830300,11.376830322265626,-0.08262392267286776,0.0022065792667213826,0.0033987162273144346
1746576103384846300,11.386846435546875,-0.08711538887321948,-0.0026332802461925893,0.011856355245434679
1746576103394861300,11.396861328125,-0.09340016823112963,0.002148958194814622,0.0022577660312643275
1746576103404877300,11.406877197265626,-0.08427227440178393,-0.006058194927265868,-0.0011842002493096515
1746576103414893300,11.416893310546875,-0.07903612731397151,-0.004168545255763456,0.002186353896022774
1746576103424908300,11.426908203125,-0.08861234943270682,0.00455320632494986,0.00624041962637566
1746576103434924300,11.43692431640625,-0.11105506738722323,-0.006506998140690848,0.011025183384609408
1746576103444940300,11.446940185546875,-0.08726210386753082,-0.004812989772297441,0.005833172266045585
1746576103454955300,11.456955322265625,-0.072897478428483,-0.005132220922457054,0.005225141636608168
1746576103464971300,11.46697119140625,-0.09654021982252597,0.001362639255868271,0.0027015094770817083
1746576103474987300,11.4769873046875,-0.0851671774148941,-0.001279016093024984,0.005269094942766241
1746576103485002200,11.487002197265625,-0.08636252467930317,0.0021389299911446866,0.007652519480581395
1746576103495018200,11.497018310546874,-0.10327040486037731,0.003608774214843288,0.006473086737934499
1746576103505034200,11.5070341796875,-0.08636194015741348,0.0022256036275997756,-0.0010124786779051645
1746576103515049200,11.51704931640625,-0.08441548226475715,-0.0007523070714902132,-0.005979503667866811
1746576103525065200,11.527065185546874,-0.09877893866002559,-0.000039062501909211275,0.001715197286894545
1746576103535081500,11.53708154296875,-0.08979951339066028,0.0013568123032804578,-0.0011909998828545211
1746576103545096400,11.547096435546875,-0.07887596831619739,0.006691898854076862,0.0012259615983814
1746576103555112400,11.557112548828124,-0.0814203921020031,-0.004141629849374294,0.0046659277181141075
1746576103565128400,11.56712841796875,-0.09189502436518669,-0.00012166275144554674,0.001288309077755548
1746576103575143400,11.577143310546875,-0.08276713053584098,-0.0019053586972877382,0.004536711847875267
1746576103585159400,11.587159423828124,-0.09159574915766716,-0.0007465257846750318,-0.0011010976762743667
1746576103595175200,11.597175048828126,-0.09593523966670035,0.0028247020319104193,0.010430217732721939
1746576103605190400,11.6071904296875,-0.08860124351680278,-0.0037944147137459363,-0.006965322667709551
1746576103615206100,11.6172060546875,-0.08336451190710067,-0.005272232181346044,0.002970092718815431
1746576103625222100,11.62722216796875,-0.09398995081782341,0.013215354939224197,0.003184415889508091
1746576103635237000,11.637237060546875,-0.09893208339512348,0.0062758288664743304,0.007130148707446641
1746576103645253000,11.647253173828124,-0.08591419638991356,-0.003995380645943805,0.005516507532307878
1746576103655269400,11.657269287109376,-0.08426759822666645,-0.0010183832623064518,-0.0005472494860645383
1746576103665284400,11.667284423828125,-0.08950549888014793,-0.0011877758793067187,-0.00230513970379252
1746576103675300400,11.67730029296875,-0.08277297575473785,0.007864723759423941,0.007506580804404802
1746576103685316400,11.68731640625,-0.07918167326450347,0.0014176208461169153,0.004544000105187297
1746576103695331300,11.697331298828125,-0.10147709170281886,0.0028710071253590284,-0.004666818200680427
1746576103705347300,11.707347412109375,-0.10147709170281886,0.0015533669218420981,0.0030889287589350714
1746576103715363300,11.71736328125,-0.09728899236321449,-0.002745334919076413,0.006584753251750953
1746576103725378300,11.72737841796875,-0.08352291733920574,-0.00834365724963136,0.003294214673223905
1746576103735394300,11.737394287109375,-0.09025719403028487,-0.002271735191112384,0.003139594933670014
1746576103745410300,11.747410400390624,-0.09833704011142254,-0.0009521313593722879,0.005300581492995843
1746576103755425300,11.75742529296875,-0.09504501282870768,-0.0013522183265537023,0.004316082233982161
1746576103765441300,11.767441162109375,-0.08741232599318027,-0.0006152914872858673,0.0055501632067374886
1746576103775457300,11.777457275390624,-0.08397066110670566,-0.004518966128630563,-0.0036995349379489195
1746576103785472500,11.787472412109375,-0.08621639420688151,0.0045396161910146475,0.00023823833581991492
1746576103795488300,11.79748828125,-0.09983458519279956,0.010419687205553054,-0.005507018184754998
1746576103805504300,11.807504150390624,-0.08920973080396652,0.004339271313324571,-0.004563266494660638
1746576103815519200,11.817519287109375,-0.09250234260857104,-0.004108869224088266,-0.0008580872672144323
1746576103825535200,11.82753515625,-0.08217734794914722,0.00026188407288864254,0.006948330433713272
1746576103835550200,11.83755029296875,-0.0829231978803873,0.0021484924039337785,0.01069334848120343
1746576103845566200,11.847566162109375,-0.11898527586460113,-0.0027223011033609508,0.004099763469025492
1746576103855582200,11.857582275390625,-0.0769365246862173,-0.0035178171289153397,0.0035147666553035375
