time,seconds_elapsed,z,y,x
1746738970992078600,0.02307861328125,0.0924871450394392,0.01976736126542091,0.020651596754044294
1746738971002156500,0.033156494140625,0.03653554071485996,0.006490531063079834,0.004099288544990122
1746738971012235500,0.043235595703125,-0.0014227262794971466,0.017376082214713096,0.004507577084936201
1746738971022314500,0.053314453125,-0.0518096822142601,0.017352116817235946,0.01002655970212072
1746738971032393500,0.0633935546875,-0.08561316761672497,0.04168459404110908,0.02424319150522351
1746738971042472700,0.07347265625,-0.09333879343271255,0.04701718724071979,0.05187007063198834
1746738971052550700,0.083550537109375,-0.08497253162562847,0.0627414105951786,0.019403569454327224
1746738971062629400,0.09362939453125,-0.07482873875200748,0.0705406861692667,-0.0068407327402383086
1746738971072708600,0.10370849609375,-0.05213175377547741,0.05793079544305801,0.005776975966244936
1746738971082787600,0.11378759765625,-0.016666472640633583,0.03628828795552254,0.003705649584904313
1746738971092866600,0.123866455078125,-0.039136663123965264,0.016612696626782417,-0.009173669199831784
1746738971102944500,0.133944580078125,-0.04072247101068496,0.010956278300285338,-0.02020184369254857
1746738971113023500,0.1440234375,-0.008172200539708137,0.016916063487529755,-0.014459537180885672
1746738971123102700,0.154102783203125,0.04808920038640499,0.011075520765781402,0.01076652788184583
1746738971133181700,0.164181640625,0.05388941109776497,-0.013519991308450698,0.009672704763151704
1746738971143260400,0.174260498046875,0.08710954365432262,0.016729016482830046,0.03984218104481697
1746738971153338600,0.184338623046875,0.08965689004957675,-0.0016758242577314376,0.003999554497562349
1746738971163417600,0.19441748046875,0.09256839358210563,-0.005444821402430534,-0.01051302804481238
1746738971173496600,0.20449658203125,0.0658347004354,-0.004590250399708748,-0.0054845688909292215
1746738971183575600,0.214575439453125,0.06631050125360488,-0.01706511656939983,0.011681962226331234
1746738971193654500,0.224654541015625,0.028407763838768002,-0.00663490796983242,0.024232487448118626
1746738971203732500,0.234732421875,0.01951777041852474,0.0025379940450191494,0.033614136842824514
1746738971213811700,0.244811767578125,-0.001703296786546707,0.005093523746728897,0.03920841318592429
1746738971223890400,0.254890380859375,-0.032627427360415455,0.010438976427912711,0.021242183058336375
1746738971233969400,0.264969482421875,-0.05307458758354187,0.02351706918776035,0.017906499296985564
1746738971244048600,0.275048583984375,-0.031132220366597175,0.043374446824192996,0.00996620781701058
1746738971254126600,0.285126708984375,-0.05289981553852558,0.023351064971089363,-0.007237915364280343
1746738971264205600,0.29520556640625,-0.03379880922734737,0.02785246804356575,0.015887304961681364
1746738971274284500,0.305284423828125,0.0008428805649280548,0.030730069306492802,0.02954918895885348
1746738971284363500,0.315363525390625,0.06696984194517135,0.01431026490330696,0.00568060291968286
1746738971294442800,0.32544287109375,0.08735095119476317,0.02591711606681347,-0.005525120097026229
1746738971304520700,0.335520751953125,0.08942600390315056,0.017487141373753547,-0.0144833564478904
1746738971314599400,0.345599365234375,0.034389176335930825,0.02270925993621349,-0.012473514462821186
1746738971324678700,0.3556787109375,-0.018996961414813995,0.018887655821442605,0.006911094562709331
1746738971334757600,0.365757568359375,-0.049931028860807414,0.018891747474670408,0.03036711774561554
1746738971344836400,0.37583642578125,-0.032865327769517894,0.005106383228302001,0.030893187446333466
1746738971354915600,0.38591552734375,-0.009551672199368475,-0.014003390911221504,0.024371347929537296
1746738971364993500,0.39599365234375,0.041648353683948515,-0.010734744504094123,0.02270560667440295
1746738971375072500,0.406072509765625,0.0477010778516531,-0.024251813203096387,0.02496686613727361
1746738971385151700,0.41615185546875,0.05377835193872452,-0.007497662279009818,0.01331639502774924
1746738971395230500,0.42623046875,0.04242401423156261,-0.0009942717343568801,0.008707732188515364
1746738971405309400,0.436309326171875,0.03958148428201675,0.03586450958549976,0.01146590832285583
1746738971415387600,0.4463876953125,0.026151509344577786,0.05605448017716407,-0.010241079235635697
1746738971425466600,0.456466552734375,0.0168880064368248,0.051420975157618516,-0.018045286713168025
1746738971435545300,0.46654541015625,0.00395838223695755,0.05318973839581012,-0.03004226970542222
1746738971445624600,0.47662451171875,-0.03479191191792488,0.031157354807853695,-0.03173113610781729
1746738971455703600,0.48670361328125,-0.045613750183582304,0.038708208578824996,-0.012144720899872482
1746738971465781500,0.496781494140625,-0.06962590941190719,0.02528349433839321,-0.021134119573980568
1746738971475860500,0.506860595703125,-0.0830845259219408,0.025517303094267845,-0.006555412992835044
1746738971485939500,0.516939453125,-0.056195934474468225,0.033874212551116945,-0.00020323095452040433
1746738971496018400,0.527018310546875,-0.004102174621820449,0.03836626327335834,0.010492715909145772
1746738971506097400,0.537097412109375,0.036137481307983395,0.02144669265449047,0.010891432903148233
1746738971516175600,0.547175537109375,0.0827706376671791,-0.0019224924951791761,0.024940854913182556
1746738971526254300,0.55725439453125,0.05888590421080589,0.007709259203076363,0.01615337201934308
1746738971536333300,0.567333251953125,0.060685062587261196,-0.0009317278921604156,-0.0029819749528542158
1746738971546412500,0.57741259765625,0.0763788908034563,0.004442366361618042,0.01915741267353296
1746738971556491300,0.5874912109375,0.07109656648635863,0.0037830256700515743,0.0193338652189821
1746738971566569200,0.5975693359375,0.05850713402628898,-0.017843115204572678,0.025411541164852676
1746738971576648400,0.6076484375,0.04521802886426449,-0.016555998003482817,0.012120536306686698
1746738971586727400,0.6177275390625,0.012442132943868636,-0.007694646155834197,-0.02492083503846079
1746738971596806400,0.627806396484375,-0.002540332132577896,-0.012474866169691085,-0.047102344773523507
1746738971606885400,0.637885498046875,-0.018745617002248763,-0.002998597294092178,-0.036543139499425885
1746738971616963300,0.64796337890625,0.006966331881284714,0.014821721556782722,-0.018292101081088183
1746738971627042600,0.65804248046875,0.02892155857980251,0.01842939065992832,-0.0016972323719412086
1746738971637121500,0.66812158203125,-0.008085106778144837,0.01648351728916168,-0.0007111804766580462
1746738971647200300,0.6782001953125,0.010601473513245582,0.011431494596600532,-0.010386296392604709
1746738971657279500,0.688279541015625,-0.0240858089864254,0.023643325915932652,-0.022806217504665254
1746738971667357400,0.698357421875,-0.01795358984172344,0.026104163071513174,-0.016571195572614668
1746738971677436400,0.7084365234375,-0.011451368340849876,0.027864743003249166,-0.00006232464648783207
1746738971687515400,0.718515380859375,0.011740122154355048,0.028075170883536338,0.0207704738933593
1746738971697594400,0.728594482421875,0.03269172476828098,0.025421441504359245,0.029022790464572606
1746738971707673600,0.738673583984375,0.029206805261969563,0.026054478710889815,0.009189049432054161
1746738971717752600,0.748752685546875,-0.01028524717092514,0.026335633739829063,-0.0131561264321208
1746738971727830500,0.75883056640625,-0.03708148415982723,0.016553075394034385,0.007488565657101571
1746738971737909200,0.7689091796875,-0.05605448017716407,0.012014262920618057,0.039901108157821
1746738971747988500,0.778988525390625,-0.045205753904581064,0.009690203887224197,0.015735804194398222
1746738971758067500,0.7890673828125,-0.025513795962929724,0.007500584888458252,0.02851988244373351
1746738971768146400,0.799146484375,0.020372341421246526,0.021483517533540726,0.008098733444698154
1746738971778224400,0.809224365234375,0.03181026575863361,0.017844868770241735,0.013494710736721753
1746738971788303400,0.819303466796875,0.0489426023453474,0.0010182371318340302,-0.026230931256338953
1746738971798382600,0.829382568359375,0.05922141977548599,0.013499533042311667,-0.008932882713899016
1746738971808461300,0.83946142578125,0.0612426964700222,0.011367781710624695,-0.010261574034392833
1746738971818540300,0.849540283203125,0.05530746120214462,0.002806289592385292,-0.01496010711416602
1746738971828618500,0.859618408203125,0.04931961896419525,0.008429390171170234,0.010355243667215108
1746738971838697500,0.869697509765625,0.020602058523893355,0.002763619494438171,0.014925510724820196
1746738971848776400,0.8797763671875,-0.0007476034969091414,-0.036976854741573334,-0.01692055699955672
1746738971858855400,0.88985546875,-0.03474982634186744,-0.040514381217956544,-0.027259982043132184
1746738971868934400,0.899934326171875,0.03123042004406452,-0.00803834502696991,-0.011383600334264337
1746738971879012400,0.910012451171875,-0.050283495560288424,0.03517828088700771,0.027660306472331284
1746738971889091600,0.920091552734375,-0.04354337365031242,0.023768413600325583,0.02553684804495424
1746738971899170300,0.93017041015625,-0.07833587009012699,0.04863397478759288,0.01308645872939378
1746738971909249500,0.94024951171875,-0.04797755670547485,0.05366086303889751,0.02113737097699195
1746738971919328500,0.95032861328125,-0.02041618056297302,0.04331131846010685,0.010294709119014442
1746738971929406500,0.960406494140625,0.04879588735103607,0.029060674789547918,0.021501820375211537
1746738971939485400,0.9704853515625,0.08350947333574295,0.025169512569904327,0.014673070333711803
1746738971949564400,0.980564453125,0.08772562972605227,0.008961305090785026,-0.002714483123086393
1746738971959643400,0.990643310546875,0.08709551512897014,-0.0031102409750223157,0.006832147574983537
1746738971969722600,1.00072265625,0.07012742919325828,-0.002951251021027565,0.016355397397466002
1746738971979800600,1.010800537109375,0.06072013390064239,-0.009489712879061698,0.017653583981841803
1746738971989879300,1.02087939453125,0.040404491102695464,-0.007718027031421661,0.024324768841452894
1746738971999958500,1.03095849609375,0.05037935715019703,-0.01653320164978504,0.03271609202455729
1746738972010037500,1.04103759765625,0.062119479304552076,-0.01764379324018955,0.04333901018463075
1746738972020116200,1.0511162109375,0.03124386404752731,-0.020449498310685158,0.03757113084029406
1746738972030194400,1.0611943359375,0.033142391145229336,-0.01639817709326744,0.018048866909742355
1746738972040273400,1.0712734375,-0.000187047004699707,-0.0012397709280252457,0.001103540795110166
1746738972050352400,1.081352294921875,-0.012757190242409705,-0.0046188919723033905,-0.017629910845309495
1746738972060431400,1.091431396484375,-0.039458150163292884,0.026305823123455047,-0.009014679245837032
1746738972070510300,1.10151025390625,-0.024144261175394057,0.03358896586894989,-0.0016481325332075357
1746738972080588300,1.11158837890625,-0.0023100305080413818,0.028413024535775183,-0.008316504381224513
1746738972090667500,1.12166748046875,0.04597849184274673,0.035622517523169514,-0.011263700281642378
1746738972100746500,1.13174658203125,0.03706687111258507,0.03493570430278778,-0.028240554045699535
1746738972110825500,1.141825439453125,0.05067395618259907,0.04301496586203575,-0.004223791707493364
1746738972120904400,1.151904541015625,0.02773907079696655,0.04705401211977005,-0.013671272880025207
1746738972130982400,1.161982421875,-0.021999650362133978,0.036275428473949434,-0.009274608823657035
1746738972141061600,1.1720615234375,-0.04659808504581451,0.007193126374483108,-0.016158632716350256
1746738972151140400,1.182140380859375,-0.06365384926497936,-0.01918926911652088,-0.00030497429594397545
1746738972161219300,1.19221923828125,-0.042839024773240086,-0.01863338879942894,0.00540321075040847
1746738972171298600,1.202298583984375,0.00047930794954299924,-0.017328151419758797,0.008294292549416422
1746738972181376500,1.21237646484375,0.05456862553358078,-0.017462006932497023,0.005977905365824699
1746738972191455500,1.22245556640625,0.03959901993870735,0.006240355694293975,0.020406901277974246
1746738972201534500,1.232534423828125,0.05472527740001678,-0.012395955714583396,0.027973244879022238
1746738972211613400,1.242613525390625,0.0461585245847702,-0.004691957208514213,0.024630692985467613
1746738972221692400,1.2526923828125,0.02127367417514324,0.0011988543957471847,0.00006393208168447018
1746738972231771400,1.262771484375,0.037189620709419245,-0.0035971477091312405,-0.004604425055533648
1746738972241849300,1.272849365234375,0.04725450312793254,0.021742460730671882,-0.019281988901272414
1746738972251928300,1.28292822265625,0.07414134100973606,0.01336041683256626,-0.018359138435311614
1746738972262007600,1.293007568359375,0.11805471701622008,0.030880291432142257,-0.006782499746978282
1746738972272086300,1.303086181640625,0.1053530563533306,0.020674539238214492,-0.008077727189287542
1746738972282164200,1.313164306640625,0.0876508109241724,-0.004162964898347854,0.011300525160692632
1746738972292243500,1.323243408203125,0.04395078540742397,0.02094341930747032,0.00022295856829732656
1746738972302322400,1.333322509765625,0.006707388684153557,0.0003378536522388458,-0.003863324364647269
1746738972312401400,1.3434013671875,-0.05095452668964862,0.01386193661391735,-0.0004607859121635556
1746738972322480400,1.35348046875,-0.07222703182101249,0.016373627173900604,0.004224266631528735
1746738972332559400,1.363559326171875,-0.07829846068918704,0.012591186025738716,0.013366846573352813
1746738972342637600,1.373637451171875,-0.054259413453936575,0.012281389424204826,0.019834106358699498
1746738972352716500,1.383716552734375,-0.025108137771487234,0.01103811136484146,0.03772917094621807
1746738972362795300,1.393795166015625,0.0160556472659111,0.02892740379869938,0.015226612563244998
1746738972372874500,1.40387451171875,0.05966507188975811,0.02300210540294647,0.01689023492652923
1746738972382953500,1.413953369140625,0.07272387542724609,0.036357261538505554,0.013764905980229378
1746738972393031400,1.424031494140625,0.0839648158878088,0.03537234215438366,0.01920870446935296
1746738972403110400,1.4341103515625,0.08407412148118018,0.024848610052466392,0.00632814357560128
1746738972413189400,1.444189453125,0.06843932997584343,0.03355097194612026,0.007295527303032577
1746738972423268400,1.454268310546875,0.015196984609961509,-0.001513327172398567,-0.009326046749949454
1746738972433347600,1.46434765625,-0.01123334167599678,-0.024554011020064354,-0.025172398646734654
1746738972443425500,1.474425537109375,-0.024943887120485304,0.0026098902374505997,-0.007786598755605519
1746738972453504300,1.484504150390625,-0.01602466760575771,-0.001173135432600975,-0.02239654072523117
1746738972463583500,1.49458349609375,0.0008066402077674866,0.0016553659915924071,-0.0034232159143313765
1746738972473662500,1.504662353515625,-0.01002162779867649,0.004866144731640816,0.012313099736720323
1746738972483741400,1.514741455078125,-0.010194646278023719,0.0045113399446010585,0.013105601821281015
1746738972493819000,1.52481884765625,-0.01752455077469349,0.03156476656496525,0.01941580788139254
1746738972503898000,1.534898193359375,-0.024587328767776487,0.016110007801651952,-0.007283763800002634
1746738972513977000,1.54497705078125,0.006140402451157569,0.014634674552083015,-0.005119681101292371
1746738972524056300,1.555056396484375,0.027685294783115384,0.012118892338871956,0.02235752388909459
1746738972534135000,1.565135009765625,0.03871288475394249,0.005281155273318291,0.00766381262615323
1746738972544214000,1.575214111328125,0.07722294041216372,0.009891863939166069,0.0302581409458071
1746738972554292200,1.585292236328125,0.06501461622416972,0.015006430473923683,0.03596698357928544
1746738972564371200,1.59537109375,0.04838964463770389,0.005679214680194855,0.00822751092351973
1746738972574450000,1.605449951171875,0.01741641422510147,0.022191958063840864,0.005825637413561344
1746738972584529200,1.615529052734375,-0.016282441759109496,0.003965981021523475,-0.01702540561351925
1746738972594608000,1.625608154296875,-0.02654138544499874,0.005596797093749046,-0.04755319381356239
1746738972604686000,1.63568603515625,-0.036789807736873625,0.012757774764299392,-0.050408838973008095
1746738972614765000,1.64576513671875,0.015339023429155349,-0.0009743979901075362,-0.019208448741026223
1746738972624844000,1.655843994140625,0.04522913478016853,-0.0005640636235475539,0.0010231690352782606
1746738972634923000,1.665923095703125,0.0632119507163763,-0.0031131635844707487,0.013602153166569769
1746738972645002200,1.676002197265625,0.06971475673913956,0.0010685060143470764,0.051443223522044716
1746738972655080200,1.686080078125,0.05247837525606155,0.002343348255753517,0.04316456693317741
1746738972665159000,1.696158935546875,0.014976619857549667,0.003281505888700485,0.023165917662531135
1746738972675238100,1.706238037109375,0.003039513826370239,0.003935585883259773,0.016572218485921622
1746738972685317000,1.716317138671875,0.011011223357915878,0.011304653346538542,0.01032576184440404
1746738972695396000,1.72639599609375,0.02681143455803394,-0.007826163581013679,-0.0020358166765421628
1746738972705474000,1.73647412109375,0.023875381106138228,-0.00073415949344635,-0.02617967599313706
1746738972715553000,1.746552978515625,0.024652795219421385,0.029774960538744923,-0.014007226836122572
1746738972725632300,1.75663232421875,-0.0020376433074474334,0.033141222101449964,-0.0013832345193251967
1746738972735711000,1.7667109375,-0.023573183289170265,0.02648351777791977,-0.027853710152581333
1746738972745790000,1.7767900390625,-0.051399347847700116,0.05053425545096397,-0.014352642740309238
1746738972755869200,1.786869140625,-0.008991115707159042,0.05172551106214523,0.025917590990848838
1746738972765947100,1.796947021484375,0.0044195700079202645,0.026972178077697754,-0.0028485212989151475
1746738972776026000,1.807026123046875,0.026068507236242294,0.008194996893405913,-0.037800007692724465
1746738972786105000,1.81710498046875,0.01599427246749401,0.004776712882518768,-0.01597633495200425
1746738972796184000,1.82718408203125,0.030257191097736356,0.004034954604506492,0.0035701501043513416
1746738972806263300,1.83726318359375,0.011343816313147544,-0.00995411552041769,0.02576773419138044
1746738972816341200,1.84734130859375,-0.01493687236905098,-0.020220950251817704,0.01228405630532652
1746738972826420000,1.857419921875,-0.0074812956660985945,-0.021792729613184927,0.02105433233603835
1746738972836499200,1.867499267578125,0.02096446209549904,-0.019217910689115523,0.014964016104303299
1746738972846578200,1.877578125,0.041724926051497455,-0.016842705990374088,0.0024579876113682985
1746738972856657200,1.8876572265625,0.06300093831419945,-0.008415069384872912,0.0176326507916674
1746738972866735000,1.897735107421875,0.074139587444067,-0.002706044088304043,0.013265285895019768
1746738972876814000,1.90781396484375,0.0706231037557125,-0.0003933832317590713,-0.007104936634376645
1746738972886893000,1.91789306640625,0.053797641161084174,0.009252981513738632,0.012178221310675143
1746738972896972300,1.92797216796875,0.03918985461592674,0.0034188685327768325,0.0160785897500813
1746738972907051000,1.938051025390625,0.0004243628919124603,0.020274434004724024,-0.004210238106176257
1746738972917130000,1.9481298828125,-0.019892448949813842,-0.005360942511260509,-0.018939020682498812
1746738972927208200,1.958208251953125,-0.02859188823401928,-0.00639525399506092,-0.041589536168798805
1746738972937287200,1.968287109375,-0.06741407858133315,0.01444528945982456,-0.015692659172415732
1746738972947366000,1.978365966796875,-0.06918459538519382,0.01390022279769182,-0.0031021307338029145
1746738972957445000,1.988445068359375,-0.09401800786852836,0.008657353708148002,0.01124894110392779
1746738972967524000,1.998524169921875,-0.06459083785414696,0.031526188120245935,0.011842084691487252
1746738972977602000,2.00860205078125,-0.1033452236622572,0.02332709957361221,-0.007984788208827375
1746738972987681000,2.018680908203125,-0.04547697206139564,0.055148471248149866,0.021280067383311688
1746738972997760000,2.028760009765625,-0.026978607818484306,0.05223404510617256,0.01602072208300233
1746738973007839200,2.038839111328125,0.023375030368566512,0.04085340391397476,0.03410590241514146
1746738973017918200,2.048918212890625,0.07007774483263492,0.03777238903343677,0.04729680789969861
1746738973027996200,2.05899609375,0.11595628343224525,0.01716857694387436,0.01291734924018383
1746738973038075100,2.0690751953125,0.13723229569494724,0.01633972490429878,-0.006894179960526526
1746738973048154000,2.079154052734375,0.17744097196459768,0.020664017844200133,-0.010219451925717294
1746738973058233000,2.089233154296875,0.16799860535860062,0.009107435563206673,-0.01822564824875444
1746738973068312000,2.09931201171875,0.08910685495138168,-0.014787234765291214,-0.03096800624821335
1746738973078391000,2.10939111328125,0.02728548181056976,-0.006130465579032898,-0.016710019521415233
1746738973088469000,2.119468994140625,-0.03759001820385456,-0.009745733466744422,0.020499767193198203
1746738973098548200,2.12954833984375,-0.060762219476699825,-0.008773673564195632,0.0024982100239023565
1746738973108627200,2.139627197265625,-0.0367646732956171,-0.006615618747472763,0.019478388256207107
1746738973118706000,2.149705810546875,-0.062079731816053384,0.008040098592638968,0.010815006666071712
1746738973128785200,2.15978515625,-0.03961597107350826,0.06878828954398632,0.044566177359409626
1746738973138863000,2.169863037109375,0.021226912423968312,0.031277766317129134,0.005798566743545234
1746738973148942000,2.179942138671875,0.02067278567254543,-0.06854688200354575,-0.026929471447132525
1746738973159021000,2.19002099609375,0.05826631100773811,-0.02716448577940464,-0.016865465811453758
1746738973169100000,2.20010009765625,0.016676409512758256,0.012042319971323013,-0.032434754332527516
1746738973179179300,2.21017919921875,0.057393035304546355,0.028351065215468405,-0.007476108034327626
1746738973189258000,2.220258056640625,0.0465811339110136,0.016583470532298087,0.05674202404990792
1746738973199336000,2.2303359375,-0.03162731040716171,0.02184884371459484,0.09403996397200971
1746738973209415200,2.240415283203125,-0.035360651716589926,0.02367664366364479,0.05549640790298581
1746738973219494100,2.250494140625,-0.04528875601291656,-0.0036930092990398403,-0.011185118620097637
1746738973229573000,2.260572998046875,0.010934650990366935,-0.001364274090528488,-0.03557096999902278
1746738973239652000,2.270652099609375,0.05014730195999145,-0.011197101318836212,-0.03141019705776125
1746738973249730000,2.28072998046875,0.11755904245376586,-0.023798808738589285,-0.040485374319180846
1746738973259809000,2.29080908203125,0.16041560288369655,-0.02161445043683052,0.004071925614029169
1746738973269888300,2.30088818359375,0.180864516672492,-0.025292846688628197,0.014378836627490817
1746738973279967000,2.310967041015625,0.1454822376459837,0.004705985733866692,0.03359616279471665
1746738973290046200,2.321046142578125,0.06616203269362449,0.000052022448182106015,0.01885751641150564
1746738973300125200,2.331125244140625,0.0411216994613409,-0.00021919570863246916,0.018918672014214096
1746738973310203100,2.341203125,0.02071253316104412,-0.018970657929778097,0.010996171919256448
1746738973320281900,2.35128173828125,-0.03973988971412182,-0.011918985852599144,0.007321757722832262
1746738973330361000,2.361361083984375,-0.09576806640624999,0.007718027031421661,0.005269428302906453
1746738973340440000,2.371440185546875,-0.0972054057329893,0.01378828685581684,0.0038780104771256444
1746738973350519300,2.381519287109375,-0.08776596173644065,0.04123275862038135,0.017148812797479332
1746738973360597200,2.39159716796875,-0.09810615396499633,0.05053659353852272,0.0048212826766073705
1746738973370676000,2.401676025390625,-0.07814999212920665,0.054223173096776,-0.02281820020340383
1746738973380755200,2.411755126953125,-0.050446577167510984,0.06781272251009941,-0.02439940498024225
1746738973390834200,2.421834228515625,-0.010634206739068031,0.06184475401639938,-0.018225611716136337
1746738973400913000,2.431912841796875,0.0408428825199604,0.040813656425476075,-0.02450936816073954
1746738973410992000,2.4419921875,0.05514145698547363,0.001312251642346382,-0.01247029959242791
1746738973421070000,2.452070068359375,0.08917582853436469,0.0060965633094310755,0.007314232003502548
1746738973431149000,2.462149169921875,0.11489596072435378,0.000263034850358963,0.013206395314633846
1746738973441228000,2.47222802734375,0.11441782181859016,-0.003178630036115646,0.015418189612589776
1746738973451307000,2.48230712890625,0.0874281080842018,-0.004433014011383057,0.019672120730020105
1746738973461386200,2.49238623046875,0.0743090987920761,-0.02022445738315582,0.03135269471686333
1746738973471464200,2.502464111328125,0.03525660682022572,-0.016183073037862778,0.029000140241347252
1746738973481543200,2.512543212890625,-0.010875029757618903,-0.011342062747478484,0.013361001354455946
1746738973491622100,2.5226220703125,-0.04256254591941833,-0.02761982833147049,-0.002242700892873108
1746738973501701400,2.532701416015625,-0.08657645969092845,-0.013621113595366477,-0.004545790203474462
1746738973511780400,2.5427802734375,-0.09438099596202373,-0.005342530071735381,-0.022578984620049595
1746738973521859300,2.552859375,-0.07662438999712466,0.0027156886994838714,-0.04140435232762247
1746738973531937300,2.562937255859375,-0.03939443727731704,0.002435702714323997,-0.031825938251800835
1746738973542016300,2.573016357421875,0.024794834038615224,-0.00443067592382431,-0.013382044142484664
1746738973552095500,2.583095458984375,0.10278525169193745,0.014841010779142379,0.005306947301700711
1746738973562174200,2.59317431640625,0.1308726975351572,0.013635726642608642,0.004394947023317218
1746738973572253200,2.603253173828125,0.1291682317048311,0.036005379360914226,0.010797361411526799
1746738973582331400,2.613331298828125,0.12620704381167888,0.03707505441904068,0.016130319937318564
1746738973592410400,2.623410400390625,0.09689268652200698,0.03256488351821899,0.021246165113709865
1746738973602489300,2.6334892578125,0.0677045859605074,0.014404957449436187,0.02937967761084437
1746738973612568300,2.643568359375,0.04543313291966915,0.03100947076976299,0.02058554578050971
1746738973622647300,2.653647216796875,0.0078045362710952755,0.018270985227823257,0.014902202914468943
1746738973632726300,2.663726318359375,-0.04366495420336723,0.008605915781855582,0.002551145787537098
1746738973642804500,2.673804443359375,-0.03684884444773197,0.004566869524121284,0.013294146663323044
1746738973652883200,2.68388330078125,-0.06349661287665367,-0.013891747230291365,0.015705116795189676
1746738973662962200,2.693962158203125,-0.10132686957716941,0.018142974933981895,0.019284619249776005
1746738973673041400,2.70404150390625,-0.08900514814257621,0.0037310032218694686,-0.010395539144985377
1746738973683120000,2.7141201171875,-0.06175123051404953,0.003940846580266952,-0.023971169630810616
1746738973693198000,2.724197998046875,0.014849194085597992,0.00587502951323986,-0.01070785649716854
1746738973703277300,2.73427734375,0.056525604820251464,-0.005598550659418106,-0.005282616578042507
1746738973713356300,2.744356201171875,0.08647767549157143,-0.0068108490586280815,0.007200652093812823
1746738973723435500,2.754435546875,0.11938976501226424,0.006996727019548415,0.014939100858755409
1746738973733514200,2.76451416015625,0.12938392028212548,0.014988310295343399,0.025093232463300228
1746738973743592200,2.77459228515625,0.11786357835829257,0.003124269500374794,0.03028970512785017
1746738973753671400,2.78467138671875,0.09151216252744197,0.023209610673785207,0.02839052044302225
1746738973763750400,2.79475048828125,0.041811435291171074,-0.014625906723737717,-0.008643982769921421
1746738973773829000,2.8048291015625,-0.0049503158837556835,-0.0028249942928552626,-0.0035964901220053433
1746738973783908400,2.814908447265625,-0.049532384932041165,0.010074234768748283,0.0014756620431318878
1746738973793987300,2.8249873046875,-0.07760580224990844,-0.0002601122409105301,0.010081322096660733
1746738973804065300,2.835065185546875,-0.06815992851257324,0.02265606844425201,0.019754684446938335
1746738973814144300,2.845144287109375,-0.029426000970602034,0.01932078654170036,0.01603975557703525
1746738973824223200,2.85522314453125,0.008256371691823005,0.0396621483027935,0.022990159236826003
1746738973834302500,2.865302490234375,0.03062836249768734,0.03095627927780151,-0.0015340411668643354
1746738973844381400,2.87538134765625,0.03194002961814403,0.02067161662876606,-0.025634390135295688
1746738973854459400,2.88545947265625,0.038539866274595255,0.026502807000279426,-0.03275967543795705
1746738973864538000,2.8955380859375,0.07254501172900199,0.03245265531539917,-0.015665259708836674
1746738973874617300,2.905617431640625,0.08433248015642165,0.021266659912467,-0.001476648423820734
1746738973884696300,2.9156962890625,0.09204816910028457,-0.004873743516206741,0.013610299940407276
1746738973894775300,2.925775390625,0.06095861883163452,-0.023530513191223144,0.022375936328619717
1746738973904854300,2.935854248046875,-0.00977495956122875,-0.04417348824739456,0.02657864871546626
1746738973914932200,2.94593212890625,-0.014354688566923141,-0.027521044132113454,0.03616546529345214
1746738973925011500,2.956011474609375,-0.05066226574480533,-0.020260113218426704,0.045834991718828676
1746738973935090200,2.966090087890625,-0.04229951106905937,-0.02929799067676067,0.03139821435902267
1746738973945169200,2.976169189453125,-0.05210661933422088,-0.007470189750194549,0.0023574133137241006
1746738973955248400,2.986248291015625,-0.03974748849868774,0.008587211081385613,-0.029108934378065165
1746738973965326300,2.996326416015625,0.004169394639134407,0.02907937949001789,-0.03308770181592554
1746738973975405300,3.0064052734375,0.05465688833892345,0.0676607468187809,-0.021977657726034522
1746738973985484300,3.016484375,0.08009937263131141,0.07014613389372826,-0.004196501841768622
1746738973995563300,3.026563232421875,0.06739712744653224,0.06882102276980877,-0.002304477550089359
1746738974005642500,3.036642578125,0.05096972425878048,0.08349076863527298,-0.0023461247347295283
1746738974015720400,3.046720458984375,0.019648118799924848,0.06103928285241127,-0.002100114084407687
1746738974025799200,3.056799072265625,0.006474748972058296,0.052432782548666,-0.0015067878337576984
1746738974035878400,3.06687841796875,-0.044429508835077285,0.033330607193708416,0.000781469233892858
1746738974045957400,3.076957275390625,-0.05076747968494892,-0.002378419569134712,0.003799574946053326
1746738974056036400,3.087036376953125,-0.024835750570893288,-0.019326631760597228,0.01841196460109204
1746738974066114300,3.0971142578125,0.014119710767269134,-0.013898176971077918,0.027847243879176673
1746738974076193300,3.107193359375,0.05658405700922012,0.007916472212970257,0.00843490659650415
1746738974086272300,3.117272216796875,0.04817337153851985,-0.025590076069533823,0.03310041516702622
1746738974096351500,3.1273515625,0.0346469504892826,-0.0380891998976469,0.0619468261513859
1746738974106430200,3.13743017578125,0.07322714877426624,-0.01052490114569664,0.01619761301986873
1746738974116509200,3.14750927734375,0.024127310040593146,0.002050502789020538,-0.010705847203172743
1746738974126587400,3.15758740234375,0.042456162935495374,-0.016992343594133853,-0.00027709990832954645
1746738974136666400,3.167666259765625,0.044969022539258004,-0.01683423042297363,0.010595336033403872
1746738974146745000,3.1777451171875,0.03766308344006538,0.0035933483168482778,-0.009886566709540783
1746738974156824300,3.18782421875,0.051934769898653026,-0.0029229017093777656,0.0032978725016117095
1746738974166903300,3.1979033203125,0.011456044515967368,-0.00277238732278347,-0.00879391263462603
1746738974176981200,3.207981201171875,-0.0025637130081653595,-0.006518003591895103,-0.00832823135163635
1746738974187060500,3.218060546875,-0.05168225644230842,0.012585633067786694,-0.007043707966431975
1746738974197139200,3.22813916015625,-0.05167290409207344,0.006952011094987392,-0.02734082872699946
1746738974207218400,3.238218505859375,-0.0566939471244812,0.010835574530065058,-0.002693915259093046
1746738974217297400,3.24829736328125,-0.055881461697816846,0.008234159860014915,0.0028372327199205753
1746738974227376000,3.258376220703125,-0.008786533045768737,0.02292377946972847,0.033869645973853765
1746738974237454300,3.268454345703125,0.023892916762828825,0.023061142113804816,0.029183022527582942
1746738974247533300,3.278533203125,0.014348258826136589,0.01996960583925247,0.01238349809180945
1746738974257612300,3.2886123046875,0.02310147412419319,0.0207177938580513,0.002985080225393176
1746738974267691300,3.298691162109375,0.047317631492018696,0.01750759963989258,-0.0055097033321857445
1746738974277770200,3.308770263671875,0.04393383427262306,0.026725509840250013,-0.004990099904872477
1746738974287848200,3.31884814453125,0.08208382444679736,-0.007433949393033981,0.006794592043571174
1746738974297927400,3.328927490234375,0.07395546304881573,-0.0050981999218463895,-0.0013305179513990878
1746738974308006400,3.33900634765625,0.05686345847249031,-0.007521043154597282,0.02530921330153942
1746738974318085000,3.349085205078125,0.08177402784526347,0.000993102690577507,0.027235614786855874
1746738974328164400,3.359164306640625,0.0400935254573822,0.0020499182671308517,-0.0011586319832131266
1746738974338242300,3.3692421875,0.029868484041094778,0.008685410758852959,-0.019787965662032364
1746738974348321300,3.3793212890625,0.01321136375069618,-0.0013289105162024497,-0.02962795328348875
1746738974358400300,3.389400146484375,-0.003853752818703651,0.020122166052460668,-0.012924290437623857
1746738974368479200,3.399479248046875,0.0025116905599832534,0.008734510597586632,0.0018430705834180116
1746738974378558500,3.409558349609375,0.042695232388377184,0.010678045880794525,0.00776986681651324
1746738974388637200,3.41963720703125,0.026765257328748703,0.028319793294370173,0.03580624005962163
1746738974398715100,3.429715087890625,0.011454875472187995,0.024674714790284633,0.013248444358073173
1746738974408794400,3.43979443359375,0.04465864141583442,0.006225158125162124,-0.010488916516862809
1746738974418873300,3.449873291015625,0.031630817538499834,0.027403847493231295,0.019295688633061945
1746738974428952300,3.459952392578125,0.02121054581105709,0.02122048268318176,-0.0063547027889639136
1746738974439031300,3.47003125,0.011156769308447837,0.012947744378447533,-0.0012609598465263842
1746738974449109200,3.480109130859375,0.0202080907702446,0.017635025411844252,0.012909129401110112
1746738974459188200,3.490188232421875,-0.012928455156087875,0.004925473703444004,0.005020020119100809
1746738974469267500,3.500267333984375,-0.015562895312905311,-0.009052490505576133,0.03480320049691945
1746738974479346200,3.51034619140625,-0.017740823873877525,0.021821663446724412,0.00761358027625829
1746738974489425200,3.520425048828125,-0.018124270233511923,0.007368482941389084,0.0013599632415920496
1746738974499504000,3.530504150390625,-0.01107084459066391,0.001621171461045742,-0.014923611028678714
1746738974509582000,3.54058203125,-0.009044307199120522,0.020286124442517758,-0.014976327596604824
1746738974519661300,3.550661376953125,0.014019757524132728,0.016461013196408747,0.006208426186069846
1746738974529740000,3.560739990234375,0.06564180821180343,-0.00044072950482368465,0.02621390705630183
1746738974539819000,3.570819091796875,0.10618366195857525,0.0016360767692327497,0.044985243021696805
1746738974549898200,3.580898193359375,0.10984218446612358,-0.0027495909690856933,0.03325414442401379
1746738974559976200,3.59097607421875,0.0862608178704977,-0.015296061070263385,0.007332936703972518
1746738974570055000,3.601054931640625,0.019272271224856377,-0.009469254612922667,0.01775207592025399
1746738974580134100,3.611134033203125,-0.0038169279396533962,-0.0074228434771299355,0.01969484401848167
1746738974590213000,3.621213134765625,-0.02856090857386589,0.013553309056162833,0.002082980286516249
1746738974600292000,3.6312919921875,-0.044559272694587704,0.004516600641608238,0.005741758522391319
1746738974610371000,3.64137109375,-0.0035486323922872542,0.021955811220407486,-0.0182004042096436
1746738974620449000,3.651448974609375,-0.003598316752910614,0.03552607141137123,-0.005328720742091536
1746738974630528300,3.6615283203125,0.021537878069281577,0.02423603111207485,-0.009096841103956102
1746738974640607200,3.671607177734375,0.057226446565985675,0.03550853575468063,0.011791085156612098
1746738974650686000,3.68168603515625,0.04039104709923267,0.05673369461297988,0.0019371420750394462
1746738974660765200,3.69176513671875,0.028116671937704084,0.03711889356076717,-0.018002945408783853
1746738974670843100,3.701843017578125,0.009773205995559692,0.049776715081930156,-0.05632847481295466
1746738974680922000,3.711922119140625,-0.009960837522149085,0.03491173890531063,-0.04651248912159353
1746738974691001000,3.7220009765625,-0.016247370445728302,0.016579963400959966,-0.009005107699893414
1746738974701080000,3.732080078125,-0.021959318351745603,-0.0018687164813280105,0.0030098858730867504
1746738974711159000,3.742158935546875,-0.009329553881287575,-0.036353169885277745,0.016751739771291612
1746738974721238000,3.752238037109375,0.01610708519220352,-0.01689443617761135,-0.0016812310852110386
1746738974731316000,3.76231591796875,0.059935705524683,-0.011693944925069808,-0.004393156925030052
1746738974741395000,3.77239501953125,0.059063014343380925,-0.01852525224983692,0.026253618012182414
1746738974751474200,3.78247412109375,0.06960545114576816,-0.009834580793976783,0.03700125853046775
1746738974761553200,3.79255322265625,0.0364466933876276,0.0011515081226825714,0.03419179060030728
1746738974771632000,3.802632080078125,0.036899113330245016,0.013586042281985282,0.004610964394174516
1746738974781710000,3.8127099609375,0.03279635418653488,0.011764672073721885,-0.02738908831551671
1746738974791789000,3.8227890625,0.06242986042797565,0.0101040453851223,-0.011062734349444507
1746738974801868300,3.832868408203125,0.05583469994664192,-0.0007329904496669769,-0.020744827995449303
1746738974811947000,3.842947021484375,0.03710194242596626,0.0045019875943660735,-0.04489380187857896
1746738974822026000,3.85302587890625,0.014595511585474013,0.006170797589421272,-0.026068434171006082
1746738974832105200,3.863105224609375,-0.024649288088083265,0.01595627854466438,-0.0013589768609032033
1746738974842183200,3.87318310546875,-0.03435118241310119,0.006561842733621597,-0.014140461294353007
1746738974852262100,3.88326220703125,-0.02801613417267799,0.02399462357163429,-0.015149163412861525
1746738974862341000,3.893341064453125,0.0006283610314130782,0.04185585895478725,-0.009686696755886078
1746738974872420000,3.903420166015625,0.03086567838490009,0.01972527568936348,0.005975201952084898
1746738974882499000,3.9134990234375,0.045099955442547794,0.021309330010414122,0.02153108300231397
1746738974892578000,3.923578125,0.027901567882299423,0.036140403917431826,0.001089950661174953
1746738974902656000,3.933656005859375,0.022273791128396985,0.035326164925098415,0.0174625183891505
1746738974912735000,3.94373486328125,-0.003700608083605766,0.028615853631496428,0.018705869513750074
1746738974922814200,3.953814208984375,-0.03523088785707951,0.01886252138018608,0.01748823735229671
1746738974932893000,3.963892822265625,-0.018990531674027443,0.005344868159294128,0.006920848771743476
1746738974942972200,3.97397216796875,-0.024535306319594382,0.006022329029440879,0.0007801905922591686
1746738974953051100,3.984051025390625,0.0271574715167284,-0.030404490613937376,-0.01178334024157375
1746738974963129000,3.994129150390625,0.021893851900100708,-0.016635492980480192,-0.01935669810529798
1746738974973208000,4.0042080078125,0.034118542701005936,-0.002152209597826004,-0.02540061791203916
1746738974983287000,4.014287109375,0.0593996989518404,0.01184767418205738,-0.022178039136342705
1746738974993366000,4.024365966796875,0.052532735791802405,0.03169394590258598,-0.01998275758177042
1746738975003445200,4.0344453125,0.04419511555731296,0.032332828328013416,-0.009865341258421539
1746738975013524000,4.04452392578125,0.008916881427168845,0.03784837687909603,-0.02405976122971624
1746738975023602000,4.054601806640625,-0.010486322700977324,0.022771803778409958,-0.009203772077150642
1746738975033681200,4.06468115234375,0.007593523868918419,0.00407996279001236,0.004941073131375015
1746738975043760000,4.074760009765625,0.010271803167462349,-0.0013075754672288893,-0.002832191218622029
1746738975053839000,4.084839111328125,0.005056114345788955,-0.02172550959587097,0.008503734049014746
1746738975063918000,4.09491796875,0.0010673369705677031,-0.02200257297158241,-0.028248043232411143
1746738975073997000,4.1049970703125,0.013685411003232001,0.010493336963653564,0.008576214763335883
1746738975084075300,4.1150751953125,0.008211363506317139,0.03010112375319004,0.003727240362204611
1746738975094154200,4.125154296875,-0.028946108499169346,0.03956277958154678,-0.01696322709750384
1746738975104233000,4.13523291015625,-0.04852350015044212,0.06565408317148685,0.006647109864279627
1746738975114312200,4.145312255859375,-0.014806523987650871,0.05166764339506626,0.019846162122674284
1746738975124391200,4.15539111328125,0.02140752968788147,0.02968319060206413,0.014979323271289468
1746738975134469000,4.16546923828125,0.016506313642859458,0.009751578685641289,-0.018478527031280098
1746738975144548000,4.175548095703125,0.04339665865600109,0.005070142871141433,-0.018248371537216007
1746738975154627000,4.185626953125,0.04968436062335968,-0.0017477204501628876,-0.027838183789886534
1746738975164706000,4.1957060546875,0.019030863684415818,-0.00597264466881752,-0.01712112107295543
1746738975174785000,4.205784912109375,0.031681670942902564,0.02344751108288765,0.009005874884873628
1746738975184864000,4.215864013671875,0.040461189725995064,0.027969372421503064,0.008296813300065696
1746738975194942000,4.22594189453125,0.04260463149547577,0.00964168857038021,0.020588577987812457
1746738975205021200,4.236021240234375,0.05336860209405422,0.011185995402932166,0.004113061342015862
1746738975215100200,4.24610009765625,0.04754325694143772,-0.013584288716316222,0.007844247226975857
1746738975225179100,4.25617919921875,0.07392331434488296,-0.01667173333764076,0.014607786545157432
1746738975235258000,4.266258056640625,0.04603811307549476,-0.002588262927532196,0.005924092819355428
1746738975245337000,4.276337158203125,0.05734568903148174,0.0062111295998096465,-0.008191745490394533
1746738975255415300,4.286415283203125,0.051423313245177266,0.019715338817238807,-0.016791121933609245
1746738975265494000,4.296493896484375,0.024801848301291465,0.011897943064570426,-0.023862960015982388
1746738975275573000,4.306572998046875,-0.007175006195902824,0.017581833919882772,-0.06349573609381914
1746738975285652200,4.31665234375,-0.030374095475673674,0.02767769599854946,-0.05663173207584768
1746738975295731000,4.32673095703125,-0.04941197342276573,0.032393618604540826,-0.02252075162678957
1746738975305810200,4.33681005859375,-0.04135784630477428,0.049779053169488906,-0.030841018867678937
1746738975315888000,4.34688818359375,-0.03699439039826393,0.036523265755176545,-0.01189513005297631
1746738975325967000,4.356967041015625,-0.017585341051220893,0.028331775993108748,-0.01809420388881117
1746738975336046000,4.367046142578125,-0.015180617997050285,0.043838557204604146,-0.00784446642268449
1746738975346125000,4.377125,0.016949965757131577,0.009016250148415565,0.013751681172475218
1746738975356204000,4.3872041015625,0.054584407624602316,0.008275660914182663,0.00951119405850768
1746738975366283300,4.397283203125,0.06698679307997227,-0.006459551402926445,0.02171769161559641
1746738975376361200,4.407361328125,0.05284779309034347,-0.008805822268128394,0.045928880547359587
1746738975386440000,4.41743994140625,0.018142974933981895,-0.0018915128350257872,0.024629706604778766
1746738975396519200,4.427519287109375,0.011607435685396194,-0.004373392778635025,0.020628179345838726
1746738975406598100,4.43759814453125,-0.0070341364204883575,-0.014128478595614433,0.019317900464870034
1746738975416677000,4.447677001953125,0.012342179700732231,-0.007416413736343383,-0.013686324318684637
1746738975426756000,4.457756103515625,0.028080431580543515,0.007616904744505882,-0.03781820093654096
1746738975436834000,4.467833984375,0.055150809335708616,-0.00386252064704895,-0.03633420945648104
1746738975446913000,4.4779130859375,0.06273556537628174,0.01576513988673687,-0.018233868087828158
1746738975456992300,4.4879921875,0.07728665329813957,0.017968202888965605,-0.014634674552083015
1746738975467071000,4.498071044921875,0.026518004569411276,0.009563947159051895,-0.0003007365122437477
1746738975477150200,4.508150146484375,-0.01306932493150234,-0.0039127895295619965,-0.012028364511206745
1746738975487229200,4.518229248046875,-0.005103460618853569,0.007267360654473304,-0.023644093100912866
1746738975497308700,4.52830859375,-0.020873861202597616,-0.0017605799317359924,-0.04821998715922236
1746738975507386600,4.53838671875,0.013935586372017859,0.007970540487766265,-0.057454958092235026
1746738975517465600,4.548465576171875,0.05099719678759575,0.01175882685482502,-0.018419636450894176
1746738975527544800,4.558544921875,0.061028761458396905,0.008788871133327483,-0.007896087012067437
1746738975537623600,4.56862353515625,0.044620647493004796,0.033439328265190124,0.024741642546653748
1746738975547702800,4.578702880859375,0.024718261671066284,0.03220657159984112,0.019818068539351225
1746738975557781800,4.58878173828125,-0.019613047486543654,0.02428571547269821,0.01923687111791223
1746738975567859700,4.598859619140625,-0.04637772029340267,-0.006150923845171928,0.003212714968807995
1746738975577938700,4.608938720703125,-0.04239245004951954,-0.010784428864717482,-0.006568235941790044
1746738975588017700,4.619017578125,-0.05253390483558178,-0.009710662153363227,-0.005725318844243884
1746738975598096600,4.6290966796875,-0.067869421133399,-0.0019166472762823105,-0.010318491853401064
1746738975608175900,4.63917578125,-0.050100540208816526,-0.006059738430380821,0.01868146572485566
1746738975618254600,4.649254638671875,-0.02384089431464672,0.014512509477138518,0.008178812943585216
1746738975628332500,4.65933251953125,-0.010204583150148392,0.008814590096473693,-0.010413878519274293
1746738975638411800,4.669411865234375,0.006593406915664672,0.012654898911714552,-0.015767295311205087
1746738975648490800,4.67949072265625,0.03998714247345924,0.015796704068779945,-0.028958639187179506
1746738975658569500,4.689569580078125,0.03947627034187317,0.007038228073716163,-0.013006781089305877
1746738975668648700,4.699648681640625,0.07532792044579982,0.01888648677766323,0.0036941052775830026
1746738975678727700,4.709727783203125,0.0934276407599449,0.01217617548406124,0.00552742165196687
1746738975688805600,4.7198056640625,0.07923194214701652,0.005650573107600212,0.011456921298801898
1746738975698884600,4.729884521484375,0.03425824343264103,0.005054360780119896,0.019215828329883514
1746738975708963600,4.739963623046875,0.009946224474906921,-0.019989479583501814,0.005214629375748336
1746738975719042800,4.750042724609375,-0.008180968368053435,0.011339724659919738,0.00635218203831464
1746738975729121800,4.760121826171875,-0.023507716837525366,0.018592472267150877,-0.011556326552666724
1746738975739200500,4.770200439453125,-0.0056862289428710935,0.016097148320078847,-0.0030362624233588576
1746738975749278700,4.78027880859375,0.01634498560130596,0.013473814079165458,0.003977781057171523
1746738975759357700,4.790357666015625,0.02363397356569767,0.017632687324285506,0.0013025339659303427
1746738975769436700,4.800436767578125,0.030005846685171124,0.02651566648185253,0.028966128373891113
1746738975779515600,4.810515625,0.01748012711107731,0.016513912427425382,0.015346074224449693
1746738975789594600,4.8205947265625,0.006003624328970909,-0.0005915361523628235,-0.0003787336518988013
1746738975799673900,4.830673828125,-0.02112988179028034,0.01129822360575199,-0.015408435403555631
1746738975809751800,4.840751708984375,-0.026980945906043052,0.002424012276530266,-0.03599157003127038
1746738975819830800,4.850830810546875,-0.0050660512179136275,-0.0018500117808580398,-0.007241276365146041
1746738975829909500,4.860909423828125,0.010247253248095512,-0.002179097604751587,0.014335801203362643
1746738975839988700,4.87098876953125,0.023504794228076935,-0.0013940847069025038,0.02925747600328177
1746738975850067700,4.881067626953125,0.028006197300553322,-0.013321838387846946,0.019858583212830124
1746738975860146700,4.891146728515625,0.03388239585757255,-0.026003040784597396,-0.0026218729361891747
1746738975870224600,4.901224609375,0.04276946666836738,0.0012678279787302017,-0.0016150339812040328
1746738975880303600,4.9113037109375,0.06307341902852058,0.0035088849037885664,-0.008207491048797965
1746738975890382800,4.9213828125,0.06382920583188534,0.016458967369794845,-0.025764007864333686
1746738975900461600,4.931461669921875,0.07975742732584476,0.009251227948069572,-0.036192024506814774
1746738975910540500,4.94154052734375,0.07364508192539215,-0.003896422916650772,-0.03416983449682593
1746738975920619800,4.951619873046875,0.08950432983636855,0.026370705053210257,0.00882719384972006
1746738975930697700,4.96169775390625,0.054849196040630335,0.04668342524170875,0.015302162017486989
1746738975940776700,4.971776611328125,-0.0471387677937746,0.035061376509070395,-0.0009739230660721659
1746738975950855700,4.981855712890625,-0.06284370192587375,0.03363514309823513,0.0007955708244815468
1746738975960934700,4.9919345703125,-0.09987608624696731,0.030827684462070463,0.007793247692100704
1746738975971014000,5.002013916015625,-0.14377952538132666,0.025261867028474806,-0.02983103810753673
1746738975981092600,5.012092529296875,-0.12352525738179683,-0.004912906482815742,-0.01393390587158501
1746738975991170600,5.022170654296875,-0.10022153868377208,-0.011041033974289894,0.0038906507629901167
1746738976001249800,5.032249755859375,-0.013419453543424605,0.0017559037566184997,-0.012529993890412152
1746738976011328800,5.042328857421875,0.06955342869758606,0.005528992554545403,0.016487389746680854
1746738976021407500,5.052407470703125,0.10957447344064712,-0.0007435118436813354,0.016645283722132444
1746738976031486700,5.06248681640625,0.13836802172660828,0.019763269612193105,0.007453932735137641
1746738976041565700,5.072565673828125,0.12855156111121177,0.00765489866733551,-0.012036693948134778
1746738976051643600,5.0826435546875,0.10961655901670456,0.016681670209765433,0.024687574271857738
1746738976061723000,5.092722900390625,0.047613984090089795,0.015776245802640913,0.013887911305390297
1746738976071801600,5.102801513671875,0.0011082535028457642,-0.005415595307946205,-0.005820559379644692
1746738976081880600,5.112880615234375,-0.02364917113482952,-0.016614450192451478,-0.022059161997027694
1746738976091959800,5.122959716796875,-0.04350596424937248,-0.02059972043633461,-0.02710881006941199
1746738976102038500,5.13303857421875,-0.03577215512692928,-0.003644493982195854,-0.010685754263214766
1746738976112116500,5.143116455078125,-0.022380174112319944,-0.009081716600060463,-0.02936407818291336
1746738976122195700,5.15319580078125,0.013240589845180511,-0.011808511215448379,-0.025626864415965973
1746738976132274700,5.163274658203125,0.04327449358105659,-0.0011538462102413177,-0.028334990863502024
1746738976142353700,5.173353759765625,0.0332920287489891,0.015450667110085487,-0.02601272192839533
1746738976152432600,5.1834326171875,0.036080782684683795,0.01321662444770336,-0.02313544945903122
1746738976162511600,5.19351171875,0.02900397616624832,-0.0029588498055934903,0.000168671097792685
1746738976172589800,5.20358984375,0.025600889724493026,0.015301614028215407,0.02962641891352832
1746738976182668800,5.213668701171875,0.010446575212478637,0.008732757031917572,0.01988083157725632
1746738976192747500,5.22374755859375,0.019193360769748688,-0.003131283763051033,0.004582688147760927
1746738976202826800,5.23382666015625,0.0262076234459877,0.010186462971568108,0.023457411422394214
1746738976212905700,5.24390576171875,0.03260463100671768,0.016422727012634277,0.025897863377071915
1746738976222984700,5.253984619140625,0.030262451794743538,0.0009749825119972228,0.0016654124615713953
1746738976233063700,5.264063720703125,0.011242694026231764,0.02055003607571125,-0.01496043590772897
1746738976243141600,5.2741416015625,0.02918868508338928,0.013636895686388015,0.0044011575683951375
1746738976253220900,5.284220947265625,0.028148820641636846,0.022794015610218047,-0.0041292818244546645
1746738976263299600,5.294299560546875,0.017550854259729385,0.017125906845927238,-0.028393516117706893
1746738976273378600,5.304378662109375,0.03332067032158375,0.0065735331714153284,-0.0059675301022827625
1746738976283457800,5.314457763671875,0.03703589145243168,0.005374094253778458,-0.02066292186565697
1746738976293536800,5.324536865234375,-0.004435352098941803,0.0035842882275581357,0.0010512991512194275
1746738976303614700,5.33461474609375,-0.029625322934985158,-0.0004319616764783859,0.00856182091180235
1746738976313693700,5.344693603515625,-0.04739245029389858,0.01663607750236988,-0.009945128496363758
1746738976323772700,5.354772705078125,-0.0801215844631195,-0.0052460839599370954,-0.009578888999857009
1746738976333851600,5.3648515625,-0.06912497415244578,-0.0010135609567165373,-0.011264686662331222
1746738976343930600,5.3749306640625,-0.0449561630576849,0.025644144344329833,-0.017327932224050165
1746738976354009600,5.385009521484375,0.004248305094242096,0.016476503026485442,-0.01643138524312526
1746738976364087600,5.395087646484375,0.07801029139757155,0.012197802793979645,-0.00890617737006396
1746738976374166800,5.405166748046875,0.14600187760591507,0.009891863939166069,-0.008579575764201581
1746738976384245800,5.415245849609375,0.16916531105041502,0.027129414466023443,-0.010850443305633962
1746738976394324700,5.42532470703125,0.13574527200758457,0.03423836968839168,0.0017153890831395982
1746738976404403700,5.43540380859375,0.10634615904390811,0.014675591084361075,0.018715769853256643
1746738976414482700,5.445482666015625,0.015595044016838073,0.012557283756136893,0.01178454581797123
1746738976424561000,5.455560791015625,-0.05567921712398529,0.017191957819461822,0.015108466076292097
1746738976434639600,5.4656396484375,-0.09775836344063281,-0.006965747359395026,-0.002116992153972387
1746738976444718600,5.475718505859375,-0.11598200239539146,-0.017469021195173264,-0.032559184429794545
1746738976454797800,5.4857978515625,-0.09255027340352534,-0.027643793728947638,-0.03550488249287009
1746738976464876500,5.49587646484375,-0.11979717676937579,-0.016056816309690476,-0.017235066308826208
1746738976474955800,5.505955810546875,-0.0582101969063282,0.009048398852348326,0.027563750762678682
1746738976485033700,5.51603369140625,-0.01158405480980873,0.031578795090317725,0.026945472733862698
1746738976495113500,5.526113525390625,0.04405775291323662,0.01770224542915821,0.01658266681469977
1746738976505192400,5.5361923828125,0.10148235239982605,0.02985620908141136,0.005994162380881607
1746738976515271400,5.546271484375,0.1455465350538492,0.019977789145708084,-0.009403386302478611
1746738976525350700,5.5563505859375,0.12467618098258972,0.006665303108096122,-0.009384243210591375
1746738976535429400,5.566429443359375,0.09033610448539256,0.005271802923083305,0.00604413900244981
1746738976545508400,5.57650830078125,0.04396422941088676,-0.0014864391654729843,0.000867138223350048
1746738976555586600,5.586586669921875,-0.0035977322310209274,0.005157821154594421,-0.008947934152558446
1746738976565665500,5.59666552734375,-0.024309096348285673,0.010100538253784179,-0.014247392267547548
1746738976575744500,5.60674462890625,-0.04337386230230331,0.008116086438298226,-0.03195106246881187
1746738976585823500,5.616823486328125,-0.030065467917919156,0.027374329137802123,-0.028906945532560346
1746738976595902500,5.62690234375,-0.032304186755418775,0.019350597158074377,-0.02510309627018869
1746738976605981700,5.636981689453125,-0.038503041395545,0.03656067515611648,-0.02643668296150863
1746738976616059600,5.6470595703125,-0.04220481852293014,0.04273907153010368,-0.010501337607018648
1746738976626138400,5.657138427734375,-0.02525952894091606,0.0479576829612255,-0.008866429881565272
1746738976636217300,5.66721728515625,-0.0118032505184412,0.024683774879574773,-0.0017387334261089562
1746738976646296600,5.677296630859375,0.01445756441950798,0.01998304984271526,0.004570924644730985
1746738976656375300,5.687375244140625,0.044127895539999004,0.011838906353712082,0.0012341814374551177
1746738976666454500,5.69745458984375,0.048266310518980025,0.020129764837026595,0.010306253426335751
1746738976676532500,5.707532470703125,0.03728080612421036,-0.0035410336077213284,-0.007257533380202949
1746738976686611500,5.717611572265625,0.04116670764684677,0.001449029764533043,0.003425590534508228
1746738976696690400,5.7276904296875,0.01707622248530388,0.0020569325298070906,-0.008989289076253772
1746738976706769400,5.737769287109375,0.00017594108879566192,-0.004431844967603683,0.011581241798214613
1746738976716848400,5.747848388671875,-0.003475567156076431,-0.009186930540204048,0.007458828105963766
1746738976726927600,5.757927734375,0.01668693090677261,-0.018676643419265747,-0.019793482087366282
1746738976737006300,5.76800634765625,0.026326281389594076,-0.009196867412328719,-0.031618104187399146
1746738976747084300,5.778084228515625,0.057358548513054844,-0.007879355072975158,-0.03690002664569765
1746738976757163500,5.78816357421875,0.05597673876583576,0.00028758476972579955,-0.0029559271961450573
1746738976767242500,5.798242431640625,0.05272738158106804,0.010154314267635346,0.014131072411499917
1746738976777321500,5.808321533203125,0.052938393983244895,0.012235796716809272,-0.008925064733624458
1746738976787400400,5.818400390625,0.04049567651748657,0.014784896677732466,-0.02207289826143533
1746738976797479400,5.8284794921875,0.0226958159327507,0.012326397609710693,-0.009098485071770846
1746738976807557600,5.8385576171875,0.013577274453639984,0.01570493413209915,-0.02897339836489409
1746738976817636600,5.84863671875,0.029718261915445326,0.01330547177493572,-0.012688618518225848
1746738976827715300,5.85871533203125,0.036623218998312945,0.05479366646111011,0.023020152516290544
1746738976837794600,5.868794677734375,0.015807225462794304,0.027840777605772016,0.010486834157630801
1746738976847873500,5.87887353515625,-0.0035299276918172836,0.031876316732168196,0.0032855244766920805
1746738976857952300,5.8889521484375,-0.004086977052688599,0.034549919855594635,0.03193520731255412
1746738976868030500,5.899030517578125,-0.031252631875872613,0.01288987671136856,0.023262802165746686
1746738976878109400,5.909109375,-0.03329787396788597,0.010655834048986434,-0.005273519956134259
1746738976888188400,5.9191884765625,-0.055956865021586415,0.005433130964636802,0.0012046265494078396
1746738976898267400,5.929267333984375,-0.037110125732421874,-0.01717325311899185,-0.022951617324724793
1746738976908346400,5.939346435546875,-0.02836743182837963,-0.023530513191223144,-0.04615907257404178
1746738976918425600,5.949425537109375,-0.022987492355704305,0.0029588498055934903,-0.026329386662133036
1746738976928504600,5.959504638671875,-0.0009662146836519241,-0.0021948796957731247,-0.018653591337241232
1746738976938582500,5.96958251953125,0.0378846172362566,0.02429097616970539,-0.027365890103019774
1746738976948661500,5.97966162109375,0.10157529138028622,0.013304302731156348,-0.015058964378759265
1746738976958740500,5.989740478515625,0.11765724213123321,0.016555998003482817,0.021138613086007535
1746738976968819500,5.9998193359375,0.10842705697119236,0.021620295655727387,0.018181151519902048
1746738976978898400,6.0098984375,0.07324994512796401,0.02370879236757755,0.022588300437666475
1746738976988977400,6.019977294921875,0.05232464599907398,0.0196241534024477,0.013126315815746784
1746738976999055400,6.030055419921875,0.006745967128872871,0.004187514817714691,0.0079646952688694
1746738977009134600,6.040134521484375,-0.07392214530110358,0.003559738308191299,-0.0016547084044665097
1746738977019213300,6.05021337890625,-0.08476444183290004,0.016835399466753005,-0.0005805763669312
1746738977029292500,6.06029248046875,-0.07335983524322509,0.0013555062621831893,0.010252112086303531
1746738977039371500,6.07037158203125,-0.015597966626286507,0.011378303104639052,0.03825348708126694
1746738977049450500,6.080450439453125,0.016814356678724288,0.013044775012135504,0.032538835761509836
1746738977059529500,6.090529541015625,0.05489069709479809,0.01593289766907692,0.015802110896259547
1746738977069607400,6.100607421875,0.07612403925955295,0.03137362790703773,-0.003994987920299172
1746738977079686400,6.110686279296875,0.05677285757958889,0.026435586982965466,0.0005278597990050911
1746738977089765600,6.120765625,0.037593525335192675,0.009023264411091804,-0.009389430842362344
1746738977099844400,6.13084423828125,0.01907996352314949,0.033353403547406194,-0.024372918832115828
1746738977109923300,6.14092333984375,-0.007184943068027496,0.023266893818974493,-0.022695925530605017
1746738977120002600,6.15100244140625,-0.005588029265403747,0.0024760347247123715,0.001452500363253057
1746738977130080500,6.16108056640625,0.002374327915906906,-0.0056014732688665385,-0.0007057371165603398
1746738977140159500,6.171159423828125,0.014646949511766432,-0.013737433451414108,-0.002268858247436583
1746738977150238500,6.181238525390625,-0.022257424515485763,-0.01223638123869896,0.030338549238257108
1746738977160317400,6.1913173828125,-0.01115969191789627,-0.018047113344073294,0.018171945300139485
1746738977170396700,6.201396728515625,-0.023297288957238194,0.00606850625872612,-0.006181793907471001
1746738977180475400,6.211475341796875,-0.01749181754887104,-0.0023258125990629195,-0.002690261997282505
1746738977190554400,6.221554443359375,0.010997779354453086,0.016355506995320318,-0.005572758631035685
1746738977200632600,6.231632568359375,0.048802317091822624,0.015541268002986906,-0.006757401838339865
1746738977210711600,6.241711669921875,0.05775953052937984,0.03629705578386783,-0.004656447503715753
1746738977220790300,6.251790283203125,0.07521510772109032,0.04973229141831398,0.004086977052688599
1746738977230869500,6.261869384765625,0.055523734301328655,0.05883680437207222,0.0013652604712173341
1746738977240948500,6.271948486328125,0.01868131959438324,0.046449324224889274,-0.015482121694274245
1746738977251027700,6.28202783203125,-0.04030862951278686,0.04552753320485353,-0.03334777752421796
1746738977261105700,6.292105712890625,-0.07866144878268241,0.03925122941434383,-0.017036694192513822
1746738977271184400,6.302184326171875,-0.11729250047206878,0.029628245544433593,-0.015509923016652464
1746738977281263600,6.312263671875,-0.1218792437404394,0.019989479583501814,-0.005322071805596351
1746738977291342600,6.322342529296875,-0.10172259089648723,0.007032675115764141,-0.0030993907874450085
1746738977301421300,6.33242138671875,-0.039164135652780534,0.015625439155101777,0.013779665157943963
1746738977311500500,6.34250048828125,0.01199322013258934,-0.00038169279396533964,0.010764408989995717
1746738977321579500,6.35257958984375,0.07238134559988975,0.0006838906109333038,0.021542188918218016
1746738977331657500,6.362657470703125,0.1256266135752201,0.009731120419502257,0.01986793556306511
1746738977341736400,6.372736328125,0.15995675320029257,0.010060790765285491,0.022692199203558264
1746738977351815400,6.3828154296875,0.1521960560709238,-0.0012198971837759018,0.010908968559838831
1746738977361894400,6.392894287109375,0.11749532956779002,0.0007487725406885147,0.007841872606799007
1746738977371973600,6.4029736328125,0.053308980861306185,-0.019988895061612128,-0.01607332905307412
1746738977382052400,6.41305224609375,0.009989479094743728,-0.0013905775755643844,-0.028186303107812997
1746738977392130300,6.42313037109375,-0.009348843103647232,-0.010324994659423827,-0.012027999185025692
1746738977402209500,6.43320947265625,-0.035170682102441786,-0.009797171393036841,-0.004357245361432433
1746738977412288500,6.44328857421875,-0.028813422030210492,-0.009933364993333816,-0.02590330673716962
1746738977422367500,6.453367431640625,-0.021267244434356687,0.009100421300530433,-0.004036890833266079
1746738977432446500,6.463446533203125,-0.002218260571360588,0.022788754913210866,-0.014372553017176687
1746738977442525400,6.473525390625,0.0078057053148746485,0.02516016021966934,-0.008746018372289836
1746738977452604400,6.4836044921875,-0.001954056677222252,0.03836860136091709,0.007017441014014184
1746738977462682400,6.493682373046875,-0.016671148815751075,0.051449616730213164,0.0022559622332453725
1746738977472761300,6.50376123046875,0.0000011690437793731689,0.03762216690778732,0.02197948435693979
1746738977482840600,6.513840576171875,0.0034393267989158626,0.02694996624588966,0.015934139778092504
1746738977492918800,6.523918701171875,-0.0017436287969350814,0.022279051825404166,0.0005664017111063003
1746738977502997800,6.533997802734375,0.00282031811773777,0.012632102558016776,0.006569368452951312
1746738977513076700,6.54407666015625,0.02539338445365429,0.006485854887962341,0.008230725793913006
1746738977523155700,6.55415576171875,0.0024181670576334,0.0048310734182596205,0.007354490948654711
1746738977533233700,6.564233642578125,0.03305062120854854,-0.0050911856591701506,0.007937551533617079
1746738977543313000,6.57431298828125,0.02046411135792732,0.012193711140751838,0.004298720107227563
1746738977553391600,6.5843916015625,0.03242167565524578,0.01085515601336956,0.00408401791062206
1746738977563470600,6.594470703125,0.05354103605151176,0.010814824002981185,0.0037203722300007936
1746738977573549800,6.6045498046875,0.06519698705375195,0.01568447586596012,0.009581263620033859
1746738977583628500,6.614628662109375,0.042326399075984955,0.019129063361883164,0.010084792695380746
1746738977593707800,6.624707763671875,0.03378127357065677,0.011624386820197105,0.02245824431721121
1746738977603785700,6.63478564453125,0.03829319803714752,0.00993628760278225,0.0006800181534141301
1746738977613864700,6.64486474609375,0.01838555151820183,0.009493220010399818,0.0004361263949424028
1746738977623943700,6.654943603515625,0.025672201395034788,0.011853227140009403,-0.026597170752845702
1746738977634022700,6.665022705078125,0.00831540840268135,0.01166384204775095,-0.009512034308724104
1746738977644101600,6.6751015625,-0.031740707653760906,0.015523147824406622,-0.012331000719591974
1746738977654180900,6.685180908203125,-0.038276831424236296,0.0333770766839385,-0.01636058502923697
1746738977664258800,6.6952587890625,-0.050317982351779936,0.020873568941652775,-0.009239026053622364
1746738977674337500,6.705337646484375,-0.04006897553801536,0.02270370697826147,0.004567125252448022
1746738977684416800,6.715416748046875,-0.03836450970768928,0.011214052453637123,-0.011850742921978234
1746738977694495700,6.725495849609375,-0.009717676416039467,-0.0022556699723005292,-0.01598711207434535
1746738977704574500,6.735574462890625,0.02693301511108875,0.0012298340559005736,-0.013484591201506555
1746738977714653700,6.74565380859375,0.0547112488746643,0.024928689551353453,-0.014321516949683427
1746738977724732700,6.755732666015625,0.08588321672976017,0.008233575338125229,-0.01574132061973214
1746738977734810600,6.765810546875,0.10333820939958095,0.01980535518825054,-0.005433130964636802
1746738977744889900,6.775889892578125,0.07301905898153782,0.0021527941197156905,0.00030471856761723755
1746738977754968600,6.785968505859375,0.06384498792290687,0.005843465331196784,0.01089106757696718
1746738977765047800,6.7960478515625,0.05815758993625641,-0.007474573664367198,0.02232464453279972
1746738977775126800,6.806126708984375,0.052960605815052984,-0.012732640323042868,0.00655902972202748
1746738977785205500,6.81620556640625,0.04670096089839935,-0.021978899835050105,0.01317881318796426
1746738977795284700,6.82628466796875,0.03137655051648617,-0.009622691608965396,0.015062069651298225
1746738977805362700,6.83636279296875,0.011264905858039855,-0.008028408154845238,0.022551183297671376
1746738977815441700,6.846441650390625,-0.043996962636709214,-0.00592383709102869,0.015327661784924566
1746738977825520600,6.856520751953125,-0.07426935130357742,0.00950228009968996,-0.0008007949888706207
1746738977835599600,6.866599609375,-0.09655717095732688,0.03218026811480522,-0.022125468698889015
1746738977845678600,6.8766787109375,-0.07346212657392025,0.04676262795776129,-0.04105060698650777
1746738977855757800,6.8867578125,-0.038567338803410525,0.05846504845023155,-0.02977784661557525
1746738977865836500,6.89683642578125,-0.018138883280754088,0.06408990259468555,-0.014288345332443714
1746738977875914500,6.90691455078125,0.00912146408855915,0.05385843143761158,0.004898001174628734
1746738977885993700,6.91699365234375,0.039243630629777905,0.05178250194638967,-0.002615443195402622
1746738977896072700,6.92707275390625,0.039926936718821526,0.028151158729195592,0.009337591057270766
1746738977906151700,6.937151611328125,0.020350129589438437,0.022756313948333263,-0.009581921207159757
1746738977916230700,6.947230712890625,0.010440145471692084,0.0008557400465011596,0.004008833782561123
1746738977926309600,6.9573095703125,0.020087094739079474,-0.008425298517942428,0.0027768077695742247
1746738977936388600,6.967388671875,0.021406360644102094,-0.044644612890481945,0.0012224179344251752
1746738977946466600,6.977466552734375,0.01253565644621849,-0.02207446916401386,0.01115260458998382
1746738977956545500,6.987545654296875,0.011254384464025496,-0.01561257967352867,0.0001426233410835266
1746738977966624800,6.997624755859375,0.015053776746988295,-0.0049517771884799,0.015721227679774165
1746738977976703700,7.007703857421875,0.03635200084149837,0.0017278467059135437,0.02474664751533419
1746738977986782700,7.01778271484375,0.05650748464167118,0.005841127243638038,0.023575375246256587
1746738977996861700,7.02786181640625,0.07408405786454678,-0.00023614684343338012,-0.0023683000339195133
1746738978006940700,7.037940673828125,0.0719827016711235,-0.0002776478976011276,-0.007203574703261256
1746738978017019000,7.048018798828125,0.06675707597732544,0.014051613967120647,-0.022429237418435513
1746738978027097600,7.05809765625,0.05836743329465389,0.017992168286442754,-0.005667560775019228
1746738978037176600,7.068176513671875,0.0558224249869585,0.012987784127891063,-0.022894297646917403
1746738978047255800,7.078255859375,0.019060089778900145,0.018342589159309863,0.00031180589552968737
1746738978057334800,7.088334716796875,-0.021606267130374907,0.014982757337391376,-0.022817067692242562
1746738978067413500,7.09841357421875,-0.04801087445318698,0.006538461858034134,-0.026163565108552573
1746738978077492700,7.10849267578125,-0.04260229340791702,0.020148469537496567,-0.003731587743759155
1746738978087570700,7.11857080078125,-0.02985796264708042,0.012736731976270675,0.011404825785383581
1746738978097649700,7.128649658203125,-0.02321837850213051,0.011840367658436298,0.012392412050627171
1746738978107728600,7.138728759765625,0.016722002220153808,0.026537293791770934,0.005371171644330024
1746738978117807600,7.1488076171875,0.07523147433400154,0.023928572598099707,0.012348645974136888
1746738978127886800,7.158886962890625,0.06634849517643451,0.032256840482354165,0.010466120163165032
1746738978137965600,7.168965576171875,0.03896306012272834,0.009227554811537265,-0.004012085185572505
1746738978148044500,7.17904443359375,0.05278583377003669,0.012878478534519672,0.006701251204311847
1746738978158122800,7.189122802734375,0.034920506733655925,0.021117899091541766,0.015921864818409084
1746738978168201700,7.19920166015625,0.01476736102104187,-0.011095102249085902,0.010130202739685774
1746738978178280700,7.20928076171875,-0.02972644522190094,-0.027874972136318683,0.00040459874551743266
1746738978188359700,7.219359619140625,-0.0550818357527256,-0.007592647086083888,-0.0011720394540578126
1746738978198438700,7.229438720703125,-0.0820697959214449,-0.010804887130856514,-0.00871182384174317
1746738978208518000,7.239517822265625,-0.0572428131788969,-0.018863982684910297,-0.02641374047733843
1746738978218596600,7.2495966796875,-0.03017477351129055,0.007267068393528461,-0.0317088877433911
1746738978228674600,7.259674560546875,0.009038461980223655,0.024512509965896604,-0.03198043469376862
1746738978238753800,7.26975390625,0.0418885921806097,0.029375439827144145,0.02464439271725714
1746738978248832800,7.279832763671875,0.054961424243450165,0.0289525382399559,0.03409461383614689
1746738978258911500,7.289911376953125,0.07060732166469097,0.028992285728454588,0.03296736337188631
1746738978268990700,7.29999072265625,0.06974164474606513,0.031469489496946335,0.01797072363961488
1746738978279069700,7.310069580078125,0.06652677435278892,0.012488017912209033,0.014468378074467181
1746738978289148700,7.320148681640625,0.0362374345511198,0.0075683894276618955,0.008944134760275483
1746738978299227000,7.330226806640625,0.017910335221886634,0.013034253618121147,0.01666106581315398
1746738978309305600,7.3403056640625,-0.032138182538747784,0.012344517788290977,0.017826310200244187
1746738978319384600,7.350384521484375,-0.046378889337182046,-0.0018035422906279564,-0.0005371025513857603
1746738978329463800,7.3604638671875,-0.05019990893006324,0.023126024043560026,-0.005481828944571316
1746738978339542500,7.37054248046875,-0.03442249408364296,0.015081541536748408,-0.020610899417474866
1746738978349621800,7.380621826171875,-0.013889993664622307,0.0017249240964651107,-0.0077751275135204195
1746738978359700700,7.39070068359375,-0.0032370822250843046,0.00931494083404541,-0.030968627302721142
1746738978369778700,7.40077880859375,0.02869242599904537,-0.0003644493982195854,-0.0354921326091513
1746738978379857700,7.410857666015625,0.05793664066195488,0.024246260245144365,-0.015369893491454421
1746738978389936600,7.4209365234375,0.08801789067089558,0.002364975565671921,0.014168481812439859
1746738978400015600,7.431015625,0.08131167103052139,0.015530162087082862,0.018275040348432955
1746738978410094800,7.4410947265625,0.09491291088163852,-0.006007423721253871,0.03266750364247709
1746738978420173600,7.451173583984375,0.02429097616970539,-0.005144084890186786,0.03216452255640179
1746738978430252800,7.461252685546875,-0.012483633998036384,-0.005839373677968979,0.019053952299058437
1746738978440331800,7.471331787109375,-0.021869886502623555,0.0011646598652005195,0.01846961307246238
1746738978450409700,7.48140966796875,-0.06105331137776374,-0.016442308495938775,0.006453779249265789
1746738978460488700,7.49148876953125,-0.041077860319614405,0.003361585387587547,-0.0065547188730910415
1746738978470567700,7.501567626953125,-0.026711481314897537,0.0051703883752226825,-0.020684877969138322
1746738978480646700,7.511646728515625,-0.03265957606434822,0.021835107450187206,-0.013776450287550687
1746738978490725600,7.5217255859375,0.01103811136484146,0.052629766425490374,-0.025328977447934446
1746738978500803800,7.531803955078125,0.028132454028725624,0.06411737512350082,-0.01519362360909581
1746738978510883000,7.541883056640625,0.049043140110373494,0.055173605689406394,-0.028698526946268975
1746738978520961000,7.5519609375,0.07726561051011085,0.0466898549824953,-0.018478015574626624
1746738978531040000,7.5620400390625,0.05885667811632156,0.04412555745244026,-0.03251373785287141
1746738978541119000,7.572118896484375,0.03361526935398578,0.04449234493821859,-0.03177607122808695
1746738978551198000,7.582197998046875,0.0059866731941699974,0.009222586375474929,-0.02774933646265417
1746738978561277200,7.592277099609375,-0.035353052932024,0.004103343665599822,0.012808007114194333
1746738978571356200,7.602356201171875,-0.050418520116806025,-0.012381050406396388,0.026707828053086996
1746738978581435000,7.612434814453125,-0.03869710266292095,-0.018336451679468155,0.005001571146957576
1746738978591513000,7.62251318359375,-0.03037175738811493,-0.018883564168214798,0.013216222588904201
1746738978601592000,7.632592041015625,0.00770458302795887,-0.002306231115758419,0.028326551828719675
1746738978611671000,7.642671142578125,0.055559974658489227,0.009606617256999015,0.012521372192539274
1746738978621750000,7.65275,0.0736561878412962,-0.001474164205789566,0.025756957069039344
1746738978631829000,7.6628291015625,0.040654081949591636,-0.020030396115779874,0.044841852495633064
1746738978641908200,7.672908203125,0.0020195231288671492,0.002437456279993057,0.012723361038044095
1746738978651987200,7.6829873046875,0.01988894181847572,0.011688684228062629,-0.011798209017142652
1746738978662065200,7.693065185546875,0.042803368937969204,0.015339607951045036,-0.01742916410882026
1746738978672144100,7.70314404296875,0.06021276890039444,0.006259644916653633,-0.023313838233239948
1746738978682223000,7.71322314453125,0.04612579135894775,0.007721534162759781,-0.023174283632077276
1746738978692302000,7.723302001953125,0.033494857844710346,0.013062895190715788,-0.018138262226246295
1746738978702381000,7.733381103515625,0.013746785801649094,0.009303834918141364,0.004572605145163834
1746738978712460000,7.7434599609375,0.0025029227316379545,0.010199614714086055,-0.013538330682739614
1746738978722539000,7.7535390625,0.004255903878808021,0.019781682051718232,-0.0201338564902544
1746738978732617200,7.7636171875,-0.012241057413816451,0.015556465572118759,-0.024172135563008484
1746738978742696000,7.773696044921875,-0.02708206819295883,0.006067337214946746,0.006214271404966712
1746738978752775000,7.78377490234375,-0.009261164820194245,0.032228783431649206,0.011734569196403026
1746738978762854100,7.793854248046875,-0.02308627655506134,0.02110065569579601,0.00834916454181075
1746738978772933000,7.80393310546875,-0.02905190696120262,0.007103986786305904,0.016803616089001296
1746738978783012000,7.81401220703125,-0.01920095955431461,0.026655659474432467,0.011956176057830453
1746738978793091000,7.824091064453125,0.011933014377951622,0.01620645391345024,0.0009175532363355159
1746738978803169000,7.8341689453125,0.021714403679966927,0.003883563435077667,0.014577829798310994
1746738978813248300,7.844248291015625,0.03532382683753967,-0.00021861118674278257,-0.011062295958027242
1746738978823327000,7.854326904296875,0.06298632526695729,0.010140285742282866,0.006565824788995087
1746738978833406000,7.864406005859375,0.06522445958256722,0.010335516053438186,0.00931494083404541
1746738978843485200,7.874485107421875,0.05217383935153484,0.008502455407381057,0.02692147080376744
1746738978853564000,7.88456396484375,0.037870004189014435,0.0050362406015396115,0.004798851649090647
1746738978863643100,7.89464306640625,0.024519524228572846,0.012356208226084709,0.011989274609833955
1746738978873722000,7.90472216796875,0.01211129355430603,0.012233458629250526,0.008485358142107725
1746738978883800000,7.914800048828125,0.009409633380174637,-0.002821487161517143,0.0015138386290520429
1746738978893879300,7.92487939453125,0.0028945523977279663,0.006330079804360866,0.011588840582780539
1746738978903958000,7.9349580078125,-0.03162438779771328,0.00154021517932415,-0.00361132236495614
1746738978914037000,7.945037109375,-0.05688508578240871,0.0065562897756695744,-0.03199661864358932
1746738978924116200,7.9551162109375,-0.03295885127186775,0.011196809057891369,-0.037378530877642334
1746738978934195000,7.96519482421875,0.013652677777409552,0.0168880064368248,0.036773404591344296
1746738978944274000,7.97527392578125,0.029453473499417303,0.040709027007222176,0.054174365518987175
1746738978954352000,7.98535205078125,0.06302256562411784,0.02309621342718601,0.01016757560800761
1746738978964431000,7.99543115234375,0.09863806888461113,0.02046294231414795,-0.019272600018419326
1746738978974510000,8.005510009765626,0.07896189303398132,0.033631051445007325,-0.006099851245060563
1746738978984589000,8.015589111328126,0.07278992640078068,0.015098784932494162,-0.003145348821021616
1746738978994668000,8.02566796875,0.02335457210242748,0.02051204215288162,0.011819872859679162
1746738979004747300,8.035747314453126,-0.0316974530339241,0.002680617386102676,0.01613024687208235
1746738979014826000,8.045825927734375,-0.035361236238479615,0.01712882945537567,0.03430416493359953
1746738979024905000,8.055905029296875,-0.04703881455063819,0.009973404742777347,-0.006637428720481693
1746738979034983200,8.065983154296875,-0.03879471781849861,-0.02374678629040718,-0.044750995874404904
1746738979045062100,8.076062255859375,-0.0432610495775938,0.0018637480452656744,-0.05052033652346581
1746738979055140900,8.086140869140625,-0.02947276272177696,0.01695931810736656,-0.02145936947297305
1746738979065220000,8.09622021484375,-0.02538286305963993,-0.0012879939839243889,-0.0036699206843972204
1746738979075299000,8.106299072265625,-0.0024327801048755642,0.0133586632668972,0.03150660663694143
1746738979085378000,8.1163779296875,0.022988076877593994,0.020108137527108192,0.03340725262649357
1746738979095457000,8.12645703125,0.08145663245916367,0.026547230663895607,0.021535284253396094
1746738979105535000,8.136534912109376,0.10119184502065182,0.0004033201038837433,0.03369407021123916
1746738979115614000,8.146614013671876,0.07478139247894287,-0.01382277364730835,0.04097348662968725
1746738979125693200,8.156693115234376,0.06714344494640827,-0.005962123274803161,0.0211329870628193
1746738979135772000,8.16677197265625,0.03433306223452091,0.00540098226070404,0.0031517785618081686
1746738979145851100,8.17685107421875,0.009721183547377586,-0.0045008185505867005,-0.02979443242419511
1746738979155930000,8.18693017578125,-0.02535539053082466,0.008846738800406456,-0.04231883682403713
1746738979166008800,8.1970087890625,-0.02594225050806999,0.02649783856421709,-0.033260135773383076
1746738979176088000,8.207088134765625,-0.02342179211974144,0.025067221239209174,-0.015815079975686968
1746738979186166000,8.217166015625,-0.020289339312911034,0.0179249482691288,0.000850625479966402
1746738979196245000,8.227244873046875,-0.020945757395029067,0.03196984023451805,-0.0026143106842413544
1746738979206324200,8.23732421875,-0.02725976284742355,0.04234422699362039,-0.00008260024953633546
1746738979216403000,8.24740283203125,-0.028898762226104734,0.04992050746679306,-0.009555325461179017
1746738979226482200,8.257482177734374,-0.0035468788266181943,0.033711130943894385,-0.00803794316817075
1746738979236561200,8.26756103515625,0.0039437691897153855,0.02056786399334669,-0.012198825707286596
1746738979246639900,8.277639892578126,0.0328957229077816,0.014367548048496246,0.011006401052325964
1746738979256718000,8.287718017578126,0.061011810323596,-0.0010065466940402984,0.019685345537774263
1746738979266797000,8.297797119140625,0.08273264374434948,-0.011432079118490219,0.02371843697875738
1746738979276876000,8.3078759765625,0.07848843030333519,-0.00984042601287365,0.016987959679961202
1746738979286955000,8.317955078125,0.020527239722013473,0.004468377585709095,0.01854629503786564
1746738979297034000,8.328033935546875,-0.007826163581013679,-0.002630640764534473,0.0198476234273985
1746738979307113200,8.33811328125,-0.028915713360905645,-0.0017465514063835143,0.017922098724916576
1746738979317192200,8.348192138671875,-0.04355506408810615,0.001254091714322567,-0.0012135039756074547
1746738979327271000,8.35827099609375,-0.0405336704403162,-0.0088294954046607,-0.013909940474107861
1746738979337348900,8.368348876953124,0.005814239236712456,0.00862257465571165,-0.03550272706840187
1746738979347428000,8.378427978515624,0.04862812956869602,0.018841478592157363,-0.0016163491554558277
1746738979357507000,8.388507080078124,0.07917816613316535,0.012116261990368365,-0.01510134221576154
1746738979367586000,8.3985859375,0.08727788595855236,0.015565233400464057,-0.012103658237121999
1746738979377665000,8.4086650390625,0.075059040376544,0.02124766295105219,-0.004712269344180822
1746738979387744000,8.418743896484376,0.04605681777596474,0.00963905822187662,0.004122267561778426
1746738979397823000,8.428822998046876,0.029141338810324668,0.017815350414812563,0.023332031477056443
1746738979407901000,8.43890087890625,-0.0022977555483579635,0.035384324853122234,0.008727459802292286
1746738979417980000,8.44897998046875,-0.018971242451667786,0.014755378322303295,-0.006666654814966023
1746738979428059100,8.45905908203125,-0.010939911687374114,0.011592530377209186,0.008085143310762941
1746738979438138000,8.46913818359375,-0.04654255546629429,0.01975567082762718,0.03208838858027011
1746738979448217000,8.479217041015625,-0.0771679953545332,0.010448036517202854,0.024556202977150676
1746738979458296000,8.489296142578125,-0.06710135937035083,0.033357202939689155,0.03225307762268931
1746738979468375000,8.499375,-0.06473930641412734,0.023980595046281812,-0.004362250330112874
1746738979478454000,8.5094541015625,-0.017298925325274467,0.018085399527847767,-0.017249569758214057
1746738979488532000,8.519531982421874,0.016678747600317,0.013107026593387127,0.0015597966626286505
1746738979498611700,8.52961181640625,0.0630249037116766,0.02492489015907049,0.003405168800987303
1746738979508690700,8.539690673828124,0.08997779256701469,0.007239011342823505,0.012719707776233553
1746738979518769400,8.549769287109376,0.10501987887620925,0.0227349788993597,0.01767159456256777
1746738979528848600,8.5598486328125,0.07045066979825496,0.004497603680193424,-0.0047141690403223035
1746738979538927600,8.569927734375,0.02571779410243034,0.002269113975763321,0.006677176208980381
1746738979549006600,8.580006591796876,-0.00831716196835041,0.019733166734874248,0.00892035202588886
1746738979559084500,8.59008447265625,-0.0363595996260643,0.014035247354209423,-0.016605134374834594
1746738979569163500,8.60016357421875,-0.05563771606981754,0.00027501754909753796,-0.01301624303739518
1746738979579242800,8.61024267578125,-0.05449439125359058,-0.007384849554300308,-0.007336626498401165
1746738979589321700,8.62032177734375,-0.012392448583245277,0.004647825805842876,-0.00007682809587568045
1746738979599400400,8.630400390625,0.024888942062854764,0.021580255906283853,0.007272402155771851
1746738979609479700,8.640479736328125,0.05783844098448753,0.023629297390580176,0.0064535235209390515
1746738979619558700,8.65055859375,0.045806057885289186,0.017084113530814647,0.013665866052545605
1746738979629637400,8.660637451171874,-0.00003565583527088165,0.009279869520664214,-0.0018124197168275713
1746738979639715600,8.670715576171874,-0.0044447044491767885,0.01061111812442541,0.004360862090624869
1746738979649794600,8.680794677734376,-0.0023521160840988156,0.021326573406159878,0.008508008365333079
1746738979659873500,8.69087353515625,-0.010731237372756004,0.014926643235981463,-0.011936010052636266
1746738979669952500,8.700952392578126,0.004057750958204269,0.007542670464515686,-0.006475698820129037
1746738979680031500,8.711031494140625,0.02348492048382759,0.00966653075069189,-0.006841682588309049
1746738979690110700,8.72111083984375,0.030057284611463547,0.004319032242894172,-0.0007019377242773771
1746738979700189700,8.731189697265625,0.030093524968624115,0.0209203306928277,0.018668350514955818
1746738979710267600,8.741267578125,0.024203297886252403,0.04366933811753988,-0.0003527224278077483
1746738979720346600,8.7513466796875,0.04141337588429451,0.03111936088502407,-0.014389504151977598
1746738979730425600,8.761425537109375,0.041458968591690064,0.01087386071383953,-0.013431947698816657
1746738979740504600,8.771504638671875,0.03726619307696819,0.009325169967114924,-0.039099144125171
1746738979750583600,8.78158349609375,0.023275077125430105,0.014064181187748909,-0.011526479403674602
1746738979760662500,8.79166259765625,0.017357962036132813,0.006844751328229904,0.019973003372736275
1746738979770741800,8.80174169921875,-0.02955459578633308,0.015745266142487526,0.00952624549716711
1746738979780820700,8.81182080078125,-0.031335049462318416,0.00003302548676729202,0.02100585355181247
1746738979790898700,8.821898681640626,-0.06931961994171142,-0.008756722429394721,0.026982297612912952
1746738979800977700,8.831977783203126,-0.08182254316210746,-0.011037819103896618,0.007326908821985125
1746738979811056600,8.842056640625,-0.0856593448460102,0.0018389058649539945,-0.007206570377945899
1746738979821135600,8.852135498046875,-0.08621873229444027,-0.0019566870257258415,-0.013744593844562768
1746738979831214600,8.862214599609375,0.000023380875587463377,0.014866729742288589,-0.024759506996907293
1746738979841293600,8.87229345703125,0.03741524615883827,0.03784720783531666,-0.021455022091418502
1746738979851372500,8.88237255859375,0.09907412221431731,0.054956748068332666,-0.015943601726181804
1746738979861450800,8.89245068359375,0.11952186695933341,0.06578910772800445,0.0012572335194796322
1746738979871529500,8.902529541015625,0.12866495835781097,0.054494975775480264,0.02407002689540386
1746738979881608400,8.9126083984375,0.10627367832958698,0.05160509955286979,0.019210494567640124
1746738979891687700,8.922687744140624,0.08125789501667022,0.04431201993525028,0.010842698390595614
1746738979901766700,8.9327666015625,0.04914601596295833,0.014252689497172831,-0.007841909139417111
1746738979911845600,8.942845703125,-0.029648119288682936,-0.012892214798927307,-0.025741832565143702
1746738979921924600,8.952924560546874,-0.059064767909049985,-0.02469312722980976,-0.006888444339483976
1746738979932003600,8.963003662109376,-0.09409574927985667,-0.03635112405866384,0.005642134072817862
1746738979942081800,8.973081787109376,-0.09211889624893664,-0.04330985715538263,0.002048785755969584
1746738979952160500,8.983160400390625,-0.06219897428154945,-0.020336977846920488,0.02472297437880188
1746738979962239500,8.993239501953125,0.004927519530057906,-0.021348785237967967,0.024876411374844608
1746738979972318700,9.003318603515625,0.04469371272921562,-0.00741699825823307,0.016357589354552327
1746738979982397400,9.0133974609375,0.09248948312699794,0.02975157966315746,0.01959763072170317
1746738979992476700,9.0234765625,0.12629530661702154,0.03653466393202543,0.0043187765145674345
1746738980002555600,9.0335556640625,0.15107786569595336,0.049097500646114345,0.0030169732009992
1746738980012634600,9.043634521484375,0.12725859869122505,0.03432517118901014,-0.015039054101891814
1746738980022712800,9.053712890625,0.05345803394317627,0.030216274565458296,0.0014102321241050958
1746738980032791600,9.06379150390625,0.010007014751434326,0.015204291133582591,-0.018141988553293048
1746738980042870500,9.07387060546875,-0.024349428358674048,0.018922434873878954,-0.01348342215772718
1746738980052949800,9.08394970703125,-0.0858516525477171,-0.01068652144819498,-0.008309380520693957
1746738980063028500,9.094028564453126,-0.10111585717499255,-0.027548516660928724,-0.02874419271890074
1746738980073107500,9.104107421875,-0.1092266829162836,-0.019837503892183302,-0.03174921975377947
1746738980083186700,9.114186767578126,-0.07024082643985748,-0.009153905053436755,-0.06107245446965098
1746738980093265400,9.124265380859375,-0.02235737775862217,0.002552607092261314,-0.005501629623584449
1746738980103343400,9.13434326171875,0.03470598720014095,0.00938332989513874,0.021101167152449488
1746738980113422600,9.144422607421875,0.06658230393230914,0.030000585988163946,0.018181151519902048
1746738980123501600,9.15450146484375,0.1092225912630558,0.050806058129668236,0.020344174772687254
1746738980133580800,9.164580810546875,0.10810206280052662,0.03504676346182823,0.03314633666798472
1746738980143659500,9.174659423828125,0.08948562513589858,0.04109393467158079,0.036652627755887804
1746738980153738500,9.184738525390625,0.0692465547055006,0.021235972513258455,0.025402736803889273
1746738980163817700,9.194817626953125,0.020229133558273313,0.011781915469467639,0.015614223641343414
1746738980173895700,9.204895751953124,-0.025970307558774948,0.008897007682919502,0.03485748796742409
1746738980183974400,9.214974365234376,-0.05529460172057152,-0.018844985723495484,0.01956792970318347
1746738980194053600,9.2250537109375,-0.06350479618310928,-0.008410100948810577,0.018699878164380786
1746738980204132600,9.235132568359376,-0.05707505539655685,-0.009258242210745811,-0.01495605199355632
1746738980214211600,9.245211669921876,-0.03472819903194904,-0.008171908278763294,-0.028760376668721437
1746738980224290600,9.25529052734375,-0.01852057607471943,0.01431289525181055,-0.01843026744276285
1746738980234369500,9.26536962890625,0.027270868763327596,0.014772037196159361,-0.016418196967989206
1746738980244448800,9.27544873046875,0.0700268914282322,0.037246027071774004,-0.007022263319604098
1746738980254526700,9.285526611328125,0.09172726658284663,0.03040039896070957,-0.014748948581516742
1746738980264605400,9.29560546875,0.10304244132339954,0.025266835464537143,-0.00584310000501573
1746738980274684700,9.3056845703125,0.06920563817322253,0.03494681021869182,0.005121690395288169
1746738980284763600,9.315763671875,0.04704056811630725,0.016694237430393694,-0.0034959523569792505
1746738980294842400,9.32584228515625,0.02314998944103718,0.018628712624311445,0.016881357500329614
1746738980304921600,9.335921630859374,0.0011930091768503188,0.005928805527091026,0.012126710319146514
1746738980315000600,9.34600048828125,-0.016931261056661605,0.011996727263927458,0.00845609551500529
1746738980325079600,9.35607958984375,-0.05818915411829948,-0.005805763669312,-0.00006948503963649273
1746738980335157800,9.36615771484375,-0.06007248364686966,-0.014595803846418856,0.0033172347892075774
1746738980345236500,9.376236572265626,-0.044193361991643906,-0.00029138416200876236,-0.0046415787281468505
1746738980355315700,9.386315673828125,-0.04902794254124164,0.007636193966865539,-0.018942272085510192
1746738980365394700,9.396394775390625,-0.026466566643118857,0.014288637593388557,-0.016257709176652133
1746738980375473400,9.406473388671875,0.0020727146208286283,0.018260171572864053,-0.010906082483008504
1746738980385552600,9.416552734375,0.06028583413660526,0.025196400576829907,-0.011053491597063838
1746738980395631600,9.426631591796875,0.08660276317596435,0.03048281654715538,-0.005455854253098368
1746738980405709600,9.43670947265625,0.10664835686087608,0.023468553870916366,-0.0003864055017009377
1746738980415788500,9.44678857421875,0.09266367065012454,0.024727321760356424,0.012866093976981937
1746738980425867500,9.456867431640624,0.05459726710617542,0.01497428176999092,0.0020736644688993692
1746738980435946800,9.46694677734375,0.009825228443741799,0.008255202648043632,-0.019507687415927646
1746738980446025700,9.477025634765624,-0.06999649628996849,-0.001163198560476303,-0.010597893316671252
1746738980456104400,9.4871044921875,-0.09062427377700805,0.009766191732883452,-0.014064692644402384
1746738980466183700,9.49718359375,-0.10516951647996901,-0.0011889175236225128,0.0013095482286065816
1746738980476262700,9.5072626953125,-0.08804360963404179,-0.0009159458011388778,-0.010964023215323686
1746738980486340600,9.517340576171875,-0.05753507412374019,0.016394085440039632,0.03390369437392801
1746738980496419000,9.527419189453125,-0.0037251580029726027,0.011651859349012373,0.04464640298876911
1746738980506498300,9.537498291015625,0.031951720055937764,0.003421498881280422,0.051754992884956295
1746738980516577300,9.547577392578125,0.09037526745200157,0.018019640815258024,0.04059131891168654
1746738980526656500,9.557656494140625,0.1039063646763563,0.0012985153779387472,0.025604323790594935
1746738980536735200,9.5677353515625,0.11830196977555751,0.007062777993083,-0.007264036186225712
1746738980546814200,9.577814208984375,0.09559212531745433,0.025037118361890313,-0.0006589023001492023
1746738980556893400,9.5878935546875,0.05999532675743103,0.03095072631984949,0.0032503070328384637
1746738980566971400,9.597971435546874,0.00934767405986786,0.034491759927570816,-0.009690459615550935
1746738980577050000,9.608050048828124,-0.0511994413614273,0.01662994002252817,-0.03409793830439448
1746738980587129300,9.61812939453125,-0.0689238986223936,0.02673398540765047,-0.033279826854541894
1746738980597208300,9.628208251953126,-0.06651976009011268,0.03496668396294117,-0.02696001271586865
1746738980607287300,9.638287353515626,-0.06353577584326267,0.01984071876257658,-0.018228278597258032
1746738980617366300,9.6483662109375,-0.044863808599114416,0.012967325861752033,-0.017833835919573902
1746738980627445200,9.6584453125,-0.02860182510614395,0.02152911024093628,-0.028296047092601657
1746738980637524500,9.6685244140625,0.0297106631308794,0.027988953904807566,0.001625957234017551
1746738980647602400,9.6786025390625,0.0368476754039526,0.018756430657207966,0.019403569454327224
1746738980657681200,9.68868115234375,0.07165653845667838,0.02728285146206617,0.020726269425451756
1746738980667760400,9.698760498046875,0.06919219416975975,0.020021336026489735,0.031335816647298634
1746738980677839400,9.70883935546875,0.08703998554944992,-0.0032671851024031638,0.03359546867497265
1746738980687918300,9.71891845703125,0.09059797029197215,0.01125730707347393,0.02324807952065021
1746738980697997300,9.728997314453125,0.07075286761522293,0.0017316460981965064,0.036400077766925096
1746738980708076300,9.739076171875,0.059035541814565655,-0.011453998689353465,0.04198774170614779
1746738980718155300,9.7491552734375,0.00840425572991371,-0.027328736430406567,0.014230039273947476
1746738980728233200,9.759233154296876,-0.023581951117515564,-0.01038198554366827,-0.007594765977934003
1746738980738312200,9.769312255859376,-0.038218379235267635,-0.01745528493076563,-0.003899820450134575
1746738980748391400,9.779391357421876,-0.06252922914922238,0.0035471710875630376,0.0014101225262507795
1746738980758470400,9.789470458984376,-0.07302081254720687,-0.00725274760723114,-0.018725852855853736
1746738980768549000,9.799549072265625,-0.03896130655705929,0.003831540986895561,-0.039593065121956164
1746738980778628400,9.80962841796875,-0.012153379130363464,0.0090495678961277,-0.02303735937941819
1746738980788707300,9.819707275390625,0.019177578678727148,0.0009057166680693626,-0.014811602021567522
1746738980798786300,9.829786376953125,0.05690963570177555,0.016554828959703446,0.0006714695207774639
1746738980808864300,9.8398642578125,0.06903086612820625,0.04118482782542705,-0.0069133230524137616
1746738980818943200,9.849943115234375,0.08181494437754154,0.034983927358686925,-0.016069200867228208
1746738980829022500,9.8600224609375,0.07552607336640357,0.02723199805766344,0.0084352353900671
1746738980839101400,9.870101318359374,0.05770283190608024,0.04439034586846828,0.028646541030704974
1746738980849180200,9.88018017578125,0.018261048355698584,0.03776420572698116,0.020390205871500075
1746738980859259400,9.89025927734375,-0.016164368337392807,0.03642944999188184,-0.006576419248245656
1746738980869338400,9.90033837890625,-0.07597031000256538,0.013191490006446838,-0.015326529273763299
1746738980879416300,9.910416259765626,-0.08609364461004733,0.0013335866913199424,0.018000716919079424
1746738980889495300,9.920495361328125,-0.12702829706668853,-0.004412555745244026,-0.0015098931062966583
1746738980899574300,9.93057421875,-0.08522972125709057,-0.008315116141736507,-0.026069128290750084
1746738980909653500,9.940653564453125,-0.06645955433547496,-0.01798456950187683,-0.013440532864071429
1746738980919732200,9.950732177734375,-0.013034253618121147,0.004819967502355575,0.001273454001918435
1746738980929811200,9.960811279296875,0.039492052432894706,0.020934651479125023,0.025795572046376763
1746738980939890400,9.970890380859375,0.044080549266934395,0.023906068505346774,0.015214228005707263
1746738980949969400,9.980969482421875,0.057743163916468616,0.023007658360898492,-0.005222593486495316
1746738980960047400,9.99104736328125,0.0914718305170536,0.03722703011035919,-0.0030306364001706242
1746738980970126300,10.001126220703124,0.07271803020834923,0.026564766320586203,-0.015304171311482786
1746738980980205300,10.011205322265624,0.054685529911518094,0.0242012520596385,-0.007914207190647721
1746738980990284300,10.0212841796875,0.03431377301216125,0.015796996329724786,0.017634039031155405
1746738981000363300,10.03136328125,0.03655249184966087,0.01564823550879955,0.026756416435167192
1746738981010442200,10.041442138671876,0.011156769308447837,0.021388824987411497,0.02057454946245998
1746738981020521500,10.051521484375,-0.01880114658176899,-0.0013332944303750991,0.02464081252068281
1746738981030600200,10.06160009765625,-0.03369008815586567,0.012202186708152294,0.007064860352315008
1746738981040678100,10.07167822265625,-0.04407236596047878,0.0076554831892251965,-0.003295534414052963
1746738981050757400,10.08175732421875,-0.020091770914196967,0.016349661776423455,-0.022038374937325713
1746738981060836400,10.09183642578125,0.0012713351100683212,0.013610884462296961,-0.015155300892703234
1746738981070915300,10.101915283203125,0.008105565044283867,0.015269465324282645,0.015626790861971676
1746738981080994300,10.111994384765625,0.033680151283740994,0.012131459559500216,0.014746464363485574
1746738981091073300,10.1220732421875,0.02456979311108589,0.020322364799678326,0.037373781637288626
1746738981101152500,10.132152587890625,-0.004547580301761627,0.026810850036144255,0.02379161181282252
1746738981111231200,10.142231201171874,0.007515197935700416,0.021554536943137644,0.00909128814600408
1746738981121309200,10.15230908203125,-0.005983750584721565,0.02502338209748268,-0.008885974832251668
1746738981131388200,10.16238818359375,-0.018517653465270994,0.02561988668590784,-0.017604520675726234
1746738981141467400,10.17246728515625,-0.02433013913631439,0.02698445303738117,-0.0084014792509377
1746738981151546000,10.182546142578126,-0.020451836398243904,0.01250906070023775,-0.008518639357201754
1746738981161625300,10.192625244140626,-0.02225274834036827,0.011904957327246665,-0.004373867702670395
1746738981171704300,10.202704345703125,-0.010361235016584395,0.00904518398195505,0.0004183350099250674
1746738981181783300,10.212783203125,0.005519640204310417,-0.009846855753660202,0.022303199885971844
1746738981191862300,10.2228623046875,0.012352116572856902,-0.020202245551347732,0.015791918295808137
1746738981201940200,10.232940185546875,0.028439912542700767,-0.0005666939720511436,0.02249240231513977
1746738981212019200,10.243019287109375,0.03555646654963493,-0.011499883657693862,0.007759929944388568
1746738981222098400,10.253098388671875,0.08417173663675785,0.009106558780372143,-0.0069238809790462255
1746738981232177200,10.26317724609375,0.1004383963048458,-0.0031812603846192358,0.011212919942475854
1746738981242256400,10.27325634765625,0.13994681535065173,0.011518588358163833,-0.006643602732941508
1746738981252335400,10.28333544921875,0.0815945796251297,0.025404490369558334,0.0028426760800182816
1746738981262414300,10.293414306640624,0.02694529007077217,0.0352963543087244,-0.008604600607603787
1746738981272493300,10.303493408203124,-0.06411854416728019,0.03561404195576906,-0.014090082813985645
1746738981282571300,10.3135712890625,-0.12373042456507682,0.048884442417323586,-0.0025037264492362736
1746738981292650200,10.323650146484376,-0.1209077683597803,0.05340893410444259,-0.024339162692986426
1746738981302729500,10.3337294921875,-0.09196282890439032,0.0205652336448431,-0.039620172324590384
1746738981312808200,10.34380810546875,-0.04274959292411804,0.010171265402436255,-0.03804747964777052
1746738981322887400,10.353887451171875,0.02312368595600128,0.01217880583256483,-0.01997884859163314
1746738981332966400,10.36396630859375,0.07953413996398448,0.01706394752562046,-0.0070305927565321325
1746738981343045000,10.374045166015625,0.11266717875897883,0.02389963876456022,0.03020407267101109
1746738981353124400,10.384124267578125,0.10436053818464279,0.013883856184780597,0.048647601454146205
1746738981363202300,10.394202392578125,0.06288871011137961,0.01547141763716936,0.03767115714866668
1746738981373281300,10.40428125,0.033462709140777584,0.0027618659287691116,0.006161847097985446
1746738981383360500,10.414360595703124,-0.00641921939253807,-0.00838642781227827,-0.00728562696352601
1746738981393439200,10.424439208984374,0.008347557106614112,-0.0128597738340497,0.012125029818713664
1746738981403518200,10.434518310546874,-0.013477321210503577,-0.01730360150039196,0.013281542910076678
1746738981413597400,10.444597412109376,-0.02006020673215389,-0.009730535897612571,0.019220066113583744
1746738981423676200,10.45467626953125,-0.018407763350009917,0.013362754920125007,0.00997450072132051
1746738981433755400,10.46475537109375,-0.025390461844205854,0.012531272532045841,0.01414879073128104
1746738981443833300,10.474833251953125,-0.025747604718804357,0.008715221375226973,0.009154453042708337
1746738981453912300,10.484912353515625,-0.02116086145043373,0.035059330682456494,-0.01989803844038397
1746738981463991300,10.4949912109375,-0.03490530916452408,0.02120528511404991,-0.030045411510579285
1746738981474070300,10.5050703125,-0.015052023181319235,0.009398235203325748,-0.03588533317781985
1746738981484149200,10.515149169921875,0.01575286492705345,0.017756313703954217,-0.023090039414726198
1746738981494228500,10.525228515625,0.05073650002479553,0.012608721682429313,-0.011872808623313903
1746738981504307200,10.53530712890625,0.07666121487617492,0.01205459493100643,-0.014303396771103143
1746738981514385400,10.545385498046874,0.07953881613910198,0.025543898840248585,0.01182506049145013
1746738981524464400,10.55546435546875,0.047776481175422665,0.021284487830102443,0.018689941292256117
1746738981534543400,10.56554345703125,0.030866262906789777,0.018027824121713637,0.01732782262619585
1746738981544622300,10.575622314453126,0.031469489496946335,0.024765607944130897,0.021596037997305393
1746738981554701300,10.585701416015626,-0.0012450316250324249,0.027902736926078794,0.014052454217337071
1746738981564780300,10.5957802734375,-0.03313420783877372,0.008356032674014567,-0.004037767616100609
1746738981574859300,10.605859375,-0.05913257244825363,-0.00927402430176735,-0.005043364462070167
1746738981584938200,10.615938232421875,-0.043565585482120514,0.0076703884974122045,0.02006444451585412
1746738981595016200,10.62601611328125,-0.02894084780216217,0.016458090586960315,0.0036506679946556684
1746738981605095400,10.636095458984375,-0.00033960721790790555,0.007324351538717746,-0.004966499833576381
1746738981615174400,10.64617431640625,0.018598317486047743,0.004409925396740436,-0.006597206307947635
1746738981625253400,10.65625341796875,0.030272388666868207,0.02262450426220894,-0.01706515310201794
1746738981635332400,10.666332275390625,0.027435119414329526,0.02062456261664629,-0.010569836265966295
1746738981645411300,10.676411376953125,0.03280044583976269,0.03544073121547699,0.00652710021380335
1746738981655490300,10.686490234375,0.027422844454646107,0.02504471714645624,-0.024096586108766496
1746738981665569300,10.6965693359375,0.026396424016356466,0.014921090278029441,-0.022166019904986022
1746738981675647200,10.706647216796876,0.042751931011676784,0.019485329453647136,-0.00783277598489076
1746738981685726500,10.7167265625,0.03153320238292217,0.01788490851968527,0.0038007805224508045
1746738981695805200,10.72680517578125,0.012408230674266815,0.010114566779136656,0.02124316943902522
1746738981705884400,10.736884521484376,0.004457563930749893,0.010093231730163096,0.024937201651372014
1746738981715963400,10.74696337890625,-0.040054947012662885,0.016117314325273035,0.04656871282085776
1746738981726042400,10.75704248046875,-0.03896306012272834,0.015831483121216298,0.011812054879404604
1746738981736121300,10.767121337890625,-0.025767478463053703,0.02223696624934673,-0.018050218616612254
1746738981746200300,10.777200439453125,-0.012772972333431243,0.023633096782863138,-0.0073753876062110065
1746738981756278300,10.7872783203125,0.001889174747467041,-0.0014937456890940666,-0.010160196019150317
1746738981766357500,10.797357421875,0.027346856608986853,0.013938508981466292,-0.01027856170181185
1746738981776436200,10.807436279296875,0.0726408733189106,0.01943506057113409,-0.0022423720993101593
1746738981786515200,10.81751513671875,0.07813537908196448,0.014264379934966563,0.012511983309686184
1746738981796594400,10.827594482421874,0.056769934970140455,0.018897592693567274,0.023080467868782577
1746738981806673400,10.83767333984375,0.061145665836334226,0.0018459201276302337,-0.005976699789427221
1746738981816752400,10.84775244140625,-0.0033288521617650985,0.022893092070519924,-0.036334136391244824
1746738981826831400,10.857831298828126,-0.05688333221673965,0.01707534570246935,-0.034957331612706186
1746738981836909300,10.867909423828126,-0.07410743874013423,-0.001222235271334648,-0.00008713029418140649
1746738981846988500,10.877988525390625,-0.08758417542874812,0.0018859598770737647,0.028945487444661556
1746738981857067300,10.8880673828125,-0.06047054305374622,-0.006367781466245651,0.034696415654197336
1746738981867146200,10.898146240234375,-0.04812485622167587,-0.011568272718787192,0.035550329069793225
1746738981877225500,10.9082255859375,0.007681786674261093,-0.005350713378190994,0.024150727448798714
1746738981887304200,10.91830419921875,0.03750584705173969,0.007825871320068836,0.013965141260065138
1746738981897383400,10.928383544921875,0.07520575537085533,0.0009837503403425216,0.020078326910734176
1746738981907462400,10.93846240234375,0.08181143724620342,0.025265374159812927,-0.0031911607241258025
1746738981917540400,10.948540283203124,0.08265022615790367,0.028840017776191232,-0.005100099617987871
1746738981927619600,10.95861962890625,0.08064823868572711,0.03622866672277451,0.015128157157450913
1746738981937698300,10.9686982421875,0.04755436285734176,0.04882248309701681,0.00922934490982443
1746738981947777300,10.97877734375,0.006121697750687599,0.024995617307722567,-0.006667421999946236
1746738981957856500,10.9888564453125,-0.041155017209053034,0.03690408176630735,-0.013186667700856924
1746738981967935200,10.998935302734376,-0.06394961734116077,0.030899580654501914,-0.027316169209778307
1746738981978014200,11.00901416015625,-0.0825005885541439,0.013783610680699348,-0.02088982595670968
1746738981988093400,11.019093505859376,-0.07173837152123451,0.024736966371536252,-0.023056940862722693
1746738981998171400,11.02917138671875,-0.07125672548413277,0.017545009040832518,-0.016992818518169223
1746738982008250000,11.03925,-0.05781389106512069,0.0009898878201842307,-0.006870433758758008
1746738982018329300,11.049329345703125,-0.008263385954499243,0.010669862574338912,0.007693330981582403
1746738982028408300,11.059408203125,0.04831482583582401,0.020372341421246526,0.014355382686667143
1746738982038487600,11.069487548828125,0.09615794250667095,-0.005766892963647842,0.02173299878258258
1746738982048566300,11.079566162109375,0.12308861953020095,-0.0010424947902560233,0.02633055570591241
1746738982058645200,11.089645263671875,0.14280337382555008,0.008554770116508006,0.01847169543169439
1746738982068724500,11.099724365234374,0.14309797285795212,0.004799801497161388,0.038090843865461646
1746738982078802400,11.109802490234374,0.11126724883317947,0.01277004972398281,0.0220787800129503
1746738982088881200,11.119881103515626,0.04443827666342258,-0.020440438221395015,0.020888693445548414
1746738982098960400,11.12996044921875,-0.039784897899627684,-0.008945815260708331,0.006829407628625631
1746738982109039400,11.140039306640626,-0.10349427674412727,-0.009310264658927916,-0.017554909380339084
1746738982119118300,11.150118408203125,-0.1309422556400299,-0.014460194768011568,-0.03530194379929453
1746738982129197300,11.160197265625,-0.13710428540110586,0.003912497268617153,-0.03320380247626453
1746738982139276300,11.1702763671875,-0.09620645782351493,-0.012870879749953747,-0.031481800989247855
1746738982149355500,11.18035546875,-0.030491584375500678,0.010781213994324206,-0.03746964322719723
1746738982159433500,11.19043359375,0.027287819898128507,0.02268237192928791,-0.015234978532791137
1746738982169512200,11.20051220703125,0.09414718720614909,0.016422434751689433,-0.009065130791440605
1746738982179591400,11.21059130859375,0.1230687457859516,0.03817161748409271,0.0074487451033666725
1746738982189670400,11.22067041015625,0.1542787075638771,0.037547932627797126,0.03640314650684595
1746738982199749000,11.2307490234375,0.11613163999915123,0.03792816411703825,0.021363106024265287
1746738982209828400,11.240828369140624,0.08377250818610191,0.0326101839646697,0.026011406754143533
1746738982219907300,11.2509072265625,0.05027414321005344,0.018202596166729926,0.042625564685650166
1746738982229986300,11.260986328125,0.00609247165620327,0.01252045887708664,0.018153788588941098
1746738982240064300,11.271064208984376,-0.03394201709032058,-0.002561374920606613,0.0038948154814541338
1746738982250143200,11.281143310546875,-0.07069441542625426,-0.0009270517170429229,0.02861519604437053
1746738982260222500,11.291222412109375,-0.07601356462240219,-0.014987141251564026,0.02132478330787271
1746738982270301400,11.301301513671875,-0.0420452440470457,0.0010904255852103232,0.016592640219442546
1746738982280380200,11.311380126953125,-0.0422545028835535,0.0051005380094051355,0.003176474611647427
1746738982290459400,11.32145947265625,-0.032362054422497746,0.01030307508856058,-0.00986987130306661
1746738982300538400,11.331538330078125,0.015885551396012304,0.03126753718405962,0.0011889175236225128
1746738982310617300,11.341617431640625,0.052989831909537315,0.046244157041609286,-0.01948050714805722
1746738982320695300,11.3516953125,0.07444120073914527,0.03563742283135652,-0.01245802463274449
1746738982330774300,11.361774169921874,0.1194528933763504,0.023699147756397723,-0.013546258260868489
1746738982340853500,11.371853515625,0.08034779443442822,0.011148001480102539,-0.01036065049469471
1746738982350932500,11.381932373046874,0.05794365492463111,0.003847615338861942,0.010059329460561275
1746738982361011200,11.39201123046875,0.02084229702055454,0.013790332682430743,0.01368782215602696
1746738982371090400,11.40209033203125,-0.03407879521250724,-0.005239946480095386,0.007718173161894082
1746738982381169400,11.41216943359375,-0.06739128222763538,-0.0071294134885072705,0.011070296601392329
1746738982391248400,11.422248291015626,-0.0670025751709938,0.0013119593814015387,0.028299700354412198
1746738982401326300,11.432326416015625,-0.041155017209053034,-0.010054068763554096,0.023358627223037182
1746738982411405300,11.4424052734375,0.006529109507799148,0.0028635727375745774,0.011928922724723815
1746738982421484300,11.452484375,0.03550210601389408,-0.0015215104788541792,-0.012225531051121652
1746738982431563300,11.462563232421875,0.05629179606437683,0.004489128112792969,-0.006683971275947988
1746738982441642200,11.472642333984375,0.07091594922244548,0.027535364918410778,0.008555281573161481
1746738982451721500,11.482721435546875,0.08313187219500541,0.04697247131615877,0.011350684445351361
1746738982461800400,11.492800537109375,0.0807271491408348,0.039275194811820985,0.004226422055996954
1746738982471879200,11.502879150390624,-0.0046259062349796294,0.024797464387118814,0.027413163310848174
1746738982481957400,11.512957275390624,-0.037300095346570014,0.01262801090478897,0.009172390558198094
1746738982492036400,11.523036376953126,-0.07785247048735618,-0.0033095629394054413,-0.009177432059496641
1746738982502115800,11.53311572265625,-0.09814999310672283,0.004015080860257148,-0.029366927727125583
1746738982512195000,11.543195068359376,-0.1014104562073946,-0.009690203887224197,-0.030843430020473895
1746738982522274000,11.553274169921876,-0.0578659135133028,-0.00514087001979351,-0.007905585492774843
1746738982532353300,11.563353271484376,-0.020566402688622473,0.007235211950540542,-0.007480491948500275
1746738982542432000,11.573431884765625,0.024279285731911657,0.010984919872879981,0.031612953088246284
1746738982552511000,11.583510986328125,0.08208733157813548,0.015532207913696765,0.0233189162671566
1746738982562589200,11.593589111328125,0.09492869297266006,-0.0008095628172159195,0.027635464292019605
1746738982572668200,11.603668212890625,0.09502864621579646,0.01096709195524454,0.02579297823049128
1746738982582747000,11.613746826171875,0.09591711948812007,0.009442951127886772,0.012588628742471337
1746738982592826000,11.623826171875,0.07607201681137085,0.0036962241694331165,-0.0006803469469770789
1746738982602905000,11.633905029296875,0.02818915265202522,0.014969605594873427,-0.0008337474104017019
1746738982612984000,11.643984130859375,-0.006435586005449295,0.0038712884753942488,-0.014125921312347054
1746738982623063000,11.65406298828125,-0.04933773914277553,0.011234802980720996,0.00014806670118123292
1746738982633142000,11.66414208984375,-0.0468687186807394,0.03840133458673954,0.012477204257249831
1746738982643220000,11.674219970703126,-0.0698217242449522,0.032244857783615584,-0.009147000388614834
1746738982653299200,11.68429931640625,-0.054178749433159826,0.042992461769282814,-0.012407317358814179
1746738982663378000,11.6943779296875,-0.05068155496716499,0.042078854055702684,-0.028253523125126957
1746738982673457200,11.70445703125,-0.0518137738674879,0.04844458969533443,-0.021468319964408872
1746738982683536100,11.7145361328125,-0.0401718513906002,0.023374153585731982,-0.007230462710186839
1746738982693614800,11.72461474609375,-0.006838906109333038,0.030898119349777698,-0.010019801167771219
1746738982703694000,11.734694091796875,-0.003081599402427673,0.004014496338367462,-0.011612075327895582
1746738982713773000,11.74477294921875,0.0064162967830896376,-0.007144611057639121,-0.010709646595455705
1746738982723851000,11.75485107421875,0.031205870124697683,-0.0006847673937678336,0.036898711471445855
1746738982733930000,11.764929931640625,0.06392565194368362,0.0014653963774442671,0.033808599968999625
1746738982744009000,11.775009033203125,0.09018997401297092,-0.010656418570876122,0.0038843306200578805
1746738982754088200,11.785088134765624,0.09212824859917164,0.02147942588031292,0.017967033845186234
1746738982764167200,11.795167236328124,0.07469546776115894,0.007896598468720912,0.014436448566243052
1746738982774246000,11.805245849609374,0.08976210398972034,0.0030552959173917767,0.033970110673643646
1746738982784325000,11.8153251953125,0.06846563346087932,-0.0008437573477625847,0.02260379026774317
1746738982794404000,11.825404052734376,0.04117956712841987,0.0033779520004987716,-0.0025966654296964405
1746738982804482000,11.83548193359375,0.004631166931986809,0.010105506689846515,-0.0076189505711197845
1746738982814561000,11.84556103515625,0.016684592819213865,-0.0042293081328272815,-0.016020831680856645
1746738982824640000,11.855639892578125,-0.019110943183302878,0.03190495830476284,-0.021828495046310126
1746738982834719000,11.865718994140625,-0.052965281990170476,0.015578385142982005,-0.026396424016356466
1746738982844798200,11.875798095703125,-0.05005611654520035,-0.0014808862075209616,-0.04624978306479752
1746738982854877000,11.885876953125,-0.04961538704037666,0.012224690800905227,-0.04204918956980109
1746738982864956200,11.8959560546875,-0.04368248986005783,0.02496025373339653,-0.024976145422272382
1746738982875035100,11.90603515625,-0.005796119058132172,0.012252747851610183,-0.00809263249747455
1746738982885113000,11.916113037109374,0.02683715352118015,0.008302256660163402,-0.0029978666417300698
1746738982895192000,11.926192138671874,0.05715981107056141,0.028358956260979173,-0.005180800171382725
1746738982905271000,11.93627099609375,0.06775310127735137,0.019718553687632083,0.01520253756791353
1746738982915350000,11.94635009765625,0.07475976516902447,0.03422930959910154,0.03298321852814406
1746738982925429000,11.956428955078126,0.05008066646456718,0.028783611413836476,0.04272328943908214
1746738982935508000,11.966508056640626,0.0026461305946111676,0.0189814715847373,0.02299932892397046
1746738982945587200,11.976587158203126,-0.031178982117772102,-0.0019768530309200285,0.023364253246225417
1746738982955666200,11.986666259765625,-0.05430325259566307,-0.010918868899345397,0.02886226614061743
1746738982965744000,11.996744140625,-0.08057341988384724,0.0020586860954761505,0.02227704253140837
1746738982975823000,12.006822998046875,-0.07423486451208591,-0.005528115771710872,0.010199249387905
1746738982985902000,12.016902099609375,-0.048401335075497626,-0.011593407160043716,0.00015190262608230114
1746738982995981000,12.02698095703125,-0.007082067215442657,0.014382745617628097,-0.009756620186939836
1746738983006060000,12.03706005859375,0.041839492341876026,0.007870294983685017,-0.010929536423832178
1746738983016139000,12.047138916015625,0.05686988821327686,0.012192249836027621,0.003241904530674219
1746738983026218000,12.057218017578125,0.07022679791450501,0.028882980135083197,-0.003940700449794531
