time,seconds_elapsed,z,y,x
1746734598179605200,0.016605224609375,-0.03676701138317585,-0.016277290659956634,0.0030455234420485792
1746734598189572000,0.026572021484375,-0.008484335228800773,0.006437997158244252,0.01396420967830345
1746734598199538200,0.0365380859375,-0.027785832548141477,-0.0051594285897910595,0.02316208173763007
1746734598209505000,0.046505126953125,-0.032873511075973506,-0.006677395404689013,0.013456789879128336
1746734598219472100,0.05647216796875,0.002443301498889923,-0.013249759532324969,0.0022677622688934205
1746734598229439200,0.066439208984375,-0.03242167565524578,-0.008489486327953636,0.0003207563869655132
1746734598239405000,0.076405029296875,-0.02314063709080219,-0.0006126154730096459,0.012834694191720336
1746734598249372200,0.0863720703125,-0.027328736430406567,0.0051833209220319984,0.00472028825385496
1746734598259339000,0.096339111328125,-0.02702887670099735,0.009222367179766296,0.009346285820379852
1746734598269306000,0.10630615234375,-0.0053320086777210235,-0.027768808348104357,0.007172777706198394
1746734598279273200,0.116273193359375,-0.011465396866202354,-0.02288476263359189,0.010942834296822548
1746734598289239300,0.1262392578125,-0.02164016939997673,0.016044139491207896,-0.01263422144986689
1746734598299206100,0.1362060546875,-0.023134791871905324,0.030409532115235925,-0.003880531227774918
1746734598309173000,0.146173095703125,-0.010116904866695404,-0.01623710478004068,0.02511182756591588
1746734598319140000,0.15614013671875,-0.029268180060386655,-0.04683989444505423,0.016139325227681547
1746734598329106200,0.166106201171875,-0.04886778354346752,-0.019131437982060014,-0.015214721196051686
1746734598339073300,0.1760732421875,0.009040800067782401,0.030569618047773837,0.003219674432557076
1746734598349040400,0.186040283203125,0.01891220574080944,0.03502214047722518,0.014460852355137466
1746734598359007200,0.19600732421875,-0.018496610677242276,0.005420161885209381,0.02023970975121483
1746734598368973300,0.205973388671875,-0.04737725272476673,-0.030208127791620788,0.029107454807031898
1746734598378940200,0.215940185546875,-0.024480361261963842,-0.035809856788814064,-0.004551982482243329
1746734598388907300,0.2259072265625,-0.002034136176109314,-0.0028793182959780095,-0.008801219158247112
1746734598398874400,0.235874267578125,-0.022385434809327125,0.027861820393800734,0.0065523807855322955
1746734598408840200,0.245840087890625,-0.02403203297257423,-0.001310461544059217,0.015095917121972887
1746734598418807300,0.255807373046875,-0.04602817620337009,-0.014658457286469638,0.01404772324329242
1746734598428774100,0.265774169921875,-0.03151215959489345,-0.010497611279971897,0.01675287228245288
1746734598438741200,0.2757412109375,-0.014900632011890411,-0.005298690930008888,-0.00752305244859308
1746734598448707000,0.28570703125,-0.027173838129639624,0.012300824777036904,-0.023104013141151517
1746734598458674200,0.295674072265625,-0.01969604959487915,-0.0052379006534814835,-0.0009628171501681208
1746734598468641300,0.305641357421875,-0.009072364249825477,-0.015836561155132947,0.014156060722284019
1746734598478608100,0.315608154296875,-0.008624035960435867,-0.014489055536314844,0.01730124514652416
1746734598488574200,0.32557421875,-0.04827800095677375,-0.0031292744690552352,0.00880923806792125
1746734598498541000,0.335541015625,-0.028225977531075475,-0.008091974910348654,-0.002841360905766487
1746734598508508200,0.345508056640625,-0.009669161099195479,-0.015464659102819859,0.0023723186219111085
1746734598518475300,0.355475341796875,-0.020294015488028526,0.024811164118908345,0.01374453904563561
1746734598528442000,0.365442138671875,-0.04513502675592899,0.014192191481590271,-0.023618337605148552
1746734598538408200,0.375408203125,-0.019248890349268914,0.0013458251183852553,0.02053220815807581
1746734598548375000,0.385375,-0.022688217148184774,-0.019962628109194337,0.03024979324257001
1746734598558342100,0.395342041015625,-0.03914893808364868,-0.00423314405772835,0.014835110761318354
1746734598568309000,0.40530908203125,-0.05157061276137829,0.011203348396532238,-0.02073805119479075
1746734598578275300,0.415275390625,-0.07820610623061656,-0.0379170582011342,-0.039238753525260836
1746734598588242200,0.4252421875,0.03671557345688343,-0.098489344596304,-0.0023163689172826705
1746734598598209000,0.435208984375,0.09656827687323093,0.1083578276598826,0.018248956059105693
1746734598608176000,0.445176025390625,-0.029129648372530934,0.20114801076650618,0.040972701178397984
1746734598618142200,0.45514208984375,-0.04484510389864445,0.040298911836370827,0.0663130037379451
1746734598628109300,0.465109375,-0.11771569432020186,-0.21722725810371338,0.010319459967780859
1746734598638076200,0.475076171875,-0.11636544875502586,-0.18264650471843777,-0.10784195055961608
1746734598648043300,0.485043212890625,0.045241994261741636,0.07952559133134782,-0.12544745761603115
1746734598658009300,0.49500927734375,0.08294131805896758,0.2072826410640031,0.0009768822081387043
1746734598667976200,0.50497607421875,-0.049046062719821926,0.024405725123174488,0.11316014990769326
1746734598677943300,0.514943359375,-0.13074293367564677,-0.14579992529302835,0.17614148847227915
1746734598687910100,0.52491015625,0.056470659762620924,-0.07783537322208285,0.0032229806344956156
1746734598697876200,0.534876220703125,0.017567220872640607,0.05856945867277682,-0.12557797039421276
1746734598707843000,0.544843017578125,-0.07417232066988945,0.07449030057787895,-0.17426668931003658
1746734598717810200,0.55481005859375,-0.02256254494190216,0.010702741930633784,0.05168426573630422
1746734598727777300,0.56477734375,-0.001315174251794815,-0.07367818047739565,0.09716353935264051
1746734598737743000,0.5747431640625,-0.017164485290646552,-0.0005361161706969142,0.07722374412976205
1746734598747710200,0.584710205078125,-0.008332359537482261,0.034827604285813864,-0.02117801351463422
1746734598757677000,0.594677001953125,-0.04095744881033897,0.03783464061468839,-0.017798326214775444
1746734598767644200,0.60464404296875,-0.02749824777841568,0.014154745548032224,0.009088219406083226
1746734598777611300,0.614611328125,0.024871990928053856,0.0007743453733623027,0.00020301175881177187
1746734598787577000,0.6245771484375,-0.05802782607674598,-0.03256568723581731,-0.03187487369375303
1746734598797544200,0.634544189453125,-0.06445698234140873,-0.032378457568027076,0.009209142372012138
1746734598807511000,0.644510986328125,-0.030936405533552168,-0.03608907558899373,0.08643239331142977
1746734598817478100,0.65447802734375,-0.029587913534045218,0.0007315656775608658,0.04937748663127422
1746734598827444000,0.66444384765625,0.022336334970593452,0.03691226507276296,-0.014015227479487656
1746734598837411000,0.6744111328125,-0.04709551317393779,0.018646211748383937,-0.05814681281391531
1746734598847378200,0.684378173828125,-0.04245207128226757,-0.004151603254117071,-0.033881993998773396
1746734598857345000,0.694344970703125,0.05810147583484649,-0.048538295860774815,-0.03339567178655416
1746734598867311400,0.704311279296875,-0.0747802234351635,-0.03127217682655901,0.025491858125757424
1746734598877278200,0.7142783203125,-0.07029167984426021,0.0040767479196190835,0.033089309251122176
1746734598887245000,0.7242451171875,0.054658057382702824,0.01834310061596334,0.023766002447530625
1746734598897212200,0.734212158203125,-0.03197977710664272,-0.021045674105547366,-0.005320099044218659
1746734598907178200,0.74417822265625,-0.08899170413911342,-0.031853374247997994,0.023024280702136454
1746734598917145300,0.754145263671875,0.04657938034534454,0.018515424975566564,-0.0019791545858606693
1746734598927112200,0.7641123046875,-0.023754385074973104,0.02695515387766063,-0.006239661574549972
1746734598937079300,0.774079345703125,-0.051443771511316294,0.017052914674952624,-0.040248021899349985
1746734598947045000,0.784045166015625,0.007963526225090027,-0.007098251165263354,0.03805767224822193
1746734598957012200,0.79401220703125,-0.05203472314178943,-0.02505301005076617,0.04518016280559823
1746734598966979300,0.803979248046875,-0.0030997195810079574,-0.010915069507062435,0.015210611276514827
1746734598976946200,0.8139462890625,-0.00010755202770233153,0.020367665246129034,-0.008116013373062014
1746734598986913300,0.823913330078125,-0.031080197918415067,0.03155128602888435,-0.021317677713651208
1746734598996879000,0.833879150390625,0.004684942945837974,-0.010248276161402463,0.017739947091042995
1746734599006846200,0.84384619140625,-0.0689373426258564,-0.031158560384251174,-0.0023654139570891855
1746734599016813300,0.853813232421875,0.015006430473923683,-0.003125000152736902,0.003665792498551309
1746734599026780200,0.8637802734375,-0.003546294304728508,0.003758548815920949,0.01896779011925682
1746734599036746200,0.873746337890625,-0.07193126374483108,0.02039732973203063,0.03721113842148334
1746734599046713000,0.883713134765625,-0.007137596794962882,-0.007640541348420083,0.01334003163166344
1746734599056680200,0.89368017578125,-0.03272211990654468,-0.03931103331018239,-0.0010318272657692431
1746734599066647300,0.903647216796875,-0.012070961543917656,-0.0013584654042497275,-0.015954524978995323
1746734599076613000,0.913613037109375,-0.0006985036581754684,0.02652147516813129,-0.022756697540823368
1746734599086580200,0.923580322265625,-0.038107320076227184,0.01436663473304361,0.005837126921955496
1746734599096547000,0.933547119140625,-0.045890813559293746,-0.011742314111441374,0.04426534951562062
1746734599106514200,0.94351416015625,0.0009445873737335205,-0.0035986455464735623,0.0026213066806085408
1746734599116480000,0.95347998046875,-0.003245265531539917,0.0028998861599713564,-0.009904705154430121
1746734599126447000,0.963447021484375,-0.07985913413465022,-0.018326953198760747,-0.004142689295299351
1746734599136414200,0.973414306640625,-0.022998598271608352,0.0011350319119170307,0.04111881338451057
1746734599146381300,0.98338134765625,0.014556933140754699,0.027230427155084905,0.01799801350533962
1746734599156347400,0.993347412109375,-0.025545944666862486,0.015687727268971503,-0.017878259583190084
1746734599166314200,1.003314208984375,-0.061308162921667096,-0.004359729579463601,-0.0020832908137701452
1746734599176281000,1.013281005859375,-0.01132569613456726,-0.021622122286632656,0.024328842228371648
1746734599186248200,1.023248291015625,0.0037923780202865597,-0.015264460355602204,0.04158769127158448
1746734599196214300,1.03321435546875,-0.05097673852145672,-0.0044528877556324,-0.012260730228666215
1746734599206181400,1.043181396484375,-0.036165538358688354,0.008163469243980944,-0.0268607718587853
1746734599216148500,1.0531484375,-0.014019173002243042,-0.02459565820470452,-0.02208038744814694
1746734599226115300,1.063115234375,-0.01237315936088562,-0.00783993637803942,0.037611261921282856
1746734599236082400,1.07308251953125,-0.060257777085900306,0.00023592764772474765,0.00879005844341591
1746734599246048300,1.08304833984375,-0.03302607128918171,0.015865385390818117,-0.01397778154592961
1746734599256015400,1.093015380859375,-0.007739069819450378,0.004742627949826419,-0.007324041011463851
1746734599265982200,1.102982177734375,-0.015073065969347953,-0.009327179261110723,0.02948087296299636
1746734599275949300,1.11294921875,-0.018668460112810134,-0.0066587272368371486,0.01883524978077039
1746734599285915400,1.122915283203125,-0.03228898918628693,-0.000305558817833662,-0.002810253381449729
1746734599295882200,1.13288232421875,-0.012391279539465904,-0.009195661835931242,-0.0015897168768569826
1746734599305849300,1.142849365234375,-0.009250643426179886,-0.012264767082966864,-0.012535692978836594
1746734599315816200,1.152816162109375,-0.04307049544155597,0.01740033987313509,-0.00101756127839908
1746734599325782300,1.1627822265625,-0.03618424305915832,0.003266235254332423,-0.007150383211299777
1746734599335749000,1.1727490234375,-0.0080517890304327,-0.01932480512969196,0.01914276309367269
1746734599345716200,1.18271630859375,-0.01687748504281044,-0.01501344473659992,0.01726518745245412
1746734599355683300,1.192683349609375,-0.0310918883562088,0.005418554450012743,0.015376067503914237
1746734599365649200,1.202649169921875,-0.030340777727961538,-0.005985211889445782,-0.0049256381002254785
1746734599375616300,1.2126162109375,-0.02570259653329849,-0.002559584822319448,0.020865257771033794
1746734599385583000,1.2225830078125,-0.01567921516895294,-0.010606843808107077,0.019145941431447863
1746734599395550200,1.23255029296875,-0.05353694439828396,0.0008450725220143794,0.013698069555405527
1746734599405517300,1.242517333984375,-0.021813772401213644,0.00966064899917692,-0.014405158378835766
1746734599415483100,1.252483154296875,0.00317453838288784,0.00925363910086453,-0.00784547106968239
1746734599425450200,1.2624501953125,-0.026454291683435438,0.00419803621172905,0.030440712704788892
1746734599435417000,1.2724169921875,-0.04021861314177513,0.004902567751891911,0.0025547625167295336
1746734599445384200,1.28238427734375,-0.03677402564585209,-0.012830584272183478,-0.01989027525903657
1746734599455350300,1.292350341796875,-0.028695348608493803,-0.021777020587399602,-0.015965411699190735
1746734599465317400,1.3023173828125,-0.0083481416285038,-0.009277933291904628,0.02879753034133464
1746734599475284200,1.3122841796875,-0.029745734444260596,0.009734773681312798,-0.004025163862854242
1746734599485251000,1.3222509765625,-0.024510171878337858,0.0007288622638210654,0.010317194945458323
1746734599495217400,1.332217529296875,-0.020920622953772543,-0.013463292685151099,0.011734770125802606
1746734599505184300,1.342184326171875,-0.015086509972810745,-0.004586158746480941,0.016067812627740204
1746734599515151400,1.3521513671875,-0.035735914769768715,0.00059522594679147,-0.005556720811687409
1746734599525118500,1.362118408203125,-0.025262451550364492,-0.001333550158701837,-0.004199570581689477
1746734599535084300,1.372084228515625,-0.016585224097967147,-0.004548347486741841,-0.0017053974120877682
1746734599545051400,1.382051513671875,-0.02287058797776699,0.008225136303342878,0.013507679816149174
1746734599555018200,1.392018310546875,-0.04247603667974472,0.022523162779584525,0.01303670130353421
1746734599564985300,1.4019853515625,-0.023326515051722525,-0.0011512523943558335,-0.013731533433590083
1746734599574951200,1.411951171875,-0.003273322582244873,-0.00809120772536844,0.007358637400809675
1746734599584918300,1.421918212890625,-0.029607202756404875,0.0051829190632328385,-0.013169862696528435
1746734599594885400,1.431885498046875,-0.028258710756897926,0.0010753741465508936,-0.00519831756176427
1746734599604852200,1.441852294921875,-0.012995675173401831,-0.010497757410444319,-0.011864661849476396
1746734599614819300,1.4518193359375,-0.023171032229065892,-0.02382083790730685,0.006425503002852201
1746734599624785200,1.46178515625,-0.02316986318528652,-0.00426905562132597,0.030548849254380908
1746734599634752300,1.471752197265625,-0.022269114953279493,0.016317111213691532,0.0016316015235148368
1746734599644719400,1.48171923828125,-0.02675882758796215,-0.013131576512753963,-0.010367463827971369
1746734599654686200,1.491686279296875,-0.017630933758616445,0.0018770459182560443,0.0099099658514373
1746734599664652300,1.50165234375,-0.017331658551096914,-0.003530073822289705,0.015023016282543539
1746734599674619100,1.511619140625,-0.04785422258675098,-0.01374824710637331,0.017768515598401428
1746734599684586200,1.521586181640625,-0.022715689677000044,0.0028418723624199626,0.00525982022434473
1746734599694553300,1.53155322265625,-0.015683306822180748,-0.012507745525985955,-0.007388868142291903
1746734599704519200,1.541519287109375,-0.023764906468987462,0.0017640870630741118,0.017859427018556744
1746734599714486300,1.551486328125,-0.03049801411628723,0.0011763868356123566,0.00540894637145102
1746734599724453000,1.561453125,-0.012841945916414261,0.0021097952282056213,0.000012567220628261566
1746734599734420200,1.571420166015625,-0.016730770048499106,0.00024575492199510336,-0.006834686591941863
1746734599744386300,1.58138623046875,-0.02570610366463661,0.0019443390008062123,0.013096925324480979
1746734599754353400,1.591353515625,-0.02750000134408474,0.011187895099073648,0.010528609206434338
1746734599764320300,1.6013203125,-0.025106384205818174,-0.007176577098481357,-0.012572737053595483
1746734599774287000,1.611287109375,0.00017944822013378142,-0.01518741306401789,0.010655797516368328
1746734599784254200,1.621254150390625,-0.034086978518962856,0.007559256273135542,0.005671816825028509
1746734599794220300,1.63122021484375,-0.046055064210295676,0.002359605270810425,-0.00594382043313235
1746734599804187400,1.6411875,-0.006102408528327941,-0.01302252664770931,0.0018063735685311256
1746734599814154200,1.651154296875,-0.006403437301516533,-0.005288133003376424,0.013690233308821916
1746734599824121300,1.661121337890625,-0.015683306822180748,0.00917027166634798,0.022472747766599056
1746734599834087400,1.67108740234375,-0.03723170628547668,0.012507672460749745,0.011359872398804873
1746734599844054300,1.68105419921875,-0.03558452360033989,-0.011637282834388314,0.00600835530301556
1746734599854021400,1.691021484375,-0.03304185338020325,-0.03365549176651984,0.0005527567782439291
1746734599863988200,1.70098828125,-0.043514147555828095,-0.024178528771176933,-0.008356124005559832
1746734599873954300,1.710954345703125,-0.010594459250569344,0.021315942414291203,-0.00354408408133313
1746734599883921200,1.720921142578125,0.015291092634201049,0.027380576215498147,0.005082710091769695
1746734599893888300,1.73088818359375,-0.015385785180330276,0.014411715983785689,0.022556991983950135
1746734599903855400,1.74085546875,-0.03933013986945152,0.002642331202328205,0.037523985496629025
1746734599913821200,1.7508212890625,-0.045616088271141046,-0.02201970676947385,0.004921089789271354
1746734599923788300,1.760788330078125,-0.028855507606267927,-0.01967398389354348,-0.002396466682478785
1746734599933755100,1.770755126953125,-0.015838789644837377,0.00893858180232346,-0.010285484632942824
1746734599943722200,1.78072216796875,-0.015837620601058006,0.014873890135437249,0.00246056316094473
1746734599953689300,1.790689453125,-0.02735387087166309,0.018165734755061565,0.01921526207430288
1746734599963655200,1.8006552734375,-0.0032581250131130217,-0.006202763630263507,0.01369991445261985
1746734599973622300,1.810622314453125,-0.034379823985695834,-0.01386862208303064,0.00806441104998812
1746734599983589000,1.820589111328125,-0.01776420474946499,-0.0012874094620347022,-0.009922441740520298
1746734599993556200,1.83055615234375,-0.021353753674030303,0.011710311537981032,-0.019252908937260508
1746734600003522000,1.84052197265625,-0.01357610540986061,-0.013512721317447721,-0.004984017223957925
1746734600013489200,1.8504892578125,0.0003372691303491592,-0.009559563244879245,0.0236412618230097
1746734600023456300,1.860456298828125,-0.03752162914276123,-0.008825915208086371,0.015440346645470707
1746734600033423000,1.870423095703125,-0.02120703867971897,-0.01262092357687652,0.008312120467051863
1746734600043389400,1.880389404296875,-0.013424714240431785,-0.00022478519920259712,0.0032062852280214426
1746734600053356300,1.890356201171875,-0.02509878542125225,-0.01079122393168509,-0.008599814834631979
1746734600063323100,1.9003232421875,-0.04559796809256077,-0.0021341624844819305,-0.021918639281485228
1746734600073290200,1.910290283203125,-0.03572305528819561,-0.007831168549694121,0.004767579727992416
1746734600083257000,1.920257080078125,-0.04560030618011951,-0.013674158956855535,0.04075862003630027
1746734600093223400,1.930223388671875,-0.002056348007917404,-0.006610102322138846,0.015293668183777481
1746734600103190300,1.940190185546875,-0.03452712350189686,0.01520955183058977,-0.007867007048055529
1746734600113157400,1.950157470703125,-0.03153261786103249,-0.0030820377938449383,-0.024054737994726745
1746734600123124500,1.96012451171875,-0.0019055413603782652,-0.008267294944636523,-0.004055029278155416
1746734600133090300,1.97009033203125,-0.013132453295588492,-0.00380925608985126,0.021989896153099833
1746734600143057000,1.980056884765625,-0.033336452412605286,0.0148283339606598,0.022728512625955044
1746734600153024000,1.99002392578125,-0.03558218551278114,-0.0017788097081705926,0.024569172056578097
1746734600162991000,1.9999912109375,-0.03648059565722942,-0.018708572927489876,0.019241163700539618
1746734600172957000,2.00995703125,-0.01822773060798645,-0.02311382214911282,-0.0004932634096592664
1746734600182924000,2.019924072265625,-0.03304360694587231,0.005043437527306378,-0.02784740827595815
1746734600192891000,2.029890869140625,-0.009252981513738632,0.02272449403796345,-0.019734755903761832
1746734600202858000,2.03985791015625,-0.004616553884744644,0.0024247794615104793,0.0075428713939152655
1746734600212824800,2.049824951171875,-0.03335048093795776,-0.008411379590444266,0.02131227088617161
1746734600222791000,2.059791015625,-0.030959201887249946,0.0006849500568583607,0.00854614841863513
1746734600232758000,2.069758056640625,-0.010908932027220725,0.01827741496860981,0.0008012333802878856
1746734600242724900,2.079724853515625,-0.01973988873660564,0.0059945642396807665,0.01775779327498749
1746734600252692000,2.08969189453125,-0.036954058387875556,-0.0024545900778844953,0.010549925989098846
1746734600262657800,2.09965771484375,-0.053713470008969304,-0.006984963516518473,0.013017046754993497
1746734600272625000,2.109625,-0.03231412362754345,-0.006607471973635256,-0.014300528960581867
1746734600282591700,2.119591796875,-0.017348609685897826,-0.004398892546072602,-0.005174461762141436
1746734600292558800,2.129558837890625,-0.00253448691368103,0.022665786120668052,0.013863379652332513
1746734600302526000,2.13952587890625,-0.018996376892924306,-0.0015214008809998631,0.007413454594276845
1746734600312491800,2.14949169921875,-0.03126841396689415,-0.011568747642822563,0.0022965682382695375
1746734600322459000,2.159458984375,-0.017354454904794692,-0.010370770029909908,0.005538783296197653
1746734600332425700,2.16942578125,-0.018250526961684225,-0.010258870620653032,0.0026934586013667283
1746734600342392800,2.179392822265625,-0.04174012362062931,-0.00581730797663331,-0.0020362002690322697
1746734600352359000,2.18935888671875,-0.04413432528078556,0.0019965806446969507,-0.0049526722376234825
1746734600362326000,2.199325927734375,-0.0017892215043306349,-0.0060232058122754095,0.01781465629506856
1746734600372293000,2.209293212890625,-0.005230301868915557,0.007582417953014373,0.029462807583343235
1746734600382260000,2.219260009765625,-0.02558160050213337,0.022399572932533918,0.013189316315669566
1746734600392226800,2.229226806640625,-0.03590776420533657,-0.004358816264010966,-0.0005753887351602315
1746734600402193000,2.23919287109375,-0.011221651238203048,-0.0029628683935850855,0.0258862825371325
1746734600412160000,2.249159912109375,-0.02109773308634758,0.003269267461635172,0.0053077327529899776
1746734600422127000,2.259127197265625,-0.02872983539998531,0.007437456524372101,-0.012866715031489728
1746734600432094000,2.269093994140625,-0.01720423277914524,-0.007450023745000362,0.009823383546527474
1746734600442060000,2.27906005859375,-0.010616086560487747,-0.011675897811725735,0.00954663069806993
1746734600452027000,2.28902685546875,-0.02123918738365173,0.002263195691630244,0.014243921668827533
1746734600461994000,2.298993896484375,-0.029018589213490483,0.0028198066610842943,-0.004026077178306877
1746734600471961000,2.308961181640625,-0.011059738674759864,-0.006528086594492197,-0.007618092054594307
1746734600481927000,2.318927001953125,-0.012702245184779167,-0.00913786723408848,-0.013794917526002972
1746734600491894000,2.32889404296875,-0.014795418071746825,-0.00019676468111574647,0.015662830289732664
1746734600501860900,2.33886083984375,-0.021079028385877607,0.005148249608650803,0.015681790718529372
1746734600511828000,2.348827880859375,-0.0180903679639101,-0.013731953558698296,0.021197010476049036
1746734600521795000,2.358795166015625,-0.020636545315384863,0.0016179200580343602,0.019808003803063183
1746734600531761000,2.368760986328125,-0.018840894070267677,-0.0015334566449746489,-0.0006806574742309749
1746734600541728000,2.37872802734375,-0.021384148812294005,-0.00317852043826133,-0.01372786190547049
1746734600551694800,2.38869482421875,-0.023629297390580176,0.00268050778824836,-0.0030961028518155216
1746734600561662000,2.398661865234375,-0.025576339805126188,-0.004773534544743597,0.011753803619835525
1746734600571627800,2.408627685546875,-0.023032500541210175,-0.01312737526167184,0.007949607297591865
1746734600581595000,2.418594970703125,-0.025427871245145797,-0.009091105482913553,0.004269932404160499
1746734600591562000,2.42856201171875,-0.01704991900026798,-0.010874518300965428,-0.014964911153446883
1746734600601528800,2.43852880859375,-0.012856558963656424,-0.00883252761196345,0.0005295950983650982
1746734600611496000,2.448495849609375,-0.024525953969359398,0.012370017555728554,0.006182378429360687
1746734600621461800,2.458461669921875,-0.02138473333418369,0.0052110126465559,0.0013939203101210294
1746734600631428900,2.468428955078125,-0.0200379949003458,-0.004498955387063324,-0.0052076516456902025
1746734600641396000,2.47839599609375,-0.0351525619238615,-0.01305938805937767,0.01779264539266005
1746734600651362800,2.48836279296875,-0.028871874219179153,-0.01854611237477511,0.005030687643587589
1746734600661329200,2.4983291015625,-0.028871289697289464,0.017196999320760367,-0.00902242416087538
1746734600671296000,2.5082958984375,-0.013158756780624389,0.011210618387535214,-0.008892221909947692
1746734600681262800,2.518262939453125,-0.01705050352215767,0.00738061177060008,-0.010434555981121956
1746734600691229700,2.528229736328125,-0.020041502031683922,-0.02350464809760451,0.012180175805743782
1746734600701196000,2.538196044921875,-0.04592530035078525,-0.027763328455388543,0.01690753312120214
1746734600711163100,2.5481630859375,-0.018394903868436813,0.003752374803461134,0.010601327382773161
1746734600721130000,2.5581298828125,-0.025428455767035483,0.0052849181329831475,0.0032457221892662346
1746734600731097000,2.56809716796875,-0.027076222974061964,-0.006372274978272616,0.01422790211578831
1746734600741064000,2.57806396484375,-0.025729484540224074,-0.0011131854062899947,-0.0007925751497969031
1746734600751030000,2.588030029296875,-0.02363572713136673,0.007935213446058333,0.009477784979250281
1746734600760996900,2.597996826171875,-0.029920506489276886,0.009113244249485432,0.013847652360238135
1746734600770964000,2.6079638671875,-0.013613514810800552,0.005259235702455044,0.0015421514080837368
1746734600780931000,2.61793115234375,-0.03471475502848625,-0.0014443170567974447,-0.015613164195418357
1746734600790897000,2.62789697265625,-0.0275321500480175,-0.014425123454630375,-0.011650251913815735
1746734600800864000,2.637864013671875,0.005239654219150543,-0.006488521769084036,0.007006700424291193
1746734600810830800,2.647830810546875,-0.036507483664155,-0.0002503945644944906,0.025107005260325967
1746734600820798000,2.6577978515625,-0.029025603476166725,-0.002955160011164844,0.018836272694077342
1746734600830763800,2.667763671875,-0.01810439648926258,-0.001390102651529014,-0.003008223638962954
1746734600840731000,2.67773095703125,-0.013466799816489218,-0.01676847171038389,0.002971435292530805
1746734600850698000,2.687697998046875,-0.03022621143758297,0.00390424089692533,-0.015780647983122616
1746734600860664800,2.697664794921875,-0.034115620091557504,0.017369141017273066,0.005574585261940956
1746734600870632000,2.7076318359375,-0.027836101430654524,-0.0033325054235756393,0.023912680909223855
1746734600880597800,2.71759765625,-0.029335400077700614,-0.01835446226019412,0.030633056939113883
1746734600890564900,2.72756494140625,-0.010629530563950537,-0.007426350608468055,0.011268869647104293
1746734600900532000,2.737531982421875,-0.01960369513630867,0.004284837712347507,0.003159085085429251
1746734600910498800,2.747498779296875,-0.026039281141757964,0.005658646816201508,-0.0095406941476278
1746734600920465000,2.75746484375,-0.019154782325029374,0.010385310011915862,-0.003053067427687347
1746734600930431700,2.767431640625,-0.017660159853100776,-0.010111571104452013,0.020069814810715614
1746734600940398800,2.77739892578125,-0.025440146204829213,-0.003708608726970851,0.011390687662176787
1746734600950366000,2.787365966796875,-0.033519992285966874,-0.005325469339080155,-0.015034980714973062
1746734600960332000,2.79733203125,-0.02753390361368656,-0.009631240241602062,-0.01331539038075134
1746734600970299000,2.807298828125,-0.029183424386382103,0.006748195618577301,-0.0025059914715588093
1746734600980265700,2.817265625,-0.03756371471881866,0.011723792074061929,0.00825302895726636
1746734600990232800,2.82723291015625,-0.019908815562725064,0.001730988511070609,0.029395441435556856
1746734601000200000,2.837199951171875,-0.0224561619579792,-0.0010753376139327883,0.020659579131100326
1746734601010166000,2.847166015625,-0.02679506794512272,0.012410349566116929,-0.001547539969254285
1746734601020133000,2.857133056640625,-0.03652209671139717,0.011999759471230208,0.0018744886349886655
1746734601030100000,2.867099853515625,-0.018268062618374825,0.0030555881783366204,0.0021927790702320634
1746734601040067000,2.877067138671875,-0.031135142976045607,-0.02224127709828317,0.011411310325097292
1746734601050033000,2.887032958984375,-0.02185235084593296,0.005303294039890169,0.010036295644845813
1746734601060000000,2.897,-0.03920972836017608,-0.0027960604593157768,0.009007920711487531
1746734601069967000,2.906967041015625,-0.014219079488515854,-0.01832278848029673,0.006031370852421968
1746734601079934000,2.916933837890625,-0.019306758016347885,0.004350669490173459,0.0030713885356672107
1746734601089901000,2.926901123046875,-0.03172667912840843,0.019744089987687764,-0.010233553516305982
1746734601099867000,2.936866943359375,-0.012573065847158432,-0.005967931961081922,-0.004736399138439446
1746734601109834000,2.946833984375,0.0017909750699996946,0.004074263701587915,0.008901135868765413
1746734601119801000,2.956801025390625,-0.018858429726958274,-0.01761968171223998,0.021888719067256895
1746734601129768000,2.966767822265625,-0.03696691786944866,-0.012048165190219878,0.01747068342929706
1746734601139734000,2.976734130859375,-0.021255553996562957,0.0019101079376414418,-0.004119655479583889
1746734601149700600,2.98670068359375,-0.02648994751870632,-0.008452880644612014,-0.005406261224020272
1746734601159667700,2.996667724609375,-0.01885784520506859,0.00393792397081852,0.00493652482042089
1746734601169634600,3.006634521484375,-0.036814357656240464,0.013212532794475554,0.007640176022239029
1746734601179600600,3.0166005859375,-0.033219548034667964,-0.004948964176885783,-0.0032001477481797334
1746734601189567500,3.0265673828125,-0.003892331263422966,0.0013814444210380316,0.012201474322099238
1746734601199534600,3.03653466796875,-0.010178864187002182,0.00975968892686069,0.00885716886287555
1746734601209501700,3.046501708984375,-0.0284340673238039,-0.002526668933406472,0.00930650179926306
1746734601219467500,3.056467529296875,-0.017210662519931794,-0.0076079907856881615,-0.0046494697736576196
1746734601229434600,3.0664345703125,-0.011973346388339995,-0.01188062660358846,0.0036266295319423076
1746734601239401500,3.0764013671875,-0.024245967984199524,-0.003260645763762295,0.0011843874789774418
1746734601249368600,3.08636865234375,-0.018705869513750074,-0.003805602828040719,-0.009163969789724797
1746734601259335700,3.096335693359375,-0.02364215687215328,0.0015787936240434645,-0.015373309291247278
1746734601269301800,3.1063017578125,-0.020798457878828048,-0.010499839769676327,0.01072656119763851
1746734601279268900,3.116268798828125,-0.022293080350756642,-0.005142660118080676,0.014577281809039413
1746734601289235700,3.126235595703125,-0.047128830921649933,-0.003782002756744623,0.008026837252266704
1746734601299202600,3.13620263671875,-0.021539631634950637,0.009047449004277586,0.005797616895474493
1746734601309168600,3.146168701171875,-0.0004418985486030578,0.0037195685124024745,0.00935916356826201
1746734601319135700,3.1561357421875,-0.026477088037133216,-0.0011637465497478842,0.0067453826069831845
1746734601329102800,3.166102783203125,-0.03485562480390072,0.008360672316513955,-0.005493428050819784
1746734601339069700,3.176069580078125,-0.022432781082391738,0.003401953930594027,-0.013523863765969871
1746734601349036800,3.186036865234375,-0.000737082102894783,-0.004435900088213384,0.01764830501852557
1746734601359002600,3.196002685546875,-0.013453940334916113,-0.0001702054677531123,0.017369195816200226
1746734601368969700,3.2059697265625,-0.02871463783085346,-0.004911993167363107,0.005483893037494272
1746734601378936800,3.215936767578125,-0.02736965296268463,-0.015942176954075692,-0.014584643131587654
1746734601388903700,3.225903564453125,-0.0014811784684658049,-0.0234532467039302,-0.0024632665746845304
1746734601398869800,3.235869873046875,-0.012854220876097678,0.003031878509186208,-0.004212137802317739
1746734601408836600,3.245836669921875,-0.03634381753504276,-0.004137538196146488,-0.004455536370445042
1746734601418803700,3.2558037109375,-0.009107435563206673,-0.004512107129581272,-0.011761895594745874
1746734601428770800,3.265770751953125,-0.011503390789031983,0.0010476093567907809,0.007583440866321325
1746734601438736600,3.275736572265625,-0.022873510587215422,-0.0007797522008419036,0.021581004824955015
1746734601448703700,3.285703857421875,-0.05264905564785003,0.00812328336406499,-0.0026399565821513533
1746734601458670600,3.295670654296875,-0.02601239313483238,-0.010755020107142627,-0.009233290432579816
1746734601468637700,3.3056376953125,-0.0011725509107112884,-0.010296426152065396,-0.00012817469062283634
1746734601478604800,3.315604736328125,-0.02735387087166309,0.013212751990184186,0.012583824703190475
1746734601488570600,3.325570556640625,-0.020174188500642776,-0.003780577984638512,0.019184428544621913
1746734601498537700,3.335537841796875,-0.012096680507063865,-0.0067316828751936555,0.012066230569873004
1746734601508504600,3.345504638671875,-0.02092822173833847,-0.0006529840160161256,0.0023297215892001985
1746734601518471700,3.3554716796875,-0.03604103519618511,0.002045242092013359,-0.005181293361727148
1746734601528437500,3.3654375,-0.02990764700770378,0.0033968393640592693,-0.009011172114498913
1746734601538404600,3.375404541015625,-0.026918986585736274,-0.008835779014974832,-0.0009549991698935628
1746734601548371700,3.385371826171875,-0.027368483918905256,-0.013329948629066347,0.017339896656479687
1746734601558338600,3.395338623046875,-0.034551088899374006,-0.011362301817908883,0.017305044538807123
1746734601568305700,3.4053056640625,-0.029162381598353385,0.004531688612885773,-0.0031762554159387945
1746734601578271700,3.415271728515625,-0.02557283267378807,-0.02186652550175786,0.0027473990119993687
1746734601588238600,3.425238525390625,-0.00402677129805088,-0.018797822113521396,0.0013472133578732609
1746734601598205400,3.435205322265625,-0.03006312983036041,0.002867079868912697,0.011250000549852847
1746734601608172500,3.445172607421875,-0.03080897976160049,-0.00005052461083978414,0.0070615724166855215
1746734601618139000,3.455138916015625,-0.02197743853032589,0.008410575872845947,0.011232483159471302
1746734601628105700,3.465105712890625,-0.015241992795467375,0.0008022562935948371,0.003486417343653738
1746734601638072800,3.47507275390625,-0.029607202756404875,-0.0074099109303206205,0.01228405630532652
1746734601648039700,3.485039794921875,-0.036788054171204565,-0.0035647067442536352,-0.0034446240285411476
1746734601658005800,3.495005859375,-0.009404957205057143,-0.00026449615508317945,-0.0026658034094609317
1746734601667972600,3.50497265625,-0.014195114091038703,-0.004544109703041613,0.0028372327199205753
1746734601677939700,3.514939697265625,-0.02960778727829456,-0.004656082177534699,0.011168350148387253
1746734601687906800,3.52490673828125,-0.034246552994847294,-0.0020865970157086847,0.006174012459814548
1746734601697873700,3.534873779296875,0.0078033672273159025,0.0019350962484255432,-0.012718429134599864
1746734601707839700,3.54483984375,-0.009702478846907616,-0.012028364511206745,-0.000475782551895827
1746734601717806600,3.554806640625,-0.021221651726961135,-0.0017453458299860358,-0.003225446586217731
1746734601727773700,3.564773681640625,-0.013592472022771834,0.0108871585868299,0.006666581749729812
1746734601737740800,3.57474072265625,-0.025714286971092223,0.0032899814561009404,0.0033559593643993136
1746734601747706600,3.58470654296875,-0.01718728164434433,-0.006845518513210118,0.013264993634074925
1746734601757673700,3.594673828125,-0.019284546184539793,0.012952384020946919,0.006585972527880221
1746734601767640600,3.604640625,-0.04547288040816783,0.0026185119353234767,0.0032415574708022175
1746734601777607700,3.614607666015625,-0.023030746975541114,-0.0073432023696601385,-0.00450006963191554
1746734601787574800,3.62457470703125,-0.0010369418323040009,0.0045537543142214415,-0.0007318396721966564
1746734601797540600,3.63454052734375,-0.02557984693646431,0.0045713995687663555,0.021939353275950996
1746734601807507700,3.6445078125,-0.049667994010448455,0.011686711466684936,0.016201686406787486
1746734601817474600,3.654474609375,-0.017199556604027746,0.017631664410978555,0.00446881597712636
1746734601827441700,3.664441650390625,0.027543255963921546,0.010426043881103396,0.018067845604848115
1746734601837407500,3.674407470703125,-0.08453355568647385,-0.004903152273781597,0.012272274535987525
1746734601847374600,3.68437451171875,-0.06193710847496986,-0.045988720975816244,0.0014574870656244457
1746734601857341700,3.694341796875,-0.05654957021772861,-0.02888144576512277,-0.009780329856090246
1746734601867308500,3.70430859375,-0.005070142871141433,0.0018295535147190092,-0.021609226272441447
1746734601877275600,3.714275634765625,0.011838906353712082,0.041066316012293096,0.008869443822558968
1746734601887241700,3.72424169921875,0.00630289953649044,0.07027173303477466,0.027656927205156532
1746734601897208600,3.73420849609375,-0.011051555368304253,0.02084971314202994,0.009453582119755447
1746734601907175700,3.74417578125,-0.033496026888489724,-0.019151567454636097,-0.0017391718175262213
1746734601917142500,3.754142578125,-0.014795418071746825,-0.015293357656523584,-0.00848749530026689
1746734601927108900,3.76410888671875,-0.029760932013392447,0.008568031456880272,-0.009135383016057312
1746734601937075700,3.77407568359375,0.003610591712594032,0.003750950031355023,0.00504365672301501
1746734601947042800,3.784042724609375,0.0018202011644840239,-0.003865370191261172,0.03299180369339883
1746734601957010000,3.794010009765625,-0.04157470392584801,0.011411547787114977,0.0263942868581973
1746734601966975700,3.803975830078125,-0.032744331738352776,-0.0004560366718098521,0.003934234176389873
1746734601976942800,3.81394287109375,-0.00012684125006198882,-0.011562244836799799,-0.020037684373091905
1746734601986909700,3.82390966796875,0.000025134441256523132,0.0031117022797465324,-0.021508651974797247
1746734601996876800,3.833876708984375,-0.03813245451748371,-0.008106113033555448,-0.021084873604774474
1746734602006843600,3.84384375,-0.0351350262671709,-0.017357560177333652,-0.004616024161782115
1746734602016809700,3.853809814453125,-0.018976503148674963,-0.013416165607795119,0.03116385761387646
1746734602026776800,3.86377685546875,0.004365209472179413,0.013435126036591827,0.024988529979810117
1746734602036743700,3.87374365234375,-0.0050648821741342545,0.03836977040469646,0.015690375883784143
1746734602046710800,3.883710693359375,-0.041428573453426355,0.00805489430297166,0.009396262441948055
1746734602056676600,3.893676513671875,-0.021225158858299255,-0.0231285447942093,-0.0004994556884281337
1746734602066643700,3.903643798828125,-0.036786300605535505,-0.03829794727750122,-0.02244817958092317
1746734602076610600,3.913610595703125,-0.04097498446702957,-0.023713468542695043,-0.00320849545141682
1746734602086577700,3.92357763671875,-0.019874913293123245,0.0090664459656924,0.017651684285700322
1746734602096544800,3.933544677734375,0.017983984979987145,0.019428009775839746,0.021758882142510264
1746734602106510600,3.943510498046875,-0.00984860931932926,0.012724201288260519,0.016623218020796776
1746734602116477700,3.953477783203125,-0.050396892806887625,0.008163907635398208,-0.016191840866208076
1746734602126444500,3.963444580078125,-0.019269348615407942,-0.015328830828703939,-0.02665998858967796
1746734602136411600,3.97341162109375,-0.0019108020573854446,-0.006782024822942912,-0.022673457970470188
1746734602146377500,3.98337744140625,-0.020917115822434423,-0.013450835062377153,0.009650693860743194
1746734602156344600,3.993344482421875,-0.04546235901415348,-0.002891410592570901,0.04352092435648665
1746734602166311400,4.0033115234375,-0.021966332614421845,-0.010135682632401584,0.03541395280640572
1746734602176278500,4.013278564453125,-0.006102408528327941,-0.008395926292985677,0.030763076526951042
1746734602186245400,4.023245361328125,-0.03677694825530052,-0.012054302670061587,-0.011384312720317393
1746734602196211500,4.03321142578125,-0.03483516653776168,0.004022423916496336,-0.02448417892055586
1746734602206178600,4.043178466796875,-0.0016197101563215255,-0.003926744989678263,-0.03348977981079369
1746734602216145400,4.0531455078125,-0.01688449930548668,0.0003106733843684196,-0.006713142571505158
1746734602226112500,4.063112548828125,-0.026761165675520896,-0.001890964845754206,0.03994268227722496
1746734602236078600,4.07307861328125,-0.03274608530402184,0.0021483736729249357,0.023757965271547436
1746734602246045700,4.083045654296875,-0.019879589468240737,-0.017996625265851617,0.0005818184759467839
1746734602256012500,4.093012451171875,-0.011949380990862846,-0.007656981026567518,-0.007821158612333238
1746734602265979600,4.102979736328125,-0.008656769186258316,0.006728723733127117,-0.011169044268131256
1746734602275946500,4.112946533203125,-0.020326748713850974,0.01675312801077962,-0.014237875520531088
1746734602285912600,4.12291259765625,-0.02945405802130699,0.007006810022145509,0.028424367913696912
1746734602295879700,4.132879638671875,-0.0023702362626791,0.005377820580825209,0.03635411973334848
1746734602305846500,4.142846435546875,-0.02436754853725433,-0.010489574103988706,0.026963501580897716
1746734602315813600,4.152813720703125,-0.040378772139549254,0.0005842296287417412,-0.0065739898291416465
1746734602325779500,4.162779541015625,-0.02481646134853363,-0.009442768464796244,-0.01405764184910804
1746734602335746600,4.17274658203125,-0.009854454538226127,-0.010446136821061372,-0.024964747245423493
1746734602345713700,4.182713623046875,-0.021676409757137298,-0.005655322347953916,0.0025835136871784924
1746734602355680500,4.192680419921875,-0.040084173107147215,-0.014295176932029426,0.008612199392169714
1746734602365647600,4.202647705078125,-0.0333487273722887,-0.0055356414910405875,-0.0064574507773853835
1746734602375613400,4.212613525390625,-0.008358663022518158,-0.003129603262618184,0.010258304365072399
1746734602385580500,4.22258056640625,0.00032031799554824825,0.002001110689342022,-0.003894797215145081
1746734602395547600,4.232547607421875,-0.046513913893699646,-0.009415113272890447,0.01103730764724314
1746734602405514500,4.242514404296875,-0.03888473418951034,0.003332176630012691,0.005116813290771097
1746734602415480600,4.25248046875,-0.00985387001633644,-0.010335735249146818,-0.000841437526512891
1746734602425447400,4.262447509765625,-0.018232991304993628,0.0014855989152565599,-0.006091101683024317
1746734602435414500,4.27241455078125,-0.04487023833990097,0.009001746699027717,0.006052212711051106
1746734602445381600,4.282381591796875,-0.031254969963431356,0.01282945176102221,0.027992808096017688
1746734602455348500,4.292348388671875,-0.0019224924951791761,-0.017138839392736555,0.006176222683209926
1746734602465314600,4.302314453125,-0.03229541892707348,0.0020676365869119764,0.0018551263473927974
1746734602475281400,4.312281494140625,-0.03723462889492511,0.009413615435548126,0.0014296674769371748
1746734602485248500,4.32224853515625,-0.0008756137907505035,-0.0035375630090013145,-0.005287037024833262
1746734602495215600,4.332215576171875,0.0001689268261194229,0.003271057559922337,0.0034065570404753086
1746734602505181400,4.342181396484375,-0.00312660758793354,0.006916209129244089,0.012601469957735388
1746734602515148500,4.3521484375,-0.03470248006880283,0.0007148702710866927,0.008984576368518174
1746734602525115400,4.362115478515625,-0.031708558949828144,-0.014262005314789711,0.0095406941476278
1746734602535082500,4.37208251953125,-0.013902853146195411,-0.011059008022397756,-0.00036994755724444983
1746734602545049600,4.382049560546875,-0.020036825856566427,0.00011463935561478137,-0.003938088367599994
1746734602555015700,4.392015625,-0.03515197740197182,-0.014824132709577678,-0.002558689773175865
1746734602564982500,4.401982421875,-0.02228372800052166,-0.014060710589028894,0.005680639452300965
1746734602574949400,4.411949462890625,-0.004625321713089943,0.013634448000974953,-0.0048761912016198035
1746734602584916500,4.42191650390625,-0.032461423143744464,-0.0004750336332246661,0.02054808158064261
1746734602594883300,4.43188330078125,-0.04473112213015556,0.0028016499498859045,0.013975023333262651
1746734602604849700,4.441849609375,-0.011814356434345245,-0.012526998215727508,0.013551445892639458
1746734602614816800,4.451816650390625,-0.02333762096762657,-0.007723506924137473,0.0034105390958487987
1746734602624783600,4.46178369140625,-0.03052197951376438,-0.018025595632009207,-0.0010524316623806954
1746734602634750700,4.471750732421875,-0.03202127816081047,0.002830291522480547,-0.013867507838178425
1746734602644716500,4.481716552734375,-0.020794950747489927,-0.0038004517288878557,0.0026437925070524216
1746734602654683600,4.49168359375,-0.017352701339125632,0.013113091007992624,0.0068167673427611585
1746734602664650500,4.501650390625,-0.016003624817728997,0.008710764395818114,0.003518529514968395
1746734602674617600,4.51161767578125,-0.01929331401288509,0.008971643821708857,0.019329061179701238
1746734602684584700,4.521584716796875,-0.028572014489769933,0.002575659174285829,0.014363109335396439
1746734602694550500,4.531550537109375,-0.021238602861762046,-0.006294277838617563,0.0036039610424079
1746734602704517600,4.541517578125,-0.019743395867943762,-0.01224361469708383,-0.010011928388569503
1746734602714484500,4.551484375,-0.03710252694785595,0.00977609207239002,-0.012844813726935534
1746734602724451600,4.56145166015625,-0.023632220000028608,0.002249167166277766,-0.002285553653910756
1746734602734418700,4.571418701171875,-0.007473112359642982,0.003487367191724479,0.019733440729510037
1746734602744384500,4.581384521484375,-0.03455751864016056,0.0021540727613493797,0.012243121506739407
1746734602754351600,4.5913515625,-0.01106558389365673,0.0020204364443197845,-0.006280760769918561
1746734602764318500,4.601318359375,-0.011213467931747436,-0.011955335807614027,-0.015407832615356892
1746734602774285600,4.61128564453125,-0.014060674056410788,-0.008008132551796734,-0.0012295600612647832
1746734602784251400,4.62125146484375,-0.03172083390951157,0.004305953565612435,0.013951605925057082
1746734602794218500,4.631218505859375,-0.0326169059664011,0.012925678677111863,-0.0008491459089331328
1746734602804185600,4.641185546875,-0.008676058408617973,0.0018840967135503887,0.018905027081351725
1746734602814152400,4.65115234375,-0.003438742277026176,-0.010088226761482655,0.028916809339448808
1746734602824119600,4.66111962890625,-0.01436345639526844,0.00958301718570292,0.0032801176492124793
1746734602834085400,4.67108544921875,-0.023793548041582107,0.012183555072918533,0.018123977972567082
1746734602844052500,4.681052490234375,-0.0106225163012743,0.0007163315758109092,-0.004885013828892261
1746734602854019600,4.69101953125,-0.021842998495697975,-0.011064816708676517,0.005504259972088039
1746734602863986400,4.700986328125,-0.029770868885517117,0.004101224773749709,0.003286912716180086
1746734602873953500,4.71095361328125,-0.04069499848186969,-0.017205474888160825,-0.003911821415182203
1746734602883919400,4.72091943359375,-0.02094341930747032,-0.016451697378791867,0.00045651159584522244
1746734602893886500,4.730886474609375,0.032176176461577416,0.01837787966839969,-0.002047470581717789
1746734602903853600,4.740853515625,0.004793079495429993,0.062097888527251774,0.023606117444392293
1746734602913820400,4.7508203125,-0.04952478614747524,0.008128872854635118,0.022294084997754544
1746734602923786800,4.760786865234375,-0.024836335092782973,-0.044332624331861734,0.0034156171297654507
1746734602933753600,4.770753662109375,-0.016306991678476334,-0.04295866909753531,-0.00634198943786323
1746734602943720700,4.780720703125,-0.059552259165048596,0.011949161795154213,-0.019646328701637683
1746734602953687600,4.7906875,-0.02184533658325672,0.025036570372618732,0.0020154862745665014
1746734602963654400,4.800654296875,0.01077449199259281,0.010828158408589661,0.017750505017675458
1746734602973620700,4.810620849609375,-0.03561141160726547,-0.02796002007126808,0.014741294998023659
1746734602983587600,4.820587646484375,-0.051021746706962585,-0.007813925153948366,-0.009529259438160806
1746734602993554700,4.8305546875,-0.012416998502612114,0.02116597601696849,-0.028775373308453707
1746734603003521500,4.840521484375,0.007038228073716163,0.021973383409716187,-0.03480347449155524
1746734603013488600,4.850488525390625,-0.019597265395522118,-0.003453537987358868,0.015293010596651583
1746734603023454700,4.860454833984375,-0.030967969715595244,0.004546228594891726,0.02508941480470821
1746734603033421600,4.870421630859375,-0.04397942698001861,-0.015997706533595918,0.033311281438730654
1746734603043388700,4.880388671875,-0.03394961587488651,-0.0195397630546242,0.005605071731749922
1746734603053355500,4.89035546875,-0.023472645524144173,-0.01780406183581799,-0.020604268747288733
1746734603063321600,4.900321533203125,-0.02272504202723503,0.023644969883747396,-0.017263123359531164
1746734603073288400,4.910288330078125,-0.012101941204071045,0.031194325817376373,-0.011341094633098691
1746734603083255600,4.920255615234375,-0.011503390789031983,0.011134630541875959,0.019781736850645392
1746734603093222700,4.93022265625,-0.036191841843724246,-0.016151581921055914,0.02489823961416259
1746734603103189500,4.940189453125,-0.034544659158587454,-0.010793306290917098,0.01558929012948647
1746734603113155600,4.950155517578125,-0.042024785780906675,-0.008702946415543556,-0.004216503450181335
1746734603123122400,4.960122314453125,-0.0049181671798229215,-0.001129369356110692,-0.017227376192715017
1746734603133089500,4.970089599609375,-0.012107201901078224,-0.0021511136192828417,-0.005864179325662553
1746734603143056600,4.980056640625,-0.03155892134606838,0.013535042747110128,0.005954122631438076
1746734603153023700,4.990023681640625,-0.04561784183681011,0.003815101308748126,0.011993548926152288
1746734603162989600,4.999989501953125,-0.023021394625306127,-0.032144027757644654,0.029079890946671363
1746734603172956700,5.009956787109375,-0.016139818418025968,-0.007846475716680288,-0.01177720276173204
1746734603182923800,5.019923828125,-0.03439560607671738,0.010117306725494563,-0.02288489049775526
1746734603192890600,5.029890625,-0.023619360518455503,0.013806005175597965,-0.01737063885461539
1746734603202856700,5.039856689453125,-0.0008726911813020706,-0.003148782887123525,0.013620565606094896
1746734603212823600,5.049823486328125,-0.026465397599339482,-0.010347169958613813,0.014361867226380854
1746734603222790700,5.059790771484375,-0.055043257308006285,-0.004143127686716616,0.019004980324488132
1746734603232757500,5.069757568359375,-0.01000292309820652,0.016229579060710965,-0.009157503516320139
1746734603242724600,5.079724609375,0.008102057912945746,0.010660619821958242,-0.008693210472818463
1746734603252690700,5.089690673828125,-0.03529401622116565,-0.011476539314724504,0.0024079561908729374
1746734603262657500,5.099657470703125,-0.03723813602626323,0.006711443804763257,0.015488113043643533
1746734603272624600,5.109624755859375,-0.023624621215462684,0.0007772314501926302,0.01783071238072589
1746734603282591500,5.119591552734375,-0.02347790622115135,-0.008156637644395231,0.008451620269287377
1746734603292558600,5.12955859375,-0.02916296612024307,-0.0022100407322868704,-0.015628160835150628
1746734603302524700,5.139524658203125,-0.01883504885137081,0.016707206509821115,-0.015625585285574197
1746734603312491800,5.14949169921875,-0.03409983800053596,0.006243972423486411,0.0020967896161600947
1746734603322458600,5.159458740234375,-0.024074118548631666,-0.0021535978373140095,0.006789039085619151
1746734603332425500,5.169425537109375,-0.016744798573851586,0.004302665629982948,0.02005870889481157
1746734603342391800,5.179391845703125,-0.04652092815637588,0.000041720249876379964,0.002123531492613256
1746734603352358700,5.189358642578125,-0.03140636113286018,0.007029277582280337,0.009634144584741444
1746734603362325800,5.19932568359375,-0.002974631896615028,-0.021431933476775883,0.0074036090536974365
1746734603372292900,5.20929296875,-0.014496142864227294,-0.00591316956654191,-0.012590838965866715
1746734603382259700,5.219259765625,-0.027066286101937294,0.011911752394214272,-0.005406772680673748
1746734603392225800,5.229225830078125,-0.032902152648568155,0.003238433931954205,0.0090934435704723
1746734603402192600,5.239192626953125,-0.023030162453651425,-0.004590579193271696,0.005812777931988239
1746734603412159700,5.24915966796875,-0.02572130123376846,-0.0028415801014751193,0.004587948844768107
1746734603422126800,5.259126953125,-0.031107670447230337,-0.0010920695530250667,-0.014666804989706725
1746734603432093700,5.26909375,-0.012995090651512145,-0.0034716216333210465,-0.013532704659551382
1746734603442059800,5.279059814453125,-0.012695230922102927,-0.003171323512494564,0.00932425665166229
1746734603452026600,5.289026611328125,-0.021820786663889882,0.005928878592327237,0.016743866992089896
1746734603461993700,5.29899365234375,-0.029153029248118398,0.012695413585193455,0.004260232994053512
1746734603471960800,5.3089609375,-0.021522680500149726,-0.011364128448814154,0.011168350148387253
1746734603481926700,5.3189267578125,-0.011944120293855666,-0.014553718270361423,-0.0059054977167397734
1746734603491893800,5.328893798828125,-0.011792144602537155,0.0019888357296586035,-0.002901310932077467
1746734603501860600,5.338860595703125,-0.040969139248132704,-0.005712788156233727,-0.003656403615698218
1746734603511827700,5.34882763671875,-0.025855741268396376,-0.009158763891644776,-0.006039389762096107
1746734603521794800,5.358794921875,-0.016575287225842474,0.008336231995001435,0.011510624247416853
1746734603531760600,5.3687607421875,-0.03542787173390388,0.0006616787791252136,0.007898753893189132
1746734603541727700,5.378727783203125,-0.03901917422413826,-0.0044329409461468456,0.029177433037012812
1746734603551694600,5.388694580078125,-0.026000118175148964,-0.019106961127929388,0.009690642278641462
1746734603561661700,5.39866162109375,-0.007445055308938026,-0.009961860435456037,-0.009024159460235387
1746734603571628500,5.408628662109375,-0.010890811848640441,0.009440174648910761,-0.008116031639371067
1746734603581594600,5.4185947265625,-0.018669629156589505,0.02881002449672669,0.01316619116840884
1746734603591561700,5.428561767578125,-0.013281506377458572,0.00860171453077346,0.025084336770791558
1746734603601528600,5.438528564453125,-0.013580197063088417,-0.023300540360249578,0.0052123643534258005
1746734603611495700,5.44849560546875,-0.019718845948576928,-0.009289806392788886,-0.03458961254516616
1746734603621462500,5.458462646484375,-0.014032617005705832,0.013054090829752386,-0.034524401821848
1746734603631428600,5.4684287109375,-0.02675181332528591,0.013722637741081416,-0.002030154120735824
1746734603641395500,5.4783955078125,-0.02046586492359638,-0.015045008918642997,0.011744907927326857
1746734603651362600,5.488362548828125,-0.02166238123178482,-0.022858057289756834,0.016409776199515908
1746734603661329700,5.49832958984375,-0.0390174206584692,0.007769172696769237,0.01398068588906899
1746734603671295700,5.508295654296875,-0.009237783944606781,0.011808145889267326,-0.014843622861336916
1746734603681262800,5.518262939453125,-0.00699263536632061,-0.002570946466550231,-0.009003646395169198
1746734603691229700,5.528229736328125,-0.02106324629485607,-0.009083031774312257,-0.0014184884957969188
1746734603701196500,5.538196533203125,-0.020917700344324112,-0.029072949749231337,-0.0013247640640474856
1746734603711163600,5.54816357421875,-0.016282441759109496,-0.01046893317475915,0.015499894812982529
1746734603721129700,5.558129638671875,-0.015832359904050824,-0.009304017581231892,0.01161240412145853
1746734603731096800,5.568096923828125,-0.02750818465054035,-0.007297098205611109,0.004811711130663752
1746734603741063700,5.578063720703125,-0.03753098149299621,0.015543606090545654,-0.01691597215598449
1746734603751030800,5.58803076171875,-0.00865092396736145,0.00663132777325809,-0.024972985350806266
1746734603760998000,5.597997802734375,-0.005961538752913474,-0.00628339111842215,-0.003997600002493709
1746734603770963700,5.607963623046875,-0.028710546177625654,-0.009436704050190746,0.014965057283919303
1746734603780930800,5.617930908203125,-0.03021042934656143,0.0027889731314033267,0.008802132473699749
1746734603790897700,5.627897705078125,-0.024074703070521352,0.007162877366691828,0.008424147740472107
1746734603800864800,5.63786474609375,-0.01973345899581909,-0.006612842268496752,0.019572204019501806
1746734603810832000,5.647831787109375,-0.01823825200200081,-0.005079276025667786,0.00670545245539397
1746734603820797700,5.657797607421875,-0.03574059094488621,0.01347713854741305,-0.0143864902109839
1746734603830764800,5.667764892578125,-0.026163784304261205,-0.0036210035087540743,0.0031882198483683165
1746734603840731600,5.677731689453125,-0.011948796468973158,-0.005719364027492702,0.012943853654619305
1746734603850698800,5.68769873046875,-0.022275544694066046,-0.0037476986283436417,0.01179190714051947
1746734603860664600,5.69766455078125,-0.04053425496220588,0.01655102956742048,-0.006804748111404478
1746734603870631700,5.707631591796875,-0.03365034066736698,-0.0007964110746979713,-0.0032696693204343316
1746734603880598800,5.717598876953125,-0.026317513561248777,-0.023254217000491916,0.00706433062935248
1746734603890565600,5.727565673828125,-0.0332049349874258,0.0027367314875125885,-0.004599767146725207
1746734603900532700,5.73753271484375,-0.03395136944055557,0.01330269529595971,-0.0009716945763677358
1746734603910498600,5.74749853515625,-0.017488894939422607,-0.00786134449224919,0.01068854900849983
1746734603920465700,5.757465576171875,0.006153261932730674,-0.010249993194453418,0.00590851165773347
1746734603930432800,5.767432861328125,-0.011949965512752533,0.00569397385790944,0.017403956602327523
1746734603940399600,5.777399658203125,-0.03274666982591152,0.007696911178156733,-0.013533124784659593
1746734603950366700,5.78736669921875,-0.008205518287420272,-0.007122947215102613,-0.011474566553346811
1746734603960332500,5.79733251953125,-0.026762919241189956,-0.003138846014998853,-0.007026756831631064
1746734603970299600,5.807299560546875,-0.027664251995086667,0.01027067065630108,0.003451181633491069
1746734603980266500,5.8172666015625,-0.02916121255457401,-0.003924991424009204,0.01526842414466664
1746734603990233600,5.827233642578125,-0.00417056368291378,0.014732289707660674,-0.005638937468733638
1746734604000200700,5.83720068359375,-0.009260580298304557,0.0013076850650832056,-0.0011247297136113047
1746734604010166500,5.84716650390625,-0.02706687062382698,0.009228614257462322,0.0159236731830053
1746734604020133600,5.857133544921875,-0.032303602233529086,0.01174647882990539,-0.000375774509832263
1746734604030100500,5.8671005859375,-0.007611059525609016,-0.016931809045933187,0.005511931821890175
1746734604040067600,5.877067626953125,0.0039127895295619965,0.004445617764629423,0.003843651549797505
1746734604050034700,5.88703466796875,-0.014645195946097374,0.030083295835554597,0.004495192527398467
1746734604060000800,5.897000732421875,-0.022430442994832992,0.0052127296796068544,0.007168119797389954
1746734604069968000,5.9069677734375,-0.020935820522904394,-0.012850238820724188,0.00792324901362881
1746734604079934700,5.916934814453125,-0.01824468174278736,-0.0017248510312288998,0.01109636262441054
1746734604089901600,5.926901611328125,-0.033653847798705096,0.004675152204185724,0.005151281815953553
1746734604099868700,5.93686865234375,-0.04292962566614151,0.02768511212002486,-0.015230722482781857
1746734604109834800,5.946834716796875,-0.008814005574584007,0.012028949033096432,-0.015685864105448127
1746734604119801900,5.9568017578125,-0.011655366480350494,-0.021373481287807226,0.009265329538658261
1746734604129768700,5.966768798828125,-0.034847441497445106,-0.011265161586366593,0.010355097536742687
1746734604139735800,5.97673583984375,-0.04128068941533565,-0.001908719698153436,-0.0049946299495175475
1746734604149703000,5.986702880859375,-0.024372224712371826,0.0003787336518988013,0.015599245267920196
1746734604159669000,5.9966689453125,-0.009255319601297378,0.00030479163285344836,0.007939286832977085
1746734604169636000,6.006635986328125,-0.012993921607732772,-0.0018363851143047213,0.01584359368411824
1746734604179603000,6.01660302734375,-0.03200023537278175,-0.0024072072722017765,0.004518646468222141
1746734604189570000,6.026570068359375,-0.02960778727829456,-0.0005433130964636803,-0.007167791003827005
1746734604199537200,6.036537109375,-0.02422200258672237,-0.008867781588435172,-0.013810480421315878
1746734604209503000,6.0465029296875,-0.021675240713357923,-0.004112696015834808,0.00033546076575294135
1746734604219470000,6.056469970703125,-0.04681786527633667,-0.017057663915306328,-0.013989344119559972
1746734604229437000,6.06643701171875,-0.013600655329227447,-0.005788739469274878,0.004142031708173454
1746734604239404000,6.076404052734375,-0.0008814590096473693,0.002776734704338014,0.013808745121955871
1746734604249371000,6.086370849609375,-0.03694295247197151,-0.00888761880006641,0.008656422126386313
1746734604259337000,6.0963369140625,-0.040537177571654315,0.0038762203788384793,-0.0031094372574239967
1746734604269304000,6.106303955078125,-0.01345277129113674,0.003547536413744092,0.006356766881886869
1746734604279271000,6.11627099609375,-0.027220015358924866,-0.010985979318805038,-0.006276157660037278
1746734604289238000,6.126238037109375,-0.035896073767542835,0.003025302637927234,-0.0030393494295887645
1746734604299203800,6.136203857421875,-0.03544833000004291,0.001834850744344294,0.008987553776893763
1746734604309171000,6.1461708984375,-0.005222703084349632,-0.013120141803286968,-0.0015976809876039623
1746734604319137800,6.1561376953125,-0.022727964636683463,0.01165993305761367,-0.0005651048031635582
1746734604329105000,6.16610498046875,-0.022428689429163932,0.011532982209697364,-0.015135536746308206
1746734604339072000,6.176072021484375,-0.020184709894657135,0.013993855897895991,-0.008042363614961504
1746734604349038800,6.186038818359375,-0.007765373304486275,-0.0035736207030713555,0.00604879691125825
1746734604359005000,6.1960048828125,-0.013453355813026428,-0.006703370096161961,0.003273888837825507
1746734604368971800,6.2059716796875,-0.04113981963992119,-0.006369754227623343,0.0021935097225941717
1746734604378939000,6.21593896484375,-0.022433365604281424,0.012133614983968435,0.007584902171045542
1746734604388906000,6.225906005859375,-0.012709843969345092,-0.0014329554125666617,0.002981901887618005
1746734604398872800,6.235872802734375,-0.0058282677620649335,0.002061060715653002,0.00838345040390268
1746734604408839000,6.2458388671875,-0.031415713483095166,0.01876592913791537,0.005609309515450149
1746734604418805800,6.2558056640625,-0.054907648229598996,-0.01211081863027066,0.000990234880056232
1746734604428772900,6.26577294921875,-0.02543079385459423,-0.02164820657595992,0.006544800267275422
1746734604438740000,6.275739990234375,-0.013016133439540863,-0.008480462771281599,0.004282207363843917
1746734604448705800,6.285705810546875,-0.03336801659464836,0.005324373360536992,0.003232917506620288
1746734604458673000,6.2956728515625,-0.03097206136882305,-0.011434819064848124,-0.0023860183537006375
1746734604468639700,6.3056396484375,-0.003738602006435394,0.003127411305531859,0.00819382784962654
1746734604478606800,6.31560693359375,-0.01136836623251438,0.01354154555313289,0.01313709293808788
1746734604488574000,6.325573974609375,-0.03919686887860298,-0.0014972893530502914,-0.006374083342868834
1746734604498540000,6.3355400390625,-0.021988544446229934,-0.006949490344338119,-0.011193740317970513
1746734604508507100,6.345507080078125,-0.019146014496684072,0.0005454685209318995,-0.007597578989528119
1746734604518474000,6.355473876953125,-0.010915361768007278,0.0030878464801236986,0.02185890845088288
1746734604528440800,6.36544091796875,-0.04697802427411079,0.021062186848931012,0.02003414070913568
1746734604538408000,6.375407958984375,-0.0076233344852924345,0.01881323887836188,0.008657061447203159
1746734604548374000,6.3853740234375,-0.006129296535253524,-0.0027338088780641556,-0.0021525566576980053
1746734604558341000,6.395341064453125,-0.03141688252687454,-0.006496960803866386,-0.011745492449216544
1746734604568308000,6.405307861328125,-0.028424130451679228,-0.006790354259870946,-0.015360285412892699
1746734604578275000,6.415275146484375,-0.02588262927532196,0.007796900953911244,-0.012530907205864786
1746734604588242000,6.425241943359375,-0.016754735445976256,0.006920958369597792,-0.0032832959869876503
1746734604598208000,6.4352080078125,-0.031717326778173446,-0.002512019353546202,0.01432761789690703
1746734604608175000,6.445175048828125,-0.03366203110516071,-0.01975406339243054,0.03739712598025799
1746734604618142000,6.455141845703125,-0.019445289704203606,-0.009490114737860858,0.0064704381231218576
1746734604628109000,6.465109130859375,-0.028572014489769933,-0.008364800502359866,-0.026374650575965643
1746734604638076000,6.475075927734375,-0.009719429981708527,-0.0015757979493588208,-0.0008083207082003355
1746734604648042000,6.4850419921875,-0.038897009149193765,0.013840345836617052,-0.002076386148948222
1746734604658008800,6.4950087890625,-0.03425882795453072,0.001007679205201566,-0.002117814137879759
1746734604667976000,6.504975830078125,-0.010766893208026885,-0.005721409854106605,0.010190353695396333
1746734604677943000,6.514943115234375,-0.02797521764039993,0.005240311806276441,-0.0005038030699826777
1746734604687910000,6.524909912109375,-0.033359833288192746,0.00894837254397571,-0.005791461149323732
1746734604697876000,6.5348759765625,-0.02827157023847103,-0.004527743090130388,0.0001755940289236605
1746734604707842800,6.5448427734375,-0.014805354943871498,-0.0001615472372621298,-0.0056266442427411675
1746734604717810000,6.554809814453125,-0.02707856106162071,0.011440079761855303,0.015457023785635828
1746734604727777000,6.564777099609375,-0.032463176709413524,0.0010409604202955961,0.02102386413253844
1746734604737744000,6.574743896484375,-0.032463176709413524,-0.023955131811462343,0.00740349945584312
1746734604747710000,6.5847099609375,-0.007920856127142906,-0.011294899137504397,0.005335077417641878
1746734604757676800,6.5946767578125,-0.012557283756136893,-0.00033160657454282046,-0.006705963912047445
1746734604767644000,6.604643798828125,-0.02243570369184017,0.017104279536008835,-0.013900916917435824
1746734604777611000,6.614611083984375,0.008987024053931236,-0.0033725451730191704,0.006295392083469778
1746734604787577900,6.624577880859375,-0.026028759747743605,-0.015787315185926853,0.01918581678410992
1746734604797545000,6.634544921875,-0.023778934994339942,-0.002672434079647064,-0.0019059249528683721
1746734604807510800,6.6445107421875,-0.03140753017663955,-0.004097571511939168,-0.019873853847198187
1746734604817478000,6.654477783203125,-0.011657120046019553,0.0077829089611768714,-0.03382485698405653
1746734604827445000,6.664445068359375,-0.004026186776161194,0.0013998933931812644,-0.0003483567799441516
1746734604837411800,6.674411865234375,-0.03664835343956947,0.002292640981823206,0.012715743987169115
1746734604847378000,6.6843779296875,-0.03455050437748432,0.004448978765495121,0.02516266270400956
1746734604857344800,6.6943447265625,-0.03140811469852924,0.006706475368700921,0.01751638573454693
1746734604867311900,6.704311767578125,-0.018836217895150182,-0.005762180255912244,-0.010211688744369894
1746734604877279000,6.714279052734375,-0.01658990027308464,-0.003843267957307398,-0.016085183887649325
1746734604887245800,6.724245849609375,-0.02646598212122917,-0.003401150212995708,-0.007094944963324815
1746734604897213000,6.734212890625,-0.024074118548631666,-0.01413001296557486,0.00850685758786276
1746734604907178800,6.7441787109375,-0.01509761588871479,-0.009919482598453759,-0.006098408206645399
1746734604917145900,6.754145751953125,-0.02183130805790424,-0.0010672273727133869,0.011205120228510349
1746734604927112700,6.76411279296875,-0.03664426178634166,0.004878748484887182,0.003303114932309836
1746734604937079800,6.774079833984375,-0.02586860074996948,-0.0002209492743015289,-0.00426507356595248
1746734604947047000,6.784046875,-0.004021510601043701,0.0005606295574456453,-0.007753737665619701
1746734604957013000,6.794012939453125,-0.029165304207801817,0.0027636925596743822,0.016528160148486494
1746734604966980000,6.80397998046875,-0.04592588487267494,-0.0010899141285568474,0.00842065887544304
1746734604976947000,6.813947021484375,-0.0025339023917913435,0.014420337681658565,0.003907510566245764
1746734604986913800,6.823913818359375,-0.020191724157333373,-0.012497516392916441,-0.007757573590520769
1746734604996881000,6.833880859375,-0.03320902664065361,-0.0035150223836302756,0.004138195783272385
1746734605006847000,6.843846923828125,-0.02138531785607338,0.0075727002765983336,0.007160356616042554
1746734605016814000,6.85381396484375,-0.017491233026981353,-0.012261990603990853,0.00023801000695675611
1746734605026781000,6.863781005859375,-0.022277298259735106,-0.01124989095199853,0.004535597603023052
1746734605036748000,6.873748046875,-0.04651508293747902,0.005891176930442452,0.017047325184382497
1746734605046715100,6.883715087890625,-0.03499240292608738,-0.007145195579528808,-0.0061397448640316725
1746734605056681000,6.893680908203125,-0.02421732641160488,-0.004887735508941114,-0.006805697959475219
1746734605066648000,6.90364794921875,-0.0010240823507308959,-0.01654284626096487,-0.0003881590673699975
1746734605076615000,6.913614990234375,-0.03619008827805519,0.003666961542330682,0.008636493583209812
1746734605086582000,6.92358203125,-0.030803134542703628,-0.00323847046457231,-0.0014997735710814595
1746734605096549000,6.933549072265625,-0.021525018587708472,-0.006067044954001903,-0.008138353069033473
1746734605106515000,6.943514892578125,-0.02077741509079933,-0.0006702639443799853,0.0022078305088914928
1746734605116482000,6.95348193359375,-0.03559387595057487,0.0065668842349201435,0.0017647994491271674
1746734605126449000,6.963448974609375,-0.03140460756719112,0.01361289375629276,-0.0016635858306661246
1746734605136416000,6.973416015625,-0.018688333857059477,-0.0015766747321933508,-0.0031624095536768437
1746734605146382600,6.983382568359375,-0.012853636354207991,-0.0042434827886521816,0.015424838549084961
1746734605156348700,6.9933486328125,-0.04592237774133682,0.0005041135972365737,-0.0058290349470451475
1746734605166315800,7.003315673828125,-0.026619126856327054,-0.003681245796009898,0.008243019019905477
1746734605176282600,7.01328271484375,-0.006719663643836975,-0.0004782119709998369,-0.014664430369529873
1746734605186249700,7.023249755859375,-0.01944061352908611,0.004942242175154388,-0.019267540250811725
1746734605196216600,7.033216552734375,-0.03125964613854885,0.01357563048582524,0.0032929040655493734
1746734605206182700,7.0431826171875,-0.024974282258749005,0.0036843510685488578,0.009718224405311048
1746734605216149500,7.0531494140625,-0.021233926686644554,-0.012748057087883352,0.002225201768800616
1746734605226116600,7.06311669921875,-0.024078210201859473,-0.018133586051128803,-0.01193617444941774
1746734605236083700,7.073083740234375,-0.03933832317590713,-0.01011135190874338,-0.004789207037910819
1746734605246050600,7.083050537109375,-0.04651917459070682,-0.00808196497298777,-0.0010264204382896423
1746734605256016600,7.0930166015625,-0.014200374788045882,-0.00007832593321800231,0.005139883639104664
1746734605265983500,7.1029833984375,-0.014499649995565413,-0.0007191445874050259,0.0027955124700441954
1746734605275950600,7.11295068359375,-0.03724222767949104,0.00510313182529062,0.004215042145457118
1746734605285917700,7.122917724609375,-0.018988778108358383,-0.008009630389139056,0.009183386876247823
1746734605295884500,7.132884521484375,-0.009261164820194245,-0.008049231747165321,-0.014151402813475579
1746734605305851600,7.1428515625,-0.013301964643597602,-0.0028430048735812305,0.0011715279974043368
1746734605315817500,7.1528173828125,-0.017643208718299865,0.003198211519420147,0.0022234482031315565
1746734605325784600,7.16278466796875,-0.013602408894896506,0.0009111234955489635,0.003023695202730596
1746734605335751700,7.172751708984375,-0.017494740158319474,-0.007426167945377528,0.010345160664618014
1746734605345718500,7.182718505859375,-0.012403554499149321,-0.01286799367312342,0.008632822055090219
1746734605355685600,7.192685546875,-0.04712064761519432,-0.0007171718260273337,0.006838321587443351
1746734605365651700,7.202651611328125,-0.03739595693647861,0.0015682722300291061,-0.013189298049360513
1746734605375618800,7.212618896484375,0.005550035342574119,-0.012490940521657466,-0.003488554501812905
1746734605385585700,7.222585693359375,-0.021534370937943456,0.0009808277308940886,0.0060973487607203425
1746734605395552500,7.232552490234375,-0.03739478789269924,-0.0008580781340599059,0.00880741143701598
1746734605405519600,7.24251953125,-0.024524200403690338,0.003306238471157849,0.008757197353430092
1746734605415485700,7.252485595703125,-0.015101707541942596,-0.006613280659914017,0.0071611968662589785
1746734605425452800,7.262452880859375,-0.0318628727287054,0.007375095345266163,-0.00830717029729858
1746734605435420000,7.272419921875,-0.02842003879845142,-0.0016136092090979217,-0.01627354606660083
1746734605445386800,7.28238671875,-0.026325112345814704,-0.011503500386886297,-0.01759841972850263
1746734605455353900,7.292353759765625,-0.00447860671877861,-0.006704356476850807,0.003070603084377944
1746734605465319700,7.302319580078125,-0.016450784063339233,-0.006221577928587794,0.010109507011529057
1746734605475286800,7.312286865234375,-0.026630817294120788,0.0009072145054116844,-0.002859481084346771
1746734605485253600,7.322253662109375,-0.024089316117763517,-0.012665566436201333,0.0006064231942407787
1746734605495220700,7.332220703125,-0.018850830942392347,0.00515329110994935,0.0017322488863952456
1746734605505187800,7.342187744140625,-0.026927169892191884,0.013490326822549104,-0.00541954083070159
1746734605515153700,7.352153564453125,-0.0365033920109272,-0.0100223584510386,0.010145418575126677
1746734605525120800,7.362120849609375,-0.030668694508075713,0.004681581944972276,0.0013021321071311832
1746734605535087600,7.372087646484375,-0.0020925883650779725,0.005069631414487958,0.0031675789191387593
1746734605545054700,7.3820546875,-0.026632570859789848,-0.004202200930193066,0.010766363485064358
1746734605555021800,7.392021728515625,-0.05416472090780735,-0.00679470164142549,0.011403291415423154
1746734605564987600,7.401987548828125,-0.014508417823910713,-0.0008852218693122268,-0.0020548867031931874
1746734605574954800,7.411954833984375,-0.0058270987182855605,-0.022208361209370194,-0.0042677587133832275
1746734605584921600,7.421921630859375,-0.023932664251327514,0.004856280924752355,0.0008247786526568233
1746734605594888700,7.431888671875,-0.030071313136816023,0.007902480220235883,-0.0000018996961414813994
1746734605604855800,7.441855712890625,-0.026778701332211493,-0.007693586709909141,-0.007005549646820873
1746734605614821600,7.451821533203125,-0.0019353519767522811,-0.010447707723639905,-0.007360573629569262
1746734605624788700,7.461788818359375,-0.007021861460804939,0.02306947155073285,-0.007284092593565583
1746734605634755600,7.471755615234375,-0.022881693893671035,0.0197551228383556,-0.0023861096852459012
1746734605644722700,7.48172265625,-0.011061492240428924,-0.0035472441527992487,0.0010512443522922694
1746734605654689800,7.491689697265625,-0.025431962898373604,0.0005134294148534536,0.008782222196832298
1746734605664656600,7.50165673828125,-0.029773791494965552,0.000796118813753128,0.0006862286984920501
1746734605674622700,7.511622802734375,-0.03680792791545391,-0.007551146031916141,-0.007545757470745593
1746734605684589600,7.521589599609375,-0.03471533955037594,-0.0025566256802529094,0.016714567832369357
1746734605694556700,7.531556640625,-0.023792378997802732,-0.008222944346256554,0.0026394268591888245
1746734605704523500,7.5415234375,-0.013768413111567497,0.008544540983438492,0.004064893085043877
1746734605714490600,7.55149072265625,-0.044293315234780306,0.01297547263558954,-0.005778930461313575
1746734605724456700,7.561456787109375,-0.027983400946855544,0.003423836968839168,-0.0008507533441297709
1746734605734423600,7.571423583984375,-0.0055383449047803875,0.002984203442558646,0.008436751493718475
1746734605744390700,7.581390625,-0.01706044039428234,0.0009284399565309286,-0.0025402225347235796
1746734605754357500,7.591357421875,-0.017064532047510145,0.008341967616043984,-0.01177510213619098
1746734605764324600,7.60132470703125,-0.03143441818356514,-0.002309336388297379,0.004713420121651143
1746734605774290700,7.611290771484375,-0.019163550153374672,-0.0158247611194849,-0.007662168658338487
1746734605784257500,7.621257568359375,-0.017514613902568817,-0.007833287441544235,0.006705288058612495
1746734605794224600,7.631224609375,-0.030083003574609756,0.009050408146344125,-0.008259093371871858
1746734605804191500,7.64119140625,-0.009733458507061005,0.0031222602063789963,-0.009196629950311034
1746734605814158600,7.65115869140625,-0.017063363003730774,0.0012586582915857434,-0.000506141157541424
1746734605824124700,7.661124755859375,-0.03532090422809124,0.002759527841210365,0.003890723828226328
1746734605834091800,7.671091796875,-0.033822774624824525,0.0000025938158854842186,0.006485873154271394
1746734605844059000,7.681058837890625,-0.01557166314125061,0.0036795287629589435,-0.0010746434941887855
1746734605854025700,7.691025634765625,-0.01976619222164154,0.010228146688826382,-0.002541957834083587
1746734605863992600,7.70099267578125,-0.02799801399409771,0.014326046994328498,0.001912519090436399
1746734605873959700,7.710959716796875,-0.04535714507400989,0.009853906548954546,0.009733787300623954
1746734605883925800,7.72092578125,-0.02440904959142208,-0.008113456089794635,-0.00007200579028576612
1746734605893892900,7.730892822265625,-0.025157822132110593,-0.00618657968044281,-0.0010518106078729033
1746734605903859700,7.740859619140625,-0.03728197516798973,-0.010340813283063471,0.009674385263584554
1746734605913826800,7.750826904296875,-0.03458966734409332,0.009280088716372847,0.006408606666978448
1746734605923794000,7.7607939453125,-0.024264088162779807,0.011067520122416317,0.022102690611500293
1746734605933759700,7.770759765625,-0.020668694019317625,-0.01359601568672806,0.01687467203121632
1746734605943726800,7.780726806640625,-0.030993688678741454,0.004019245578721165,0.007519417453091591
1746734605953693700,7.790693603515625,-0.03129179484248161,0.00175637868065387,0.003468443295545876
1746734605963660800,7.800660888671875,0.0002811550289392471,-0.0013903218472376465,-0.006673541213478892
1746734605973627600,7.810627685546875,-0.023510054925084112,0.007601999436318874,-0.010501976927835494
1746734605983593700,7.82059375,-0.03458732925653457,0.004660319961234927,-0.01053934979615733
1746734605993560800,7.830560791015625,-0.03563420796096325,-0.00420249319113791,0.008058565831091255
1746734606003527700,7.840527587890625,-0.019920506000518798,-0.0049644540069624776,0.006183912799321114
1746734606013494800,7.850494873046875,-0.014082885888218879,-0.002308350007608533,0.011121789326611906
1746734606023461600,7.860461669921875,-0.026802082207798957,0.007433291805908083,-0.01076415326166898
1746734606033427700,7.870427734375,-0.02455927171707153,-0.009450805640779434,0.0029067725584842265
1746734606043394600,7.88039453125,-0.017682371684908865,-0.00691540541164577,0.01656074724383652
1746734606053361700,7.890361572265625,-0.014990063861012457,-0.010519311655126512,0.018442852929700163
1746734606063328800,7.900328857421875,-0.040431379109621045,-0.005398790303617716,0.014181231696158647
1746734606073295600,7.910295654296875,-0.03070318129956722,0.004187551350332796,-0.003425955860689282
1746734606083262700,7.9202626953125,-0.0015244330883026121,0.004994739547371864,-0.00634529563980177
1746734606093228500,7.930228515625,-0.02202303123772144,0.0015126695852726696,0.010547624434158206
1746734606103195600,7.940195556640625,-0.029951486149430273,-0.0060012131761759515,0.0037611608981154856
1746734606113162800,7.950162841796875,-0.02007540430128574,-0.012309921398945153,-0.007549812591355293
1746734606123129600,7.960129638671875,-0.011849427747726439,0.015471052310988305,0.0054967342527583235
1746734606133096700,7.9700966796875,-0.0247217688024044,0.0037219796651974317,0.007474153539258986
1746734606143062500,7.9800625,-0.02891162170767784,0.0078057053148746485,0.00813893759092316
1746734606153030100,7.990030029296875,-0.025766893941164014,-0.0003141805157065391,-0.010146094428561627
1746734606162997200,7.999997314453125,-0.015142624074220656,-0.021614377371594308,0.0008701338980346918
1746734606172964000,8.009964111328125,-0.03758475750684738,0.0017843626661226152,0.0027979784217663107
1746734606182931200,8.01993115234375,-0.021423896300792694,0.01557085942365229,0.005447232555225491
1746734606192897000,8.02989697265625,-0.010802549043297766,0.0066731941536068914,0.00337227117838338
1746734606202864000,8.039864013671876,-0.02681494168937206,-0.011540398331172763,0.019515304466802625
1746734606212831000,8.0498310546875,-0.01888297964632511,-0.008102313641272485,0.007943816877622157
1746734606222798000,8.059798095703124,-0.02771393635571003,0.00030844489466398954,0.010530618500430137
1746734606232765200,8.06976513671875,-0.027416414713859555,0.004109042754024267,-0.008798424412962049
1746734606242732000,8.07973193359375,-0.019486206236481667,-0.007832958647981286,-0.005813508584350347
1746734606252698000,8.089697998046875,-0.003775426885485649,-0.0001939882021397352,0.015930632646754383
1746734606262665000,8.0996650390625,-0.025626024165749547,0.005684036985784769,-0.0004455700767226517
1746734606272632000,8.109632080078125,-0.03221066325306892,-0.000457717172242701,0.0003350041080266237
1746734606282599200,8.11959912109375,-0.026968670946359633,-0.002185308149829507,-0.0015186244020238518
1746734606292566000,8.12956591796875,-0.012305939343571663,-0.0036960415063425896,0.004106576802302152
1746734606302532000,8.139531982421875,-0.00946224035024643,0.013040975619852542,0.005169621190242469
1746734606312499000,8.1494990234375,-0.022029460978507994,0.012374364937283097,0.0011509966660290956
1746734606322466000,8.159466064453126,-0.006617372313141822,0.0037275326231494543,0.015491894169617444
1746734606332433200,8.16943310546875,-0.01170388179719448,-0.01709068940207362,0.00978082304643467
1746734606342400000,8.17939990234375,-0.033848493587970735,0.0003967807652428746,-0.0012190021346323192
1746734606352367000,8.1893671875,-0.02606733819246292,0.007912124831415712,-0.012039854019600898
1746734606362333200,8.199333251953124,-0.01724164218008518,0.015189458890631793,0.009926551660057157
1746734606372300000,8.209300048828124,-0.017394786915183067,0.013457410933636128,0.018078440064098686
1746734606382267100,8.21926708984375,-0.03220540255606174,0.005763276234455406,0.016974278214480727
1746734606392234000,8.22923388671875,-0.03205284234285354,-0.006123305185884237,-0.0011636369518935679
1746734606402201000,8.239201171875,-0.03175707426667213,-0.002005385005660355,-0.0032192177748307585
1746734606412167200,8.249167236328125,-0.017547347128391264,0.015352284769527613,-0.005004256294388324
1746734606422134300,8.25913427734375,-0.03311258052885532,0.014807437303103506,-0.0028643216562457383
1746734606432101400,8.269101318359375,-0.02278817039132118,0.005065320565551519,-0.015686448627337812
1746734606442068200,8.279068115234375,-0.005732406172156333,0.004368059016391635,0.006385097927227616
1746734606452035000,8.28903515625,-0.017705168038606642,-0.012313026671484113,0.019497732277493924
1746734606462001200,8.299001220703126,-0.024739304459095,0.00520655566714704,0.00650353667512536
1746734606471968300,8.30896826171875,-0.023091537252068518,0.01145754235330969,-0.005044643103703856
1746734606481935000,8.31893505859375,-0.012018354573845863,0.005726524420641362,0.008359978196769952
1746734606491902200,8.328902099609374,-0.013818097472190856,-0.014972272475995122,0.012855846577603369
1746734606501869300,8.338869384765625,-0.03237374486029148,-0.004915098439902067,0.002968804944027215
1746734606511836200,8.348836181640625,-0.03057809361517429,0.005086509484052658,-0.0032876799011602995
1746734606521802200,8.35880224609375,-0.016664134553074837,0.0024554303281009195,0.004515321999974549
1746734606531769000,8.36876904296875,-0.011132219389081,-0.009068272596597671,-0.0039115656868554645
1746734606541736200,8.378736083984375,-0.02370411619246006,0.014610234230570495,-0.0069940784047357735
1746734606551703300,8.388703369140625,-0.04196341098248958,-0.00324332930278033,-0.004629669094644487
1746734606561670100,8.398670166015625,-0.02370879236757755,0.003118460814096033,0.001127761920914054
1746734606571636200,8.40863623046875,-0.03253916455507278,-0.008371778232418,0.020474340490996838
1746734606581603000,8.41860302734375,-0.04391337600648403,0.026239808682538567,0.0008787007969804108
1746734606591570200,8.428570068359376,-0.03463233744204044,0.01223017069362104,0.008788615405000746
1746734606601537300,8.438537353515626,-0.014880758267641066,-0.003811740307882428,0.006029818216152488
1746734606611504000,8.448504150390624,0.0032259763091802597,-0.0018281287426128983,0.015527732667978852
1746734606621471200,8.45847119140625,-0.020864508852362632,-0.00018310148194432258,0.013680278170388192
1746734606631437000,8.46843701171875,-0.04690145190656185,-0.009606507659144699,-0.007728767621144652
1746734606641404200,8.478404052734374,-0.03164192345440388,0.0007812500381842255,-0.0027276531319133934
1746734606651371300,8.488371337890625,-0.015483400335907935,0.01532525063212961,0.006436828114464879
1746734606661338000,8.498338134765625,-0.031489363241195674,0.002167735960520804,0.01497062850818038
1746734606671305200,8.50830517578125,-0.0274450562864542,-0.0007758066780865192,0.013010562215279787
1746734606681271000,8.51827099609375,-0.01322889940738678,-0.017994981298036873,-0.007070358511339873
1746734606691238100,8.528238037109375,-0.029541736304759977,-0.02856394078116864,-0.012735672530345618
1746734606701205200,8.538205322265625,-0.04630056340396404,0.0073098846219480035,-0.013725195024348795
1746734606711172000,8.548172119140625,-0.009939210212230681,0.028557511040382087,-0.002333100856374949
1746734606721139200,8.55813916015625,-0.026547815185785292,0.005630955091677606,-0.005468348408490419
1746734606731106000,8.56810595703125,-0.03447802366316318,-0.020574512929841873,0.0223467832993716
1746734606741072100,8.578072021484376,-0.02085924815535545,-0.013862557668425143,-0.003418210945650935
1746734606751039000,8.5880390625,-0.0006587561696767807,-0.0011054404912516475,-0.004365099874325097
1746734606761006000,8.598006103515624,-0.01771744299829006,-0.0012779475139454005,0.009743304047640412
1746734606770973200,8.60797314453125,-0.02056348007917404,0.013245521748624742,0.013460552738793194
1746734606780940000,8.61793994140625,-0.01966857706606388,-0.007525134807825088,0.008912789773941039
1746734606790906000,8.627906005859375,-0.02146247474551201,-0.004086465596035122,0.018867361952085045
1746734606800873000,8.637873046875,-0.04106558535993099,-0.014848463433235882,0.005089267696719617
1746734606810840000,8.647840087890625,-0.03597381517887115,-0.008013466314040124,-0.008784268023446201
1746734606820807200,8.65780712890625,-0.024748656809329986,0.010189422113634645,-0.005818623150885105
1746734606830774000,8.66777392578125,-0.014723521879315376,0.009744966281764208,0.0070752904147841035
1746734606840741000,8.6777412109375,-0.013826280778646468,0.00007438041046261786,0.016733254266530273
1746734606850707000,8.68770703125,-0.01965980923771858,-0.01281392539832741,0.003954655909910798
1746734606860674000,8.697674072265626,-0.041059740141034126,-0.01774688828848302,0.008946290184743702
1746734606870641200,8.70764111328125,-0.023104396733641622,-0.014145502795651554,-0.00493111799294129
1746734606880608000,8.71760791015625,-0.015022797086834907,0.009922807066701352,-0.0058344600408338
1746734606890575000,8.7275751953125,-0.03013677958846092,0.013796945086307823,0.0022930245743133125
1746734606900541200,8.737541259765624,-0.052581835630536075,0.005968881809152662,0.0022156667554751037
1746734606910508000,8.747508056640624,-0.021754151168465612,-0.014336677986197173,0.010062452999409287
1746734606920475100,8.75747509765625,-0.01472118379175663,-0.00775211196411401,0.015584486090205608
1746734606930442000,8.76744189453125,0.0035322657793760296,0.04295465050954372,0.007100022997241467
1746734606940409000,8.7774091796875,0.0017331074029207228,0.054210752006620164,0.004862254007812589
1746734606950376000,8.7873759765625,-0.030140871241688728,0.0035621494609862562,0.010303385615814476
1746734606960342300,8.79734228515625,-0.04914543144106864,-0.05679145268220454,0.014303396771103143
1746734606970309000,8.80730908203125,-0.07203998481631278,-0.05432111704591661,-0.031052067802473902
1746734606980276200,8.817276123046875,-0.033581367084383966,0.002167589830048382,-0.022179189913813024
1746734606990243000,8.8272431640625,-0.002457330024242401,0.04066219219081103,-0.0030631321639753876
1746734607000210000,8.8372099609375,0.006822539496421813,0.016855382808856664,0.03981386826578528
1746734607010176300,8.84717626953125,-0.01667231785953045,-0.004072327472828328,0.04284127152925357
1746734607020143000,8.85714306640625,-0.052583004674315446,-0.015966251949407158,0.005738251391053199
1746734607030110200,8.867110107421874,-0.01173310789167881,0.013531864409334958,-0.012191519183665513
1746734607040077300,8.877077392578125,-0.014879589223861693,0.007063289449736476,-0.011284085482545196
1746734607050044200,8.887044189453125,-0.03194295222759247,-0.018720920952409504,0.0007112352755852043
1746734607060011300,8.89701123046875,-0.04436228881776333,-0.005407813860289752,0.0033988303917460144
1746734607069977000,8.90697705078125,-0.004110942450165749,0.009130670308321714,0.021671989310346543
1746734607079944200,8.916944091796875,-0.006955225965380668,0.01020005310550332,0.03859524972364306
1746734607089911300,8.926911376953125,-0.019824644410610198,0.016336363903433085,0.008253120288811623
1746734607099878100,8.936878173828125,-0.030894319957494733,0.00009958791695535182,-0.0157427271255292
1746734607109845200,8.94684521484375,-0.03897591960430145,-0.01197871668320149,-0.03460389679884538
1746734607119812400,8.956812255859376,-0.0120429044932127,-0.010743293136730789,-0.0019739304214715955
1746734607129778200,8.966778076171876,-0.013539280530810355,0.01411010268870741,0.02822734750425443
1746734607139745300,8.976745361328126,-0.031046295648813244,-0.007247158116661012,0.04474717821581289
1746734607149712100,8.986712158203124,-0.02146890448629856,0.0019476634690538048,0.0208109520342201
1746734607159679200,8.99667919921875,-0.0035129765570163724,0.004670147235505282,0.012239468244928865
1746734607169646000,9.00664599609375,-0.01878185735940933,0.011251827180758118,-0.0317055267425254
1746734607179612200,9.016612060546874,-0.023871873974800107,-0.009207279208488761,-0.05561333054723218
1746734607189579300,9.026579345703125,-0.019681436547636984,-0.018969160092435777,-0.022507691215816885
1746734607199546000,9.036546142578125,-0.01848608928322792,-0.0035514088712632653,0.04490819573011249
1746734607209513200,9.04651318359375,-0.035842882275581356,0.012275726868398487,0.04460205239038914
1746734607219480000,9.05647998046875,-0.018781272837519646,0.004291778909787536,-0.0010803791152313351
1746734607229447200,9.066447265625,-0.013243512454628943,-0.018931494963169097,-0.020827921435330063
1746734607239413000,9.0764130859375,-0.016982698982954025,-0.018990531674027443,-0.002702427359111607
1746734607249380000,9.086380126953125,-0.022815058398246765,0.001236081133596599,-0.0035577838131226596
1746734607259347200,9.09634716796875,-0.0469078816473484,0.00021663842536509035,-0.002518028969224542
1746734607269314000,9.10631396484375,-0.0168313078135252,0.006090754623152316,0.02094071589373052
1746734607279281200,9.11628125,-0.0044160628765821455,-0.005496113198250532,0.011743592753075063
1746734607289247000,9.1262470703125,-0.009505494970083236,-0.0003248115075752139,0.0074997446382418275
1746734607299214000,9.136214111328124,-0.032398879301548,-0.00394771471247077,-0.02528484604526311
1746734607309181200,9.14618115234375,-0.012645546561479568,-0.012053206691518424,-0.020345453414320945
1746734607319148000,9.15614794921875,-0.015489830076694487,-0.0005268368856981396,-0.004283686934877187
1746734607329115100,9.166115234375,-0.030302199283242223,0.013636128501407802,0.018018964961823074
1746734607339082200,9.176082275390625,-0.032846623069047926,0.004781973579525947,0.01941905928440392
1746734607349048000,9.186048095703125,-0.015339607951045036,-0.0008789747916162013,0.027342965885158627
1746734607359015200,9.19601513671875,-0.0101040453851223,-0.006644808309338986,0.0035055421692319214
1746734607368982000,9.20598193359375,-0.04317161772847175,-0.002399827683344483,-0.025023327298555522
1746734607378949000,9.21594921875,-0.030302199283242223,0.0017377470454201102,-0.01643522116802633
1746734607388916200,9.225916259765626,-0.018182137900590895,0.002210113797523081,0.009148626090120524
1746734607398883000,9.235883056640626,-0.016683423775434494,0.01236932343598455,0.02656805425621569
1746734607408849200,9.24584912109375,-0.023714637586474418,0.013201244215480983,0.003875855052657425
1746734607418816000,9.25581591796875,-0.020419687694311142,0.0014303615966811776,-0.008683383198548108
1746734607428783000,9.265783203125,-0.0187701669216156,-0.004879369539394975,-0.001453925135359168
1746734607438750000,9.27575,-0.022510522493720053,-0.008894815725833177,0.011186799120530486
1746734607448717000,9.285717041015625,-0.025354806008934975,0.0008558861769735812,-0.0031676337180659175
1746734607458683100,9.29568310546875,-0.026400515669584273,0.0014156389515846968,-0.0017044110313989222
1746734607468650000,9.30564990234375,-0.026095395243167875,0.0020128011271357536,0.02057860458306968
1746734607478617000,9.3156171875,-0.02399988426864147,-0.0021905688468366862,0.009067633275780826
1746734607488584000,9.325583984375,-0.03597030804753303,0.0016856515320017933,0.005619410784356296
1746734607498551000,9.335551025390625,-0.035223289072513576,-0.009239354847185313,-0.011690985783003269
1746734607508518100,9.34551806640625,-0.018165771287679672,-0.011960633037239312,0.0014481712480075657
1746734607518484200,9.355484130859375,-0.017867665123939513,-0.0044289588907733555,0.000804375185444951
1746734607528451300,9.365451416015626,-0.03717325409650803,-0.0022536241456866265,0.005709080095496029
1746734607538418200,9.375418212890626,-0.02565291217267513,-0.0042795404827222225,0.010632489706017077
1746734607548385000,9.385385009765624,-0.015777999368309974,-0.006192023040540516,0.010629183504078536
1746734607558352100,9.39535205078125,-0.01967033063173294,-0.007212634792551398,0.00737730556866154
1746734607568318200,9.405318115234374,-0.01967149967551231,0.01658241108637303,-0.007406038472801447
1746734607578285300,9.415285400390625,-0.025658757391571998,0.01171703353971243,-0.005630589765496552
1746734607588252200,9.425252197265625,-0.014589081844687461,0.004901033381931484,-0.0060357365002855655
1746734607598219300,9.43521923828125,-0.0320984350502491,-0.01048508059196174,0.010304773855302483
1746734607608186400,9.445186279296875,-0.03000000146627426,0.005189020010456443,-0.007291910573840141
1746734607618153200,9.4551533203125,-0.018330021938681603,0.005702084099128842,-0.014822762736398726
1746734607628119300,9.465119384765625,-0.020429040044546126,-0.0015113544110208748,0.003738656805362552
1746734607638086100,9.475086181640625,-0.027014848175644875,0.00033135084621608256,0.01675765805542469
1746734607648053200,9.48505322265625,-0.028363340175151824,-0.003214139740914106,0.009135766608547419
1746734607658020000,9.49502001953125,-0.020581015735864638,-0.0002688800692558288,-0.00012753536980599165
1746734607667987200,9.5049873046875,-0.010854571491479873,0.0017787001103162765,0.0047428106129169464
1746734607677954300,9.514954345703124,-0.020130933880805967,-0.004097242718376219,-0.007219028000719845
1746734607687920000,9.524920166015624,-0.028656185641884803,0.01570486106686294,-0.0000370806073769927
1746734607697887200,9.53488720703125,-0.01728138966858387,0.006635492491722106,-0.006888298209011554
1746734607707854000,9.54485400390625,-0.025360066705942153,0.004028561396338046,-0.012550671352259814
1746734607717821200,9.5548212890625,-0.016980945417284964,0.015376834688894449,0.003231967658549547
1746734607727788300,9.564788330078125,-0.019074118304252624,0.014244396592862904,0.020364961832389235
1746734607737754000,9.574754150390625,-0.00934767405986786,-0.011643091520667075,-0.004475885038729757
1746734607747721200,9.58472119140625,-0.010091185903549195,-0.009648958561383187,-0.012452197680156677
1746734607757688000,9.59468798828125,-0.012183774268627165,-0.006114427759684622,0.005482322134915739
1746734607767655200,9.6046552734375,-0.03582417757511139,0.00395790731292218,-0.00013411124106496572
1746734607777622300,9.614622314453126,-0.036569442984461784,0.0032998087303712964,0.0013269925537519156
1746734607787589000,9.624589111328126,-0.008586626559495925,0.0023754604270681736,0.0094178349529393
1746734607797555200,9.63455517578125,-0.012027706924080847,0.011362046089582144,0.0041391090987250205
1746734607807522000,9.64452197265625,-0.04689326860010624,0.002233786934055388,0.014766666901297866
1746734607817489200,9.6544892578125,-0.024298574954271315,-0.009751067228987812,-0.004633011829201132
1746734607827456300,9.664456298828124,-0.001558335357904434,-0.005139737508632242,-0.004918203712441027
1746734607837423000,9.674423095703125,-0.04585398868024349,-0.01211480068564415,-0.0066673306684009725
1746734607847390200,9.68439013671875,-0.023556232154369354,-0.00233695504758507,0.008373568330705166
1746734607857356000,9.69435595703125,-0.009491466444730758,0.00908715996015817,0.0007096826393157244
1746734607867323100,9.7043232421875,-0.02909457705914974,-0.0010464403130114079,0.006356967811286449
1746734607877290200,9.714290283203125,-0.026999066084623335,0.005694814108125865,0.003310311858076602
1746734607887257000,9.724257080078125,-0.022658406531810758,0.020360760581307112,0.0059466882436536245
1746734607897224200,9.73422412109375,-0.009941548299789427,0.007617598864249885,-0.005220785121899098
1746734607907190000,9.74418994140625,-0.010836451312899589,0.0008463146310299634,-0.0011166742713190614
1746734607917157000,9.7541572265625,-0.021015900021791458,-0.011634944746829568,0.015386223571747541
1746734607927124000,9.7641240234375,-0.02460603346824646,0.01288238752465695,0.010596304147783666
1746734607937091000,9.774091064453126,-0.02685118204653263,-0.001017871805652976,0.004137885256018489
1746734607947058200,9.78405810546875,-0.011288871255517006,-0.004331891724467277,0.008984448504354803
1746734607957025000,9.79402490234375,-0.0273012639015913,0.010004932392202317,-0.003777691907808184
1746734607966991000,9.8039912109375,-0.03074234426617622,0.011272760370932519,-0.004425981482397765
1746734607976958000,9.8139580078125,-0.01637596526145935,0.015124211634695529,-0.0038104433999396857
1746734607986925000,9.823925048828125,-0.02474924133121967,-0.010432400556653737,0.006105824328120797
1746734607996892200,9.83389208984375,-0.0192103119045496,0.004168956247717142,0.015220529882330447
1746734608006859000,9.84385888671875,-0.028039515048265455,-0.000016914602182805537,0.017061426774971186
1746734608016826000,9.853826171875,-0.023701193583011627,0.0012045900167897343,0.00884677533302456
1746734608026792000,9.8637919921875,-0.0021545476853847504,-0.0021023425741121173,-0.0012694536802358924
1746734608036759000,9.873759033203125,-0.02056055746972561,0.011701032252982259,-0.015059019177686423
1746734608046726100,9.88372607421875,-0.03717500766217709,0.008331153961084782,-0.0035937319093383847
1746734608056693000,9.89369287109375,-0.024007483053207396,-0.008736081500165164,0.014102321241050958
1746734608066660000,9.90366015625,-0.027750176712870597,-0.014996639732271432,0.005177767964079975
1746734608076626200,9.913626220703126,-0.014884265398979185,0.0011668883549049497,0.005895432980451733
1746734608086593000,9.923593017578124,-0.030741759744286536,0.009880721490643918,-0.002616995831672102
1746734608096560000,9.93356005859375,-0.010542436802387237,0.00631221535410732,-0.0009394362745806575
1746734608106527000,9.94352685546875,-0.0014139584511518477,-0.009121135294996202,-0.010349544578790663
1746734608116494000,9.953494140625,-0.021466566398739815,0.008218560432083905,0.007406184603273868
1746734608126461000,9.9634609375,-0.03284019332826137,-0.0003300356719642877,0.003287643368542194
1746734608136427300,9.97342724609375,-0.027303601989150047,0.004639569434151053,0.009835329712647944
1746734608146394400,9.983394287109375,-0.013536942443251609,-0.0022247633773833514,0.007859061203617602
1746734608156361200,9.993361328125,-0.03328852161765098,-0.009878346870467066,0.0029368023705668746
1746734608166328000,10.003328125,-0.03194412127137184,-0.0024931685226038097,-0.004845284606702626
1746734608176295200,10.013295166015626,-0.012791092512011527,0.005175283746048808,-0.004117372190952301
1746734608186262000,10.023261962890626,-0.014140169033408164,-0.006469853601232171,0.006862780175264925
1746734608196228000,10.03322802734375,-0.020721885511279105,0.0006349369026720523,0.002708455241099
1746734608206195200,10.0431953125,-0.02042377934753895,0.005399740151688456,-0.005138897258415818
1746734608216162000,10.053162109375,-0.007259761869907379,-0.0031831966133788227,0.003271715147048235
1746734608226129200,10.063129150390624,-0.011451952862739562,-0.01691226409524679,0.006615710079018026
1746734608236096000,10.073095947265625,-0.037489480438828465,0.003280957899428904,0.011730203548539429
1746734608246063000,10.08306298828125,-0.02686462604999542,-0.0012261442614719272,-0.0047231743306852874
1746734608256029200,10.093029296875,-0.019383330383896828,-0.009302373613417148,0.005338529750052839
1746734608265996000,10.10299609375,-0.011302899780869484,0.005969027939625084,0.009068035134579986
1746734608275963100,10.112963134765625,-0.00936111806333065,-0.0017573285287246108,0.0052437641386874016
1746734608285930000,10.122929931640625,-0.05006546889543533,0.008277012621052562,-0.001370119309425354
1746734608295897000,10.13289697265625,-0.009218494722247124,0.0021021964436396955,0.005372322421800345
1746734608305863000,10.14286279296875,-0.018345219507813454,0.0016200754825025797,0.003436568586248904
1746734608315830000,10.152830078125,-0.031217560562491416,0.008240991459600626,0.005320336506236345
1746734608325797000,10.162797119140626,-0.039897710624337196,0.002573540282435715,-0.002582673436962068
1746734608335764000,10.172763916015626,-0.010869184538722038,0.002163680839911103,0.006374576533213257
1746734608345731000,10.18273095703125,0.00020107553005218505,0.004310081751458346,0.005682922740932554
1746734608355698200,10.1926982421875,-0.02434241409599781,0.026315467734634876,0.003411616808082908
1746734608365664000,10.2026640625,-0.036165538358688354,0.0008969123071059584,-0.004625741838198155
1746734608375631000,10.212631103515625,-0.007585340562462807,-0.00938029768783599,0.02001220287196338
1746734608385598000,10.222597900390625,-0.028535774132609364,-0.013852584263682365,0.022436836203001437
1746734608395565000,10.23256494140625,-0.018809914410114287,0.004404408971406519,0.008990403321105987
1746734608405532200,10.2425322265625,-0.013124854511022566,0.003505377772450447,-0.007862129943538456
1746734608415499000,10.2524990234375,-0.011031681624054908,-0.010655687918514012,0.004416099409200251
1746734608425465000,10.262465087890625,-0.023902853634953498,0.0018250600026920437,-0.0005113105230033397
1746734608435432000,10.272431884765625,-0.030185294905304905,0.009427388232573867,-0.012850165755487978
1746734608445399000,10.28239892578125,-0.019115034836530684,-0.003673062489554286,0.008552249365858734
1746734608455366000,10.292365966796876,-0.014926935496926306,-0.00901931888833642,0.005439140580315143
1746734608465333000,10.3023330078125,-0.005202244818210602,0.001348565064743161,0.014727120342198759
1746734608475300000,10.312300048828124,-0.03482873679697513,-0.00017086305487900972,0.002395114975608885
1746734608485266000,10.322265869140624,-0.045453006663918494,0.006103285311162472,-0.003707257020100951
1746734608495233000,10.33223291015625,0.0007850128978490829,-0.0066477309187874195,0.010425441092904657
1746734608505199900,10.342199951171875,-0.01896715079843998,-0.009662439097464084,0.0103106373405084
1746734608515167000,10.3521669921875,-0.036624972563982006,0.003632511283457279,0.003930197322089225
1746734608525134000,10.362134033203125,-0.023460370564460754,-0.00181983583830297,0.021018311174586413
1746734608535101000,10.372100830078125,-0.01343406659066677,-0.020237974451854823,0.021594996817689387
1746734608545067000,10.38206689453125,-0.02061491800546646,-0.004422492617368698,0.012330982453282922
1746734608555033900,10.392033935546875,-0.019269348615407942,0.008652641000412404,0.010188673194963485
1746734608565001000,10.4020009765625,-0.025109891337156295,0.021758790810965,0.001730550119653344
1746734608574968000,10.411968017578126,-0.012098434072732926,-0.008766074779629707,0.0013528393810614942
1746734608584935000,10.421934814453126,-0.027808628901839254,-0.001627126277796924,0.024828809373453258
1746734608594901000,10.43190087890625,-0.03618248949348926,-0.0017407792527228594,0.012648925828654319
1746734608604867800,10.441867919921876,-0.019420739784836768,0.002088496711850166,0.002296349042560905
1746734608614835000,10.4518349609375,-0.019421324306726453,0.001686601380072534,-0.0038722383234649892
1746734608624802000,10.461802001953124,-0.015832944425940514,0.016111505638994276,0.0021343634138815105
1746734608634769000,10.471768798828125,-0.043669045856595035,0.016030695487745106,-0.0003656367083080113
1746734608644736000,10.481736083984375,-0.044864393121004105,-0.010369893247075379,0.009084858405217527
1746734608654701800,10.491701904296875,-0.014336568388342857,-0.006119907652400434,0.001834668081253767
1746734608664669000,10.5016689453125,-0.02002104376554489,0.0031933892138302326,0.020642408800590782
1746734608674636000,10.511635986328125,-0.035733576682209965,0.0008067863382399082,0.0021053565151058135
1746734608684603000,10.521602783203125,-0.025111060380935666,-0.00006305529884994029,0.00004223170652985573
1746734608694570000,10.531570068359375,0.000021627309918403625,-0.00789502756614238,0.006024301790818571
1746734608704536800,10.541536865234375,-0.01973345899581909,0.009232267519272863,-0.00414058866975829
1746734608714503200,10.551503173828126,-0.03364858710169792,0.013350297297351061,0.01225488500976935
1746734608724470000,10.561469970703126,-0.02676759541630745,0.005458886460401118,0.022467815863154827
1746734608734436900,10.571436767578126,-0.03066226476728916,-0.0021013196608051657,0.010114438914973288
1746734608744404000,10.581404052734374,-0.027072715842723846,0.006583250847831368,0.0021015388565137983
1746734608754370800,10.591370849609374,-0.03963993647098541,0.015233736423775552,-0.0012407025097869336
1746734608764338000,10.601337890625,-0.012258008548617362,0.0005921206742525101,-0.0019450513868592679
1746734608774304000,10.611303955078125,-0.010163082095980644,-0.01081741781886667,0.013097107987571507
1746734608784271000,10.62127099609375,-0.016298223850131036,-0.003486746137216687,0.01681961737573147
1746734608794238200,10.63123828125,-0.02333236027061939,-0.0008967296440154313,-0.0016108875290490685
1746734608804205000,10.641205078125,-0.02752396674156189,0.007668452268652618,-0.0014235847960226238
1746734608814172000,10.651171875,-0.018248773396015164,0.00008391542378813028,-0.003485065636783838
1746734608824139000,10.661138916015625,-0.030220366218686102,0.003351283189281821,0.010204400487057863
1746734608834105000,10.67110498046875,-0.019891864427924157,0.013422339620254933,0.002434661534707993
1746734608844072200,10.681072265625,-0.024230185893177984,-0.010135280773602425,0.013406100871507077
1746734608854039000,10.6910390625,-0.02078618291914463,-0.004923975866101682,0.012302304348070173
1746734608864006100,10.701006103515626,-0.023330022183060645,0.004962736973911523,0.002837707643955946
1746734608873973200,10.71097314453125,-0.02587386144697666,0.015131664288789032,-0.012398512997850775
1746734608883940000,10.720940185546874,-0.019891279906034467,0.0011310133239254355,-0.006681724519934505
1746734608893906200,10.73090625,-0.01405190622806549,-0.009493694934435188,0.011945691196434198
1746734608903873000,10.740873046875,-0.02078442935347557,-0.008582863699831068,0.01067517807027325
1746734608913840000,10.750840087890625,-0.03649871583580971,0.011514240976609288,-0.0039637342655099925
1746734608923807000,10.760806884765625,-0.016002455773949622,-0.005743439022824168,0.023296393908094612
1746734608933774000,10.770774169921875,-0.010915946289896965,0.005965703471377492,0.007423829857818782
1746734608943740200,10.780740234375,-0.021838906842470168,0.00327262846250087,-0.002472965984791517
1746734608953707000,10.79070703125,-0.020793781703710556,0.006444828757829963,0.002362893206439912
1746734608963674000,10.800674072265625,-0.014509586867690086,0.008683072671294211,-0.004633888612035662
1746734608973641000,10.810640869140625,-0.022890461722016333,0.0028489596903324126,0.006050934069417416
1746734608983608000,10.820608154296876,-0.02139700829386711,-0.010903342536650597,0.01365421214736998
1746734608993575200,10.8305751953125,-0.035759295645356175,0.0066692851634696125,-0.013564488037303089
1746734609003541000,10.840541015625,-0.004484451937675476,-0.0048236207641661165,0.007890387923642992
1746734609013508000,10.850508056640624,-0.01705517969727516,0.006145663148164749,0.022077062979899347
1746734609023475000,10.860474853515624,-0.02902735704183578,0.01514554668366909,0.017160539767891166
1746734609033442000,10.870442138671875,-0.03172258747518063,-0.0014725933032110332,0.016221541884727776
1746734609043409200,10.8804091796875,-0.027084406280517576,-0.009421433415822683,0.010592468222882599
1746734609053376000,10.8903759765625,-0.010023965886235237,0.005040661048330367,0.01179440962485969
1746734609063342000,10.900342041015625,-0.019149521628022192,0.005161584014259278,0.0033681247262284156
1746734609073309000,10.910308837890625,-0.033517069676518435,0.002805778135731816,-0.0016847747491672634
1746734609083276000,10.920276123046875,-0.02423778467774391,-0.007270392861776054,0.007603606871515512
1746734609093243100,10.9302431640625,-0.01630874524414539,-0.00925188553519547,0.010584504112135618
1746734609103210000,10.9402099609375,-0.014662147080898283,0.0001619490960612893,0.007747691517323255
1746734609113177000,10.950177001953126,-0.036812019568681714,0.0027642770815640687,0.004202365326974541
1746734609123143000,10.960142822265626,-0.027535072657465933,-0.013370719030871987,0.005377564852498472
1746734609133110000,10.970110107421876,-0.03456745551228523,-0.016362228997051715,0.023607231689244508
1746734609143076900,10.980076904296874,-0.02648527134358883,-0.009974135395139454,0.012091054483875631
1746734609153043700,10.990043701171874,-0.039057168146967886,0.022692491464503108,0.01092084166072309
1746734609163010800,11.0000107421875,-0.005087094005942344,0.002759600906446576,-0.006636972062755376
1746734609172977700,11.009977783203125,-0.02199380514323711,-0.00807074945922941,0.005176489322446286
1746734609182943700,11.01994384765625,-0.039348260048031804,-0.001146247425675392,0.006222308580949902
1746734609192910600,11.02991064453125,-0.026478841602802276,0.010788557050563394,-0.003453647585213184
1746734609202877700,11.039877685546875,0.0003092120796442032,-0.00032061025649309156,0.00021430033780634402
1746734609212844800,11.0498447265625,-0.01016542018353939,-0.009166070415265858,0.019105938214622437
1746734609222811600,11.059811767578125,-0.03351063993573188,0.0025272534552961586,0.013308412650693208
1746734609232778800,11.06977880859375,-0.03949263695478439,0.008302804649434984,-0.0101057441518642
1746734609242744600,11.07974462890625,-0.01719780303835869,0.0047212563682347535,0.004147456801962107
1746734609252711700,11.089711669921876,-0.014057751446962356,-0.01827964345831424,0.01377424006415531
1746734609262678800,11.0996787109375,-0.021094225955009458,0.0006169263219460844,0.006811634509917348
1746734609272645600,11.109645751953124,-0.04054769896566868,-0.002821231433190405,-0.003924589565210044
1746734609282612700,11.11961279296875,-0.014063596665859221,0.0022849691320210694,-0.012844411868136375
1746734609292579600,11.12957958984375,-0.008827449578046799,0.0027237624080851675,0.012965024306811391
1746734609302545700,11.139545654296874,-0.030375849041342735,0.016182269320264456,0.012844868525862693
1746734609312512800,11.1495126953125,-0.0249877262622118,0.02425141134429723,-0.0006511756514199077
1746734609322479600,11.159479736328125,0.0005962123274803161,-0.009503887534886598,0.0024119930451735852
1746734609332446700,11.16944677734375,-0.031130466800928114,0.004780694937892258,0.017721388521045444
1746734609342413600,11.17941357421875,-0.036221067938208576,0.011566080761700868,0.010911379712633788
1746734609352380700,11.189380615234375,-0.016770517536997796,0.00038669776264578103,0.005391337649524212
1746734609362346800,11.1993466796875,-0.012733809366822241,0.00017532003428786993,-0.001763959198910743
1746734609372313900,11.20931396484375,-0.04685293658971786,-0.010675561662763356,0.021091960932686924
1746734609382280700,11.21928076171875,-0.025752280893921852,-0.011589607767760753,0.006061327599268407
1746734609392247600,11.22924755859375,-0.02650163795650005,-0.007628193323500454,0.0036074864400550723
1746734609402214700,11.239214599609374,-0.0009147767573595046,0.0016790025955066084,0.004363419373892247
1746734609412181800,11.249181640625,-0.03578033843338489,0.004528656405583024,0.014232651356142014
1746734609422147800,11.25914794921875,-0.03353460533320904,0.009405176400765776,0.013062219337280839
1746734609432115000,11.269114990234375,-0.016926000359654424,0.014078648104518652,0.004837576224282384
1746734609442081800,11.279081787109375,-0.007355038937926292,0.004954918993636965,0.012644103523064405
1746734609452049000,11.289048828125,-0.023516484665870665,-0.01928918582703918,0.010860197514668107
1746734609462015700,11.299015625,-0.040725978142023084,-0.018032281101122496,-0.014173304118029773
1746734609471982600,11.308982666015625,-0.04641396065056324,-0.01980758367795497,-0.017118107131961734
1746734609481949000,11.318948974609375,-0.004065934264659881,0.009495923424139619,0.010585033835098148
1746734609491915800,11.328915771484375,-0.012593524113297462,0.025334676536358892,0.02192512382119894
1746734609501883000,11.3388828125,-0.019773791006207464,0.018088285604678095,0.01068409202909097
1746734609511850000,11.34885009765625,-0.03458499116897583,-0.0045831996044144035,0.003204659526515752
1746734609521816800,11.35881689453125,-0.03129471745193004,0.01206033055204898,-0.021473434530943632
1746734609531783000,11.368782958984376,-0.010945172384381294,0.00689542206954211,-0.0064312020912766455
1746734609541749800,11.378749755859374,-0.01633329516351223,-0.014326083526946603,0.01753260621698573
1746734609551716900,11.388716796875,-0.04356967713534832,-0.02363211040217429,0.005716532749589533
1746734609561683700,11.39868359375,-0.029655133551359174,-0.007690481437370181,0.005808101756870746
1746734609571650800,11.40865087890625,0.010298691174387932,0.03615614947583526,0.009078739191684872
1746734609581618000,11.418617919921875,-0.017538579300045966,0.05560107385385781,0.024756547854840754
1746734609591583700,11.428583740234375,-0.03549509175121784,-0.01304656511042267,0.023664880160614847
1746734609601550800,11.43855078125,-0.029658640682697295,-0.044198293895088135,-0.014175021151080727
1746734609611517700,11.448517578125,-0.021130466312170026,-0.007835808192193507,-0.017433073098957537
1746734609621484800,11.45848486328125,-0.014245967495441436,0.046172480044886464,0.010532244201935827
1746734609631452000,11.468451904296876,-0.020231471645832062,0.03226027454845607,0.018136965318303555
1746734609641418800,11.478418701171876,-0.0060170683324337,-0.014718699573725461,0.0274622814158909
1746734609651384800,11.488384765625,-0.02082885301709175,-0.011318024284765124,0.0223333027632907
1746734609661351700,11.4983515625,-0.04387362851798534,0.004090739912353456,-0.011592402513045818
1746734609671318800,11.50831884765625,-0.0030231472134590147,0.02744202407915145,-0.01472598783103749
1746734609681286000,11.518285888671874,0.014481529816985129,0.016421119577437637,-0.008230762326531112
1746734609691252700,11.528252685546875,-0.03011456775665283,-0.004950279351137578,0.030357856726925817
1746734609701219800,11.5382197265625,-0.044482115805149075,-0.00732073480952531,0.03956438701674342
1746734609711185700,11.548185546875,-0.02248714161813259,0.01406520410105586,0.010496734497137367
1746734609721152800,11.55815283203125,-0.02458323711454868,-0.0007230170449241995,0.005857822650112211
1746734609731119900,11.568119873046875,-0.03550736671090126,-0.00715067547224462,0.0003413242509588599
1746734609741086700,11.578086669921875,-0.02742927419543266,0.023094350263662636,0.011200845912192016
1746734609751053800,11.5880537109375,-0.01620996104478836,0.020504772161878643,0.006529566165525465
1746734609761020700,11.598020751953126,-0.008280921611189842,0.015614442837052047,0.017308222876582294
1746734609770986800,11.60798681640625,-0.013672551521658896,0.001052504727616906,0.029619240254070606
1746734609780953600,11.61795361328125,-0.03806464997828007,-0.01298931849785149,0.026785478132870046
1746734609790920700,11.627920654296876,-0.01950958711206913,-0.0031541531819850206,-0.002604666073061526
1746734609800887800,11.6378876953125,0.006674070936441421,0.012599077071249484,-0.02993762202085927
1746734609810854700,11.647854736328124,-0.0020054946035146714,0.02024308901838958,0.004060399573016912
1746734609820821800,11.65782177734375,-0.03342763782739639,0.010605893960036337,0.015289357334841042
1746734609830787600,11.66778759765625,-0.02175298212468624,-0.013108816691674291,0.010204327421821653
1746734609840754700,11.677754638671875,-0.006038695642352104,-0.022147534400224683,0.01767336639454588
1746734609850721800,11.6877216796875,-0.01666355003118515,-0.0016196370910853146,-0.0021193302415311336
1746734609860688600,11.697688720703125,-0.04539689256250858,0.02029149473737925,-0.0041743630751967424
1746734609870655700,11.70765576171875,-0.03103343616724014,-0.006251205881871283,-0.01443124266816303
1746734609880622800,11.717622802734375,-0.012928455156087875,0.00008439034782350063,0.008140234498865901
1746734609890588700,11.727588623046875,-0.03701894031763077,-0.010998802267760038,0.014244634054880589
1746734609900555800,11.7375556640625,-0.02684241421818733,0.012610292585007846,-0.0010217990620993078
1746734609910522600,11.747522705078126,-0.010081833553314209,0.015589637189358472,-0.012727105631399898
1746734609920489700,11.75748974609375,-0.016815525722503662,0.00806779031716287,0.015012951546255498
1746734609930456800,11.767456787109374,-0.018610592445731163,-0.002697824249230325,0.01498136909790337
