time,seconds_elapsed,z,y,x
1746575992017511200,0.06051123046875,-0.08163257354795932,-0.007410504585364833,-0.004791353329224511
1746575992027526100,0.070526123046875,-0.08357786239683627,-0.007866733053419738,0.0011978954145219177
1746575992037542100,0.080542236328125,-0.08552081315815448,-0.0036517639731988307,0.008735369114112108
1746575992047557000,0.09055712890625,-0.08895955543518066,-0.008967195975454523,-0.001029489178210497
1746575992057573400,0.100573486328125,-0.08820610671937465,-0.004107965041790157,-0.00631617001001723
1746575992067588400,0.11058837890625,-0.09598317046165465,-0.0023774697210639712,-0.004841430415492505
1746575992077604400,0.120604248046875,-0.08595335935652255,-0.0035058344301767646,-0.002054594442248344
1746575992087619300,0.130619384765625,-0.08759703491032123,-0.00041178653812967236,-0.005738552785152569
1746575992097635300,0.14063525390625,-0.0799608409434557,-0.00423567394153215,-0.004436338479630649
1746575992107650300,0.150650390625,-0.08369768938422202,-0.0036283830976113676,0.009791947228647768
1746575992117666300,0.160666259765625,-0.08683715645372866,0.00043368784268386657,0.008259193836571649
1746575992127681300,0.170681396484375,-0.0869844559699297,-0.0034581958961673077,-0.007310222548665478
1746575992137697300,0.180697265625,-0.083990534850955,-0.004008450190071016,-0.0011604951467365026
1746575992147712300,0.190712158203125,-0.07740414219796657,-0.0021447478105779735,-0.00038501726221293206
1746575992157728300,0.200728271484375,-0.08877426199615002,-0.0019708708147052672,0.0058415930345188825
1746575992167743200,0.2107431640625,-0.09445756832957267,-0.0053500740573741495,0.005365901814168319
1746575992177759200,0.22075927734375,-0.08421674482226371,-0.0027736933638807383,0.004541442821919918
1746575992187774200,0.230774169921875,-0.09026829994618892,0.004136296087130904,0.002794617420900613
1746575992197790200,0.240790283203125,-0.08461012805402278,0.00650750503076706,0.0028903511466458437
1746575992207805200,0.25080517578125,-0.0755991386026144,0.0004932679762365296,0.0053700391331687565
1746575992217821200,0.2608212890625,-0.09474339953362941,0.00015610387716442345,0.005285018597682938
1746575992227836200,0.270836181640625,-0.08920388558506966,-0.0002304523215861991,-0.007088597420928999
1746575992237852200,0.28085205078125,-0.08846212730705738,0.002375985583453439,0.009089315384626389
1746575992247867100,0.2908671875,-0.08981061930656432,-0.003675112882745452,0.0009903992768377065
1746575992257883100,0.300883056640625,-0.08456862699985504,0.0009093470969935879,-0.007543090589623898
1746575992267898000,0.310898193359375,-0.08367664659619331,-0.0006436453655129298,0.003327884047385305
1746575992277914000,0.3209140625,-0.08817512705922126,0.005772304357704706,-0.00536702519217506
1746575992287929000,0.33092919921875,-0.0748626410216093,-0.0027889137658989056,0.0017870660798624156
1746575992297945000,0.340945068359375,-0.08623685247302054,-0.0034661554403370245,-0.007775310176610946
1746575992307960000,0.3509599609375,-0.08338613921701908,-0.0016875146955251693,-0.001458272516913712
1746575992317976000,0.36097607421875,-0.08937807310819626,0.004934191299439407,0.00007022482515312731
1746575992327991000,0.370990966796875,-0.08443652505278587,0.0017705761693650856,-0.0006964030326344073
1746575992338007300,0.38100732421875,-0.09251169495880603,-0.003507551463227719,0.0007307802262715995
1746575992348022000,0.39102197265625,-0.08577800278961659,-0.0025502872710116207,-0.008376618804316968
1746575992358038300,0.401038330078125,-0.09475508997142314,0.004786517323902808,0.0007575860348064452
1746575992368053200,0.41105322265625,-0.08577741826772689,0.004626614054455421,0.0027332243561744686
1746575992378069200,0.4210693359375,-0.08502338503003119,0.009255680360901169,-0.0019921145321335643
1746575992388084200,0.431084228515625,-0.0812801068484783,0.003973109448631293,0.0063546753895003345
1746575992398100200,0.441100341796875,-0.09295651611685753,-0.004625851436052471,-0.0033368436719756573
1746575992408115200,0.451115234375,-0.09176116885244846,-0.005984800897492096,-0.0014756985757499932
1746575992418131200,0.461131103515625,-0.08397884441316127,-0.0105914635758847,0.0006673504680860787
1746575992428146200,0.471146240234375,-0.08726502647697926,-0.005694206753349863,0.008058812426263466
1746575992438162200,0.481162109375,-0.09295183994174003,0.005788680103770457,0.011568519313959405
1746575992448177200,0.49117724609375,-0.08741641764640808,-0.001054025397845544,0.0031511575073003765
1746575992458193200,0.501193115234375,-0.09280395590364933,-0.014610311862383969,-0.004199780644243583
1746575992468208000,0.5112080078125,-0.08562602709829807,-0.0071286463035270566,-0.002923038706695661
1746575992478224100,0.52122412109375,-0.08517652976512909,0.0012862221519462764,-0.0014026881384663283
1746575992488239000,0.531239013671875,-0.09280570946931839,0.001798231361270882,-0.002195382019272074
1746575992498255000,0.541255126953125,-0.09145487938225269,-0.0048899046331411225,-0.003963378072483465
1746575992508270000,0.55127001953125,-0.09609364509880543,0.0015649157957406713,0.0034286775407381355
1746575992518286000,0.5612861328125,-0.08756897785961627,0.00672095141862519,0.007851535484287887
1746575992528301000,0.571301025390625,-0.08592237969636916,0.0008466890903655439,-0.0029483649441972375
1746575992538317300,0.5813173828125,-0.10088029485344886,-0.006546161107299849,-0.0013605660297907889
1746575992548332000,0.59133203125,-0.09025485594272613,0.004646026574401185,0.005713801936386153
1746575992558348300,0.601348388671875,-0.09339841466546057,-0.0016081338829593732,0.0030139592600055038
1746575992568363300,0.61136328125,-0.0820259567797184,-0.0013108634028583764,0.0031085970072075725
1746575992578379300,0.621379150390625,-0.08157470588088035,0.00031770134677644815,-0.006651575976843014
1746575992588394200,0.631394287109375,-0.09788695825636386,0.005880148646351881,-0.003848830048413947
1746575992598410200,0.64141015625,-0.09040916972160339,0.0004340577354421839,-0.001366886172723025
1746575992608425200,0.65142529296875,-0.09355214392244815,0.005140125667699612,0.0004259063950274139
1746575992618441200,0.661441162109375,-0.09534604160189628,0.003982936722901649,0.00027169308084994554
1746575992628456200,0.671456298828125,-0.09444938502311706,0.006350268642441369,0.011685688553377985
1746575992638472200,0.68147216796875,-0.08831424326896667,0.0070478315857006235,0.0036841501391492782
1746575992648487200,0.691487060546875,-0.08831716587841511,0.005828112498437985,-0.0057681990047451105
1746575992658503200,0.701503173828125,-0.08577215757071971,-0.0009530492414021864,0.006791066645924002
1746575992668518100,0.71151806640625,-0.09100947370231151,0.0009421122888568788,0.012520824203267692
1746575992678534100,0.7215341796875,-0.08696867387890815,0.0026480896562570706,0.008023202256765217
1746575992688549000,0.731549072265625,-0.09729191497266292,-0.003351625682576559,0.0005763659826945513
1746575992698565000,0.741565185546875,-0.08576865043938159,-0.005047885373560711,-0.009102467127144336
1746575992708580000,0.751580078125,-0.08801438353955746,0.0007444708249066025,-0.0027587149904575196
1746575992718596000,0.76159619140625,-0.08876432512402534,0.005204966498259455,0.005906429298501462
1746575992728611000,0.771611083984375,-0.09280278685986995,0.005149094425444491,0.005824504902400076
1746575992738627000,0.781626953125,-0.09085866705477237,-0.0019034270351054145,-0.0024769845727831124
1746575992748642300,0.791642333984375,-0.0919072993248701,-0.006075410923548043,-0.005484934217110276
1746575992758658000,0.801657958984375,-0.09864391410350799,0.007459024468786083,0.004754775045346468
1746575992768673300,0.81167333984375,-0.088617610129714,0.002122636443469673,0.01416399743356742
1746575992778689000,0.82168896484375,-0.08487316290438175,-0.004506960597005672,0.006591552885295822
1746575992788704300,0.831704345703125,-0.09265314925611019,-0.00031449104296043514,0.0038875089578330516
1746575992798720000,0.841719970703125,-0.08606967921257018,-0.006038681942620314,-0.00946143663264811
1746575992808735200,0.8517353515625,-0.10836568217277526,0.0048177298794966185,-0.004593967593600973
1746575992818751000,0.8617509765625,-0.10851473525464535,0.0016261444636853411,0.0018154153915122151
1746575992828766200,0.87176611328125,-0.08771335476636886,0.0050033155794721096,0.007617260937532409
1746575992838782000,0.881781982421875,-0.09145721746981143,0.006623112500761635,0.007274100922513752
1746575992848797200,0.891797119140625,-0.08293079666495323,-0.009056559325917623,-0.0015441150363069028
1746575992858813000,0.90181298828125,-0.09789514156281948,-0.005314395389216952,-0.01480034084203653
1746575992868828200,0.911828125,-0.09026362377107143,-0.0018263523440575225,-0.00825222523966804
1746575992878844000,0.921843994140625,-0.08337854043245314,0.0043371798209380355,0.00894732223120518
1746575992888859100,0.931859130859375,-0.08307926522493361,0.007814080417575314,0.011167473365552722
1746575992898875000,0.941875,-0.09729425306022167,0.006372151680686511,-0.010362285329354926
1746575992908890000,0.95189013671875,-0.08861468752026558,-0.0016899304148973895,-0.009139903927547856
1746575992918906000,0.961906005859375,-0.08442483461499213,0.005130814416659996,-0.004148333584796637
1746575992928921000,0.971921142578125,-0.08457213413119316,0.002278005101694725,0.012500411602901294
1746575992938937000,0.98193701171875,-0.08516834645867347,-0.00019272326023783533,0.006555504324380308
1746575992948953000,0.991953125,-0.09339724562168121,-0.0015865933380089698,-0.00440205261753872
1746575992958968000,1.001968017578125,-0.10162965191602706,0.0006276440787827596,-0.009437909626588225
1746575992968984000,1.011984130859375,-0.09804127203524111,-0.011774362350674345,0.0015994162869639693
1746575992978999000,1.0219990234375,-0.08606734112501144,-0.00898875478671398,0.007652651911322027
1746575992989015000,1.03201513671875,-0.0968394950300455,0.003412616888503544,0.007727123653329908
1746575992999030000,1.042030029296875,-0.10447218186557293,0.005134266749070957,0.009793709927471354
1746575993009046000,1.0520458984375,-0.09564473228752612,0.0036619794065365567,-0.003218094396824017
1746575993019061000,1.06206103515625,-0.08771277024447917,-0.0034059633854310956,-0.009121199227077886
1746575993029077000,1.072076904296875,-0.08561725926995277,0.003438714877562597,-0.006641063715983182
1746575993039092000,1.082092041015625,-0.09534136542677879,0.00408674872382544,0.006037024275073782
1746575993049108000,1.09210791015625,-0.10117547840774059,0.0024904925083275883,0.0005080134542193263
1746575993059123000,1.102123046875,-0.09474047692418099,-0.002184152805781923,-0.011444235347164794
1746575993069139000,1.112138916015625,-0.08636194015741348,0.0008803447647951543,-0.0051119270530994975
1746575993079154000,1.12215380859375,-0.08022738292515277,0.005704216690710745,0.000025618498446419835
1746575993089170000,1.132169921875,-0.09473930788040161,0.00475210359764751,0.0007071070897392928
1746575993099185000,1.142184814453125,-0.09159458011388778,-0.0014321562615456059,0.0015907489233184604
1746575993109201200,1.152201171875,-0.09728197810053825,-0.006502267166646197,-0.008580872672144323
1746575993119216000,1.162216064453125,-0.09010229572951793,-0.007031990129174664,0.007910517396219074
1746575993129232100,1.172232177734375,-0.08531389240920544,-0.006133548018685542,0.001373041918873787
1746575993139247000,1.1822470703125,-0.09339198492467403,0.005289854603004641,0.0019790541211608796
1746575993149263000,1.19226318359375,-0.09398995081782341,-0.0014642729994375258,-0.0032778708931989965
1746575993159278000,1.202278076171875,-0.0826180774539709,0.005105182218481786,-0.0043936592485290015
1746575993169294000,1.212294189453125,-0.09039864832758902,0.012385425187414511,0.0014123510159552097
1746575993179309000,1.22230908203125,-0.09458733218908309,0.00457551862145774,0.0050676129873376335
1746575993189325000,1.232324951171875,-0.09623276130855082,0.0027512303703231735,-0.006811871971935033
1746575993199340000,1.242340087890625,-0.09189502436518669,-0.0038101146063767373,0.00016315467245876789
1746575993209356000,1.25235595703125,-0.0917459712833166,0.01283610983067192,0.0014443261899519712
1746575993219371000,1.26237109375,-0.09503799856603146,0.0028564808430848643,-0.002690983516490087
1746575993229387000,1.272386962890625,-0.0892021320194006,0.002824642666405998,-0.010307139342324807
1746575993239402200,1.28240234375,-0.09473813883662223,0.0019553764180513097,-0.00021366101698949933
1746575993249418500,1.29241845703125,-0.08515957863032818,-0.003820626867236569,-0.006553211902594194
1746575993259433200,1.30243310546875,-0.08366261807084083,0.0011964478095294908,-0.015660921460436655
1746575993269449500,1.312449462890625,-0.08979600625932216,-0.00213912178738974,-0.002898771915119141
1746575993279464400,1.32246435546875,-0.0911404066056013,0.0007526586979394778,-0.0029742026383522894
1746575993289480400,1.33248046875,-0.09203998579382897,0.0019506363108521326,0.0013201152883935718
1746575993299495400,1.342495361328125,-0.08740063555538653,-0.00006259407454635947,-0.0027689349903725086
1746575993309511400,1.352511474609375,-0.08739946651160717,0.0038545930689200757,0.005518525959458202
1746575993319526400,1.3625263671875,-0.09637655369341373,0.005180845837155357,0.003907492299936711
1746575993329542400,1.37254248046875,-0.08799392527341843,-0.00285776861787308,-0.0032984204908832904
1746575993339557400,1.382557373046875,-0.0947264483988285,-0.0035469336255453524,-0.012916161930095404
1746575993349573400,1.392573486328125,-0.10400456435382366,0.0011359360942151397,0.0025171065206173807
1746575993359588400,1.40258837890625,-0.09951543624103068,0.004820634222635999,0.0017718959101941435
1746575993369604400,1.412604248046875,-0.09592530279457569,-0.00455322002468165,0.005054488644283265
1746575993379619300,1.422619384765625,-0.08335574407875537,0.009475688920286484,-0.005585526781063527
1746575993389635300,1.43263525390625,-0.0890448956310749,0.005304431117628701,0.0018788086170796305
1746575993399650300,1.442650390625,-0.09218728531002998,0.0037645721313310783,0.009899115663859993
1746575993409666300,1.452666259765625,-0.10221125119626522,0.005119932263041846,0.005160159242153167
1746575993419681300,1.462681396484375,-0.08963993891477584,0.004739120818488299,0.001340226494660601
1746575993429697300,1.472697265625,-0.09472937100827693,0.002325566003890708,-0.004378644342487678
1746575993439713500,1.482713623046875,-0.09098901543617248,0.006988671577256173,0.003445802205475047
1746575993449728500,1.492728515625,-0.09083937783241272,-0.002964215533877723,0.003650348334247246
1746575993459744500,1.50274462890625,-0.10415712456703186,-0.0007115001370664685,0.00187823322834447
1746575993469759500,1.512759521484375,-0.09143851276934147,-0.0005320108177373186,-0.0029789884113240986
1746575993479775500,1.522775390625,-0.08919394871294498,0.0022796399363549423,-0.003958336571184918
1746575993489790500,1.53279052734375,-0.08649871827960014,-0.005481367720267735,-0.006660352938342839
1746575993499806500,1.542806396484375,-0.09248363790810107,-0.0023939367986749857,-0.006573076513689011
1746575993509821400,1.552821533203125,-0.09203414057493209,0.0069905804065521805,0.00008060922184959054
1746575993519837400,1.56283740234375,-0.08440320730507374,0.00676589110547211,0.006670280677312985
1746575993529852400,1.572852294921875,-0.0876946500658989,0.0032212590348673982,0.003284200169285759
1746575993539868400,1.582868408203125,-0.09816811328530312,-0.0007624174735508858,-0.008615021536918356
1746575993549883400,1.59288330078125,-0.09098492378294468,-0.003213185326266102,-0.0025637678070925176
1746575993559899400,1.6028994140625,-0.09008651363849639,0.0015701216938206926,0.010071759683871641
1746575993569914400,1.612914306640625,-0.09113339234292507,-0.0005060087268007919,0.006150065328646451
1746575993579930400,1.622930419921875,-0.09128244542479515,0.0014537333391141146,0.006805451364303008
1746575993589945300,1.6329453125,-0.10146014056801796,0.0015048287721117957,-0.000009005290362983941
1746575993599961300,1.64296142578125,-0.09562602758705616,-0.0008861443179193884,-0.0014436777359806
1746575993609976300,1.652976318359375,-0.08574877669513226,0.0022954585599945856,-0.0012983601143117993
1746575993619992600,1.66299267578125,-0.0999637645304203,0.0020594395807245745,0.006044723524339496
1746575993630007300,1.67300732421875,-0.09652209964394569,0.004898220370337367,0.00842507018907927
1746575993640023600,1.6830234375,-0.10041443090736865,0.0038364135248353704,-0.005455014002881944
1746575993650038500,1.69303857421875,-0.09427928915321826,0.00008634027631487697,-0.007819094519410283
1746575993660054500,1.703054443359375,-0.07961714207231999,-0.002535432195174508,-0.0029090010481886562
1746575993670069500,1.713069580078125,-0.09622691608965396,0.0034714344036532565,0.0022533410178963093
1746575993680085500,1.72308544921875,-0.0938332989513874,0.007808458960964344,0.0014878182718064635
1746575993690100500,1.7331005859375,-0.09532850594520569,0.0011799533324548975,-0.002425711043272167
1746575993700116500,1.743116455078125,-0.08874445137977599,-0.010514932307531125,-0.006758808344136923
1746575993710131500,1.75313134765625,-0.10131517913937568,0.0009021136386087163,0.003539554036688059
1746575993720147500,1.7631474609375,-0.08739946651160717,0.009546594165451824,0.0075574387753847986
1746575993730162400,1.773162353515625,-0.09428338080644608,0.0035739220971707252,0.012537117750942706
1746575993740178400,1.783178466796875,-0.09293664237260818,-0.0076589903205633155,0.0041293183570727705
1746575993750193400,1.793193359375,-0.08829787665605544,-0.000008461867668665944,-0.00174939181744121
1746575993760209400,1.80320947265625,-0.08006605488359927,-0.00022030538690742104,0.002866513613332063
1746575993770224400,1.813224365234375,-0.09532616785764694,-0.0035019528395030647,0.0007882734340149909
1746575993780240400,1.823240478515625,-0.09816811328530312,-0.006813602704717777,-0.0026143198173958805
1746575993790255400,1.83325537109375,-0.09547463641762732,0.0010697892225580289,0.0011677194719668478
1746575993800271400,1.843271240234375,-0.08979074556231498,0.004847403498552739,0.006692857835302129
1746575993810286300,1.853286376953125,-0.08470482060015201,0.000935983942169696,-0.0007591569373849779
1746575993820302600,1.863302490234375,-0.08664894040524959,-0.006435718436189927,-0.009893370909662916
1746575993830317600,1.873317626953125,-0.08634908067584038,-0.003366320928209461,-0.001092955469014123
1746575993840333600,1.88333349609375,-0.08844225356280803,0.006556883430713787,0.005886117162834853
1746575993850348500,1.8933486328125,-0.08799217170774937,0.008485148079553619,0.0018892843453213572
1746575993860364500,1.903364501953125,-0.09547346737384796,-0.006618787952093407,-0.005817481506569311
1746575993870380300,1.91338037109375,-0.10041209281980991,-0.0011260905536357312,-0.006971236385265365
1746575993880395500,1.9233955078125,-0.08679507087767124,0.0014297451087506487,0.0033097821351140734
1746575993890411300,1.933411376953125,-0.08963818534910678,0.0020123901351820675,0.006794939103443175
1746575993900426500,1.943426513671875,-0.0882914469152689,0.0014658347688615322,0.0038547483325470236
1746575993910442200,1.953442138671875,-0.08724456821084021,-0.0005731556788785382,0.0022523089714348316
1746575993920457500,1.96345751953125,-0.08993862960040569,-0.004168303227168508,0.005792319665849209
1746575993930473200,1.97347314453125,-0.10729542259275912,-0.0027958001644117756,-0.0022430662190541626
1746575993940488400,1.983488525390625,-0.08484744394123554,0.0017431675726315005,-0.0054473878188524396
1746575993950504200,1.993504150390625,-0.08155541665852069,0.0034083836713805792,0.0035508334825281053
1746575993960519400,2.00351953125,-0.09891220965087413,0.007131646544788964,-0.001818420199351385
1746575993970535200,2.01353515625,-0.09547054476439952,0.0017732110844459383,0.00011189027610234916
1746575993980550400,2.02355029296875,-0.09068155692219734,0.006264366757543757,-0.004346687434799969
1746575993990566400,2.03356640625,-0.08514496558308601,0.00004639642499387264,-0.012297591640334575
1746575994000581400,2.043581298828125,-0.09831307471394539,0.0031998143880395216,0.0014960929098073391
1746575994010597400,2.053597412109375,-0.08813771765828132,0.002896360762324184,-0.004790293883299455
1746575994020612400,2.0636123046875,-0.09666823011636734,0.002574832623801194,-0.0037020419888664034
1746575994030628400,2.07362841796875,-0.10100888966917991,-0.0005656436592806131,0.0023011256823781876
1746575994040643300,2.083643310546875,-0.09113339234292507,0.0012248610532609745,0.011246027627633885
1746575994050659300,2.093659423828125,-0.09277940598428248,-0.012382740039983764,-0.002445429523894563
1746575994060674300,2.10367431640625,-0.08844108451902866,-0.008431020439253189,-0.005145454863365739
1746575994070690300,2.113690185546875,-0.08873919068276882,-0.0014709995677461847,0.0000031509383115917443
1746575994080705300,2.123705322265625,-0.09173194275796413,0.0002977545372908935,0.007473559884214774
1746575994090721300,2.13372119140625,-0.09113280782103537,0.005070037839864381,0.0003464570838026702
1746575994100736300,2.143736328125,-0.09442425058186053,0.006346569714858196,0.00020573343886062502
1746575994110752300,2.153752197265625,-0.09217968652546406,0.0034980210164794697,-0.010351636071177199
1746575994120767200,2.163767333984375,-0.09277940598428248,0.004072318339673802,-0.0042901166756637394
1746575994130783200,2.173783203125,-0.08873685259521007,0.003883357939100824,0.00023976357262581587
1746575994140798200,2.183798095703125,-0.10025719451904297,-0.0010986134582431986,0.008740492813801392
1746575994150814200,2.193814208984375,-0.10279928021728992,0.011167893490660935,0.004850134311756119
1746575994160829200,2.2038291015625,-0.09307342049479483,0.0015952835345407947,-0.0024003208736889064
1746575994170845200,2.21384521484375,-0.0863391438037157,-0.00004472505771555006,-0.006457268114294856
1746575994180860200,2.223860107421875,-0.0760129801005125,-0.0015822231235681102,-0.002229759212909266
1746575994190876400,2.23387646484375,-0.10788403613567352,0.004365145540097728,0.0012879391849972307
1746575994200891400,2.243891357421875,-0.07915361621379852,0.0037216189055936408,0.017189071742631495
1746575994210907400,2.253907470703125,-0.08469137659668922,-0.00026153701301664115,0.011804346496984362
1746575994220922400,2.26392236328125,-0.10010404978394508,-0.0024014351185411213,-0.0034599220623727886
1746575994230938400,2.2739384765625,-0.09382043946981429,-0.014976460027345454,-0.0050377932378090915
1746575994240953900,2.283953857421875,-0.09127601568400859,0.003438760543335229,0.006941562766209245
1746575994250969900,2.293969970703125,-0.09097849404215812,0.009367456472571938,0.01248870289879851
1746575994260984800,2.30398486328125,-0.09711305127441883,-0.005329579258617013,-0.004486589095834642
1746575994271000800,2.314000732421875,-0.0912754311621189,-0.0005149363853503018,-0.011951399418013169
1746575994281015800,2.324015869140625,-0.10339490802288055,-0.00024120204446371644,-0.005204281511669978
1746575994291031800,2.33403173828125,-0.0932189664453268,0.010896552036260254,-0.0002615187467075884
1746575994301047800,2.3440478515625,-0.08469020755290985,-0.0014453947690315544,-0.011799323261994867
1746575994311062800,2.354062744140625,-0.09381810138225555,0.007777497567120008,0.00036003808458335694
1746575994321078800,2.364078857421875,-0.09860708922445774,0.009743509543617256,0.010255244758306071
1746575994331093800,2.37409375,-0.08962941752076148,0.0004968984051607548,0.004786019566981122
1746575994341109800,2.38410986328125,-0.08813304148316382,-0.00005654335967265069,-0.008103437019279226
1746575994351124700,2.394124755859375,-0.08633563667237758,-0.0072094838542398065,-0.005538637165725231
1746575994361140700,2.404140625,-0.08289455630779266,0.004053399010072462,0.012014619113644584
1746575994371155700,2.41415576171875,-0.09830722949504851,0.0017347194046946242,0.007842119201971217
1746575994381172000,2.424171875,-0.0827443341821432,-0.0022704200168605893,-0.001230564708262682
1746575994391187000,2.43418701171875,-0.08887889141440392,0.0026370339727029204,-0.0009204210468567907
1746575994401203000,2.444202880859375,-0.09860533565878868,0.004804463972547092,0.004256871993187815
1746575994411218000,2.454218017578125,-0.0836421598047018,0.005570763036771677,0.007330297222314402
1746575994421234000,2.46423388671875,-0.09561199906170367,0.00260677126517985,0.0047118218196090305
1746575994431249000,2.474248779296875,-0.0938157632946968,-0.0018034509590826927,0.0012593524113297461
1746575994441265000,2.484264892578125,-0.10189619389772414,0.002481263455678709,0.009235692452220246
1746575994451280000,2.49427978515625,-0.08872808476686476,-0.00039343803068622946,0.0045780393721070135
1746575994461295900,2.5042958984375,-0.08783084366619587,0.000002507050917483866,-0.007596483010984957
1746575994471310800,2.514310791015625,-0.09261924698650836,-0.004072382271755486,0.0011414433863945305
1746575994481326800,2.524326904296875,-0.09187105896770953,0.0005398379311664029,0.0024825831965077667
1746575994491341800,2.534341796875,-0.09082418026328086,0.002140724656009115,0.002361614564806223
1746575994501357800,2.54435791015625,-0.09172375945150851,-0.011204964964883402,-0.0094433073209133
1746575994511372800,2.554372802734375,-0.09277122267782688,-0.0044336944313952695,-0.006464017515489831
1746575994521388800,2.564388916015625,-0.0932189664453268,-0.001909546248638071,0.00447509958744049
1746575994531403800,2.57440380859375,-0.0987573113501072,0.0038019130336120724,0.0008670834244228899
1746575994541419800,2.584419677734375,-0.08678688757121562,0.005653477450739592,0.0037038229539990424
1746575994551434800,2.594434814453125,-0.09516776242554187,0.005069097124948166,-0.003060766676953062
1746575994561451000,2.604450927734375,-0.07706044332683086,0.004453234815504401,-0.0020605309926904737
1746575994571465700,2.6144658203125,-0.10623860701620579,0.00976848872124683,0.0034170601681806144
1746575994581482000,2.62448193359375,-0.08139701122641563,0.004301766014262102,-0.001637300611939281
1746575994591497000,2.6344970703125,-0.09157119923830032,-0.0015348448844626544,-0.0003084266283549368
1746575994601513000,2.644512939453125,-0.09695932201743125,0.002066344245546497,0.0052368320744019
1746575994611528000,2.65452783203125,-0.09277122267782688,0.0016766325419070199,0.00045464843232184644
1746575994621544000,2.6645439453125,-0.09157353732585906,-0.0034096851459005846,0.015365884036617353
1746575994631559000,2.674558837890625,-0.10309446377158164,-0.005835026296414435,0.004005856374185532
1746575994641575000,2.684574951171875,-0.10010112717449665,-0.004015195024688728,0.005074371521687135
1746575994651590000,2.69458984375,-0.09306874431967735,0.0057815790761262175,0.009341719243116676
1746575994661606000,2.70460595703125,-0.08842939408123493,-0.0018448880811687558,-0.0018707988405600188
1746575994671620900,2.714620849609375,-0.10204583150148391,-0.001100645585125312,-0.003275350142549723
1746575994681636900,2.724636962890625,-0.09216974965333938,0.00937987756272778,0.005693416735483333
1746575994691652900,2.73465283203125,-0.10054945546388626,0.006622879605321213,-0.0062236694209743286
1746575994701667800,2.744667724609375,-0.09396715446412562,0.0031534088298911227,-0.013149705824488774
1746575994711683800,2.754683837890625,-0.08319207794964313,0.0007554214771836996,-0.015127636567642912
1746575994721698800,2.76469873046875,-0.09606091187298298,0.0074283279364230105,0.0062028640949632965
1746575994731714800,2.77471484375,-0.09920388607382774,0.006072944971825927,0.0036049108904786407
1746575994741729800,2.784729736328125,-0.09650924016237258,-0.0048754057503305375,0.000051931116636842486
1746575994751746000,2.79474609375,-0.09560907645225525,-0.0052613956935005255,-0.002479386592423543
1746575994761761000,2.804760986328125,-0.09680617728233337,-0.007156319761741906,0.000735529466625303
1746575994771777000,2.814777099609375,-0.08019757230877876,0.002674475339683704,0.009759844190487638
1746575994781792000,2.8247919921875,-0.09650514850914478,0.005685301927686668,0.008656842251494526
1746575994791808000,2.83480810546875,-0.10189327128827572,0.0009580131108872592,-0.0007423154004383832
1746575994801823000,2.844822998046875,-0.08917407496869563,0.006025429735402576,-0.00142747551985085
1746575994811839000,2.8548388671875,-0.0840863964408636,0.004242510107695125,0.007201145284157246
1746575994821854000,2.86485400390625,-0.08648059810101985,0.010661610769224353,0.004520518764900044
1746575994831870000,2.874869873046875,-0.09905015681684017,0.011405424007005057,-0.001585223364830017
1746575994841885000,2.884885009765625,-0.09650631755292415,0.0021763713581254705,0.007481167801935225
1746575994851901000,2.89490087890625,-0.09067162005007266,0.006505915861879475,-0.006159947401843965
1746575994861916000,2.904916015625,-0.09426409158408641,0.003359379730769433,-0.00015416764840483663
1746575994871932000,2.914931884765625,-0.09067220457196234,0.002499059407273307,0.001065857399534434
1746575994881947000,2.92494677734375,-0.0909708952575922,0.004956161102652549,0.015478294902527704
1746575994891963000,2.934962890625,-0.09590835165977478,0.0031730405455455183,0.010582366953976451
1746575994901977900,2.944977783203125,-0.08378945932090281,-0.0028519416652852667,-0.0021900665233377365
1746575994911993900,2.954993896484375,-0.08917758210003375,-0.005951615580520592,-0.006841636922536418
1746575994922008800,2.9650087890625,-0.09695873749554157,-0.002059654209855944,-0.0018514822187367826
1746575994932024800,2.97502490234375,-0.09621054947674273,0.0012465933944564311,0.012296486528636887
1746575994942039800,2.985039794921875,-0.09052373601198196,0.0058584665375063195,0.0016111889231484383
1746575994952055800,2.995055908203125,-0.09381634781658649,-0.0010250778645742684,0.003984366061585024
1746575994962071000,3.005071044921875,-0.09950316128134727,0.00890783047103323,-0.0031893066937569528
1746575994972086800,3.015086669921875,-0.08992752368450165,0.004321237899712287,-0.007852193071413785
1746575994982102000,3.02510205078125,-0.0843921013891697,0.005332684531155973,-0.0018042820761445908
1746575994992117800,3.03511767578125,-0.0992056396394968,0.007643719686195254,0.006145443952456116
1746575995002133000,3.045133056640625,-0.09755787243247031,0.0027760542843258008,0.0075499495886731886
1746575995012148700,3.055148681640625,-0.08513912036418915,0.008347251145937479,-0.0054894825280644
1746575995022164000,3.0651640625,-0.08917933566570281,-0.0007434387784451246,-0.0019489055780693887
1746575995032179700,3.0751796875,-0.08229483684897422,-0.00006922017815522849,-0.0008582699303049594
1746575995042195000,3.08519482421875,-0.09486556460857391,0.0012644350118236616,-0.0003700754214078188
1746575995052210700,3.095210693359375,-0.09531506194174288,-0.0001518523937324062,0.0057897989151999354
1746575995062226700,3.105226806640625,-0.09127426211833953,-0.0006749035868793726,0.003977580127771944
1746575995072241700,3.11524169921875,-0.0932189664453268,0.002979513567709364,-0.00529978690855205
1746575995082257700,3.125257568359375,-0.09785714763998984,0.00787383864764124,-0.0017322123537771403
1746575995092272600,3.135272705078125,-0.09082534930706024,0.001815392558625899,0.007807221418526023
1746575995102289000,3.145288818359375,-0.09516367077231407,0.007374378392635844,0.008067635053535922
1746575995112303600,3.1553037109375,-0.10339315445721149,-0.003777545777335763,-0.013044080892391502
1746575995122320000,3.16531982421875,-0.09860475113689898,-0.003070370188937522,-0.0021140695445239542
1746575995132334800,3.1753349609375,-0.08005027279257775,0.006815776395495049,-0.004235299482196569
1746575995142350800,3.185350830078125,-0.0933668504834175,-0.0006837992793880403,0.009551242941105738
1746575995152365800,3.19536572265625,-0.09261807794272899,0.007867988862167111,0.007204825945431366
1746575995162381800,3.2053818359375,-0.09202011204957962,0.003011584639828652,-0.006318508097575977
1746575995172396800,3.215396728515625,-0.0927706381559372,0.0033723031444242223,0.0020458996791392564
1746575995182412800,3.225412841796875,-0.09636194064617157,0.0028196102982619774,0.003970227938378229
1746575995192427800,3.235427734375,-0.09740998839437962,0.0064684196959715334,0.005379619812266901
1746575995202443800,3.24544384765625,-0.09381985494792461,0.0075491413044976065,0.011448272201465442
1746575995212458800,3.255458740234375,-0.10264672000408172,0.002366487102746032,0.004548365753050893
1746575995222474800,3.265474853515625,-0.0966612158536911,0.005198354094382375,0.004640418817522004
1746575995232489700,3.27548974609375,-0.09366904830038547,0.007329530037334189,0.005365116362879053
1746575995242505000,3.2855048828125,-0.09441782084107399,0.004504056253866292,0.005573790677497163
1746575995252520000,3.29552001953125,-0.08828501717448234,0.006011424042936414,-0.0037020876546390354
1746575995262536000,3.305535888671875,-0.08993336890339851,-0.007090118091157637,-0.007286933004623279
1746575995272551000,3.315551025390625,-0.0962210708707571,-0.008261979448702186,-0.0002912471646908671
1746575995282567000,3.32556689453125,-0.10115852727293968,-0.001532735125767067,-0.003531726923258975
1746575995292582000,3.335581787109375,-0.09397533777058124,0.0004995881191687658,0.006151526633370668
1746575995302598000,3.345597900390625,-0.10654548100829124,-0.001619751255516894,0.0008794679819606245
1746575995312612900,3.35561279296875,-0.11013619897663593,0.002872007205779664,-0.0032932693917304278
1746575995322628900,3.36562890625,-0.09352700948119164,0.006624345476622693,-0.0008247055874206125
1746575995332644000,3.37564404296875,-0.09352584043741226,0.0007833186976844445,0.00781782501093112
1746575995342659800,3.385659912109375,-0.08753975176513194,0.001090060259029269,-0.003213564352178946
1746575995352675000,3.395675048828125,-0.08694120135009288,-0.0012008682563202455,-0.0007577686978969722
1746575995362690800,3.40569091796875,-0.09202829535603523,-0.00045400911150500175,0.008567921859025955
1746575995372706000,3.4157060546875,-0.08709200799763202,0.008900880140438676,0.0033561876932624727
1746575995382721800,3.4257216796875,-0.09352642495930194,0.008960090381233021,-0.0025777871992904693
1746575995392737000,3.435737060546875,-0.09397475324869155,-0.006111651280708611,0.0002912380315363407
1746575995402752800,3.445752685546875,-0.08783902697265147,0.0045914103103335945,0.01013264129194431
1746575995412768000,3.45576806640625,-0.08020634013712406,0.005235165273700841,0.009143794651376084
1746575995422783700,3.46578369140625,-0.10893734458088875,0.003037413200829178,0.00540739373518154
1746575995432799700,3.4757998046875,-0.09142916041910648,-0.00047992900405079126,-0.0022084332970902323
1746575995442814700,3.485814697265625,-0.09980945075154304,-0.0009929702598368748,0.0004678732400760054
1746575995452830700,3.495830810546875,-0.09367430899739265,0.005131796230771578,0.010227580433245748
1746575995462845700,3.505845703125,-0.08709025443196296,0.008352598607912659,0.007846585314534605
1746575995472861700,3.51586181640625,-0.09711714292764663,0.0067528215613448985,-0.0051664611187763505
1746575995482876700,3.525876708984375,-0.10430033243000507,0.005697786949924193,-0.007578499829722568
1746575995492893000,3.535892822265625,-0.09607026422321796,0.0004285458766855299,-0.005594395074108615
1746575995502908000,3.545907958984375,-0.09547229833006858,-0.0027891557944938537,-0.0025943090758286415
1746575995512924000,3.555923828125,-0.08499532797932624,0.0002840137063059956,0.0008581785987596958
1746575995522939000,3.56593896484375,-0.10205167672038078,0.0004036443308694288,0.0023464443951379506
1746575995532955000,3.575954833984375,-0.09217617939412594,-0.004834493784629739,-0.001897796445339918
1746575995542969900,3.585969970703125,-0.09621814826130866,-0.0004407980034826323,-0.0033296284798998385
1746575995552985900,3.59598583984375,-0.08619418237507342,0.0001819918036693707,-0.0007164868394378572
1746575995563000800,3.606000732421875,-0.09277940598428248,0.0014429470836184919,0.006110619234247132
1746575995573016800,3.616016845703125,-0.09801847568154334,-0.006034325427911244,0.008734300535032526
1746575995583031800,3.62603173828125,-0.0930798502355814,-0.006646191982249729,-0.00021072927438654004
1746575995593047800,3.6360478515625,-0.08589666073322295,0.0009267640226753428,-0.009949494144227355
1746575995603062800,3.646062744140625,-0.09742050978839396,-0.005565611937618814,0.006517747863568365
1746575995613078800,3.656078857421875,-0.09233341578245162,-0.0020440182493068277,0.004841960138455033
1746575995623093800,3.66609375,-0.09667349081337451,0.0038537345523945985,-0.0006547832474578172
1746575995633109800,3.67610986328125,-0.09592413375079631,0.007127988716401159,-0.007081400495162233
1746575995643124700,3.686124755859375,-0.09756956287026405,-0.0035425314450636502,0.001435494429524988
1746575995653140700,3.696140625,-0.09143383659422397,0.00445977415414527,0.004718763017049059
1746575995663155700,3.70615576171875,-0.09517243860065937,0.0022865172017132863,-0.003644156055478379
1746575995673172000,3.716171875,-0.0968178677201271,0.003797488020244054,-0.0074875884095672515
1746575995683186700,3.726186767578125,-0.08679448635578155,0.0000538673453964293,-0.00946842349586077
1746575995693203000,3.736202880859375,-0.09517419216632843,0.008218062675162218,-0.0026431714525446295
1746575995703218000,3.746218017578125,-0.10475041428506374,-0.001853176418901421,0.006041444721864536
1746575995713234000,3.75623388671875,-0.10026303973793983,0.00018617478844244032,0.012005495092272759
1746575995723249000,3.766248779296875,-0.09338087900876998,0.0005917416483396664,0.003884906008793041
1746575995733265000,3.776264892578125,-0.08784428766965865,-0.0036801178514258934,0.0013855086748022585
1746575995743279900,3.78627978515625,-0.09951543624103068,-0.009553407498728484,-0.004657022892450914
1746575995753296000,3.7962958984375,-0.08918985705971717,0.0026621364479186014,0.006704648737795651
1746575995763311900,3.806311767578125,-0.10026362425982951,0.0005142513987608253,0.016613957002107053
1746575995773326800,3.816326904296875,-0.09487667052447796,0.0015802183961495756,0.014631340950680896
1746575995783341800,3.826341796875,-0.09846914205849171,0.0015638746161246672,-0.00745676401304081
1746575995793357800,3.83635791015625,-0.08530103292763233,-0.0062169839518610385,-0.014343710515182465
1746575995803373800,3.846373779296875,-0.07931435973346233,0.0021206773818237706,0.004835238136723637
1746575995813388800,3.856388916015625,-0.11283259845376015,0.00980139547700528,0.010847959087602794
1746575995823404800,3.86640478515625,-0.07796586773395538,0.008619286720082163,0.00022534232162870467
1746575995833419800,3.876419677734375,-0.08634615806639194,0.001960664514522068,-0.008917639478994533
1746575995843436000,3.88643603515625,-0.10549918682575225,-0.0045577774687903,-0.009067889004107564
1746575995853450800,3.89645068359375,-0.08769172745645046,0.010321597125940024,-0.0017399390025064348
1746575995863467000,3.906467041015625,-0.08380231880247592,0.007753217075811699,0.00011502294810488819
1746575995873482000,3.91648193359375,-0.08619768950641155,0.008580411447840742,0.0009457746838219464
1746575995883498000,3.926498046875,-0.10265841044187546,0.0019561253367224706,0.008548011582158505
1746575995893513000,3.936512939453125,-0.09293430428504944,-0.006445171251124702,-0.004559051543846726
1746575995903529000,3.946529052734375,-0.09682371293902396,-0.009506444818153976,-0.005722971623530611
1746575995913544000,3.9565439453125,-0.08979074556231498,0.003477503384836018,0.007466152895893901
1746575995923560000,3.966559814453125,-0.08335691312253475,0.0006750223178882152,0.015458877816004678
1746575995933575000,3.976574951171875,-0.09398352107703685,0.0019053860967513173,0.011813296988420187
1746575995943591000,3.9865908203125,-0.09742635500729084,-0.005953652273979969,-0.003806096018385142
1746575995953606000,3.99660595703125,-0.08755085768103599,-0.012686801020475104,-0.014920332226203753
1746575995963622000,4.006621826171875,-0.08994564386308193,-0.0068854258319130165,0.007897493517864495
1746575995973636900,4.016636962890625,-0.08859832090735435,0.0032100937534589318,0.018857443346269428
1746575995983652900,4.02665283203125,-0.09338613970577717,0.003279081036173738,0.003618692820658907
1746575995993667800,4.036667724609375,-0.10281272422075272,-0.0013710508911870419,-0.0018979425758123398
1746575996003683800,4.046683837890625,-0.09024491907060146,-0.002306715172948316,-0.00626728936699219
1746575996013698800,4.05669873046875,-0.08111994785070419,0.001080712475371547,-0.0007876067137345672
1746575996023714800,4.06671484375,-0.08201777347326278,-0.003814338690345175,0.005147573755215853
1746575996033729800,4.076729736328125,-0.08785188645422458,-0.0036192682093940673,0.004677572490135207
1746575996043746000,4.08674609375,-0.0863560949385166,0.006805264134635217,0.005430637613451108
1746575996053761000,4.096760986328125,-0.10266834731400012,0.0044321143956622105,0.0037108463498298078
1746575996063777000,4.106777099609375,-0.08665653918981552,-0.007813372598099522,-0.005197596042556688
1746575996073792000,4.1167919921875,-0.08516016315221786,-0.0010955721177859231,0.0028937212806660682
1746575996083808000,4.12680810546875,-0.09907821386754512,-0.006739158362173475,-0.0015012714084237813
1746575996093823000,4.136822998046875,-0.08710662104487418,0.0004621787182288244,0.0084517663997598
1746575996103839000,4.1468388671875,-0.09414134198725223,-0.0007124088859418407,-0.004203580036526546
1746575996113854000,4.15685400390625,-0.09967910237014294,0.0003947669046698138,-0.005740954804793
1746575996123870000,4.166869873046875,-0.09968144045770168,-0.0018895948725752532,0.0021321166578680277
1746575996133885000,4.176885009765625,-0.09204992266595363,-0.0004907700584735721,-0.003016014219773933
1746575996143901000,4.18690087890625,-0.09085223731398583,-0.0032701031452743333,0.0037179336777422574
1746575996153916000,4.196916015625,-0.0917506474584341,0.000461986921983771,-0.00499184433738701
1746575996163932000,4.206931884765625,-0.07963058607578277,-0.002933034944324754,0.0040484716732054945
1746575996173948000,4.216947998046875,-0.09324702349603176,0.0016037819348275661,0.004793088628584519
1746575996183963000,4.226962890625,-0.08980594313144684,0.0021326646471396087,-0.004755688360799103
1746575996193979000,4.236978759765625,-0.09010638738274573,-0.005169050368084572,-0.005376770268054679
1746575996203993900,4.246993896484375,-0.0881605140119791,-0.004691212856420316,0.008543326273886487
1746575996214010000,4.257010009765625,-0.0787321759313345,-0.0008213126205140725,0.009292774668009951
1746575996224024800,4.26702490234375,-0.0936935982197523,-0.0011850039669079706,-0.0008234269457869231
1746575996234041000,4.277041015625,-0.0936935982197523,0.005497204610216431,-0.014120989408902824
1746575996244056300,4.287056396484375,-0.08740823433995247,0.0018692964366404338,-0.00019807072221301496
1746575996254072000,4.297072021484375,-0.09668518125116825,0.00034219190063886345,-0.002061955764796585
1746575996264087300,4.30708740234375,-0.08306874383091926,0.008322815391002223,0.0003528594251256436
1746575996274103000,4.31710302734375,-0.08501403267979621,-0.002875249475636519,-0.0022778726709540933
1746575996284118300,4.3271181640625,-0.09279518807530403,0.00043303938871249554,0.0017611279210075735
1746575996294134300,4.33713427734375,-0.09219839122593403,0.007487711707153357,0.006635127165541052
1746575996304149200,4.347149169921875,-0.09773556708693504,-0.0012325009370222687,0.004486214636499062
1746575996314165200,4.357165283203125,-0.08232347842156887,-0.005079906213330105,0.010203998628258704
1746575996324180500,4.367180419921875,-0.08591478091180324,-0.00023629754048306494,0.0053967170775402334
1746575996334196200,4.3771962890625,-0.08381985445916652,-0.0018033870270010082,0.004379849918885156
1746575996344211500,4.38721142578125,-0.09159867176711559,-0.003900263408129103,0.0008863087147008628
1746575996354227200,4.397227294921875,-0.09339373849034309,-0.012011591472919098,-0.006629409810807556
1746575996364242400,4.407242431640625,-0.10521569370925427,-0.0084938063100446,0.0023667017318774013
1746575996374258200,4.417258056640625,-0.09698621002435684,-0.0006906491452828049,0.008215208564372732
1746575996384273400,4.4272734375,-0.08845862017571926,0.0017220973851392045,-0.0018332067765295505
1746575996394289200,4.4372890625,-0.09279927972853183,-0.007923600640078075,-0.0053904517335351555
1746575996404304400,4.447304443359375,-0.07918284230828285,-0.0034730966377770527,-0.002807586500328034
1746575996414320000,4.457320068359375,-0.0787321759313345,-0.0010328775785397738,0.0009796312876511365
1746575996424335400,4.46733544921875,-0.0971364321500063,0.0022794070409145207,0.003015804157219827
1746575996434351000,4.47735107421875,-0.10297229869663714,-0.004550548576982691,-0.004282846684660762
1746575996444366300,4.487366455078125,-0.10386953979730605,-0.004575861114752479,0.000516598619474098
1746575996454382000,4.497382080078125,-0.09444178623855114,0.0009287002514349296,0.0089871153854765
1746575996464397300,4.507397216796875,-0.09129881203770637,0.0008107455607270821,0.0007719068211037665
1746575996474413000,4.5174130859375,-0.09010346477329731,-0.01100441459121648,-0.0037319896025583147
1746575996484429300,4.52742919921875,-0.10102642532587051,-0.005649997718865051,0.0014957275836262852
1746575996494444300,4.5374443359375,-0.10177402882277965,0.0017142794048646463,0.003481832500081509
1746575996504460300,4.547460205078125,-0.09084931470453739,-0.0027860139893367887,0.0021359982485417276
1746575996514475300,4.557475341796875,-0.08875555729568003,-0.004360213636653497,0.002880158546194434
1746575996524491300,4.5674912109375,-0.10072539655268192,-0.003766006036591716,-0.0055207087833900005
1746575996534506200,4.57750634765625,-0.09294365663528442,0.00020244550323113798,-0.004038160341745242
1746575996544522200,4.587522216796875,-0.09084814566075801,0.00782819114131853,0.0011835289624519646
1746575996554537200,4.597537109375,-0.09009703503251075,0.0032658607949968424,-0.0007894972767215221
1746575996564553200,4.60755322265625,-0.08680500774979591,0.0067359617580892515,0.0003633077539037913
1746575996574568200,4.617568115234375,-0.09533435116410255,-0.00427506523700431,0.0101754392540548
1746575996584584200,4.627584228515625,-0.10012275448441504,-0.006777298415475525,0.0032631939138751476
1746575996594599200,4.63759912109375,-0.08740355816483497,-0.0014124423475004731,-0.0014558065651915967
1746575996604615200,4.647615234375,-0.09219254600703716,-0.00107111352996435,0.009338769234204665
1746575996614630100,4.657630126953125,-0.08590659760534763,0.0033012700350955127,0.009757515236083418
1746575996624646100,4.667646240234375,-0.08545768479406833,-0.0015257071633590384,-0.004685847128136083
1746575996634661000,4.6776611328125,-0.09832651871740818,-0.0011208070237422362,-0.0011091759514529258
1746575996644677000,4.687677001953125,-0.09084639209508895,0.007567439579591154,0.008476261520199478
1746575996654692000,4.697692138671875,-0.09398995081782341,0.006517766129877418,0.005231799706257879
1746575996664708400,4.707708251953125,-0.09802724350988865,-0.00667652775500901,-0.006439969919621944
1746575996674723000,4.71772314453125,-0.09713000240921973,0.003479681642190553,0.003543874018779024
1746575996684739300,4.7277392578125,-0.09653145199418067,-0.0023801457353401926,0.01199659939976409
1746575996694754300,4.73775439453125,-0.09862754749059677,0.0019247757838107644,0.00010962525377981365
1746575996704770300,4.747770263671875,-0.08321370525956154,-0.006333404272608458,0.008371924362890422
1746575996714785300,4.757785400390625,-0.09802724350988865,-0.006370192619040608,-0.00811940177339129
1746575996724801300,4.76780126953125,-0.1008703579813242,0.0012916198462713509,0.005474138828460127
1746575996734816300,4.777816162109375,-0.09473404718339443,0.0005131234541768208,0.003685465313401073
1746575996744832300,4.787832275390625,-0.09443418745398521,0.00597303282788489,0.005490350177744403
1746575996754847200,4.79784716796875,-0.09263678264319897,-0.004617202338716015,-0.006434974084096029
1746575996764863200,4.80786328125,-0.09099018447995186,0.0050589684565784405,-0.004676997101400048
1746575996774878200,4.817878173828125,-0.07752338466346263,0.0008625899123959243,0.007441776506463066
1746575996784894200,4.827894287109375,-0.08949439296424389,-0.0019803144964855163,0.008037906635552644
1746575996794909200,4.8379091796875,-0.09922025268673897,-0.002279945897031575,-0.01060888963472098
1746575996804925200,4.84792529296875,-0.10116554153561591,-0.005816335295676253,-0.006006282076938077
1746575996814941200,4.857941162109375,-0.09368424586951732,-0.0013022462715627625,0.0052888179899659
1746575996824956200,4.8679560546875,-0.09308744902014732,-0.0017262849364895372,0.0061302646496333175
1746575996834972200,4.87797216796875,-0.09234043004512786,-0.000746763246692717,0.0034848921068478373
1746575996844987100,4.887987060546875,-0.10416004717648028,-0.00025040369764901696,0.0008556487149558961
1746575996855003400,4.89800341796875,-0.09563128828406334,0.002689462846261449,-0.0009256086786277592
1746575996865018400,4.908018310546875,-0.0969791957616806,0.0058192396388156336,-0.002052512083016336
1746575996875034400,4.918034423828125,-0.09159048846065998,-0.005188851047097705,0.001982552119344473
1746575996885049300,4.92804931640625,-0.10341185915768146,0.0019124825578182934,0.001076077399449423
1746575996895065300,4.9380654296875,-0.09832651871740818,0.00717192375625018,0.0004969166714698076
1746575996905080300,4.948080322265625,-0.09069792353510855,0.0008711157121462747,0.0019567235583439467
1746575996915096300,4.958096435546875,-0.09159691820144653,-0.004947429806925356,0.0013527937152888626
1746575996925111300,4.968111328125,-0.09683364981114864,0.00660707468141336,-0.0011887622599955647
1746575996935127300,4.978127197265625,-0.10117255579829215,0.0002879546624841168,0.010596861270209774
1746575996945142300,4.988142333984375,-0.09473813883662223,-0.003848907680227421,0.0028163725949823856
1746575996955158300,4.998158203125,-0.09309329423904418,-0.00886766285742633,-0.0017313812367152422
1746575996965173200,5.00817333984375,-0.09593757775425911,-0.0014220778255257754,0.011711023924034088
1746575996975189200,5.018189208984375,-0.09144903416335583,0.009641533306753262,0.007050018976209685
1746575996985204200,5.028204345703125,-0.09399345794916153,0.005157236632704735,0.003163067140802741
1746575996995220200,5.03822021484375,-0.08965630552768707,0.0006105057143140584,0.00013751790770329534
1746575997005235200,5.048235107421875,-0.0936976898729801,-0.002931610172218643,0.0058007678337860845
1746575997015251200,5.058251220703125,-0.09384791199862956,-0.0005075704962247983,0.0020878208584152163
1746575997025266200,5.06826611328125,-0.09759002113640308,0.0005854123722529038,-0.007189555311063304
1746575997035282400,5.078282470703125,-0.0860690946906805,0.0016669924973044543,-0.00731056960853748
1746575997045297200,5.088297119140625,-0.097440968054533,0.006729020560649223,0.0014085698899812995
1746575997055313400,5.0983134765625,-0.08995908786654472,0.007825309631065465,0.009030032078595832
1746575997065328400,5.108328369140625,-0.08980886574089526,0.00008190612979233264,0.0027383115232456475
1746575997075344400,5.118344482421875,-0.1023778399348259,0.0045678559048101305,-0.005110611878847703
1746575997085359400,5.128359375,-0.10312602795362472,0.0015416764840483666,0.004809573972504586
1746575997095375400,5.138375244140625,-0.0957937853693962,-0.0017891027733217923,0.004836060120631009
1746575997105390300,5.148390380859375,-0.08891045559644699,0.0029626583310309795,-0.006762205877620726
1746575997115406300,5.15840625,-0.0936976898729801,0.0061089615667006,0.003220706479018554
1746575997125421300,5.16842138671875,-0.09399813412427901,-0.00536373268996831,0.0024817520794458686
1746575997135437300,5.178437255859375,-0.10043372012972832,0.0040555361682316285,-0.003360288479644805
1746575997145453300,5.188453369140625,-0.08801379901766776,0.001661576536670327,-0.0003884787277784198
1746575997155468300,5.19846826171875,-0.09280220233798027,0.00006878178673796356,0.00010409969529137015
1746575997165484300,5.208484375,-0.0966916109919548,0.002266757621895522,0.0049244416569825256
1746575997175499300,5.218499267578125,-0.09684066407382488,0.0005297914611874148,0.0049248435157816855
1746575997185515300,5.228515380859375,-0.09893617504835128,0.0008535526559920981,0.004257812708104029
1746575997195530200,5.2385302734375,-0.09698971715569496,0.005352960134204477,0.004118413370568305
1746575997205546500,5.24854638671875,-0.08023030553460121,0.00012846238499041645,-0.006514907452510669
1746575997215561200,5.258561279296875,-0.08531856858432292,0.0027505499503109603,-0.0020857841649558396
1746575997225577500,5.268577392578125,-0.09699088619947432,-0.0023688069239957256,0.0045629240013659
1746575997235592400,5.278592529296875,-0.08681494462192058,-0.0010849502590717748,-0.0005908328994642943
1746575997245608400,5.2886083984375,-0.09250058904290198,-0.0023519242878537626,-0.0032559513223357497
1746575997255623400,5.29862353515625,-0.09953414094150066,0.00020043620923534033,-0.00032761538601480423
1746575997265639400,5.308639404296875,-0.09235095143914222,0.0022148082389496265,-0.0001955591047182679
1746575997275654400,5.318654296875,-0.09579320084750652,0.007729069015244021,-0.0006864022284280508
1746575997285670400,5.32867041015625,-0.09743862996697425,0.008096230960357933,-0.003331820436986163
1746575997295685400,5.338685302734375,-0.08875906442701816,0.0044003629839513446,0.0063942584812175475
1746575997305701400,5.348701416015625,-0.0962426981806755,0.0010190225831232965,0.00016506350175477563
1746575997315716600,5.358716552734375,-0.0987871219664812,0.005068727232189848,-0.008153093980439006
1746575997325732400,5.368732421875,-0.08651508489251136,0.003334455352067016,-0.005471344083175063
1746575997335747600,5.37874755859375,-0.0902560249865055,0.009820150409825146,0.008664404503442347
1746575997345763300,5.388763427734375,-0.09145312581658363,0.003750328976847231,0.009701437667291611
1746575997355778600,5.398778564453125,-0.08606617208123206,-0.0008494427364552393,-0.008928453133953735
1746575997365794300,5.408794189453125,-0.08801029188632964,-0.005675091060926206,-0.006677532402006909
1746575997375809500,5.4188095703125,-0.0845697960436344,0.0019548512616660444,0.0032182861930690706
1746575997385825300,5.4288251953125,-0.07873509854078292,0.002072335594915785,0.009773772251140326
1746575997395840500,5.438840576171875,-0.09370002796053886,0.000528608717676252,-0.0041936248980928206
1746575997405856300,5.448856201171875,-0.0913064108222723,-0.0034934955384116617,0.0006929872328415512
1746575997415871500,5.45887158203125,-0.09355331296622753,-0.005553085816185921,-0.004697857226338237
1746575997425887200,5.46888720703125,-0.0874152486026287,0.004746473007882014,-0.004641176869347691
1746575997435902500,5.47890234375,-0.07634031235873699,0.0034855405608192084,-0.0012094579881522804
1746575997445918200,5.488918212890625,-0.08636603181064129,-0.002049822369008325,-0.0007973243901506066
1746575997455934200,5.498934326171875,-0.08965805909335613,0.004773584777093492,-0.0034077717500273137
1746575997465949200,5.50894921875,-0.09893734409213066,0.01379024135088548,0.004210758695984259
1746575997475965400,5.51896533203125,-0.0899596723884344,0.0005770783687476069,0.007646030374290421
1746575997485980200,5.528980224609375,-0.09579495441317558,0.0009016204482642933,-0.008947952418867498
1746575997495996400,5.538996337890625,-0.10148176787793636,0.0027046147496206686,-0.006484393583238124
1746575997506011400,5.549011474609375,-0.09085691348910331,0.0031034276417456564,-0.0018434998416807502
1746575997516027400,5.55902734375,-0.0844219120055437,0.002428994412324391,-0.004395513278897851
1746575997526042400,5.56904248046875,-0.09250234260857104,0.0038749280374730005,-0.0019232140143867582
1746575997536058400,5.579058349609375,-0.10148176787793636,0.0026174707557074725,-0.003598581614391878
1746575997546073300,5.5890732421875,-0.10118307719230651,-0.0041461598940193654,-0.006506550616119057
1746575997556089300,5.59908935546875,-0.09220423644483089,0.000025810294691473245,-0.008226698072766884
1746575997566104300,5.609104248046875,-0.0969920552432537,0.006149868965824134,0.007245842942409217
1746575997576120300,5.619120361328125,-0.10028466704785824,0.0061008376257494085,0.0063409117256291204
1746575997586135300,5.62913525390625,-0.09400105673372745,0.002774410316511057,-0.0000691014471463859
1746575997596151300,5.6391513671875,-0.10088555555045604,0.0022165070056915284,-0.001875922540249303
1746575997606166300,5.649166259765625,-0.08861644108593464,-0.0008850392062216997,-0.004263502663373947
1746575997616182300,5.659182373046875,-0.09131108699738978,-0.0018803658199263735,0.003468269765609875
1746575997626197200,5.669197265625,-0.08876724773347378,0.0014584460468497127,-0.00229192859577015
1746575997636213200,5.679213134765625,-0.10417992092072963,-0.006917099611810408,-0.009190300674224272
1746575997646228200,5.689228271484375,-0.09580021511018276,-0.005337561635673046,0.00035135245462879536
1746575997656244200,5.699244140625,-0.08218377768993378,0.0074621160415932536,0.004376717246882617
1746575997666259200,5.70925927734375,-0.1004389808267355,0.0008123621290782466,0.0010877952367067335
1746575997676275500,5.719275390625,-0.1034317329019308,0.0075558587396517395,-0.000033290348248556255
1746575997686290400,5.72929052734375,-0.08996551760733128,0.004638605886348523,-0.006957582319248467
1746575997696306400,5.739306396484375,-0.09685176998972893,0.006272385667217895,-0.006684135672729462
1746575997706321400,5.7493212890625,-0.07994388980865479,0.00757328479848802,0.005356485531851649
1746575997716337400,5.75933740234375,-0.09176642954945564,0.00825051277319435,0.0031867402773350477
1746575997726353400,5.769353515625,-0.09161679194569587,0.002520380756515078,0.002214735173713416
1746575997736368400,5.779368408203125,-0.08578034087717533,-0.003111547016119584,-0.006013853462040424
1746575997746384400,5.78938427734375,-0.08757540760040283,0.00007497863208409398,-0.009108933400548995
1746575997756399400,5.7993994140625,-0.09101824153065681,0.009805806790641509,-0.006108783470187336
1746575997766415400,5.809415283203125,-0.0865308669835329,-0.0019622080176370216,0.0036760855637025087
1746575997776430300,5.819430419921875,-0.09147124599516392,-0.0008082385098095983,0.002980531914439052
1746575997786446300,5.8294462890625,-0.09551204581856727,-0.003948006973415613,-0.004534848684351891
1746575997796461300,5.83946142578125,-0.08324234683215617,-0.0072636160611175,-0.003818334445450455
1746575997806477300,5.849477294921875,-0.0893763195425272,0.00728562696352601,-0.01299109946298413
1746575997816492300,5.8594921875,-0.09296645298898219,0.007141638215840794,-0.004506325842766091
1746575997826508300,5.86950830078125,-0.09730418993234634,0.0007222818259848281,-0.004244167775241658
1746575997836523300,5.879523193359375,-0.08922375932931899,-0.0029937247561523687,-0.027104572285711764
1746575997846539500,5.88953955078125,-0.0931143370270729,0.0009785216093761845,-0.0006059391370508819
1746575997856554200,5.89955419921875,-0.09715630589425563,0.015589221630827522,0.008857205395493655
1746575997866570500,5.909570556640625,-0.092217095926404,0.006296780322957784,-0.0031285072840750217
1746575997876585500,5.91958544921875,-0.0931143370270729,0.0008247558197705075,-0.006088836660701781
1746575997886601500,5.9296015625,-0.09146656982004642,-0.0003284145370358601,-0.0014496051532682031
1746575997896616400,5.939616455078125,-0.09191665167510508,0.0018393396897939964,0.01661320808343589
1746575997906632400,5.949632568359375,-0.08548281923532486,0.001632199745136313,0.007032428520591929
1746575997916647400,5.9596474609375,-0.10059738625884056,0.0023764879069523882,-0.005187056382233277
1746575997926663400,5.969663330078125,-0.08264204285144805,0.0013890021064085886,-0.004474569864477962
1746575997936678400,5.979678466796875,-0.08967559475004673,-0.0004703026591800153,0.0030021866238210348
1746575997946694400,5.9896943359375,-0.09042378276884555,0.008422567704739049,-0.0030369839425664394
1746575997956709400,5.99970947265625,-0.09102116414010525,0.005415887568891048,-0.010239380468893796
1746575997966725400,6.009725341796875,-0.10748188507556915,0.0032291546469554303,-0.0023733415352180597
1746575997976740400,6.019740234375,-0.09611118075549602,0.009902988121379167,0.00018428879203274845
1746575997986756400,6.02975634765625,-0.08578560157418251,0.004606498281611129,-0.006169802075577899
1746575997996771300,6.039771240234375,-0.10044891769886016,0.0013430851720273493,-0.013373623374011366
1746575998006787300,6.049787353515625,-0.09027414516508579,0.006988767475378699,-0.0013034929471556096
1746575998016803600,6.059803466796875,-0.0962602338373661,0.006533406657003797,0.0008910670882090925
1746575998026818300,6.069818359375,-0.10434007991850376,0.002524961033510044,-0.006281774550070986
1746575998036834600,6.07983447265625,-0.08698328692615032,0.005977841433743015,-0.011445870181825012
1746575998046849500,6.089849609375,-0.09850655145943164,-0.0030884766677860167,0.0018606975716538726
1746575998056865500,6.099865478515625,-0.09685995329618453,0.002482153938245028,0.002198048900393769
1746575998066880500,6.109880615234375,-0.07905074036121368,0.008134718073531985,0.007726182938413694
1746575998076896500,6.119896484375,-0.10224339990019797,-0.004137620394537225,-0.008796460784738882
1746575998086911500,6.129911376953125,-0.09625848027169703,-0.004836964302929118,0.0021386651296634225
1746575998096927500,6.139927490234375,-0.08982406331002711,0.005272437677322887,0.002173919106135145
1746575998106942500,6.1499423828125,-0.090574004894495,0.004865898136468604,-0.006403263771580531
1746575998116958500,6.15995849609375,-0.09326748176217078,0.00898527505483944,-0.007698016289854422
1746575998126973400,6.169973388671875,-0.0985036288499832,0.004363953663432039,-0.005998774623917415
1746575998136989400,6.179989501953125,-0.09895254166126251,-0.001253137299674563,0.00024711576201952995
1746575998147004400,6.19000439453125,-0.10538754314482211,-0.00004635989237576723,-0.007437894915789365
1746575998157020400,6.2000205078125,-0.08758242186307906,0.0004596442678477615,-0.016836066187033427
1746575998167035400,6.210035400390625,-0.08174655531644821,-0.0020895652909297493,-0.0015423340711742638
1746575998177051400,6.220051513671875,-0.0886310541331768,0.005636836843192577,0.004210941359074786
1746575998187066400,6.23006640625,-0.10210019203722476,0.00227331066026818,0.0016360859023872762
1746575998197082400,6.240082275390625,-0.08324526944160461,-0.0021175127437803895,-0.004996757974522188
1746575998207097300,6.250097412109375,-0.09252338539659977,-0.00499697717023082,-0.00621061814315617
1746575998217113600,6.260113525390625,-0.09476794945299624,0.0025165585313457993,-0.0015874427213799207
1746575998227128300,6.27012841796875,-0.08908172051012515,-0.0003149431341094896,-0.007467121010273694
1746575998237144600,6.28014453125,-0.09461948089301586,-0.0013628082192270084,-0.015428784071840345
1746575998247159300,6.2901591796875,-0.09611761049628258,0.000798940958501771,-0.015518517315061762
1746575998257175300,6.30017529296875,-0.0829495013654232,0.006388002270366996,-0.007478236059332266
1746575998267190300,6.310190185546875,-0.09926000017523764,0.01136237031656783,-0.006017132264515385
1746575998277206300,6.320206298828125,-0.09611761049628258,0.0012668141985777764,-0.014806587919732555
1746575998287222300,6.33022216796875,-0.09088029436469078,0.0023765609721885994,-0.005920183829218149
1746575998297237200,6.3402373046875,-0.09447218137681483,0.004902133927051909,-0.0013043423305265605
1746575998307253200,6.350253173828125,-0.09163023594915866,0.005759367244318127,-0.0008002743990626186
1746575998317268200,6.360268310546875,-0.0958200888544321,-0.00663587151763495,-0.006862579245865344
1746575998327284200,6.3702841796875,-0.09521978487372398,-0.011621523576253094,0.0020296243977732955
1746575998337299200,6.38029931640625,-0.08893500551581382,-0.0008487851493293419,0.002798142818547785
1746575998347315200,6.390315185546875,-0.08070493730902671,-0.0049464023270411415,-0.0019373338712844997
1746575998357330400,6.400330322265625,-0.09028115942776202,-0.011221299611753784,0.0025906832134816793
1746575998367346200,6.41034619140625,-0.0865396348118782,-0.00822822787615005,-0.0033576033322140573
1746575998377361400,6.420361328125,-0.0949181715786457,0.006749177432688884,0.010098145367298274
1746575998387377200,6.430377197265625,-0.08249766594469547,0.009546050742757507,-0.002451174278091639
1746575998397392400,6.440392333984375,-0.09087854079902172,0.0076692057539010415,-0.013005584646062924
1746575998407408000,6.450408203125,-0.09177928903102875,0.006972072068904526,-0.002490145448455587
1746575998417423400,6.46042333984375,-0.09357552479803562,0.0063134711628546935,-0.0031762280164752154
1746575998427439000,6.470439208984375,-0.09073241032660007,-0.005530960749345832,-0.0022440343334339556
1746575998437454300,6.480454345703125,-0.09088204793035984,0.0025976700766943395,-0.004196036050887779
1746575998447470000,6.490469970703125,-0.09297580533921718,0.0031498560327803712,-0.003197416934976354
1746575998457485300,6.5004853515625,-0.09447276589870453,0.002216242144210264,0.004417697711242363
1746575998467501000,6.5105009765625,-0.0928267522573471,0.003775691746966913,-0.0007154821924399584
1746575998477516300,6.520516357421875,-0.0848971283018589,-0.0017572600300656631,0.002907156150974333
1746575998487532000,6.530531982421875,-0.10016133292913436,-0.006862771042110398,-0.005684776771301404
1746575998497547300,6.54054736328125,-0.09297989699244498,-0.005049255346739665,0.004729284411063418
1746575998507563000,6.55056298828125,-0.08654548003077507,0.0007920134607935324,0.00011349771129898727
1746575998517578200,6.560578125,-0.09717033441960811,-0.0011137196958297864,-0.008949441123055294
1746575998527594200,6.57059423828125,-0.09163432760238648,0.0031083184459945183,-0.0017046210939530282
1746575998537609200,6.580609130859375,-0.08520166420638561,0.009526916784024796,0.0012179792213253676
1746575998547625200,6.590625244140625,-0.09373042309880256,0.00762906553975772,-0.0014550941791385411
1746575998557640200,6.60064013671875,-0.09851941094100475,0.009744226496247574,-0.011102527503715827
1746575998567656200,6.61065625,-0.09313304172754287,0.004020117794978432,-0.014866026489390059
1746575998577672200,6.620672119140625,-0.09777414553165435,0.009535926640965043,-0.008008397413277997
1746575998587687200,6.630687255859375,-0.09732581724226474,0.000374947959347628,0.0018222926568705587
1746575998597703200,6.640703125,-0.09478197797834872,0.0007031159012112766,-0.0008783537371084094
1746575998607718100,6.65071826171875,-0.093136548858881,-0.006804930774495005,-0.010207953284168614
1746575998617734100,6.660734130859375,-0.09418518112897872,-0.0012303957449039443,-0.0000961995166260749
1746575998627749000,6.6707490234375,-0.09313830242455005,-0.009989428862393833,0.006346245487872511
1746575998637765000,6.68076513671875,-0.09343874667584895,-0.006041915079322643,0.0003167834647465497
1746575998647780000,6.690780029296875,-0.08999883535504341,-0.005301522207912058,-0.004211827275063842
1746575998657796000,6.700796142578125,-0.0934410847634077,0.008074229191103949,-0.006566948167001829
1746575998667811000,6.71081103515625,-0.08820376863181591,0.0031599801345728335,-0.0006543631223496049
1746575998677827000,6.7208271484375,-0.08954992254376411,0.0009758958274498582,-0.012909677390381694
1746575998687842000,6.730842041015625,-0.10286650023460388,0.001650730915670283,-0.010190271497005595
1746575998697858300,6.7408583984375,-0.10032266097068786,0.006755593473743647,0.00011206380603834986
1746575998707873000,6.750873046875,-0.08954933802187443,0.013066982277366333,-0.00008432641574181615
1746575998717889300,6.76088916015625,-0.08880290356874465,0.001824055355694145,-0.013127356995362788
1746575998727904300,6.770904296875,-0.09688391869366168,-0.003368960409867577,-0.012067664475133641
1746575998737920300,6.780920166015625,-0.09014847295880317,0.0007608191715087741,-0.0007726100740022957
1746575998747935200,6.790935302734375,-0.09673369656801223,-0.004384115102048963,0.008812270275224
1746575998757951200,6.800951171875,-0.08670680807232856,-0.005884085035952739,-0.008980731310462578
1746575998767966200,6.81096630859375,-0.08655541690289974,-0.0017773849360644817,-0.005005397938704118
1746575998777982200,6.820982177734375,-0.09942425082623958,-0.0006213422021595761,0.002988285962631926
1746575998787997200,6.8309970703125,-0.09927402870059013,0.008358083067205735,-0.00523673160970211
1746575998798013200,6.84101318359375,-0.07817512657046317,0.0023153551371302454,-0.01135627393592149
1746575998808028200,6.851028076171875,-0.09403729709088801,-0.001106801331276074,-0.005172443334991112
1746575998818044200,6.861044189453125,-0.09508534483909606,-0.0020110886606620622,0.0000305686681997031
1746575998828059100,6.87105908203125,-0.09418693469464778,0.01050159790192265,0.0030938012968748808
1746575998838075100,6.8810751953125,-0.09568155716657638,0.0031097066854825243,-0.010582275622431189
1746575998848091100,6.891091064453125,-0.0955325040847063,-0.001595087171718478,-0.004253401394467801
1746575998858106000,6.901106201171875,-0.08535714702904224,0.0018444131571333853,-0.002277434279536828
1746575998868122000,6.9111220703125,-0.08939911589622497,-0.0013755398366367443,-0.0068473999430425465
1746575998878137000,6.92113720703125,-0.08565759128034114,0.003341451348434202,0.0020924148351419715
1746575998888153300,6.9311533203125,-0.0919423706382513,-0.006617696540127508,-0.010418308099219575
1746575998898168300,6.941168212890625,-0.09209142372012138,0.004184363879403099,-0.005004694685805589
1746575998908184300,6.951184326171875,-0.09403554352521896,0.0022545922600664195,0.00009799874806776642
1746575998918199300,6.96119921875,-0.09328735550642013,-0.007400243486254476,-0.010621931779384612
1746575998928215300,6.97121533203125,-0.08999532822370529,0.0035305624460568647,0.00013240334116853772
1746575998938230300,6.981230224609375,-0.0899947437018156,0.009646657006442546,0.006631209042249247
1746575998948246300,6.991246337890625,-0.08969546849429606,-0.009629061984247527,-0.003989845954300835
1746575998958261200,7.00126123046875,-0.09867430924177169,-0.006780079461028799,-0.010120631193742156
1746575998968277200,7.01127734375,-0.09074293172061443,-0.0012607360842404886,-0.024237830343516543
1746575998978292200,7.021292236328125,-0.0840080705076456,0.005121151539171114,0.0046572968870867044
1746575998988308200,7.03130810546875,-0.08715046018660068,0.0023583448954857885,0.008893527951044962
1746575998998323200,7.0413232421875,-0.09253858296573161,0.0024214230272220447,-0.00034218276748433705
1746575999008339200,7.051339111328125,-0.08281272324323653,-0.0017393042482668534,-0.004470752205885947
1746575999018354200,7.061354248046875,-0.0943342342108488,-0.004038507401617244,-0.0029879663022235035
1746575999028370200,7.0713701171875,-0.09657938278913497,0.005664049077103846,-0.0006774882696103304
1746575999038385200,7.08138525390625,-0.09059680124819278,-0.001273248505941592,0.005803772641625255
1746575999048401200,7.091401123046875,-0.09074819241762161,-0.0004033931691199541,-0.003374289605533704
1746575999058416000,7.101416015625,-0.090299864128232,0.0023952200068859384,-0.007168192862626164
1746575999068432400,7.111432373046875,-0.08431611354351043,-0.0032259306434076276,-0.00008967844429425895
1746575999078447000,7.121447021484375,-0.09194821585714817,-0.0011324198297224938,-0.00476666641253978
1746575999088463400,7.13146337890625,-0.08147592168152332,-0.00931366219241172,-0.0055080958969891064
1746575999098479400,7.141479248046875,-0.09748539171814918,-0.0013018535459181292,-0.00467168160546571
1746575999108494300,7.151494384765625,-0.09942951152324676,-0.0008477942020632326,-0.0030135391348972917
1746575999118510300,7.16151025390625,-0.08611176478862761,-0.0012421683810884133,-0.0012460088725667446
1746575999128525300,7.171525390625,-0.09239712866842746,-0.0023752183984732255,-0.0025280845723580567
1746575999138541300,7.181541259765625,-0.08985328940451144,-0.0010848406612174585,-0.008634000232024118
1746575999148556300,7.191556396484375,-0.09778466692566871,-0.010612355666863731,-0.014190931106265634
1746575999158572300,7.201572265625,-0.09404314230978489,0.0029216048014350233,-0.009942525547323748
1746575999168587300,7.211587158203125,-0.08207038044333458,0.005107310243486427,-0.005953328046994283
1746575999178603300,7.221603271484375,-0.09134791187644005,0.006364283468062058,-0.009256059386814012
1746575999188618200,7.2316181640625,-0.10137246228456497,-0.0037913596735568715,-0.006327166328066959
1746575999198634200,7.24163427734375,-0.0941904418259859,-0.0076903809726703905,-0.0058309894421137865
1746575999208649200,7.251649169921875,-0.09568740238547324,-0.003760366313671693,-0.000983841671887785
1746575999218665200,7.261665283203125,-0.08596154266297816,-0.0032727197940461334,0.0009510901797562837
1746575999228680200,7.27168017578125,-0.08970189823508262,-0.005024979422008619,0.0050876145957503465
1746575999238696400,7.281696533203125,-0.09823007260560988,-0.007302459367318079,-0.0010551076766569167
1746575999248711700,7.291711669921875,-0.0935895533233881,-0.006032247635256499,-0.01052364990352653
1746575999258727400,7.3017275390625,-0.08386369360089302,0.0011979410802945493,-0.003538531123381108
1746575999268742700,7.31174267578125,-0.09538520456850529,0.009499088062183,-0.006094937607925385
1746575999278758400,7.32175830078125,-0.0917939020782709,-0.0011944704815745352,-0.005587079417333007
1746575999288773600,7.331773681640625,-0.08087094152569771,-0.0002577239210018888,-0.0028735918080899864
1746575999298789400,7.341789306640625,-0.09254267461895942,0.005014060735772364,0.001447586726117879
1746575999308804600,7.3518046875,-0.09897709158062934,0.0006558198604965582,-0.0017133523896802215
1746575999318820400,7.3618203125,-0.08895137212872505,0.0012649099358590318,-0.0038054384312592444
1746575999328835600,7.371835693359375,-0.10481237360537052,-0.007569878131849691,-0.010200071371812372
1746575999338851600,7.3818515625,-0.09747837745547294,-0.0024902687460416927,0.0004477985664270818
1746575999348867600,7.39186767578125,-0.08416179976463317,-0.005199998062197119,-0.000053209758270531886
1746575999358882600,7.401882568359375,-0.09119652070701122,-0.0002638477011118084,0.0007856978844385594
1746575999368898600,7.411898681640625,-0.10302022949159145,-0.003524840524746105,-0.005343306389870121
1746575999378913500,7.42191357421875,-0.09763386027812958,-0.003034700653934851,-0.00576123954099603
1746575999388929500,7.431929443359375,-0.08521218560039996,0.00034269422413781285,-0.009982382633676751
1746575999398944500,7.441944580078125,-0.08895195665061473,-0.0003660340005299076,-0.011366329539055003
1746575999408960500,7.45196044921875,-0.09119359809756278,0.00034486791491508483,-0.005644033768959343
1746575999418975500,7.4619755859375,-0.09508476031720638,0.008654860356962307,0.01214279380426742
1746575999428991500,7.471991455078125,-0.09897416897118091,-0.002864422120945528,0.004327297747740522
1746575999439006500,7.48200634765625,-0.09418401208519935,-0.003453259426145814,-0.0055583921789657325
1746575999449022500,7.4920224609375,-0.0870014071047306,-0.00231076116040349,-0.0027523309154435993
1746575999459037400,7.502037353515625,-0.08969488397240638,-0.005302476622560061,0.005620643760217353
1746575999469053400,7.512053466796875,-0.08879588930606841,-0.005982289279997348,0.004434383984562009
1746575999479068400,7.522068359375,-0.08670154737532139,0.0021561551205813885,-0.01286105247568339
1746575999489084400,7.53208447265625,-0.09582827216088771,-0.003175205103168264,-0.007420971180452034
1746575999499099400,7.542099365234375,-0.09044248746931552,-0.0031101542100543155,-0.00012700564684346317
1746575999509115600,7.55211572265625,-0.09463350941836833,0.00005121873058378696,-0.004166663825931028
1746575999519130600,7.562130615234375,-0.10136720158755778,-0.0007258391896728426,-0.009874036021530627
1746575999529146600,7.572146728515625,-0.08400923955142497,0.0033821989173535255,0.0001960614282172173
1746575999539161600,7.58216162109375,-0.08370996434390544,0.006458674620091915,-0.003356324690580368
1746575999549177600,7.592177490234375,-0.0976280150592327,0.00040982290990650654,-0.005287630679877474
1746575999559192600,7.602192626953125,-0.09927402870059013,-0.01011156653787475,-0.012386448100721462
1746575999569208600,7.61220849609375,-0.08745148895978927,-0.00652255646942649,-0.010866207130346446
1746575999579224600,7.622224609375,-0.0955325040847063,-0.000602706000348553,0.002027277177060023
1746575999589239600,7.632239501953125,-0.09313713338077068,0.004000956436782143,-0.00031385172214359045
1746575999599255600,7.642255615234375,-0.0865524942934513,-0.001552015214972198,0.0024193543677218255
1746575999609270500,7.6522705078125,-0.09657996731102467,0.0016206234717741608,-0.008001547547383234
1746575999619286500,7.66228662109375,-0.08580664436221122,-0.0012768743682885543,-0.00023554405523464083
1746575999629301500,7.672301513671875,-0.09613105449974536,0.0029539270353037862,0.008350497982371597
1746575999639317500,7.6823173828125,-0.0892453866392374,0.003650992221641354,0.00383933156770654
1746575999649332500,7.69233251953125,-0.09567688099145889,-0.003214888659585267,-0.007983180773630737
1746575999659348500,7.702348388671875,-0.09522855270206927,-0.0007853736574528738,0.0017787092434708028
1746575999669363500,7.712363525390625,-0.08625088099837303,0.006641378809814341,0.00748744227909483
1746575999679379700,7.722379638671875,-0.09253682940006255,0.0018503497075755147,0.0025210885759908703
1746575999689394700,7.732394775390625,-0.0884960295766592,-0.0010855028149206192,-0.013734410377265884
1746575999699410700,7.74241064453125,-0.09148819712996482,-0.004815588154760189,-0.0058732759475708
1746575999709425700,7.75242578125,-0.09702595751285552,0.00031551852284464983,0.003976127956202253
1746575999719441700,7.762441650390625,-0.0980728362172842,0.0006278267418732866,-0.0006002583149354904
1746575999729456600,7.77245654296875,-0.08834463840723038,-0.002198756719869561,-0.004182391118025407
1746575999739472600,7.78247265625,-0.09747194771468638,-0.001737514149979688,-0.0038252391102723774
1746575999749487600,7.792487548828125,-0.09387947618067265,0.0010931974976090713,-0.0016093074933160095
1746575999759503600,7.802503662109375,-0.0878945565521717,-0.003907866759272292,-0.004034863272961229
1746575999769518600,7.8125185546875,-0.08669687120020389,0.0013390300514176487,0.013948272323654963
1746575999779534600,7.82253466796875,-0.09417933591008186,0.00014102047246415168,0.0007266155078075826
1746575999789549600,7.832549560546875,-0.08894143525660038,-0.0017803532112855463,-0.006285729205980897
1746575999799565600,7.842565673828125,-0.0926829598724842,-0.0011433430825360119,-0.009725119936978444
1746575999809580500,7.85258056640625,-0.09373100762069225,-0.004795440415875055,-0.013325354652339591
1746575999819596500,7.862596435546875,-0.0856505770176649,0.0038382903880905357,-0.0009943265332840383
1746575999829611500,7.872611572265625,-0.08071253609359264,0.0025734215514268723,0.0028090204055886713
1746575999839627500,7.88262744140625,-0.09612579380273818,-0.0006218673585448414,-0.002492328272387385
1746575999849643800,7.892643798828125,-0.0953799438714981,-0.00287086556146387,-0.005437076487392186
1746575999859658500,7.902658447265625,-0.08744798182845115,-0.0024602891663089393,0.005897405741829425
1746575999869674800,7.9126748046875,-0.08699848449528216,0.002210438024508767,0.009474953701347112
1746575999879689700,7.922689697265625,-0.09522913722395897,-0.0014225938487565145,-0.007611379186017438
1746575999889705700,7.932705810546875,-0.08490472708642482,-0.006854528370150365,-0.010130138807604088
1746575999899720700,7.942720703125,-0.09029343438744544,-0.0015947492450010031,0.004447298265062272
1746575999909736700,7.95273681640625,-0.09134265117943287,-0.0015244559211889282,-0.005840451390203089
1746575999919751700,7.962751708984375,-0.0968786579966545,-0.0003836381558794528,-0.00598641746584326
1746575999929767700,7.972767578125,-0.09523089078962803,-0.0019965715115424242,0.0006109167062677442
1746575999939782700,7.98278271484375,-0.09807400526106357,-0.0002313610704615712,0.0005372030160855502
1746575999949798700,7.992798583984375,-0.08490589613020419,0.006892211765726097,0.004010285954130813
1746575999959813600,8.002813720703125,-0.08685001593530177,0.0029796825310681014,0.00297913454179652
1746575999969829600,8.01282958984375,-0.09882043971419334,-0.0031794428868684916,-0.00020566950677894055
1746575999979844600,8.0228447265625,-0.09058803341984749,-0.00686981727082748,-0.0062503656316548585
1746575999989860600,8.032860595703125,-0.08744272113144397,0.0032177199374884367,-0.004246542395418509
1746575999999875600,8.04287548828125,-0.0986655414134264,-0.0001641227868385613,-0.005377665317198261
1746576000009891600,8.0528916015625,-0.0856464853644371,-0.0025048543938202784,0.006602832331135869
1746576000019906600,8.062906494140625,-0.09582242694199085,-0.004478698050323873,0.0007151168662589043
1746576000029922600,8.072922607421875,-0.09208265589177608,-0.002764692640095018,-0.0004093753853347152
1746576000039937500,8.0829375,-0.0902870046466589,-0.005102035846747457,-0.0007857344170566648
1746576000049953800,8.092953857421875,-0.09043722677230834,-0.0072643375803250814,0.00004205817659385502
1746576000059969500,8.102969482421875,-0.08834054675400256,-0.0036184736249502748,0.005977649637497961
1746576000069984800,8.11298486328125,-0.0926782836973667,-0.0011725006783613935,0.000974754183134064
1746576000080000500,8.12300048828125,-0.08474865974187851,0.002876377420220524,0.00040974071151576933
1746576000090015700,8.133015625,-0.09208090232610702,-0.010927577362186275,-0.006007049261918291
1746576000100031500,8.143031494140626,-0.09761690914332866,-0.0054658185246866196,0.0011521017777267842
1746576000110046700,8.153046630859375,-0.08759177421331406,-0.005379441715753637,0.002294348881719634
1746576000120062500,8.1630625,-0.09731704941391944,-0.006433416881249286,0.00048249542047269637
1746576000130077700,8.17307763671875,-0.09986030415594577,-0.00022824666476808488,-0.002058823092794046
1746576000140093400,8.183093505859375,-0.09716741181015967,-0.003110884862416424,0.0005701919702347368
1746576000150108700,8.193108642578125,-0.08893675908148288,-0.004436904735211283,-0.003106085389712825
1746576000160124400,8.20312451171875,-0.0953711760431528,-0.0006464446773752569,-0.004533752705808729
1746576000170139600,8.2131396484375,-0.08190145361721515,-0.0019726746127242223,-0.0009111052292399107
1746576000180155400,8.2231552734375,-0.08339782965481281,0.0011796702046645805,-0.008907510810624807
1746576000190170600,8.233170654296876,-0.0952186158299446,-0.0011828713753260672,-0.005259893289580941
1746576000200186400,8.243186279296875,-0.10224982964098453,0.00016987210761290042,-0.013181754063721745
1746576000210201600,8.25320166015625,-0.1012011973708868,-0.0004944918189430609,-0.009540812878636644
1746576000220217600,8.263217529296876,-0.09970540585517883,0.003926635391823947,0.004819209450529888
1746576000230232600,8.273232666015625,-0.08653729672431945,-0.0037477260278072208,-0.0010157803132664412
1746576000240248600,8.28324853515625,-0.09985621250271796,0.00003673354750499129,-0.00889989375974983
1746576000250263600,8.293263671875,-0.09611585693061352,-0.0018038802173454313,-0.008816745520941912
1746576000260279300,8.303279296875,-0.10060615408718586,-0.0011530424926429986,0.0029840664452407506
1746576000270294500,8.31329443359375,-0.09492109418809414,-0.0024050609808880835,0.009350916329724714
1746576000280310300,8.323310302734376,-0.08564356275498866,-0.0015359865287784486,0.001262996539985761
1746576000290325500,8.333325439453125,-0.09162672881782054,-0.008680716317426413,-0.003837806330900639
1746576000300341200,8.34334130859375,-0.09222411018908024,0.00030944497508462516,-0.004167814603401348
1746576000310357200,8.353357177734376,-0.08444295479357242,0.00714338721493259,0.002917321351962164
1746576000320372200,8.363372314453125,-0.08698679405748844,-0.0005719135698629543,-0.0006802373491227626
1746576000330388200,8.37338818359375,-0.09297171368598937,0.003294849427463487,-0.0008284045150037854
1746576000340403200,8.3834033203125,-0.09596446576118468,-0.0006621582697378471,-0.0021360256480053067
1746576000350419200,8.393419189453125,-0.09521510869860648,0.009919217736972496,0.008524575907643883
1746576000360434200,8.40343408203125,-0.0983557448118925,0.00012027907853480428,-0.001849938715621829
1746576000370450400,8.413450439453126,-0.09431260690093039,-0.010034985037171281,-0.005321277221152558
1746576000380465200,8.423465087890625,-0.09236790257394313,-0.0006216116302181035,-0.005798566743545234
1746576000390481400,8.4334814453125,-0.0953629927366972,0.0031878271227236835,-0.004307624932890758
1746576000400496400,8.443496337890625,-0.09356675696969032,-0.0010967731276061384,0.0018099080993328243
1746576000410512400,8.453512451171875,-0.09102350222766399,0.0033437666031066325,0.0013703750377520919
1746576000420527400,8.46352734375,-0.09162263716459274,-0.0004606534814229235,0.0028380912364460525
1746576000430543400,8.47354345703125,-0.09147299956083298,-0.004338339731562882,-0.004069961985806003
1746576000440558300,8.483558349609375,-0.09685878425240516,-0.0003233821688918397,-0.007188998188637196
1746576000450574300,8.49357421875,-0.10030103366076945,-0.0049503250169102096,-0.0036854470470920205
1746576000460589300,8.50358935546875,-0.07785363953113555,0.00004327745272312313,0.011682875541783868
1746576000470605300,8.513605224609375,-0.0901256766051054,0.0021709188648732377,0.0049836975635495035
1746576000480620300,8.523620361328126,-0.09341770388782024,0.0027689304237952456,-0.007628467318136245
1746576000490636300,8.53363623046875,-0.09117372435331345,-0.0035748902115505187,-0.004714242105558515
1746576000500651300,8.5436513671875,-0.0883306098818779,0.0041516306535806504,0.00233820628975518
1746576000510667300,8.553667236328126,-0.09910451735258102,0.003960112969740293,0.010912658354267477
1746576000520682200,8.56368212890625,-0.09461538923978804,0.003018155944510363,0.0016442783419974146
1746576000530698200,8.5736982421875,-0.08877718460559844,-0.008342511038738303,-0.01082295251050964
1746576000540714500,8.583714599609374,-0.09012392303943634,-0.0025698778874706477,-0.0031085056756623088
1746576000550729200,8.593729248046875,-0.09236848709583281,0.004538689175830222,0.009179395687719806
1746576000560745500,8.603745361328125,-0.09027239159941673,0.00016557952498551457,0.0009424136829562484
1746576000570760400,8.613760498046876,-0.09057225132882595,-0.002600665751378983,-0.009905563670955598
1746576000580776400,8.6237763671875,-0.08683248027861118,-0.012813518972950987,-0.0006017104865051805
1746576000590791400,8.63379150390625,-0.09236848709583281,-0.00501832591893617,-0.0012988076388835907
1746576000600807400,8.643807373046876,-0.09535890108346938,-0.004663073607324622,0.005160825962433591
1746576000610822400,8.653822509765625,-0.09820260007679461,0.0008734674994368105,-0.004345335727930068
1746576000620838400,8.66383837890625,-0.08234159860014915,-0.0051166580271441485,-0.000056789954844862216
1746576000630853400,8.673853271484376,-0.09490998827219009,0.00019399276871699838,0.002219274351513013
1746576000640869400,8.683869384765625,-0.09520926347970962,-0.005347233646316453,-0.004819364714156836
1746576000650884400,8.69388427734375,-0.08563304136097431,-0.00784621998835355,-0.005025764873297885
1746576000660900400,8.703900390625,-0.09475976614654064,0.0035726936878869306,0.0037090836510062218
1746576000670915300,8.713915283203125,-0.09251520209014415,-0.0031312015646602956,-0.0025889022483490407
1746576000680931300,8.723931396484375,-0.0829366418838501,-0.0009354953184025362,-0.005179868589621037
1746576000690946300,8.7339462890625,-0.09475567449331283,-0.0030088538266252723,0.003263330911193043
1746576000700962300,8.74396240234375,-0.09984276849925518,0.006353976703179069,0.00805759771671146
1746576000710977300,8.753977294921874,-0.0862263310790062,-0.002150214003561996,0.008530064933514221
1746576000720993300,8.7639931640625,-0.088020813280344,-0.005986138904630206,0.0032277298748493192
1746576000731008300,8.77400830078125,-0.09475450544953345,-0.006512140106689185,0.000623228198569268
1746576000741024500,8.7840244140625,-0.09221008166372775,-0.007554803860303945,0.0043840237705037
1746576000751040500,8.79404052734375,-0.0998415994554758,0.005481646281480789,0.0054673528946470465
1746576000761055500,8.804055419921875,-0.09983984588980674,-0.005755481087067164,-0.0006300415318459272
1746576000771071500,8.814071533203125,-0.09430267002880573,-0.010492894005659035,-0.005850698789581656
1746576000781086500,8.82408642578125,-0.08502747668325901,0.006776444465527311,0.0013195398996584116
1746576000791102500,8.8341025390625,-0.09280863207876681,-0.00037579277614131567,0.0024797793180681765
1746576000801117400,8.844117431640624,-0.08263385954499244,0.003532192714139819,0.004805345321958884
1746576000811133400,8.854133544921876,-0.092060444059968,0.0063695395984919734,0.0017595661515835673
1746576000821148400,8.8641484375,-0.0986433295816183,-0.0003931320700095966,-0.004024634139891714
1746576000831164400,8.874164306640624,-0.08727087169587612,-0.0037747966978233303,0.0005225991019979119
1746576000841179400,8.884179443359375,-0.09071078301668166,0.0010084281238727272,0.010301577251218259
1746576000851195400,8.8941953125,-0.08457564126253128,-0.0038125851246761156,0.0018589440059848129
1746576000861210400,8.90421044921875,-0.08831716587841511,0.0014129583707312122,0.006896490648621693
1746576000871226400,8.914226318359376,-0.09535188682079315,0.001239181839558296,0.012230234625702724
1746576000881241300,8.924241455078125,-0.08831891944408417,-0.004118810662790202,0.005462704118993133
1746576000891257300,8.93425732421875,-0.09609949031770229,-0.009342810655082575,-0.009011044250335543
1746576000901272300,8.944272216796875,-0.08607435538768768,-0.0014831466632662341,-0.004086282932944596
1746576000911288600,8.95428857421875,-0.0869710119664669,0.005138445167266763,0.007959772498579695
1746576000921303300,8.96430322265625,-0.09565057750642299,0.0051790100730955595,-0.0050182026213500645
1746576000931319600,8.974319580078125,-0.09445289215445518,0.0014883525613462551,-0.01023002811865881
1746576000941334500,8.98433447265625,-0.0959510217577219,0.0016692757859360426,-0.0013432130361907184
1746576000951350500,8.9943505859375,-0.08592764039337634,-0.004367858086992055,0.0016286606477573513
1746576000961366500,9.004366455078125,-0.09236147283315659,-0.001671303346240893,0.00541458152779378
1746576000971381500,9.014381591796875,-0.09400631743073463,0.0008248517178930342,-0.00023400968527421354
1746576000981397500,9.0243974609375,-0.08412731297314166,0.0006713188237277791,0.006642488488089293
1746576000991412500,9.03441259765625,-0.09280629399120807,-0.0012718648330308495,0.005024148304946721
1746576001001428500,9.044428466796875,-0.08951251314282417,0.0032203046202193943,0.00026464228555560113
1746576001011443500,9.054443359375,-0.09789046538770198,-0.008131873095897026,-0.005492533001676202
1746576001021459500,9.06445947265625,-0.09684358668327331,-0.00405520737466868,0.002131093744561076
1746576001031474400,9.074474365234375,-0.0946001916706562,0.00334879440467339,0.009881214680988341
1746576001041490400,9.084490478515624,-0.08307809618115425,0.002738064928073436,0.007065947197703645
1746576001051505400,9.09450537109375,-0.08816635923087596,0.0031811507867649195,-0.006480438927328214
1746576001061521400,9.104521484375,-0.08352700899243354,0.0023345347616355863,0.003408328872453421
1746576001071536400,9.114536376953126,-0.09235387404859065,-0.0015066919356351717,0.003601221096049994
1746576001081552400,9.124552490234375,-0.10058277321159839,-0.006376964853121898,0.0028729707535821943
1746576001091567400,9.1345673828125,-0.09369944343864917,-0.007092597742611542,-0.0062699562481138855
1746576001101583400,9.144583251953126,-0.09145371033847331,-0.004813496662373655,-0.005880134946620092
1746576001111598600,9.1545986328125,-0.09265198021233081,-0.010629297668510116,-0.0007490648016333579
1746576001121614300,9.1646142578125,-0.09474749118685721,0.00006734331490006297,0.0017931122281588613
1746576001131629600,9.174629638671876,-0.08576981948316097,-0.007756441079359501,-0.0023413480949122456
1746576001141645300,9.184645263671875,-0.09265314925611019,0.002070892556500621,0.010475070654600857
1746576001151660500,9.19466064453125,-0.09070844492912292,0.005057347321650013,0.0012617178983520716
1746576001161676300,9.20467626953125,-0.09594459201693534,-0.006342756622843444,-0.005905808243993669
1746576001171691500,9.21469140625,-0.09025953211784363,0.0016426480739144607,-0.008484627489745617
1746576001181707300,9.224707275390625,-0.084274027967453,-0.0006084644542774185,-0.003418238345114514
1746576001191723300,9.23472314453125,-0.08906301580965519,-0.008575447578355669,-0.0015994254201184958
1746576001201738200,9.24473828125,-0.09489888235628605,-0.0033171069250442086,0.003592626797640696
1746576001211754200,9.254754150390625,-0.0990875662177801,0.0010721410098485649,-0.0045317342786584044
1746576001221769200,9.264769287109376,-0.08517068454623222,-0.0017355413886019958,0.005814449299266561
1746576001231785200,9.27478515625,-0.08501929337680339,-0.0004993141245329752,0.005328154486510903
1746576001241800200,9.28480029296875,-0.08516776193678378,-0.00993628760278225,-0.00495322936004959
1746576001251816400,9.29481640625,-0.09489362165927887,-0.007702774663362652,-0.005458996058255434
1746576001261831400,9.30483154296875,-0.09579144728183746,-0.0022085474615218116,0.004298994101863354
1746576001271847400,9.314847412109375,-0.09608955344557761,-0.0012849435103125869,0.013066457120981067
1746576001281862400,9.3248623046875,-0.0904039090245962,0.0004856235258979723,-0.002851818367699161
1746576001291878400,9.33487841796875,-0.09369710535109042,-0.003503724671481177,-0.008533690795861184
1746576001301893400,9.344893310546874,-0.08486790220737457,0.003043340618116781,-0.007414011716702953
1746576001311909400,9.354909423828126,-0.105667529129982,0.005555159042263403,-0.0005353124530985951
1746576001321924400,9.36492431640625,-0.09175006293654442,0.0005129590573953464,0.007331557597639039
1746576001331940400,9.3749404296875,-0.09474164596796035,-0.004347130392794497,0.00485048137162812
1746576001341955300,9.384955322265625,-0.09878244579136371,-0.005090678769093938,-0.007771410319628193
1746576001351971300,9.394971435546875,-0.08875789538323879,-0.0008697046397719532,0.002684334579994902
1746576001361986300,9.404986328125,-0.09489362165927887,0.0014809547061799093,0.006085594390844926
1746576001372002300,9.415002197265625,-0.09788462016880511,-0.0034030955749098208,0.0054948254234623165
1746576001382017300,9.425017333984375,-0.09534078090488911,-0.009189195562526583,0.0008217373121995478
1746576001392033500,9.435033447265624,-0.09414192650914191,-0.0013435737957945093,0.00829988203998655
1746576001402048500,9.445048583984375,-0.0865092396736145,0.0003200485674897209,0.004941000066138804
1746576001412064500,9.455064453125,-0.09264204334020613,-0.011345533346198498,0.0002799951183144003
1746576001422080500,9.46508056640625,-0.0965302829504013,-0.002526874429383315,-0.004132588026393205
1746576001432095500,9.475095458984375,-0.08605565068721771,0.0048067472611786795,0.0024964564582332966
1746576001442111500,9.485111572265625,-0.09338730874955653,-0.001411789326951839,0.005047784908860922
1746576001452126500,9.49512646484375,-0.09577975684404373,-0.0024770987372146917,-0.0011646507320459932
1746576001462142500,9.505142578125,-0.08904840276241302,-0.0019126149885589257,0.008938371739769354
1746576001472157400,9.515157470703125,-0.09698036480545998,0.007532592028495855,0.007736813930282369
1746576001482173400,9.52517333984375,-0.09653086747229099,-0.000354759121267125,0.00596292699240148
1746576001492188400,9.5351884765625,-0.1034147817671299,-0.005632183500961401,-0.009025931292213499
1746576001502204400,9.545204345703125,-0.09234159908890724,-0.0014467967082513495,-0.009457089251093566
1746576001512219400,9.555219482421874,-0.08725216699540615,0.000037692528730258344,0.008691036782041191
1746576001522235400,9.5652353515625,-0.08665420110225677,-0.003575981623516418,0.014460523561574517
1746576001532250400,9.57525048828125,-0.10296528443396091,-0.008185137653094716,0.00012796462806873024
1746576001542266400,9.585266357421874,-0.08665537014603614,-0.004510764555865899,-0.004196310045523568
1746576001552281300,9.59528125,-0.08964695317745208,-0.008551947971759363,-0.0035733284421265122
1746576001562297600,9.605297607421875,-0.08770049528479576,-0.003891198752261698,0.003135475880978629
1746576001572312300,9.615312255859376,-0.08605389712154865,-0.00011179437797982246,0.0070039148121606555
1746576001582328600,9.62532861328125,-0.09637947630286216,-0.004786782185384072,0.0027714648741763086
1746576001592343600,9.635343505859375,-0.08919628680050373,-0.0034693885770393533,0.004506462840083986
1746576001602359600,9.645359619140624,-0.08740005103349685,0.00394169139706064,-0.00190608021649532
1746576001612375600,9.65537548828125,-0.10206512072384356,0.0037756186817307024,-0.003894514087354764
1746576001622390500,9.665390625,-0.09099018447995186,-0.0016511008084286003,0.008551747042359784
1746576001632406500,9.675406494140624,-0.08919511775672435,-0.0038076121220365165,0.010229379664687439
1746576001642421500,9.68542138671875,-0.08874620494544505,-0.0018518932106904684,0.0037739107818342745
1746576001652437500,9.6954375,-0.08590309047400951,-0.0014179222402162849,-0.005190472182026133
1746576001662452500,9.705452392578126,-0.09084288496375083,0.004595232535502873,0.004014194944268092
1746576001672468500,9.715468505859375,-0.0942863034158945,0.0016847427831264213,0.0029714809583034365
1746576001682483500,9.7254833984375,-0.09144318894445895,-0.0056294800872216,-0.0011243095885030924
1746576001692499500,9.73549951171875,-0.10012275448441504,-0.00010196253713220357,0.0002801869145594537
1746576001702514400,9.745514404296875,-0.09413666581213474,-0.0011149070059182122,-0.0002881601584609598
1746576001712530400,9.755530517578125,-0.09787643686234951,0.0004904914972605184,0.0017089776086620986
1746576001722545400,9.76554541015625,-0.09263853620886803,-0.002774766509537585,-0.004516710239462554
1746576001732561700,9.775561767578125,-0.09712707979977131,0.00042832211439963427,-0.003802579753892496
1746576001742576400,9.785576416015624,-0.08755144220292568,0.0008495797337731346,0.0029854272852651775
1746576001752592600,9.795592529296876,-0.09264028977453709,-0.0004675901122856885,0.002687859977642074
1746576001762607600,9.805607666015625,-0.08560849144160747,0.0005383948927512392,0.003657590925786644
1746576001772623600,9.81562353515625,-0.09353811539709568,-0.005442812108434736,-0.002974321369361132
1746576001782638600,9.825638671875,-0.0953320130765438,0.002467458692612126,-0.0031800456750672307
1746576001792654600,9.835654541015625,-0.09144143537878989,0.0011262503838399426,0.004882219083607197
1746576001802669600,9.845669677734374,-0.08949614652991295,-0.007952379209990612,0.0007698153287172317
1746576001812685600,9.855685546875,-0.09757891522049904,-0.0024132990862708536,-0.011140877619571983
1746576001822700500,9.865700439453125,-0.09189268627762794,-0.0016654170281486585,0.010499282647250219
1746576001832716500,9.875716552734374,-0.09563421089351176,-0.0013940481742843985,0.01251537171001546
1746576001842732500,9.885732666015626,-0.08905190989375114,0.001849733219644986,0.007276174148591235
1746576001852747500,9.89574755859375,-0.09084697661697864,-0.001408400926622562,-0.004952836634404957
1746576001862763500,9.905763427734374,-0.09458674766719341,-0.0042348336913157255,0.005661441561486571
1746576001872778500,9.915778564453126,-0.09368892204463482,-0.0041167283035581925,0.01255641610645689
1746576001882794500,9.92579443359375,-0.08186696682572364,-0.0013965369588928296,0.007840575698856263
1746576001892809500,9.9358095703125,-0.08949673105180263,-0.005966817716229707,-0.00014289733571931718
1746576001902825500,9.945825439453126,-0.0909925225675106,0.0014503906045574694,-0.0012383096233010292
1746576001912840400,9.95584033203125,-0.09263795168697833,-0.0014391887905308976,0.014435215590381995
1746576001922856400,9.9658564453125,-0.09099193804562092,0.0034576159408548843,0.0027645510761998594
1746576001932871700,9.97587158203125,-0.08695113822221756,-0.0006830868933349847,-0.003480325529584661
1746576001942887400,9.985887451171875,-0.08650164088904858,-0.0011121305269422008,0.0002987272182479501
1746576001952902700,9.995902587890624,-0.08620236568152904,-0.0068952576727606355,0.0020504936558660117
1746576001962918400,10.00591845703125,-0.09413315868079662,-0.00031923571673687543,-0.001990781091572717
1746576001972933600,10.01593359375,-0.08650280993282794,0.0004958617921220138,0.0016671020951587706
1746576001982949400,10.025949462890624,-0.08844926782548428,-0.0005352622207487001,0.006593781375000253
1746576001992964600,10.035964599609375,-0.09264028977453709,-0.003283907908340916,0.005773551033297553
1746576002002980400,10.04598046875,-0.08575579095780848,0.00005581270731054246,0.00048791138110682367
1746576002012995600,10.05599560546875,-0.09024608811438083,-0.005712614626297727,-0.0023996267539449037
1746576002023011300,10.06601123046875,-0.09862696296870709,-0.006745423706178553,0.0029525844615884123
1746576002033027300,10.07602734375,-0.10057166729569435,-0.005612853179406374,0.006810337601974606
1746576002043042300,10.086042236328124,-0.09742869309484958,0.005604505476169288,0.007594135790271684
1746576002053058300,10.096058349609375,-0.08515957863032818,0.000027207667334005234,-0.0017165763932280242
1746576002063073300,10.1060732421875,-0.09039689476191996,-0.0004061833478277549,-0.004025227794935926
1746576002073089300,10.11608935546875,-0.09698094932734966,0.00158920998678077,0.0031225616004783656
1746576002083104300,10.126104248046875,-0.09129472038447857,0.0009700643082847818,-0.0006154102182947099
1746576002093120500,10.13612060546875,-0.09353811539709568,-0.008034892694558949,0.0007838073214516043
1746576002103135500,10.146135498046876,-0.09907412221431731,-0.002965151682216674,0.00799562013009563
1746576002113151500,10.1561513671875,-0.09578267945349216,-0.0024589420260163024,0.006110628367401659
1746576002123166500,10.16616650390625,-0.09159165750443934,-0.003464073081105016,0.005453379168221727
1746576002133182500,10.176182373046874,-0.0965302829504013,-0.0064853205984225495,-0.005061968697840347
1746576002143197400,10.186197509765625,-0.08635375685095786,-0.011795373172662221,-0.0009641597238834947
1746576002153213400,10.19621337890625,-0.09802548994421958,-0.007558078096201643,0.01055062010884285
1746576002163228400,10.206228515625,-0.07932078947424888,-0.0038827505843248215,-0.007225622138287872
1746576002173244400,10.216244384765625,-0.09263912073075771,-0.006307493513217195,-0.006649347487138584
1746576002183259400,10.22625927734375,-0.08785013288855552,-0.0032222591152880338,-0.002641372221102938
1746576002193275400,10.236275390625,-0.08201426634192466,0.00319249416468665,0.011767393753770738
1746576002203290400,10.246290283203125,-0.0884480987817049,0.002090583637659438,0.006363653280399739
1746576002213306400,10.256306396484375,-0.09982114118933677,0.003938330396194942,0.0007573394396342336
1746576002223321300,10.2663212890625,-0.0865051480203867,-0.006722746083489619,-0.005833893785253167
1746576002233337300,10.27633740234375,-0.09668050507605075,0.002960886499052867,0.005563333215564489
1746576002243353300,10.286353271484375,-0.09234043004512786,-0.002598829987319186,0.0065135374793317165
1746576002253367800,10.296367919921876,-0.09144201990067959,-0.0040771360786864535,0.0032962741995695975
1746576002263383800,10.3063837890625,-0.09443418745398521,0.0026060360462404784,0.004784850523201749
1746576002273398800,10.316398681640624,-0.09129004420936107,-0.0015385392454685643,0.000701417134469375
1746576002283414800,10.326414794921876,-0.09308511093258857,-0.004061961342440918,0.003705887046921998
1746576002293429800,10.3364296875,-0.08934475536048411,0.00477877240886446,0.0034907464588992297
1746576002303445800,10.34644580078125,-0.09398410559892655,-0.0009341481781098991,0.014099033305421471
1746576002313460700,10.356460693359375,-0.09877192439734934,0.008169145499519073,0.013549354400252922
1746576002323476700,10.366476806640625,-0.09652736034095287,-0.00033392639579251407,0.00022222791593521832
1746576002333491700,10.37649169921875,-0.09757482356727122,-0.0012706044577062128,-0.00960239773960784
1746576002343508000,10.386508056640626,-0.09682546650469302,0.0004504197817761451,-0.0013564104444812983
1746576002353522700,10.396522705078125,-0.0974234323978424,0.0019948636116459964,0.01497691211849451
1746576002363539000,10.4065390625,-0.0929354733288288,-0.0013410850111860782,0.008005958861019461
1746576002373554000,10.416553955078125,-0.09009118981361389,-0.007744554278743453,-0.0041242129236925395
1746576002383570000,10.42656982421875,-0.08335808216631412,-0.009047042578901163,0.0034964546804782002
1746576002393585000,10.4365849609375,-0.08979366817176342,-0.004065294943843036,0.009478524764766917
1746576002403601000,10.446600830078125,-0.08964461508989334,0.002531377074564807,0.00893219772730954
1746576002413615900,10.456615966796875,-0.09563070376217364,-0.012329379584663546,0.00889911744161509
1746576002423632000,10.4666318359375,-0.09473463170528411,-0.005951241121185012,0.0063857007154263555
1746576002433646800,10.476646728515625,-0.08919862488806247,0.0008622565522557125,0.004988885195320472
1746576002443662800,10.486662841796875,-0.09518471356034278,-0.0016196005584672092,0.005593463492346927
1746576002453678800,10.496678955078124,-0.095484573289752,-0.0014468926063738762,0.006695917442068457
1746576002463693800,10.50669384765625,-0.10072247394323348,-0.0010781095263315364,-0.0031739995267707852
1746576002473709800,10.516709716796875,-0.10311550655961037,-0.00497943694696296,-0.0010939327165484427
1746576002483724800,10.526724853515624,-0.10102058010697364,0.003230798614770174,0.004811446269182488
1746576002493740800,10.53674072265625,-0.09009645051062107,-0.0026445962246507406,0.0022128354775719345
1746576002503755800,10.546755859375,-0.08844868330359458,-0.005635855029080994,0.009378078331286087
1746576002513771800,10.556771728515624,-0.09188917914628981,0.0019380325576057657,0.011967382438434288
1746576002523786800,10.566786865234375,-0.09667875151038169,-0.003404903939506039,0.004312328507471829
1746576002533803000,10.576802978515625,-0.08830138378739356,-0.009164307716442272,0.00039246991630643605
1746576002543818000,10.58681787109375,-0.09698153384923934,-0.003838217322854325,0.011077593991858883
1746576002553834000,10.596833984375,-0.09713234049677848,0.002734155937936157,0.006569843376986682
1746576002563849000,10.606848876953125,-0.09713292501866817,-0.007221685748687014,-0.004793855813564733
1746576002573865000,10.616864990234374,-0.09758300687372684,-0.011614660010626538,0.006230208759615197
1746576002583880000,10.6268798828125,-0.09444178623855114,-0.006869913168950006,0.008402748759416863
1746576002593896000,10.63689599609375,-0.09458967027664184,-0.004556265931716189,0.00670883172256872
1746576002603911000,10.646910888671876,-0.09848200154006481,-0.0005783387440722436,0.006273709974624216
1746576002613927000,10.656927001953125,-0.0929483328104019,-0.00219859688966535,0.004992282728804275
1746576002623942000,10.66694189453125,-0.10028115991652012,0.0012733352709095925,0.0019028379466384648
1746576002633958000,10.6769580078125,-0.09549158755242824,0.0008342953996732831,-0.0028965525585692375
1746576002643974000,10.686973876953125,-0.08785890071690082,0.0021592695262748745,0.005528106638556346
1746576002653988900,10.69698876953125,-0.08097557094395161,-0.00487980793081224,-0.001963619090011343
1746576002664004900,10.7070048828125,-0.08860708873569965,0.002600483088288456,-0.000008028042828664184
1746576002674019800,10.717019775390625,-0.0918991160184145,-0.006422114602522924,0.00856470698863268
1746576002684035800,10.727035888671875,-0.09893149887323378,-0.004205899857776239,0.007707313841162249
1746576002694050800,10.73705078125,-0.09384382034540176,-0.007846877575479447,0.013303992203902453
1746576002704067000,10.747067138671875,-0.08950432983636855,-0.007276028018118813,0.006863182034064084
1746576002714082000,10.75708203125,-0.09040157093703746,-0.0005938559736125171,0.009085726054897532
1746576002724098000,10.76709814453125,-0.09728431618809699,0.0005184069840703159,0.0015918997007887809
1746576002734113000,10.777113037109375,-0.09189736245274543,-0.007802874036971479,-0.0024732125799637288
1746576002744129000,10.78712890625,-0.08695815248489379,-0.005466284315567464,-0.006443047792697325
1746576002754144000,10.79714404296875,-0.09803425777256489,-0.0010376268188934772,0.005148194809723645
1746576002764160000,10.807159912109375,-0.09130115012526512,0.00363937028250657,0.0023302056463900952
1746576002774175000,10.817175048828124,-0.09130348821282386,-0.001491298003681004,-0.004212229133863002
1746576002784191000,10.82719091796875,-0.10177928951978683,-0.006368502985453233,0.004252268883306533
1746576002794206000,10.8372060546875,-0.09250351165235042,-0.005516343135526403,-0.0002341923483647406
1746576002804222000,10.847221923828124,-0.09444938502311706,-0.010770546469837427,0.0019236980715766547
1746576002814237000,10.85723681640625,-0.08846212730705738,-0.00798059609089978,0.00036393794156610963
1746576002824253000,10.8672529296875,-0.09594400749504566,-0.009811254717316477,0.005356531197624281
1746576002834268000,10.877267822265624,-0.09355097487866879,-0.0092983367591165,0.004872903265990316
1746576002844284000,10.887283935546876,-0.0916068550735712,-0.003177488391799852,0.012700290689710528
1746576002854300000,10.8972998046875,-0.09564765489697456,-0.002069618481444195,0.006718439801130444
1746576002864315000,10.90731494140625,-0.0946001916706562,-0.002575458244886249,-0.0015043584146536887
1746576002874331000,10.917330810546876,-0.08921382245719432,-0.006028886634390801,0.0007240490913856774
1746576002884345900,10.927345947265625,-0.09280629399120807,-0.008439436641149222,0.003019411753257736
1746576002894361900,10.93736181640625,-0.09145721746981143,-0.009423597973445429,0.00217182761374861
1746576002904377000,10.947377197265626,-0.09280395590364933,-0.006768644751561805,0.0012008636897429823
1746576002914392800,10.957392822265625,-0.08577040400505065,-0.0008564524325542152,0.002803083855146542
1746576002924408000,10.967407958984374,-0.08696750483512877,-0.00039969424153678116,0.006097120431857183
1746576002934423800,10.977423828125,-0.08816519018709659,-0.005768893124489113,-0.00036462292815558613
1746576002944439000,10.98743896484375,-0.09684417120516299,-0.004253931117430329,-0.002497114045359194
1746576002954454800,10.997454833984374,-0.09938684142529963,0.0015534491202328353,-0.00041196920122019945
1746576002964470000,11.007469970703125,-0.09415069433748721,-0.005115699045918882,0.0011835015629883855
1746576002974485800,11.01748583984375,-0.08637070798575877,-0.005812695733597502,-0.0018095610394608227
1746576002984501000,11.0275009765625,-0.10088555555045604,-0.003223263762285933,0.0023444990332238376
1746576002994516700,11.037516845703125,-0.10612287168204784,-0.006591014029178768,0.005094902853062376
1746576003004532000,11.047531982421875,-0.10403028331696987,-0.001204864011425525,0.004526793242059648
1746576003014547700,11.057547607421874,-0.08966858048737049,-0.002951342352572828,0.0008226323613431304
1746576003024563700,11.067563720703125,-0.09430793072581291,-0.013795629912056028,0.01022379017411731
1746576003034578700,11.07757861328125,-0.0965524947822094,-0.00799960218546912,0.007417537114350125
1746576003044595000,11.087594970703124,-0.09819850842356681,-0.0031710586510132997,0.0012843863878864794
1746576003054609700,11.097609619140625,-0.08727320978343486,-0.010009498969465494,-0.0013046985235530882
1746576003064626000,11.1076259765625,-0.08293313475251197,-0.005532207424938679,0.0047985319886822255
1746576003074641000,11.117640869140626,-0.09161328481435775,-0.00537003000001423,0.008514538570819422
1746576003084657000,11.127656982421875,-0.097597619920969,0.00034447518927045164,0.006660380337806418
1746576003094672000,11.137671875,-0.10597907929718493,0.0003905062880832702,-0.001509929638914764
1746576003104687900,11.14768798828125,-0.0826356131106615,-0.0029326650515664365,0.0024010789255145934
1746576003114702800,11.157702880859375,-0.08907119911611079,0.005506406263401731,0.010747640518285334
1746576003124718800,11.16771875,-0.09071721275746822,0.0024125867002177982,0.009026369683630764
1746576003134733800,11.17773388671875,-0.0850321528583765,-0.008017375304177402,-0.003127429571840912
1746576003144749800,11.187749755859375,-0.09640636430978775,-0.008001337484829127,-0.0016781988779082894
1746576003154764800,11.197764892578125,-0.09326455915272236,-0.002105137319397181,0.004478972044959664
1746576003164780800,11.20778076171875,-0.09476268875598907,-0.011970524243591353,0.0038303628099616615
1746576003174795800,11.217795654296875,-0.09730769706368446,-0.010374405025411397,-0.001213823636015877
1746576003184811800,11.227811767578125,-0.09177285929024219,-0.009629185281833633,0.004590040337154641
1746576003194826800,11.23782666015625,-0.09730886610746384,-0.0035089397027157246,0.011863511072006077
1746576003204842800,11.2478427734375,-0.07995207311511039,-0.0016523703169077633,0.007472436506208032
1746576003214858800,11.257858642578125,-0.09940554612576961,-0.009733248444506898,-0.007825752589059994
1746576003224873700,11.267873779296876,-0.09162380620837211,-0.007157625802839174,0.002267543073184788
1746576003234890000,11.277889892578125,-0.0985083050251007,-0.006183803201466799,0.0004232212475966662
1746576003244905000,11.287905029296875,-0.09701192898750305,0.0007405801010783762,0.008555308972625061
1746576003254921500,11.29792138671875,-0.0848924521267414,0.0014931794335134327,0.006328070510365069
1746576003264936400,11.3079365234375,-0.08818564845323562,-0.010035756788728757,0.007838100613979623
1746576003274952400,11.317952392578125,-0.09880816475450992,-0.01225475714560598,0.008750511884316801
1746576003284967400,11.327967529296876,-0.0997065748989582,-0.004232495603756979,0.001447194000473246
1746576003294983700,11.337983642578125,-0.0841430950641632,-0.003289817059319466,0.003306530732102692
1746576003304998400,11.347998291015625,-0.0919248349815607,-0.003717403954779729,0.008040162524720654
1746576003315014700,11.3580146484375,-0.10150339518785476,-0.002727251273114234,0.008186932317959144
1746576003325029600,11.368029541015625,-0.0899812996983528,-0.005485527872154489,0.004422958408249542
1746576003335045600,11.378045654296875,-0.08235036642849444,-0.009562869446817786,-0.0030932533076032994
1746576003345060600,11.388060546875,-0.09327449602484703,-0.012170229800464585,0.008081234320625663
1746576003355076600,11.39807666015625,-0.0941729061692953,-0.001359406119165942,0.01523189152656123
1746576003365091600,11.408091552734374,-0.09162731333971023,0.0025108229103032497,-0.005369408945506438
1746576003375107600,11.418107666015626,-0.09461889637112617,-0.0061008832915220405,-0.005155136007163674
1746576003385122600,11.42812255859375,-0.0949181715786457,-0.006536068971548229,-0.007853088120557367
1746576003395138600,11.438138671875,-0.08294716327786446,-0.006147325382288545,-0.004145073048630729
1746576003405153500,11.448153564453126,-0.08803601084947585,0.005052342352969572,0.0059270702277310185
1746576003415169500,11.45816943359375,-0.0986608652383089,-0.010414307777537032,0.004862783730775117
1746576003425185500,11.468185546875,-0.0938724619179964,-0.009037037208117544,0.001673869762662798
1746576003435200500,11.478200439453126,-0.09491934062242507,-0.011512925802357495,0.0059765627921093255
1746576003445216500,11.488216552734375,-0.09761223296821117,-0.0036098427939228713,0.008323765239072963
1746576003455231500,11.4982314453125,-0.09536883795559406,-0.007481761456979439,-0.0009180007609073072
1746576003465247500,11.50824755859375,-0.09117898505032063,0.0034722335546743125,0.0011969090338330715
1746576003475262500,11.518262451171875,-0.09626607905626297,-0.002375588291231543,0.010687882288219406
1746576003485278700,11.52827880859375,-0.08938274928331374,-0.004703620246844366,0.0021373225559480485
1746576003495293700,11.538293701171876,-0.09566869768500327,-0.0016578319433145224,-0.006975136242248117
1746576003505309700,11.548309814453125,-0.08968260901272296,-0.007298988768598065,0.00004352861447259783
1746576003515324700,11.55832470703125,-0.09192775759100913,0.0014940105505753308,0.011536343210563063
1746576003525340700,11.568340576171876,-0.0895329714089632,0.0036415896390564737,0.00957592985779047
1746576003535355600,11.578355712890625,-0.09581775076687335,-0.01054333185153082,0.004791746054869145
1746576003545371600,11.58837158203125,-0.0947697030186653,-0.010967110221553594,0.0013820563423912972
1746576003555386600,11.59838671875,-0.09462123445868492,0.0008737780266907066,0.00031813517161644994
1746576003565402600,11.608402587890625,-0.09028291299343108,-0.0017337467237375675,0.0033662067637778817
1746576003575417600,11.61841748046875,-0.09342530267238616,-0.007368948732269927,0.008372892477270215
1746576003585433600,11.62843359375,-0.10330021547675132,-0.00465197225799784,0.003086558705335483
1746576003595448600,11.638448486328125,-0.09417232164740562,-0.016107295254757625,0.0017040365720633417
1746576003605464600,11.648464599609374,-0.10419921014308929,0.0010031856931746006,0.004663836225727573
1746576003615480300,11.658480224609375,-0.09327449602484703,-0.005566867746366187,0.0048997364739887415
1746576003625495600,11.66849560546875,-0.08354805178046226,-0.011527904175780713,0.004595017906371504
1746576003635511300,11.67851123046875,-0.10090718286037445,-0.012547748742811381,0.0038507023450918493
1746576003645526500,11.688526611328125,-0.10734276886582374,-0.005562748693674803,0.0015214282804634422
1746576003655542500,11.69854248046875,-0.09716858085393905,-0.005035939207440242,-0.0010675287668127566
1746576003665557500,11.7085576171875,-0.09163257403671742,-0.0056485729467589405,-0.0016058551609050482
1746576003675573500,11.718573486328125,-0.0926782836973667,0.004175714782066643,0.0011901139668654649
1746576003685588500,11.72858837890625,-0.0889361745595932,0.0011216975063085555,0.009472423817543313
1746576003695604500,11.7386044921875,-0.08594283796250819,-0.009588040420692414,0.005941043954156339
1746576003705619500,11.748619384765625,-0.09446984328925609,0.0018276081528048962,-0.0028507680549286303
1746576003715635500,11.758635498046875,-0.08773556659817695,-0.0008387249796185642,0.002291426272271201
1746576003725650400,11.768650390625,-0.09282207608222962,0.000606404927931726,0.0021425010545644907
1746576003735666400,11.77866650390625,-0.09790975461006164,-0.009103279977897182,-0.004046014854637906
1746576003745681400,11.788681396484375,-0.09431903664171695,-0.005974379968177527,-0.003468735556490719
1746576003755697400,11.798697509765624,-0.08683715645372866,-0.0026950203707907347,-0.007937752463016659
1746576003765712400,11.80871240234375,-0.0914759221702814,-0.006603699980815872,0.0033868842256255445
1746576003775728400,11.818728271484375,-0.0875853444725275,-0.009965623295120895,0.001127716255141422
1746576003785743400,11.828743408203126,-0.08309621635973453,-0.007800965207675471,-0.0033471276039723306
1746576003795759400,11.83875927734375,-0.09626315644681453,-0.00563617925606668,0.007487761939503252
1746576003805775400,11.848775390625,-0.09342004197537898,-0.005889332033228129,0.014175203814171254
