time,seconds_elapsed,z,y,x
1746728839597648400,0.0156484375,-0.10258826781511306,-0.02443511561444029,-0.007991802471503615
1746728839607666400,0.02566650390625,-0.11306640720963478,-0.018677547601563853,0.0064092277214862405
1746728839617684500,0.0356845703125,-0.10289280371963977,-0.023225685025751588,0.000510488539095968
1746728839627702500,0.04570263671875,-0.11232347988784312,-0.022778589712223036,-0.0015203414350748062
1746728839637720600,0.055720458984375,-0.09287292948663234,-0.01744626137409359,-0.007119093023892491
1746728839647738400,0.06573828125,-0.11412205374240875,-0.014284856467414647,0.003639580345060676
1746728839657756700,0.075756591796875,-0.10559212580621243,-0.01301358528942801,-0.005131663800030947
1746728839667774500,0.0857744140625,-0.1087345154851675,-0.012014993572980165,-0.01347922090664506
1746728839677791200,0.095791259765625,-0.11023147604465484,-0.01974557869187556,-0.010260441523231566
1746728839687809500,0.1058095703125,-0.11068155789971351,-0.024956207745941355,-0.005199377007689326
1746728839697827600,0.11582763671875,-0.10888532213270663,-0.018291543958662077,0.0010853840839117764
1746728839707845400,0.125845458984375,-0.11143149948418139,-0.017445622053276745,-0.001235149551834911
1746728839717863700,0.13586376953125,-0.09317337373793125,-0.02838518668077886,-0.001975720519758761
1746728839727881500,0.145881591796875,-0.09945639953017234,-0.017269543967163188,-0.0029291122544556855
1746728839737899500,0.1558994140625,-0.10903554425835608,-0.011887558667873962,-0.011948285012319683
1746728839747917300,0.165917236328125,-0.11292670647799968,-0.01293790797102265,-0.003457629640586674
1746728839757934600,0.1759345703125,-0.102752518466115,-0.015029418623866513,0.0015787205588072538
1746728839767952400,0.185952392578125,-0.10559446389377117,-0.01659059439282864,-0.005262012181431055
1746728839777970400,0.195970458984375,-0.11068155789971351,-0.018383606156287712,0.001941306793503463
1746728839787988500,0.205988525390625,-0.10619359883069991,-0.019415433422056958,-0.0036384661002084612
1746728839798006500,0.216006591796875,-0.10574293245375156,-0.022742659882316364,0.0008155724328942597
1746728839808024300,0.2260244140625,-0.11157704543471336,-0.01381387795479968,-0.004317150813061743
1746728839818042600,0.236042724609375,-0.10499357539117336,-0.01873886760105379,-0.004348148739524185
1746728839828060400,0.246060302734375,-0.11681143895685672,-0.01904783308552578,0.0012825506238266825
1746728839838078500,0.256078369140625,-0.10169453384578227,-0.018444734359532592,0.0031911059251986443
1746728839848095500,0.266095458984375,-0.10468553235530853,-0.01673412191621028,0.006358100322447717
1746728839858113500,0.276113525390625,-0.11171616164445876,-0.024163249003654345,0.00029209654806181787
1746728839868131300,0.28613134765625,-0.10588263318538665,-0.024989516360498964,-0.0029815730940550562
1746728839878149600,0.296149658203125,-0.10199147096574306,-0.015644390450743957,-0.0012790617587976156
1746728839888167400,0.30616748046875,-0.11411270139217376,-0.01670318792182952,-0.005956204990670085
1746728839898185500,0.316185546875,-0.10603227078914641,-0.015404170220391825,-0.011445760583970696
1746728839908203300,0.326203369140625,-0.11022504630386828,-0.019464021804137154,-0.0064256856659427285
1746728839918221600,0.3362216796875,-0.11830898403823376,-0.016599161291774363,-0.006873374634515494
1746728839928239600,0.346239501953125,-0.09885668007135391,-0.01928482931233011,-0.0038501908884383735
1746728839938256400,0.35625634765625,-0.10394728120863438,-0.014371950228977947,-0.0084224124411121
1746728839948274400,0.3662744140625,-0.11113163975477218,-0.01847354032890871,-0.004820552024245262
1746728839958292500,0.37629248046875,-0.1099368770122528,-0.01974265608242713,-0.011024703893996774
1746728839968310300,0.386310302734375,-0.10410685568451881,-0.01892372264866717,-0.0032514760766178367
1746728839978328600,0.39632861328125,-0.10515081177949905,-0.025552410940267143,-0.000870426158979535
1746728839988346600,0.4063466796875,-0.10799509529471396,-0.01369886413984932,-0.00046319706495851273
1746728839998364400,0.416364501953125,-0.09707038117647171,-0.016846989439846947,-0.0008661153100430965
1746728840008382500,0.426382568359375,-0.10694821659028529,-0.007015157725382596,-0.002848557831533253
1746728840018399500,0.4363994140625,-0.10829553954601287,-0.013899108552839606,-0.005267802601400763
1746728840028417500,0.44641748046875,-0.1045557684957981,-0.019521816405979914,-0.008524703771807253
1746728840038435600,0.456435546875,-0.09617898529469966,-0.014489283865178003,-0.008547938516922295
1746728840048453600,0.46645361328125,-0.1117448032170534,-0.019398774548200888,-0.005583280025050044
1746728840058471400,0.476471435546875,-0.1065121632605791,-0.01882363240821287,-0.0005067439457401633
1746728840068489500,0.486489501953125,-0.10785773265063762,-0.020067577187856657,-0.009143164463713764
1746728840078507500,0.496507568359375,-0.09797989723682403,-0.014804103701701387,-0.009963340006489307
1746728840088525600,0.506525634765625,-0.10141980855762958,-0.02312143006683327,0.0025015527584590015
1746728840098543400,0.51654345703125,-0.11069558642506598,-0.02476946213534102,0.0001229870588518679
1746728840108560600,0.526560546875,-0.10500994200408457,-0.022198360405163837,0.000706595633085817
1746728840118578400,0.536578369140625,-0.11518646810352802,-0.015901397419115528,0.00006356675550341606
1746728840128596500,0.546596435546875,-0.11384265227913856,-0.01353255852907896,-0.0027611352764070033
1746728840138614500,0.556614501953125,-0.1080067857325077,-0.021081750065926462,0.0030338512705639004
1746728840148632600,0.566632568359375,-0.10875380470752716,-0.020106922817556185,-0.0035139264050871133
1746728840158650400,0.576650390625,-0.10321429075896739,-0.016305201580189166,0.001405007959716022
1746728840168668400,0.58666845703125,-0.09079612321257591,-0.01384593532718718,-0.0032645182212814685
1746728840178686500,0.5966865234375,-0.10067045149505138,-0.02182287815627642,0.005734415466152131
1746728840188703500,0.606703369140625,-0.1084510223686695,-0.015888711467478424,0.0031841829940676687
1746728840198721500,0.616721435546875,-0.10171674567759037,-0.01343970174700953,0.00397721480159089
1746728840208739600,0.626739501953125,-0.10919804134368896,-0.01424032320594415,0.002341357228066772
1746728840218757400,0.63675732421875,-0.11847557277679442,-0.011482914256583899,-0.0018738858467899262
1746728840228775400,0.646775390625,-0.10680676229298114,-0.014104330535046755,0.0014604279413819312
1746728840238793500,0.65679345703125,-0.11040332548022269,-0.011428654185542836,0.0012984971116296947
1746728840248811500,0.6668115234375,-0.10187398206591605,-0.01802824424682185,0.005262012181431055
1746728840258829300,0.676829345703125,-0.10651391682624817,-0.006372841233853251,0.007054229360446334
1746728840268847400,0.686847412109375,-0.10741524958014488,-0.01224624504558742,-0.0039598435416817665
1746728840278864400,0.696864501953125,-0.1057715740263462,-0.011232099566981195,0.004207114567328244
1746728840288882400,0.70688232421875,-0.11235387502610683,-0.01996492053098045,0.0008726729149930179
1746728840298900500,0.716900390625,-0.10441957489550113,-0.007782753697549924,0.004192008329741656
1746728840308918500,0.72691845703125,-0.11100421398282051,-0.013868759080348535,0.00658434682637453
1746728840318936600,0.7369365234375,-0.10591711997687817,-0.01948499152692966,0.0019294884915463625
1746728840328954400,0.746954345703125,-0.1027741457760334,-0.017148831063788384,-0.005420454146154225
1746728840338972700,0.75697265625,-0.10337269619107246,-0.01081185572776012,-0.009085899584833532
1746728840348990500,0.766990478515625,-0.10337328071296215,-0.011832558811316266,-0.007455046979989856
1746728840359008500,0.777008544921875,-0.112202483856678,-0.015367053080396726,-0.00011962605798617005
1746728840369025500,0.787025634765625,-0.10427110633552074,-0.02380240720147267,-0.005215213897638023
1746728840379043600,0.797043701171875,-0.10726678102016449,-0.016481060470594094,-0.0012968348775058984
1746728840389061400,0.807061279296875,-0.10427870512008666,-0.013697265837807207,-0.002266867219749838
1746728840399079700,0.81707958984375,-0.0999374610453844,-0.013705412611644714,-0.0008478672672994434
1746728840409097500,0.827097412109375,-0.11310790826380253,-0.015783780655125156,-0.00792480164989829
1746728840419115500,0.837115478515625,-0.10263386052250861,-0.016344428478879854,-0.0049958355259150265
1746728840429133300,0.84713330078125,-0.10278349812626839,-0.009177112399088218,0.0025495018197223543
1746728840439151600,0.857151611328125,-0.10861761110723019,-0.017467139765340835,-0.007385434076189994
1746728840449169400,0.86716943359375,-0.09620061260461807,-0.018581960006291046,-0.007238719081878662
1746728840459186400,0.8771865234375,-0.10458324102461337,-0.020995487421425058,-0.00376753583997488
1746728840469204500,0.88720458984375,-0.1162590657711029,-0.017003504308965058,-0.0010604688383638859
1746728840479222500,0.897222412109375,-0.11102116511762142,-0.014362972338078542,-0.0039021585376933215
1746728840489240300,0.907240234375,-0.10473521671593189,-0.012491260182065889,-0.004934698189515621
1746728840499258600,0.917258544921875,-0.10428455033898353,-0.015656245285319163,-0.004554010042548179
1746728840509276400,0.9272763671875,-0.10592997945845127,-0.020501557291485367,-0.006600877836067229
1746728840519294500,0.93729443359375,-0.10683072769045829,-0.01635613718298264,-0.004374726219195872
1746728840529312300,0.947312255859375,-0.10204583150148391,-0.017213356800517065,-0.003934855230897665
1746728840539330600,0.95733056640625,-0.1095318033427,-0.016355634859483686,-0.006627236120030283
1746728840549347300,0.967347412109375,-0.1078852051794529,-0.01975632841475308,-0.007191117080487311
1746728840559365600,0.97736572265625,-0.10669336504638194,-0.008662733136164023,0.0008403415479697287
1746728840569383400,0.987383544921875,-0.10609656819701194,-0.007883346261503174,-0.0005666391731239855
1746728840579402000,0.997402099609375,-0.11357552577555179,-0.012953160339081659,-0.0038956557316705584
1746728840589419800,1.007419677734375,-0.10279928021728992,-0.020485236344346774,-0.001554426367767155
1746728840599438000,1.01743798828125,-0.09636310968995093,-0.0123863567691762,-0.002821249699499458
1746728840609455900,1.027455810546875,-0.0978589012056589,-0.022474556131195277,-0.0017321392885409294
1746728840619474000,1.037473876953125,-0.10324702398478984,-0.008711221053544431,-0.004695537405088544
1746728840629491000,1.047490966796875,-0.11222586473226547,-0.01533544323258102,-0.003036171091813594
1746728840639509000,1.057509033203125,-0.10220131432414055,-0.014354962561558932,0.0003752447868697345
1746728840649526800,1.06752685546875,-0.10474573810994625,-0.017172266738303004,-0.004332074387557804
1746728840659544800,1.077544921875,-0.10684183360636233,-0.01632300209836103,-0.01496286532683298
1746728840669563000,1.08756298828125,-0.1135790329068899,-0.008053834857046603,-0.008808507415559143
1746728840679581000,1.097580810546875,-0.10205459932982922,-0.006946923927916213,-0.010840195906255394
1746728840689599000,1.107598876953125,-0.0960685106575489,-0.017147114030737428,0.00014474223293364048
1746728840699617000,1.117616943359375,-0.10729425354897976,-0.013472864231094717,-0.0009826908944174646
1746728840709635000,1.127635009765625,-0.10220949763059616,-0.013922781689371912,-0.0045470688451081515
1746728840719651800,1.13765185546875,-0.09996551809608936,-0.012632778411451726,-0.004749185554776341
1746728840729670100,1.147670166015625,-0.11014321323931217,-0.017501690488914028,-0.009759067872352898
1746728840739688000,1.15768798828125,-0.10565233156085013,-0.017847106393100692,-0.0021645210901275274
1746728840749706000,1.1677060546875,-0.11433014353513717,-0.011065519961575046,0.0007372282333672046
1746728840759723800,1.177723876953125,-0.10684592525959015,-0.012726685506291687,0.0021997202676720916
1746728840769742000,1.1877421875,-0.10399930365681648,-0.014918615193152799,0.0008651837282814085
1746728840779759900,1.197759765625,-0.10474573810994625,-0.023561483718222007,0.004171056873258203
1746728840789778000,1.20777783203125,-0.10040449403524399,-0.020523577327048403,0.00048098844997584815
1746728840799795000,1.217794921875,-0.10414251151978969,-0.011904902528319506,0.008361896159220486
1746728840809813000,1.22781298828125,-0.10818681847453117,-0.010660692887194454,-0.002563859138637781
1746728840819830800,1.237830810546875,-0.10998773041665554,-0.01583660682090558,-0.006000774784758686
1746728840829849000,1.24784912109375,-0.1125339077681303,-0.012306313802907243,-0.005627995949611067
1746728840839867000,1.257866943359375,-0.11163900475502013,-0.01527621472547762,-0.004846636313572526
1746728840849885000,1.267885009765625,-0.10685469308793544,-0.01648424794152379,0.0011696283012628554
1746728840859903000,1.277903076171875,-0.10490998876094818,-0.019196383843896908,-0.0057408086743205786
1746728840869921000,1.287921142578125,-0.10521218657791614,-0.01472108332705684,-0.012907321036513894
1746728840879938800,1.297938720703125,-0.10117197127640247,-0.015891387481754646,-0.006748195618577301
1746728840889956000,1.3079560546875,-0.1055102927416563,-0.01681976350620389,-0.0005917736143805086
1746728840899974000,1.317973876953125,-0.11000292798578738,-0.011585643978696316,0.0016645174124278127
1746728840909992000,1.327991943359375,-0.10656067857742309,-0.016151773717300966,-0.009415898724179715
1746728840920009700,1.338009765625,-0.1088040735900402,-0.015587591362744568,-0.006831544786784797
1746728840930028000,1.348028076171875,-0.10835749886631965,-0.00674909980087541,-0.0008061835500411689
1746728840940045800,1.3580458984375,-0.10835866791009903,-0.010736562001844868,-0.0005285356524400412
1746728840950063900,1.36806396484375,-0.09549217207431793,-0.02108012436442077,-0.00975503101805225
1746728840960082000,1.37808203125,-0.10417056857049464,-0.01628205816661939,0.00015168343037366867
1746728840970100000,1.388099853515625,-0.10791033962070941,-0.0060682779298629605,-0.0022366730108857153
1746728840980116700,1.39811669921875,-0.1008738651126623,-0.01910065011815168,-0.003154116649366915
1746728840990135000,1.408135009765625,-0.11419336541295051,-0.019310758338030427,-0.00697583036199212
1746728841000152800,1.41815283203125,-0.11553893480300903,-0.015508342980919404,-0.0028800124157220123
1746728841010171000,1.4281708984375,-0.10805588557124138,-0.02237337904535234,0.0008625533797778188
1746728841020189000,1.43818896484375,-0.10431436095535755,-0.017530998781789094,-0.0027369506832212206
1746728841030207000,1.44820703125,-0.1047650273323059,-0.01432704250817187,-0.0017428250793367623
1746728841040225000,1.45822509765625,-0.10716098255813121,-0.013882878937246277,0.0007368446408770978
1746728841050242800,1.468242919921875,-0.11209960800409316,-0.014722014908818528,-0.002170822966750711
1746728841060259800,1.478259765625,-0.09803308872878551,-0.010491930457856506,0.0008519406542181968
1746728841070278000,1.48827783203125,-0.10461363616287708,-0.014630537233082577,0.002069700679834932
1746728841080296000,1.4982958984375,-0.10251754066646099,-0.023451328741479663,-0.0037022155188024043
1746728841090314000,1.50831396484375,-0.11194646326899528,-0.013638037330703809,-0.002097191474959254
1746728841100332000,1.51833203125,-0.1131435640990734,-0.011235679763555526,0.0010538381681777537
1746728841110349800,1.528349853515625,-0.1101508120238781,-0.008652166076377034,0.001162577505968511
1746728841120368000,1.5383681640625,-0.11494213795363903,-0.016580520523386075,-0.006304287775978446
1746728841130386000,1.548385986328125,-0.10147592265903949,-0.012209392767073586,-0.0037867337307892737
1746728841140404000,1.558404052734375,-0.11045593245029449,-0.011237789522251114,0.008362608545273542
1746728841150421000,1.5684208984375,-0.10028291348218918,-0.012183573339227587,-0.0029150654627941547
1746728841160439000,1.57843896484375,-0.10746493394076824,-0.013325957440538331,0.000264276959374547
1746728841170456800,1.588456787109375,-0.08965747457146644,-0.016639401970617473,-0.00494779513310641
1746728841180475000,1.598474853515625,-0.11240355938673019,-0.014453938557161018,-0.0032213731992989775
1746728841190493000,1.608492919921875,-0.10970891347527503,-0.011105788039881735,-0.008238525507878512
1746728841200511000,1.618510986328125,-0.10252864658236503,-0.012166540006035937,-0.008072484758589417
1746728841210528800,1.62852880859375,-0.10761632511019706,-0.009718114807456732,-0.006862195653375237
1746728841220547000,1.638547119140625,-0.11150748732984066,-0.011426306964829564,-0.004604753849096596
1746728841230563800,1.648563720703125,-0.0963911667406559,-0.012078697325801475,-0.008554952779598534
1746728841240582000,1.658581787109375,-0.0995364790290594,-0.02042076540654525,-0.005963109655492007
1746728841250600000,1.668599853515625,-0.09415127885937691,-0.017618220407515765,-0.0029951814942993224
1746728841260618000,1.678617919921875,-0.09699497785270214,-0.018891272550635038,-0.001341368138976395
1746728841270635800,1.6886357421875,-0.10357669433057308,-0.013820654755458234,-0.0084315273293294
1746728841280654000,1.698654052734375,-0.11135901876986026,-0.010111187511961906,-0.0029057679114863275
1746728841290671900,1.708671875,-0.10776596271395683,-0.017010098446533083,-0.008529434745851903
1746728841300690000,1.71868994140625,-0.10283142892122268,-0.012359322631778195,0.000011745236720889806
1746728841310708000,1.7287080078125,-0.11165946302115917,-0.007195363997342065,0.0027011487174779174
1746728841320725000,1.73872509765625,-0.10462708016633987,-0.014675874212151392,0.0022223887572064994
1746728841330742800,1.74874267578125,-0.10133329931795597,-0.006309164880495518,-0.008774203287158161
1746728841340760800,1.7587607421875,-0.1092658458828926,-0.007223713308991864,-0.008545289902109652
1746728841350779000,1.76877880859375,-0.11270400363802908,-0.017946986571000887,-0.010087660505902022
1746728841360797000,1.778796875,-0.10627192476391792,-0.017097785863140598,-0.00774812990874052
1746728841370815000,1.78881494140625,-0.09549801729321479,-0.01813747677495703,0.0011615545926615596
1746728841380833000,1.7988330078125,-0.10537351461946963,-0.015644828842161222,-0.0010097432981245218
1746728841390851000,1.80885107421875,-0.10402502261996269,-0.009994009139388799,-0.0021447204111143944
1746728841400868900,1.818868896484375,-0.10192834260165691,-0.011663558919960633,-0.014350560381077229
1746728841410886000,1.828885986328125,-0.11779168216586113,-0.01818886903547682,-0.006769165341369807
1746728841420904000,1.838904052734375,-0.1089654016315937,-0.01699172253962606,-0.0029877836391329765
1746728841430922000,1.848921875,-0.10462532660067081,-0.013597486124606803,-0.010617876658774911
1746728841440939800,1.858939697265625,-0.10043956534862518,-0.010528170815017075,0.0003871909529902041
1746728841450958000,1.8689580078125,-0.10163841974437236,-0.006308635157532989,0.005091331789642572
1746728841460975900,1.878975830078125,-0.09939677829742431,-0.014856244880892336,0.0003881773336790502
1746728841470994000,1.888993896484375,-0.09999708227813243,-0.014141612071823328,0.003451364296581596
1746728841481012000,1.899011962890625,-0.11152151585519313,-0.008823832848854362,-0.001705835803505033
1746728841491029000,1.909029052734375,-0.11510931121408939,-0.006151426168670877,0.00023218305436894295
1746728841501046800,1.919046875,-0.11256605647206305,-0.008541170849418267,-0.0029431590461172163
1746728841511065000,1.929065185546875,-0.11151742420196532,-0.010973302500322461,-0.0024628464495763183
1746728841521083000,1.939082763671875,-0.10193711043000221,-0.006266476516239345,0.008345547812618315
1746728841531101000,1.949100830078125,-0.09999123705923557,-0.009684477399336174,-0.0017891301727853714
1746728841541119000,1.959118896484375,-0.10612930142283439,-0.018968858698336408,-0.0021527393207885323
1746728841551137000,1.969136962890625,-0.09491115731596945,-0.013803621422266587,-0.012736348383780568
1746728841561154800,1.97915478515625,-0.09700725281238555,-0.01141146558872424,-0.005703563670162112
1746728841571172900,1.9891728515625,-0.10314590169787406,-0.01724294822118245,0.001229687925428152
1746728841581190000,1.99918994140625,-0.10434475609362125,-0.008499076140206306,0.005012786660715938
1746728841591208000,2.0092080078125,-0.10179916326403617,-0.009575208338582887,-0.008532978409808128
1746728841601225700,2.019225830078125,-0.10494213746488093,-0.008778724198648705,-0.0011193959513679146
1746728841611244000,2.029244140625,-0.11197393579781055,-0.015143007666710763,-0.006691789256222546
1746728841621262000,2.039261962890625,-0.10135141949653625,-0.011387381460238247,-0.0054187188467942175
1746728841631279900,2.04927978515625,-0.10733750816881656,-0.017235687363333998,0.003287899096868932
1746728841641298200,2.059298095703125,-0.11078034209907055,-0.016069885853817686,-0.006939736135303974
1746728841651316000,2.06931591796875,-0.11287468402981757,-0.005770765421167016,-0.006920830505434424
1746728841661333000,2.0793330078125,-0.09581365911364555,-0.0065998366564512245,-0.004469985020905733
1746728841671351000,2.08935107421875,-0.10987959386706352,-0.015496579477889462,-0.0011427037617191672
1746728841681369000,2.099369140625,-0.11332125875353813,-0.011312754454603419,-0.007882423812896012
1746728841691387000,2.109386962890625,-0.10778349837064742,-0.011941161151789129,-0.0055826955031603575
1746728841701405000,2.119405029296875,-0.10972644913196564,-0.009476990394806489,0.0004466295226477086
1746728841711423000,2.129423095703125,-0.10613163951039313,-0.004806039441702887,-0.0040689116730354725
1746728841721441000,2.13944091796875,-0.10493220059275626,-0.013394693561503662,-0.008741543126571922
1746728841731458800,2.149458740234375,-0.10238368515372276,-0.01596785025144927,0.0017825908341445027
1746728841741477000,2.15947705078125,-0.10268120679557323,-0.015484331917669623,-0.002540441730432212
1746728841751494000,2.169493896484375,-0.10956395204663276,-0.011319439923716708,-0.00805239181863144
1746728841761512000,2.179511962890625,-0.09923954190909862,-0.006793103339383378,-0.0080582005049102
1746728841771530000,2.189530029296875,-0.10328092625439167,-0.009514628124609589,0.0014530118199065326
1746728841781548000,2.199548095703125,-0.11868950778841972,-0.01457225857404992,0.0024707009624689814
1746728841791565800,2.20956591796875,-0.1121025306135416,-0.01050411408599466,0.00037416707463562484
1746728841801584000,2.219584228515625,-0.08830489091873168,-0.009336358081409707,-0.005550236271973699
1746728841811602000,2.229601806640625,-0.10655950953364372,-0.014959495192812755,-0.009282792130112648
1746728841821620000,2.239619873046875,-0.0917465558052063,-0.012519235034380108,-0.005417641134560108
1746728841831637000,2.249636962890625,-0.11284721150100231,-0.008069635214377193,-0.0024712672180496153
1746728841841655000,2.259655029296875,-0.10776187106072901,-0.018003913523163644,0.003008826427161693
1746728841851672800,2.2696728515625,-0.11045300984084605,-0.017473341177264227,0.0025407339913770554
1746728841861691000,2.27969091796875,-0.0998328316271305,-0.013899857471510768,0.0027889365987852216
1746728841871709000,2.289708984375,-0.1179407352477312,-0.010981732401950285,-0.0005573416218161583
1746728841881727000,2.29972705078125,-0.10507365489006042,-0.012538122397940605,-0.007930080613214522
1746728841891745000,2.3097451171875,-0.1194394493728876,-0.011119213777035473,-0.0037476255631074306
1746728841901763000,2.31976318359375,-0.0934019217967987,-0.011709115094738081,-0.014037201849278062
1746728841911781000,2.329781005859375,-0.1031271969974041,-0.01383018063562922,-0.0006857720407657324
1746728841921798000,2.3397978515625,-0.09744038353264331,-0.014004596487618983,-0.0043497561747208235
1746728841931816000,2.34981591796875,-0.10791443127393723,-0.012762770599825307,0.005127846141438931
1746728841941834000,2.359833984375,-0.10776537819206713,-0.013509707376454025,0.0033561968264169987
1746728841951852000,2.36985205078125,-0.11001403390169143,-0.01661392046948895,-0.002477313366346061
1746728841961870000,2.3798701171875,-0.09519932660758494,-0.012528276857361197,0.004976107912138104
1746728841971888000,2.38988818359375,-0.1011836617141962,-0.01890288992319256,-0.006062240914721042
1746728841981906000,2.399906005859375,-0.11150690280795096,-0.014921930528245865,-0.00685087054176256
1746728841991924000,2.409924072265625,-0.11988894670605658,-0.0043473815545439715,-0.005564867585524916
1746728842001942000,2.41994189453125,-0.10806699148714542,-0.012804965773737057,-0.009182236098777502
1746728842011959000,2.429958984375,-0.10776654723584651,-0.011044066181592642,-0.006354355729091912
1746728842021976800,2.439976806640625,-0.10896481710970402,-0.013763919599540531,-0.002366199408378452
1746728842031995100,2.4499951171875,-0.0959469301044941,-0.008963743643043563,-0.006588675941620022
1746728842042013000,2.460012939453125,-0.1146510460525751,-0.01592530801766552,0.003956336410343647
1746728842052031000,2.470031005859375,-0.10507365489006042,-0.009105910326400771,-0.005875376573111862
1746728842062049000,2.480049072265625,-0.10492460180819034,-0.016833673300547525,-0.010054890747461468
1746728842072067000,2.490067138671875,-0.10148293692171573,-0.013823367302352561,-0.006921268896851688
1746728842082084900,2.5000849609375,-0.1109089369148016,-0.008931731936428695,-0.009582140402868389
1746728842092102100,2.51010205078125,-0.10432429782748222,-0.006583588774548843,-0.0010407046919688582
1746728842102120000,2.520119873046875,-0.10536942296624183,-0.00580661305268295,-0.003083846158441156
1746728842112138000,2.530137939453125,-0.1089613099783659,-0.01126717088036239,-0.0012910261912271379
1746728842122156000,2.540156005859375,-0.10432195973992348,-0.013968173467367886,0.0007423062672838568
1746728842132174000,2.550174072265625,-0.10028466704785824,-0.008303206508234143,0.0006698986181989312
1746728842142191900,2.56019189453125,-0.10881459498405456,-0.009442275274451822,-0.0045710342425853015
1746728842152210000,2.5702099609375,-0.11091419761180878,-0.010763997998042032,-0.0011724595791660249
1746728842162228000,2.58022802734375,-0.1127121869444847,-0.013299736153893172,-0.00006857172418385743
1746728842172246000,2.59024609375,-0.1088210247248411,-0.011113085430348292,-0.0037979127119295297
1746728842182262800,2.6002626953125,-0.1019376949518919,0.0018637480452656744,-0.008544851510692387
1746728842192281000,2.610281005859375,-0.114804190787673,-0.003084905604366213,-0.0041257746931165455
1746728842202299000,2.620298828125,-0.10373042358756064,-0.012294595965649932,-0.00546193693401292
1746728842212317000,2.63031689453125,-0.10657704519033431,-0.009913135056057945,-0.00726942474739626
1746728842222335000,2.6403349609375,-0.09639876552522182,-0.016707918895874172,-0.0008763444431126117
1746728842232353000,2.65035302734375,-0.10283376700878143,-0.010872499873815104,-0.003806516143493354
1746728842242371000,2.66037109375,-0.10178630378246306,-0.015368002928467467,-0.010447050136514008
1746728842252388900,2.670388916015625,-0.10373159263134002,-0.01395709495092742,0.0009495375434868037
1746728842262406000,2.680406005859375,-0.0972971756696701,-0.009998119058925658,-0.008960263911169022
1746728842272424000,2.690423828125,-0.10807342122793197,-0.003753014124277979,0.0042842349241487675
1746728842282441700,2.700441650390625,-0.10807283670604229,-0.016845171942096202,-0.0005018303086049854
1746728842292460000,2.7104599609375,-0.10567688148021698,-0.015706678564613684,0.0050978163293562825
1746728842302478000,2.72047802734375,-0.10388239927887916,-0.008234561718814074,0.000259929577820003
1746728842312495900,2.730495849609375,-0.10462883373200893,-0.017136948829749598,-0.0031587562918663024
1746728842322514200,2.74051416015625,-0.10867255616486073,-0.017252729829680173,0.0014079671017825602
1746728842332532000,2.750531982421875,-0.10493629224598407,-0.011608887856965884,-0.003176474611647427
1746728842342550000,2.760550048828125,-0.11032324598133564,-0.009777261116169392,0.0005823847315274179
1746728842352567000,2.770567138671875,-0.1064297456741333,-0.014382955680182203,-0.007420943780988455
1746728842362585000,2.780585205078125,-0.10059387912750244,-0.007270959117356687,-0.007085702210944145
1746728842372603000,2.790602783203125,-0.10358955381214618,-0.01167205275367014,-0.0022266630735248327
1746728842382621000,2.800620849609375,-0.10329027860462665,-0.007385479741962626,-0.0018010032736696302
1746728842392639000,2.810638916015625,-0.10075170003771781,-0.018595541007071732,-0.0030739458189345896
1746728842402657000,2.820656982421875,-0.11347089635729789,-0.019572989470791072,-0.0035053960387594995
1746728842412674800,2.8306748046875,-0.10554302596747875,-0.007366674576792865,-0.005619593447446823
1746728842422693000,2.840693115234375,-0.1034492685586214,-0.009685007122298701,-0.00659959919443354
1746728842432711000,2.8507109375,-0.10748831481635569,-0.0019522391794715075,-0.002238554440718144
1746728842442728000,2.86072802734375,-0.1100374147772789,-0.00893375036357902,0.006707936673425138
1746728842452746000,2.87074609375,-0.10854220778346062,-0.005962305937893688,-0.0024842545637860894
1746728842462764000,2.880763916015625,-0.10016659362614154,-0.01333009475953877,-0.002456836833897978
1746728842472781800,2.89078173828125,-0.11677695216536521,-0.005789479254791513,-0.009809957809373736
1746728842482800000,2.900800048828125,-0.11304068824648857,-0.017583112561516463,0.0030380525216460227
1746728842492818000,2.91081787109375,-0.10855331369936466,-0.01575632639261894,-0.007702957326453179
1746728842502836000,2.9208359375,-0.1087041203469038,-0.012514887652825563,-0.006893047449365258
1746728842512853800,2.930853759765625,-0.1013753848940134,-0.008873517209477723,-0.013605112308636307
1746728842522871000,2.94087109375,-0.10870470486879348,-0.012181180452741682,-0.011974807693064212
1746728842532888800,2.950888916015625,-0.11379004530906676,-0.004715904339682311,-0.005895871371868998
1746728842542907000,2.960906982421875,-0.11109423035383224,-0.014904659733036531,-0.0025755495764315127
1746728842552925000,2.970925048828125,-0.12007424014508723,-0.004023108903085813,-0.002878551110997796
1746728842562943000,2.98094287109375,-0.10481120456159114,-0.013724811431858688,-0.008904204608686267
1746728842572960800,2.990960693359375,-0.10391454798281193,-0.012016993733821436,-0.005543550802860409
1746728842582979000,3.00097900390625,-0.11004910521507262,-0.008909145645285025,-0.003438084689900279
1746728842592997000,3.0109970703125,-0.10915069507062435,-0.00571503491224721,-0.0028146190293133256
1746728842603015000,3.021014892578125,-0.09972235698997974,-0.009772493609506636,-0.007167937134299427
1746728842613032000,3.031031982421875,-0.11019757377505301,-0.010021372070349753,-0.009320804319251329
1746728842623050000,3.041050048828125,-0.11124620604515074,-0.012606657589506357,-0.004826287645287811
1746728842633068000,3.051068115234375,-0.1101987428188324,-0.008159414123371242,-0.0013537892291322349
1746728842643086000,3.061086181640625,-0.10167232201397418,-0.013028746325941755,0.0005017024444416165
1746728842653104000,3.071104248046875,-0.10855798987448215,-0.006157106990786269,-0.002975271217431873
1746728842663122000,3.081121826171875,-0.10571604444682597,-0.01521929690646939,-0.0040661169277504084
1746728842673140000,3.091139892578125,-0.10960662214457988,-0.008420914603769779,-0.012474573908746242
1746728842683158000,3.101157958984375,-0.10736030452251434,-0.012208260255912318,-0.0003843231424689293
1746728842693175000,3.111175048828125,-0.10137012419700622,-0.004409834065195173,-0.007216543782688677
1746728842703192800,3.12119287109375,-0.10182312866151333,-0.01451473796684295,-0.010201971067953855
1746728842713211100,3.131211181640625,-0.11214929236471652,-0.009910075449291617,-0.004886822193488479
1746728842723229000,3.14122900390625,-0.10631576390564441,-0.007384557293355465,-0.006338847632706165
1746728842733247000,3.1512470703125,-0.11439736355245113,-0.020470714628649873,-0.011204188646748662
1746728842743265000,3.16126513671875,-0.11335106936991214,-0.009983944403100757,-0.007443977596703916
1746728842753283000,3.171282958984375,-0.10198036504983901,-0.014877159804757683,0.0011377718582749367
1746728842763300900,3.18130078125,-0.09659282679259777,-0.004586460140580311,-0.004559544734191149
1746728842773319000,3.19131884765625,-0.1121545530617237,-0.007635545512894168,-0.0011106646556407213
1746728842783336000,3.2013359375,-0.1057195515781641,-0.013190229631122201,-0.008262911030463874
1746728842793354000,3.21135400390625,-0.10826280632019042,-0.013755261369049549,-0.010175119593646377
1746728842803372000,3.2213720703125,-0.10227905573546886,-0.015779999529151247,-0.0075342314297333355
1746728842813390000,3.23139013671875,-0.09658990418314933,-0.01764278859319165,-0.0022976824831217528
1746728842823407900,3.241407958984375,-0.10840952131450175,-0.008609057587012648,-0.000706102442741394
1746728842833426000,3.251426025390625,-0.10810790801942348,-0.017788626804668455,-0.007209620851557701
1746728842843444000,3.26144384765625,-0.10211948125958442,-0.005084536722674966,-0.00005951163489371538
1746728842853462000,3.2714619140625,-0.10436229175031185,-0.007701258559711277,0.001040595094114542
1746728842863478800,3.281478759765625,-0.10795184067487716,-0.014462487189797684,-0.009669617756921798
1746728842873497000,3.2914970703125,-0.1119932250201702,-0.0053053307333495465,-0.005529193483944982
1746728842883515000,3.301514892578125,-0.10152151536643504,-0.01562182242590934,-0.0055422721612267195
1746728842893533000,3.311532958984375,-0.11124445247948168,-0.017523226467287167,-0.006349350760411471
1746728842903551000,3.321551025390625,-0.10091887329816818,-0.010300015481794253,-0.00891238791514188
1746728842913569000,3.331569091796875,-0.1067559088885784,-0.014497494571097193,-0.008735789239220321
1746728842923587000,3.341587158203125,-0.10121873302757739,-0.011581634523859246,-0.005104300869069993
1746728842933604900,3.35160498046875,-0.11423837359845637,-0.009392910574236885,0.001722732139378786
1746728842943623200,3.361623046875,-0.1149824699640274,-0.01773567277472466,-0.0045929720797576006
1746728842953640000,3.371639892578125,-0.11558335846662521,-0.006749656923301517,-0.0011577552003785966
1746728842963657700,3.38165771484375,-0.09673018943667411,-0.004560165788698941,-0.00911127148810774
1746728842973676000,3.391676025390625,-0.09942015917301178,-0.006564792742533609,-0.006989420495927334
1746728842983694000,3.401694091796875,-0.10690496197044849,-0.007534633288532495,-0.009617029053159058
1746728842993711900,3.4117119140625,-0.10825111588239669,-0.013961323601473122,-0.010936221892945467
1746728843003730200,3.421730224609375,-0.10511106429100037,-0.004505923983966932,-0.005430993806477636
1746728843013748000,3.431748046875,-0.10346738873720168,-0.013160912205092608,-0.016050076041650027
1746728843023766000,3.44176611328125,-0.09508885197043418,-0.01990379232773557,-0.002198277229256928
1746728843033783800,3.45178369140625,-0.0950882674485445,-0.009822351500065997,-0.004834324821271002
1746728843043801000,3.461801025390625,-0.10571370635926723,-0.014576295428350566,-0.01145315843913704
1746728843053819000,3.47181884765625,-0.10645838724672793,-0.012071281204326078,-0.0048773785117082295
1746728843063837000,3.4818369140625,-0.10256605598330497,-0.005857612587558105,-0.004344824271276593
1746728843073855000,3.49185498046875,-0.11319032585024832,-0.01359992467686534,-0.007219612522609531
1746728843083873000,3.501873046875,-0.09328969359397887,-0.010492925971699879,-0.008774787809047847
1746728843093890800,3.511890869140625,-0.10960311501324176,-0.013467840996105223,0.0012888707667589186
1746728843103909000,3.5219091796875,-0.10496493381857872,-0.00982412333204411,-0.017576445358712226
1746728843113927000,3.531927001953125,-0.10347148039042948,-0.010288398109236731,-0.009191040459740906
1746728843123944000,3.54194384765625,-0.10406886176168918,-0.016475324849551543,-0.002557849522959441
1746728843133962000,3.5519619140625,-0.10975450618267059,-0.008550048275617882,-0.0029892449438571928
1746728843143980000,3.56197998046875,-0.11080138488709926,-0.003946417804528027,-0.0032814693560823797
1746728843153997800,3.571997802734375,-0.10960194596946239,-0.008866238085320218,-0.0027942886273376643
1746728843164016000,3.58201611328125,-0.10062018261253833,-0.014075725495070218,-0.005680913446936756
1746728843174034000,3.592033935546875,-0.1067559088885784,-0.016440125672006978,-0.007692399399820715
1746728843184052000,3.602052001953125,-0.1060071363478899,-0.009633660527551546,-0.008396656945347785
1746728843194069800,3.61206982421875,-0.09926993704736232,-0.015597637832723558,-0.0016183401831425725
1746728843204088000,3.622088134765625,-0.0967260977834463,-0.012494100593123584,-0.006875274330656975
1746728843214104800,3.632104736328125,-0.1015145011037588,-0.013324514402123167,-0.001148421116452664
1746728843224123000,3.642122802734375,-0.11483166331648825,-0.012821314120339228,-0.009091397743858396
1746728843234141000,3.652140869140625,-0.10570435400903225,-0.012987893725745379,-0.000742854256555438
1746728843244159000,3.662158935546875,-0.10824760875105857,-0.008134928136086092,0.0032735052453354
1746728843254176800,3.6721767578125,-0.10510463455021381,-0.0069979965280275785,0.0053771447273902595
1746728843264195000,3.682195068359375,-0.10660451771914958,-0.019850564303155988,-0.006894947145506739
1746728843274213000,3.692213134765625,-0.10660627128481864,-0.01189998889118433,-0.0013529489789158105
1746728843284231000,3.70223095703125,-0.09478840771913528,-0.01137555402512662,0.002023267722222954
1746728843294248000,3.712248046875,-0.10346972682476042,-0.011360785714257507,-0.0031520525564439593
1746728843304266000,3.722265869140625,-0.11214695427715778,-0.014494553695339708,-0.004480415083374828
1746728843314284000,3.732283935546875,-0.10451602100729941,-0.006736715243337675,-0.015971220385469494
1746728843324302000,3.742302001953125,-0.11424012716412543,-0.012532496374752372,-0.00988141561038792
1746728843334320000,3.752320068359375,-0.10780571020245551,-0.009235710718529298,0.00150004756571725
1746728843344338000,3.762337890625,-0.11064824015200138,-0.02025694401380606,-0.0030912805462256073
1746728843354356000,3.77235595703125,-0.09793021287620067,-0.010803325361432506,-0.007170786678511649
1746728843364374000,3.7823740234375,-0.1079547632843256,-0.010481144202360883,-0.011622614988218993
1746728843374392000,3.79239208984375,-0.1022726259946823,-0.011917195754311978,-0.0057258485672064124
1746728843384408800,3.802408935546875,-0.11214929236471652,-0.009398993255151436,-0.003004259849898517
1746728843394427100,3.81242724609375,-0.10436989053487777,-0.016175382921751587,-0.0004825958851724863
1746728843404445000,3.82244482421875,-0.1043687214910984,-0.005206628732383251,-0.004372589061036706
1746728843414463000,3.832462890625,-0.09718494746685027,-0.011883649677736684,-0.004900247930642217
1746728843424481000,3.84248095703125,-0.11050035611391067,-0.011761922994209452,0.0007239668929949402
1746728843434499000,3.8524990234375,-0.10975509070456027,-0.013353795295534654,-0.0035560302474536
1746728843444516900,3.862516845703125,-0.10346738873720168,-0.005230365800997242,-0.005739566565304994
1746728843454535000,3.872534912109375,-0.09987433268129825,-0.013771774112433193,0.000028130115941166878
1746728843464552000,3.882552001953125,-0.10271920071840286,-0.009487776650302112,-0.003947349386289716
1746728843474570000,3.892570068359375,-0.10930325528383254,-0.005896035768650471,-0.004261219374742359
1746728843484588000,3.902588134765625,-0.11543664347231387,-0.011844431912200524,-0.006762333741784096
1746728843494606000,3.912606201171875,-0.10450900674462318,-0.007983984491229057,-0.00518171348683536
1746728843504623900,3.922623779296875,-0.10525777928531169,-0.01642412438527681,-0.01638480615504086
1746728843514642000,3.932641845703125,-0.10870236678123474,-0.004836114919558167,-0.011554719117470085
1746728843524660000,3.942659912109375,-0.10960253049135207,-0.003555619255499914,-0.007282887017168105
1746728843534678000,3.952677978515625,-0.10272504593729972,-0.010648655389528722,-0.013917356595583259
1746728843544695800,3.96269580078125,-0.10527122328877449,-0.009984245797200128,-0.005611172678973525
1746728843554713000,3.972713134765625,-0.10916355455219745,-0.00838132237889804,-0.005245188910793513
1746728843564731000,3.98273095703125,-0.10048574257791042,-0.013541061495942993,-0.008010141845792532
1746728843574749000,3.9927490234375,-0.10796586920022964,-0.010182818842912092,-0.0031812969172373413
1746728843584766700,4.0027666015625,-0.11095803675353526,-0.015539276975300163,-0.009883223974984139
1746728843594784500,4.012784423828125,-0.09973580099344254,-0.005193385658320039,-0.0018752558199688792
1746728843604802600,4.022802490234375,-0.11170797833800315,-0.011364174114586784,-0.009658804101962596
1746728843614820600,4.032820556640625,-0.10153028319478034,-0.01667492080857046,0.00018712006993591785
1746728843624838700,4.042838623046875,-0.0974888988494873,-0.012431492818845435,-0.005741374929901212
1746728843634856700,4.052856689453125,-0.09240355840921402,-0.01382372349537909,-0.006740542035084217
1746728843644873700,4.062873779296875,-0.10497487069070338,-0.0064931522784288966,-0.00017405965896323322
1746728843654891500,4.0728916015625,-0.09734218385517597,-0.005680995645327493,-0.006238072405662387
1746728843664909600,4.08290966796875,-0.09928513461649417,-0.012137898433441296,-0.0022515783190727233
1746728843674927600,4.092927734375,-0.10990765091776847,-0.007470335880666971,-0.0052182461049407715
1746728843684945700,4.102945556640625,-0.10586451300680637,-0.011498020494170487,-0.009742810857295989
1746728843694963700,4.112963623046875,-0.10691080718934536,-0.013781893647648393,-0.007450133342854678
1746728843704981500,4.1229814453125,-0.09838497090637684,-0.012204141203220933,-0.005773541900143027
1746728843714999600,4.13299951171875,-0.10048048188090324,-0.00733666303101927,-0.00921226591086015
1746728843725016600,4.1430166015625,-0.1118541088104248,-0.009639405281748623,-0.003434833286888897
1746728843735034600,4.15303466796875,-0.09838847803771496,-0.011645310877216979,-0.008785455333534628
1746728843745052700,4.163052734375,-0.1158972467213869,-0.01140367500791326,-0.010350932818278669
1746728843755070700,4.17307080078125,-0.10556932945251464,-0.014918761323625221,-0.012799221019539982
1746728843765088500,4.183088623046875,-0.10945990715026854,-0.006799688343796879,-0.0064127531191334125
1746728843775106600,4.1931064453125,-0.09928864174783229,-0.008403050153516233,0.005617839881777763
1746728843785124600,4.20312451171875,-0.10871464174091815,-0.016286907871672883,-0.0023921193009242415
1746728843795142700,4.213142578125,-0.11155658716857432,-0.018226433700043707,0.00004709054473787546
1746728843805160400,4.223160400390625,-0.09928922626972198,-0.014436211104225367,-0.006933397726062685
1746728843815177700,4.233177734375,-0.1142506485581398,-0.0006942658744752407,0.0010725976675748825
1746728843825195500,4.243195556640625,-0.10781681611835955,-0.01775644156811759,0.006803926127497107
1746728843835213600,4.253213623046875,-0.1051227547287941,-0.008460689491732046,-0.008143832961749285
1746728843845231600,4.263231689453125,-0.09973346290588378,-0.018178311108844353,-0.0063941032175906
1746728843855249700,4.273249755859375,-0.10062953496277331,-0.003782943471660837,-0.011301219280436633
1746728843865267500,4.283267333984375,-0.10960486857891082,-0.007419391144718975,-0.005356887390650809
1746728843875285500,4.293285400390625,-0.10616671082377434,-0.013373312846757471,-0.008415800037235022
1746728843885303600,4.303303466796875,-0.09778642049133777,-0.01103145329519175,-0.009696103905048221
1746728843895320600,4.313320556640625,-0.09838380186259746,-0.015515996564412488,-0.013845369071606545
1746728843905338600,4.323338623046875,-0.10616495725810528,-0.01198630633461289,-0.007293298813328146
1746728843915356700,4.333356689453125,-0.10542086089253425,-0.01992575756437145,-0.010446447348315268
1746728843925374500,4.34337451171875,-0.10228022477924824,-0.012533875481085852,0.0017722521032206714
1746728843935392500,4.353392578125,-0.10198153409361839,-0.010060772498976439,-0.006903678441233933
1746728843945410600,4.36341064453125,-0.10527414589822291,-0.00880921066845767,-0.010359207456279546
1746728843955428600,4.3734287109375,-0.0971931307733059,-0.01164683611402288,-0.001116893467027694
1746728843965446700,4.38344677734375,-0.09674187987446785,-0.0014961203092709182,0.000019124825578182933
1746728843975464700,4.393464599609375,-0.10482347952127456,-0.008130215428350494,-0.005070069805905223
1746728843985481500,4.4034814453125,-0.10078326421976089,-0.008009739986993373,-0.008512501877360046
1746728843995499500,4.41349951171875,-0.1003337668865919,-0.011878708641137927,-0.003992503702268004
1746728844005517600,4.423517578125,-0.11948854921162128,-0.011705918490653857,-0.01376472331713885
1746728844015535600,4.43353564453125,-0.12233166368305683,-0.013256910792319103,-0.00505985893914476
1746728844025553700,4.4435537109375,-0.11050620133280753,-0.015760317581146953,0.004364186558872461
1746728844035571500,4.453571533203125,-0.10257307024598121,-0.014007336433976888,0.0015961100850254296
1746728844045589800,4.46358984375,-0.10421791484355926,-0.014665014891419558,-0.006678619247395545
1746728844055607600,4.473607666015625,-0.10301906044781207,-0.0009405961852055043,0.0009587985621765256
1746728844065625600,4.48362548828125,-0.10571312183737754,-0.012850101823406294,-0.007419263280555605
1746728844075642600,4.493642578125,-0.11513970635235309,-0.009179578350810333,-0.004423442465439438
1746728844085660700,4.50366064453125,-0.10092004234194756,-0.013849661654233932,-0.010175631050299852
1746728844095678500,4.513678466796875,-0.10376374133527279,-0.01409139798823744,-0.013001173332426697
1746728844105696800,4.52369677734375,-0.11064824015200138,-0.0063680463277269155,-0.007935560505930334
1746728844115714600,4.533714599609375,-0.10271861619651317,-0.011354849163815378,-0.0030116759713739154
1746728844125732600,4.543732666015625,-0.10062544330954551,-0.013421599834738299,-0.005711436449363828
1746728844135750700,4.553750732421875,-0.10316869805157183,-0.010665843986347318,-0.002955397473182529
1746728844145768700,4.563768798828125,-0.10930676241517066,-0.014273613554192707,-0.005177567034680396
1746728844155785500,4.573785400390625,-0.09494213697612285,-0.013488491058489307,-0.011936284047272056
1746728844165803800,4.5838037109375,-0.10137713845968246,-0.006969702015304937,-0.014833028402086347
1746728844175821600,4.593821533203125,-0.09733809220194815,-0.0033202030644286424,0.0016160568945109844
1746728844185839600,4.603839599609375,-0.10482231047749518,-0.00729707080614753,0.002281407201755792
1746728844195857400,4.613857421875,-0.101833065533638,-0.013100414189510046,-0.0006258768133819103
1746728844205875700,4.623875732421875,-0.10856675770282745,-0.011971419292734936,-0.005485062081273645
1746728844215893500,4.6338935546875,-0.1042290207594633,-0.007219950449327006,-0.007596957935020327
1746728844225911600,4.64391162109375,-0.1039285765081644,-0.010158186725154518,-0.007441255916655063
1746728844235929600,4.6539296875,-0.09884089798033237,-0.01186880830163136,-0.003884440217912197
1746728844245946600,4.663946533203125,-0.10557634371519088,-0.005900337484432384,-0.00755275346711278
1746728844255964400,4.67396435546875,-0.103183311098814,-0.008189790995325893,-0.004265932082477957
1746728844265982700,4.683982666015625,-0.10677519811093807,-0.008966766717191784,-0.004526884573604911
1746728844276000500,4.69400048828125,-0.09914543388485908,-0.008062374356528743,-0.011030622178129851
1746728844286018600,4.7040185546875,-0.10079670822322367,-0.015449708128860219,-0.007840100774820894
1746728844296036600,4.71403662109375,-0.10199205548763275,-0.014596662362944334,-0.003907382702082396
1746728844306054700,4.7240546875,-0.10977321088314056,-0.009628345031617209,-0.00029646219592541456
1746728844316072700,4.73407275390625,-0.11261515631079673,-0.013009137443173675,0.001359013393521309
1746728844326089700,4.74408984375,-0.10588146414160728,-0.005275437918584793,-0.001725947009772062
1746728844336107500,4.754107421875,-0.0964519570171833,-0.012593743309006094,-0.0010400471048429608
1746728844346125600,4.76412548828125,-0.10348375535011291,-0.005247152539016678,-0.0020914558539167046
1746728844356143600,4.7741435546875,-0.10482757117450237,-0.014993735389132052,-0.006210983469337224
1746728844366161700,4.78416162109375,-0.10512450829446315,-0.011787568892119451,-0.012381032140087336
1746728844376179700,4.7941796875,-0.11455401541888713,-0.009925766208767891,-0.00846270791888237
1746728844386197500,4.804197509765625,-0.11934475682675838,-0.006898609540471807,-0.002562617029622197
1746728844396215600,4.814215576171875,-0.10767185468971728,-0.014991324236337094,-0.0008755955244414508
1746728844406233600,4.824233642578125,-0.10034078114926814,-0.008622930848738178,0.0017998707625083625
1746728844416250600,4.834250732421875,-0.10767419277727604,-0.01096952137434855,-0.004674439818132668
1746728844426268700,4.8442685546875,-0.11261340274512767,-0.010994792812922968,-0.007282466892059892
1746728844436286700,4.85428662109375,-0.11021920108497142,-0.01561896374854259,-0.0053147104830481105
1746728844446304500,4.864304443359375,-0.09840016847550868,-0.0093499756148085,-0.0051158634427003555
1746728844456322600,4.874322509765625,-0.10453647927343845,-0.006497782787773757,-0.005469042528234422
1746728844466340600,4.884340576171875,-0.10708148758113384,-0.0070886704861652106,0.0029299159720540045
1746728844476358700,4.894358642578125,-0.10483575448095798,-0.009686696755886078,-0.01314032607479021
1746728844486376400,4.90437646484375,-0.11022212369441986,-0.018877929011872036,-0.005909717234130948
1746728844496393700,4.914393798828125,-0.11261749439835547,-0.015806677473522723,-0.008619286720082163
1746728844506411500,4.92441162109375,-0.09780746327936649,-0.01152137397029437,0.0012725589527748525
1746728844516429600,4.9344296875,-0.0988525884181261,-0.004134067597426474,-0.0011578282656148076
1746728844526447600,4.944447509765625,-0.1130693298190832,-0.010535175944538787,-0.006953399334475398
1746728844536465700,4.954465576171875,-0.10304302584528922,-0.013735597687354311,-0.006156641199905425
1746728844546483500,4.9644833984375,-0.10932897424697875,-0.00399814799176529,0.004773991202469915
1746728844556501500,4.97450146484375,-0.11336685146093368,-0.019889855133928356,0.0018760230049490927
1746728844566519600,4.98451953125,-0.09391337845027446,-0.01042576075331308,0.0033241942529566586
1746728844576537600,4.99453759765625,-0.1206990940451622,0.0023808307219296693,-0.010275200700946152
1746728844586555000,5.004554931640625,-0.09062485829889774,-0.010081860952777787,-0.03760826624659821
1746728844596572700,5.01457275390625,-0.11396540187597275,-0.0078108290145639326,-0.0008022928262129426
1746728844606590700,5.0245908203125,-0.09241934050023555,-0.006570089972158894,-0.001992488991469145
1746728844616608500,5.0346083984375,-0.12024901219010352,-0.01791743168295361,-0.006108125883061438
1746728844626626800,5.044626708984375,-0.1006476551413536,-0.002128244200348854,0.005333086389955133
1746728844636644600,5.05464453125,-0.10618366195857525,-0.0033096542709507046,-0.017681531434692442
1746728844646662700,5.06466259765625,-0.09496376428604125,-0.008108880379376933,-0.010935527773201465
1746728844656680700,5.0746806640625,-0.10513386064469814,-0.005965721737686544,0.00086154873277992
1746728844666697700,5.08469775390625,-0.09765081141293049,-0.008274455337785184,0.0031451296253129837
1746728844676715500,5.094715576171875,-0.10887596978247165,-0.01570420347973704,-0.006963354472909122
1746728844686733800,5.10473388671875,-0.10797872868180275,-0.008860082339169456,-0.013005137121491133
1746728844696751600,5.114751708984375,-0.09690613052546977,0.0013849789518397301,-0.016575141095370054
1746728844706769700,5.124769775390625,-0.09750058928728103,-0.010963886218005791,-0.002528367700148374
1746728844716787500,5.134787353515625,-0.10662029981017113,-0.008655554476706311,0.004673124643880874
1746728844726805800,5.1448056640625,-0.11185761594176291,-0.014353071998571975,-0.000526818619389087
1746728844736823800,5.15482373046875,-0.10228256286680698,-0.01032561571393162,0.001259790802747011
1746728844746841600,5.164841552734375,-0.11575053172707557,-0.001061637882143259,-0.008498838678188621
1746728844756858600,5.174858642578125,-0.10482815569639205,-0.009613786783302202,-0.007658497130218893
1746728844766876700,5.184876708984375,-0.10168284340798854,-0.012862020590063184,0.001549165670759976
1746728844776894500,5.19489453125,-0.09674597152769565,-0.016923516141623258,-0.0010414353443309664
1746728844786912800,5.204912841796875,-0.12592471973896027,-0.010045090872654691,-0.007518321474548429
1746728844796930800,5.214930908203125,-0.10333002609312533,-0.003118223352078348,-0.016344474144652486
1746728844806948600,5.224948486328125,-0.10302724375426768,-0.007896224009385331,-0.017339019873645157
1746728844816966700,5.234966552734375,-0.10138006106913089,-0.005904812730150297,-0.0006545366522856057
1746728844826984700,5.244984619140625,-0.11020575708150863,-0.011610203031217679,0.006937946037016808
1746728844837002800,5.255002685546875,-0.0949397988885641,-0.014269439702574162,0.006718786861002445
1746728844847019800,5.265019775390625,-0.12127660167217254,-0.005302535988064482,-0.010374660753738135
1746728844857037800,5.275037841796875,-0.10376958655416965,-0.006837225608900189,-0.01176503739990294
1746728844867055600,5.2850556640625,-0.11439268737733363,-0.00941871173577383,-0.006204334532842039
1746728844877073700,5.29507373046875,-0.09209609989523887,-0.00986916805016808,-0.002060823253635317
1746728844887091700,5.305091796875,-0.11334580867290496,-0.0037332317115738984,-0.003995225382316858
1746728844897109800,5.31510986328125,-0.1040676927179098,-0.0053771173279266804,-0.01335420628748834
1746728844907127600,5.32512744140625,-0.10855798987448215,-0.007778817307949066,-0.012585669600404798
1746728844917145900,5.335145751953125,-0.10122866989970207,-0.010212026671087369,-0.005645166280120611
1746728844927162600,5.34516259765625,-0.10751286473572254,-0.012895630598720162,0.00382565923538059
1746728844937180700,5.3551806640625,-0.11080080036520958,-0.00679840970216319,0.012266794643271713
1746728844947198700,5.36519873046875,-0.09673194300234317,-0.007001019602175801,-0.0006543357228860259
1746728844957216800,5.375216796875,-0.11348726297020911,-0.008414521395601332,-0.00804766084458679
1746728844967234600,5.385234619140625,-0.09852174902856349,-0.008380628259154036,-0.009950115198735147
1746728844977252600,5.395252685546875,-0.09972001890242099,-0.01685119069092907,-0.005051602567452937
1746728844987270700,5.405270751953125,-0.10750000525414943,-0.011049390810681506,-0.008521452368795871
1746728844997288700,5.415288818359375,-0.1040589248895645,-0.025736909794853997,-0.005119023514166474
1746728845007306500,5.425306396484375,-0.09912146848738193,-0.013818992521334438,-0.01248056525811553
1746728845017323800,5.43532373046875,-0.10675298627912998,-0.001897924309503287,-0.007623462349455803
1746728845027341600,5.445341552734375,-0.10046820692121981,-0.00964978054529056,0.0013540632237680256
1746728845037359600,5.455359619140625,-0.11154138959944247,-0.012609571065800265,-0.00176015980662778
1746728845047377700,5.465377685546875,-0.11034136615991592,-0.004829182855272666,-0.001115834021102637
1746728845057395700,5.475395751953125,-0.10211071343123912,-0.015779195811552925,-0.0075158189902082085
1746728845067413500,5.48541357421875,-0.10660042606592178,-0.010065119880530982,-0.00889213057840243
1746728845077431600,5.495431640625,-0.10704700078964233,-0.014809419197635725,-0.004042133263964205
1746728845087449900,5.505449951171875,-0.09851356572210788,-0.013906652538478373,0.0032613764161244035
1746728845097467600,5.515467529296875,-0.10225216772854327,-0.016558527887286616,-0.0016195274932309985
1746728845107484700,5.525484619140625,-0.0986608652383089,-0.0035082912487443534,-0.008282656910549848
1746728845117502700,5.535502685546875,-0.11975976736843585,-0.006753511114511638,-0.009403240172006189
1746728845127520500,5.5455205078125,-0.10299977122545241,-0.005348685817886144,-0.008024079039599745
1746728845137538600,5.55553857421875,-0.10704174009263515,-0.005180407445738092,-0.0044996129741892215
1746728845147556900,5.565556884765625,-0.09881284092962742,-0.00962466437034309,0.005146788303926586
1746728845157574700,5.57557470703125,-0.10733984625637531,-0.003607532105827704,0.006851619460433721
1746728845167592700,5.5855927734375,-0.10120295093655586,-0.004941219261847436,-0.006532671438064426
1746728845177610800,5.59561083984375,-0.10464403130114078,-0.008914461141219363,-0.011779029392637311
1746728845187627800,5.605627685546875,-0.11422200698554515,-0.010500908348755911,-0.014205872947070746
1746728845197645600,5.6156455078125,-0.11078209566473961,-0.003456908121379092,-0.0027051307728514075
1746728845207663900,5.625663818359375,-0.10375263541936874,-0.007588847693800926,-0.0026672464478760954
1746728845217681700,5.635681640625,-0.10390285754501818,-0.008532028561737388,-0.0007580518256872892
1746728845227699700,5.64569970703125,-0.10375555802881717,-0.017671539763640613,-0.0028247020319104193
1746728845237717500,5.655717529296875,-0.10150924040675163,-0.009153621925646439,-0.005886866081506014
1746728845247735800,5.66573583984375,-0.09537643674015998,-0.007733398130489513,0.0016814868135377765
1746728845257753600,5.675753662109375,-0.1019587377399206,-0.007588043976202607,0.006236227508448064
1746728845267771600,5.685771728515625,-0.11108370895981788,-0.01277275313772261,0.0006196114693768322
1746728845277788700,5.69578857421875,-0.10419687205553055,-0.017705012774979694,0.0025253172265365716
1746728845287806700,5.705806640625,-0.10434884774684905,-0.00781799854086712,-0.0086411332257092
1746728845297824500,5.715824462890625,-0.10330489165186882,-0.00979121657628566,-0.0036612076549790797
1746728845307842800,5.7258427734375,-0.10659691893458366,-0.010427833979390561,-0.004809446108341216
1746728845317860600,5.735860595703125,-0.09582359598577021,-0.010176854893006383,0.00173484270228073
1746728845327878700,5.745878662109375,-0.09716858085393905,-0.01314728553853929,-0.00019119345685467124
1746728845337896700,5.755896728515625,-0.10749357551336287,-0.00795653022872284,-0.00501455849269405
1746728845347914800,5.765914794921875,-0.10330430712997912,-0.0022827497754711657,0.0042976058623753486
1746728845357932500,5.7759326171875,-0.0941775823444128,-0.01008320352649316,-0.005620908621698618
1746728845367949800,5.78594970703125,-0.10255845719873904,-0.018304321241844446,-0.0014876812744885682
1746728845377967600,5.795967529296875,-0.09073650197982787,-0.015312509881565347,0.002677713042963296
1746728845387985700,5.805985595703125,-0.10749416003525257,-0.005899086242262274,-0.007146108894981443
1746728845398003500,5.81600341796875,-0.10674188036322593,-0.01100881220512092,-0.0002468509005382657
1746728845408021800,5.826021728515625,-0.10659399632513522,-0.0034193617231212553,0.003997252942621708
1746728845418039800,5.836039794921875,-0.10180617752671241,-0.012474564775591715,-0.0040771132458001375
1746728845428057600,5.8460576171875,-0.11138532225489615,-0.01119395038052462,-0.009960581793822348
1746728845438076000,5.856075927734375,-0.10075988334417342,-0.010012741239322349,-0.0031239224405027926
1746728845448092700,5.8660927734375,-0.10315233143866062,-0.005012384801916778,-0.0034846089790575205
1746728845458110500,5.8761103515625,-0.10584873091578482,-0.0019144735855050384,-0.0008692205825820565
1746728845468128800,5.886128662109375,-0.11602233440577983,-0.010878198962239547,0.011036102070845663
1746728845478146800,5.896146728515625,-0.10464870747625828,-0.011199338941695168,-0.00015288900677114725
1746728845488164600,5.90616455078125,-0.09881634806096554,-0.00942234673127532,0.004245820876210928
1746728845498182700,5.9161826171875,-0.09807108265161514,-0.012767099715070798,-0.0018359832555055618
1746728845508200700,5.92620068359375,-0.11079320158064365,-0.009234258546959608,-0.011628752468060702
1746728845518218800,5.93621875,-0.09268822056949139,-0.014492279539862646,0.005217825979832559
1746728845528236500,5.946236572265625,-0.12710486943423746,-0.005659870658908039,0.0040276846135035155
1746728845538253800,5.95625390625,-0.0805704972743988,-0.011065775689901783,-0.006294369170162827
1746728845548271600,5.966271728515625,-0.12411620901226997,-0.010506461306707933,-0.0014222148228436708
1746728845558289700,5.97628955078125,-0.08730185135602951,-0.010674931475101039,-0.007466134629584849
1746728845568307700,5.9863076171875,-0.11393559125959872,-0.016400241186190396,-0.004111198178492486
1746728845578325800,5.99632568359375,-0.09074117815494537,-0.008233356142416597,0.00035414719991385936
1746728845588344000,6.006343994140625,-0.1173743335366249,-0.004187925809668377,-0.004679408254195005
1746728845598362000,6.016362060546875,-0.09043781129419803,-0.006973565339669585,-0.002558598441630602
1746728845608380200,6.026380126953125,-0.10944120244979857,-0.007615644369181245,-0.004927501263748854
1746728845618398200,6.036398193359375,-0.0904348886847496,-0.012862321984162553,-0.0039386546231806275
1746728845628415200,6.046415283203125,-0.10629296755194663,-0.0077354622234124685,-0.0005501264297403395
1746728845638433300,6.056433349609375,-0.10688801083564757,-0.013618145320145412,-0.005006886642891914
1746728845648451000,6.066451171875,-0.10539455740749835,0.00024250351898372173,-0.008077069602161646
1746728845658469000,6.07646923828125,-0.1030003557473421,-0.012204259934229775,-0.005696549407485872
1746728845668487200,6.086487060546875,-0.11138006155788897,-0.012421199753694236,-0.0015170900320634244
1746728845678505200,6.096505126953125,-0.10763795242011547,-0.01192260258179158,0.008351612227223812
1746728845688523300,6.106523193359375,-0.10165361731350421,-0.0144523037225008,0.002178092957753688
1746728845698541000,6.116541015625,-0.09806582195460796,-0.0045768885946366935,0.0026365225160494446
1746728845708558000,6.12655810546875,-0.10075929882228374,-0.015524380800267681,-0.004273603932280093
1746728845718576000,6.136576171875,-0.11153554438054561,-0.009735486067365854,-0.008715276174154131
1746728845728594200,6.14659423828125,-0.09208031780421733,-0.006888079013302922,-0.0015118293350562452
1746728845738612200,6.1566123046875,-0.10794365736842154,-0.010855503073241561,-0.003782459414470941
1746728845748630300,6.16663037109375,-0.09268646700382233,-0.000053109293570742005,-0.007025752184633165
1746728845758648000,6.17664794921875,-0.10570493853092193,-0.009907828693278133,-0.005951474016625434
1746728845768666400,6.186666259765625,-0.10645488011538982,-0.006148658822849392,-0.004775653436593711
1746728845778684200,6.19668408203125,-0.11498480805158615,-0.013497532881470396,-0.005546656075399369
1746728845788702200,6.2067021484375,-0.09508242222964763,-0.009381220136443153,-0.005046177473664284
1746728845798719200,6.21671923828125,-0.10480711290836334,-0.01023087750202976,0.002620539495628327
1746728845808737300,6.2267373046875,-0.09163958829939364,-0.0050507440509274595,-0.009399440779723227
1746728845818755000,6.236755126953125,-0.10839783087670803,-0.002410120748495683,-0.0010000986869446932
1746728845828773400,6.2467734375,-0.09343114789128303,-0.0066638052707538005,-0.006890216171462089
1746728845838791200,6.256791259765625,-0.1106388878017664,-0.012555320127913728,0.004793992810882628
1746728845848809200,6.266809326171875,-0.10150748684108257,-0.01021207233686,-0.0007752404225058853
1746728845858827000,6.276826904296875,-0.10494739816188811,-0.012413737966446205,-0.011214362980891018
1746728845868845300,6.28684521484375,-0.0935802009731531,-0.015001334173697978,-0.0006068615856580435
1746728845878863000,6.296863037109375,-0.10300737001001835,-0.006671340123238042,-0.009016323213651777
1746728845888880000,6.306880126953125,-0.1161760636627674,-0.0100184768603649,-0.010933481946587562
1746728845898898200,6.316898193359375,-0.10944237149357795,-0.008631242019357159,0.0022439430018886923
1746728845908916200,6.326916259765625,-0.09791735339462757,-0.02194222108647227,-0.005780830157455057
1746728845918934000,6.33693408203125,-0.10315408500432968,-0.02086495637693442,-0.008587503342330455
1746728845928952300,6.346952392578125,-0.10195523060858248,-0.014433251962158828,-0.0005676255538128316
1746728845938970000,6.35697021484375,-0.10285071814358233,-0.009334029127005487,-0.0016613208083435893
1746728845948988200,6.36698828125,-0.10733809269070625,-0.005818495286721736,-0.008813567183166742
1746728845959006000,6.377005859375,-0.1043465096592903,-0.008493377051781862,-0.0024160664320923386
1746728845969024300,6.387024169921875,-0.11018179168403149,-0.012367652068706228,0.0039488472236320375
1746728845979041000,6.397041015625,-0.10329787738919258,-0.008620300500234589,0.0005537431589327752
1746728845989059300,6.407059326171875,-0.09970599037706851,-0.0052967181686311956,-0.0027019707013852894
1746728845999077000,6.4170771484375,-0.10868483112454413,-0.013558880280423909,0.007128427107818424
1746728846009095200,6.42709521484375,-0.09162731333971023,-0.006030320539651439,-0.01039899147739634
1746728846019113000,6.437113037109375,-0.10374620567858218,-0.01252466012816876,0.0012168467101640998
1746728846029131300,6.44713134765625,-0.08608779939115047,0.0010356814569793642,-0.0017448709059506653
1746728846039149300,6.4571494140625,-0.1273866089850664,-0.013486965821683405,0.001210197773668915
1746728846049167000,6.4671669921875,-0.09745791918933391,-0.01320848680702038,-0.006915515009500086
1746728846059185200,6.47718505859375,-0.10882803898751735,-0.011849135486781596,0.0010205934857018292
1746728846069202200,6.4872021484375,-0.1004512557864189,-0.006602156477700918,-0.010400799841992556
1746728846079220200,6.49722021484375,-0.10628478424549102,-0.010662647382263093,-0.009117299370095134
1746728846089238300,6.50723828125,-0.11960486906766891,-0.013122872616490349,-0.007981007082853465
1746728846099256300,6.51725634765625,-0.0926701003909111,-0.019934863319434223,-0.0003896569047123193
1746728846109274000,6.527274169921875,-0.11825637706816196,-0.01006334804855287,0.005959036268573254
1746728846119292200,6.537292236328125,-0.09072481154203414,-0.00968708948153071,0.004715429415646941
1746728846129310200,6.547310302734375,-0.11407120033800601,-0.004952617438696324,-0.002235887559596449
1746728846139328300,6.557328369140625,-0.09715981302559375,0.00034654841534793374,-0.009058627985417842
1746728846149345300,6.56734521484375,-0.10613047046661377,-0.011956513984547928,-0.004541114028356969
1746728846159363300,6.57736328125,-0.09505670326650142,-0.008341684488253667,-0.0006778992615640163
1746728846169381000,6.587381103515625,-0.11226502769887446,-0.008472343396907672,-0.003565254733525216
1746728846179399200,6.597399169921875,-0.11181669940948485,-0.01372806283487007,-0.004499850436206907
1746728846189417200,6.607417236328125,-0.1103203233718872,-0.01510572612993419,-0.010793032296281308
1746728846199435300,6.617435302734375,-0.10193711043000221,-0.004569207611680031,-0.0027432890924625098
1746728846209453000,6.627453125,-0.10477964037954807,-0.0014239501222036777,-0.002729918154235929
1746728846219471000,6.63747119140625,-0.09908931978344916,-0.016134119329601525,0.0013227730363607406
1746728846229489200,6.6474892578125,-0.09923661929965019,-0.004755240836227312,-0.00350296661965549
1746728846239506200,6.657506103515625,-0.09699088619947432,-0.016647704008081927,-0.010533577642496674
1746728846249524200,6.667524169921875,-0.1080593927025795,-0.0016759247224312275,-0.0062762307252734895
1746728846259542300,6.677542236328125,-0.1222761341035366,-0.012445448278961702,0.00001777311870828271
1746728846269560000,6.68756005859375,-0.09458967027664184,-0.00988219192852266,-0.01016757560800761
1746728846279578000,6.697578125,-0.09593757775425911,-0.016379673322197048,0.004587327790260315
1746728846289596200,6.70759619140625,-0.1079109241425991,-0.013193572365678845,-0.009415131539199501
1746728846299614200,6.7176142578125,-0.11808861928582191,-0.015348238782072438,-0.007972001792490482
1746728846309632000,6.727632080078125,-0.1082119529157877,-0.011480466571170836,0.005952551728859543
1746728846319650000,6.737650146484375,-0.0996849475890398,-0.012314652372989803,-0.0010042268727906048
1746728846329667000,6.7476669921875,-0.10148059883415698,-0.010114155787182971,0.0022721096504479646
1746728846339685000,6.75768505859375,-0.10237433280348777,-0.009361611253675073,-0.0012088460667990146
1746728846349703200,6.767703125,-0.10955518421828746,-0.004567992902128026,-0.006356785148195922
1746728846359721200,6.77772119140625,-0.11269815841913222,-0.012477715713903307,-0.006929342605452984
1746728846369739300,6.7877392578125,-0.11015315011143684,-0.015206583555368705,0.000006922931130975484
1746728846379757000,6.797757080078125,-0.09787702138423919,-0.012831908579589798,0.002319766450766474
1746728846389775400,6.807775390625,-0.10385726483762264,-0.011448290467774494,-0.002976184532884508
1746728846399793200,6.817793212890625,-0.10415478647947311,-0.007367268231837079,-0.0022768954234197733
1746728846409811200,6.827811279296875,-0.10834113225340843,-0.0030373036029748618,-0.004076035533566028
1746728846419828200,6.837828125,-0.10849135437905788,-0.0034534740552771837,0.004896905196085572
1746728846429846300,6.84784619140625,-0.11193126569986343,-0.0056383986126165835,-0.004585829952917992
1746728846439864000,6.857864013671875,-0.10848667820394038,-0.014582661237055435,-0.004910166536457836
1746728846449882400,6.86788232421875,-0.10324819302856922,-0.0045690432148985565,-0.0017183116925880311
1746728846459900200,6.877900146484375,-0.10265022713541984,-0.011162258334318175,-0.011686565336212516
1746728846469918200,6.887918212890625,-0.10983049402832984,-0.012459942595195025,0.001792271977942437
1746728846479936000,6.89793603515625,-0.09531623098552226,-0.01224053682400845,-0.002002024004794657
1746728846489954300,6.907954345703125,-0.11162614527344702,-0.01668005364141427,-0.0009686441027559339
1746728846499972000,6.91797216796875,-0.10444412481486796,-0.007739736539730801,-0.002960877365898341
1746728846509989400,6.9279892578125,-0.10714052429199218,-0.010629329634550959,-0.004835037207324058
1746728846520007200,6.938007080078125,-0.09816109902262687,-0.009469272879231721,-0.008246124292444437
1746728846530025200,6.948025146484375,-0.10115794275104999,-0.007379917650856077,0.008772047862689942
1746728846540043000,6.95804296875,-0.09951309815347194,-0.00690366017492488,-0.0003920132585801184
1746728846550061300,6.968061279296875,-0.11058569630980492,-0.010508634997485205,-0.00290395954689011
1746728846560079000,6.9780791015625,-0.10086042110919952,-0.013590791522338986,-0.007421290840860456
1746728846570097200,6.98809716796875,-0.10909224288165568,-0.010528362611262127,0.012138090229686349
1746728846580115200,6.998115234375,-0.09667290629148483,-0.021377636873116716,0.0007710574377328157
1746728846590132200,7.00813232421875,-0.09502513908445835,-0.009402966177370398,-0.0031395584010519085
1746728846600150000,7.01814990234375,-0.10714052429199218,-0.005684466244047507,-0.0008864274457097053
1746728846610168300,7.028168212890625,-0.09995616574585438,-0.004099754335870966,-0.00877710763029754
1746728846620186000,7.03818603515625,-0.10623860701620579,-0.007302240171609446,-0.0026479572255164383
1746728846630204200,7.0482041015625,-0.09636369421184063,-0.016177839740319177,-0.0007714958291500806
1746728846640222000,7.058221923828125,-0.1014496191740036,-0.011327467966545372,-0.005310710161365568
1746728846650240300,7.068240234375,-0.10219488458335399,-0.011629090394778177,-0.0005423267157748341
1746728846660258300,7.07825830078125,-0.09979951387941836,-0.007044794811820611,-0.0012077318219467998
1746728846670276000,7.088276123046875,-0.11147416958212852,-0.006714110685884952,-0.0035079898546449837
1746728846680293000,7.098293212890625,-0.11027823779582976,-0.009432995989453047,0.0003796287010423839
1746728846690311200,7.108311279296875,-0.09980419005453586,-0.011443760423129425,-0.0030347097870893776
1746728846700329000,7.118328857421875,-0.09785831668376922,-0.009054262337554245,0.014050737184286117
1746728846710347300,7.12834716796875,-0.10563713399171828,-0.005697261793538928,0.006973090415634214
1746728846720365300,7.138365234375,-0.10862813250124453,-0.000769486535154283,-0.0032779256921261547
1746728846730383000,7.148383056640625,-0.10668342817425727,-0.008045523686427622,-0.00782420908594504
1746728846740401200,7.158401123046875,-0.09530804767906666,-0.009405295131774618,0.00007485533449798821
1746728846750419200,7.168419189453125,-0.10368658444583416,-0.011512697473494335,0.0023630576032213865
1746728846760437200,7.178437255859375,-0.10308861855268478,-0.011374540244974196,-0.001844970279559493
1746728846770454300,7.188454345703125,-0.11057166778445243,-0.013953606085898353,-0.0026663696650415657
1746728846780472300,7.198472412109375,-0.11296762301027774,-0.004273567399661987,-0.0017034063844010234
1746728846790490000,7.208489990234375,-0.09531213933229446,-0.008645882466062902,-0.00040361236482858653
1746728846800508200,7.218508056640625,-0.10278934334516525,-0.010145318110426887,-0.0016996800573542714
1746728846810526200,7.228526123046875,-0.10712357315719127,-0.011316809575213119,-0.0010050488566979766
1746728846820544300,7.238544189453125,-0.10532909095585345,-0.010353882827190682,-0.003880403363611549
1746728846830562000,7.24856201171875,-0.10697276650965214,-0.00440954180425033,-0.0015552300853654741
1746728846840580400,7.258580322265625,-0.10712357315719127,0.001011716059502214,0.005158697937428951
1746728846850598100,7.26859814453125,-0.1029307976424694,-0.008527882109582424,-0.005173511914070695
1746728846860615200,7.278615234375,-0.09515139581263064,-0.008814215637138113,0.0037967619344592093
1746728846870633200,7.28863330078125,-0.11550386348962784,-0.010836359981354326,-0.007327785604819655
1746728846880651300,7.2986513671875,-0.11101590442061424,-0.012362217841763048,0.00024354469859972594
1746728846890669000,7.3086689453125,-0.10817278994917869,-0.012802974746050312,-0.005003744837734848
1746728846900687000,7.31868701171875,-0.11176467696130275,-0.016082078615110365,0.005617858148086816
1746728846910705200,7.328705078125,-0.09934417132735252,-0.015731995668960733,0.004748253973014652
1746728846920723200,7.33872314453125,-0.11131459510624409,-0.018651810372108592,-0.0038766587702557444
1746728846930741000,7.348740966796875,-0.10847440324425697,-0.010816842430131509,0.0026122283250093457
1746728846940759300,7.35875927734375,-0.10054536381065846,-0.0016818704060278832,0.0047789413722231985
1746728846950776000,7.368776123046875,-0.09096797264814377,-0.01142068094164133,-0.008351740091387182
1746728846960794000,7.378794189453125,-0.09964403105676174,-0.00696060539339669,-0.0033059096775949
1746728846970812200,7.388812255859375,-0.1023380924463272,-0.014725275444984436,-0.0010953940212726592
1746728846980830200,7.398830322265625,-0.09949205536544323,-0.005775468995748087,0.0020229937275871635
1746728846990848000,7.408847900390625,-0.1035322706669569,-0.010301385454973205,0.0018674561060033738
1746728847000866000,7.418865966796875,-0.10532792191207409,-0.010201651407545432,0.006741601481009274
1746728847010884400,7.42888427734375,-0.08287877421677112,-0.008350799376470968,-0.002667465643584728
1746728847020902100,7.438902099609375,-0.13689619560837746,-0.005157967285066843,-0.0012625855480320751
1746728847030919200,7.448919189453125,-0.09110767337977886,-0.012445174284325912,-0.008017411836795508
1746728847040937200,7.458937255859375,-0.10726678102016449,-0.00973008837304078,-0.00479035781538114
1746728847050955300,7.468955322265625,-0.11819266418218612,-0.01622107609384693,-0.002216963663417846
1746728847060973000,7.47897314453125,-0.09993979913294315,-0.003344469856005162,-0.005341087033320218
1746728847070991400,7.488991455078125,-0.11460428430140018,-0.013444542318908497,-0.0036659568953327833
1746728847081009200,7.499009033203125,-0.1003863738566637,-0.005140851753484457,-0.002620795223955065
1746728847091027200,7.509027099609375,-0.09769523507654666,-0.010012805171404033,-0.003657974518276751
1746728847101045200,7.519045166015625,-0.11355389846563338,-0.009398527464270591,0.0019540018782950937
1746728847111063300,7.529063232421875,-0.12043430562913417,-0.011516496865777298,0.0016204773413017392
1746728847121081000,7.5390810546875,-0.09289689488410949,-0.006652754153776913,-0.0034764439389109608
1746728847131098400,7.549098388671875,-0.10666413895189761,-0.013915319902123883,-0.0038397060270421203
1746728847141116200,7.5591162109375,-0.1030704983741045,-0.012145734680024906,-0.006651420713216066
1746728847151134200,7.56913427734375,-0.09948270301520824,-0.010891679498320445,-0.0017668452757410703
1746728847161152000,7.579152099609375,-0.09604103812873363,0.0017198186630848794,-0.0026593371360562742
1746728847171170300,7.58917041015625,-0.10427169085741042,-0.012821213655639438,-0.011066278013400732
1746728847181188000,7.59918798828125,-0.10023147555589676,-0.020729621293162925,0.0019534721553325653
1746728847191206100,7.6092060546875,-0.12417524572312831,-0.011695689357584341,0.006395381859224289
1746728847201224200,7.61922412109375,-0.09544190319180489,-0.011850898185605183,-0.0038752887970767915
1746728847211242200,7.6292421875,-0.11339841564297676,-0.005827427511848509,0.0036202180574648082
1746728847221259000,7.639259033203125,-0.11295067187547683,-0.0035983076197560874,0.0020728790176101027
1746728847231277300,7.64927734375,-0.10696809033453464,-0.00987600878290832,0.004347673815488815
1746728847241295000,7.659295166015625,-0.09858896904587745,-0.015145263555878773,-0.003245448194630444
1746728847251313200,7.669313232421875,-0.11520049662888049,-0.0051695846576243635,-0.006618961482029408
1746728847261331200,7.679331298828125,-0.09440028518438338,-0.009846928818896412,-0.004598579836636782
1746728847271349200,7.689349365234375,-0.11564531778693199,-0.006741729345172643,0.0030677535401657224
1746728847281367000,7.699366943359375,-0.09948621014654636,-0.007687714091548696,0.0019944434865377843
1746728847291385000,7.709385009765625,-0.11160744057297706,-0.010977951275976373,0.003004862638097256
1746728847301402000,7.719402099609375,-0.10082885692715644,-0.0129527584802825,0.007528514074999839
1746728847311420200,7.729420166015625,-0.10935936938524246,-0.009371374595863744,-0.003129658061545342
1746728847321438000,7.73943798828125,-0.09125263480842113,-0.007140126678766683,0.0034755854223854836
1746728847331456300,7.749456298828125,-0.11070493877530098,-0.005963337984355166,0.0010861695352010429
1746728847341474300,7.759474365234375,-0.10486673414111136,-0.0014177487102802842,0.005541998166590929
1746728847351492000,7.7694921875,-0.09094809890389442,-0.00839837397839874,-0.005857603454403579
1746728847361510400,7.779510498046875,-0.11024550457000731,-0.014563572944095358,-0.006266841842420399
1746728847371528200,7.789528076171875,-0.10635609591603279,-0.007373844103096053,0.0070913647667504845
1746728847381546200,7.799546142578125,-0.10216448944509028,-0.0017966467589605598,0.0018212058114819227
1746728847391563300,7.809563232421875,-0.09737433255910873,-0.0055783755210693925,-0.0031168351125903425
1746728847401581300,7.819581298828125,-0.0994715970993042,-0.014344011909281834,-0.002520111328456551
1746728847411599000,7.82959912109375,-0.11039572669565677,-0.009522418705420569,-0.002381342178583145
1746728847421617200,7.8396171875,-0.10964636963307857,-0.012164439380494878,0.009211188198626041
1746728847431635200,7.84963525390625,-0.10051496867239475,-0.012407637019222602,0.004853632309939712
1746728847441653200,7.8596533203125,-0.10141337881684302,-0.004363200178183615,-0.0027623591191135344
1746728847451671000,7.869671142578125,-0.09961889661550521,-0.010551706954231485,-0.0019289222359657287
1746728847461689300,7.879689453125,-0.09602700960338115,-0.006958860960882157,0.0033265871394425627
1746728847471707100,7.88970703125,-0.11039046599864959,-0.005524763903999701,0.0017385324967093764
1746728847481725200,7.89972509765625,-0.11263561457693576,-0.014878739840490743,-0.0026698037311434744
1746728847491742200,7.9097421875,-0.1132306578606367,-0.004746527806809172,0.008089034034591167
1746728847501760300,7.91976025390625,-0.09692132809460162,-0.013524978010822086,0.00806603675149381
1746728847511778000,7.929778076171875,-0.10425181711316107,-0.013257157387491315,-0.0023494674692861733
1746728847521796400,7.93979638671875,-0.10230185208916663,-0.011311366215115413,-0.0077452986308373505
1746728847531814100,7.949814208984375,-0.10020400302708149,-0.020605867049330845,-0.00478111506300047
1746728847541832200,7.959832275390625,-0.10304711749851703,-0.008662787935091181,0.0009529533432796597
1746728847551850000,7.96985009765625,-0.10199906975030898,-0.014262215377343818,0.0033532742169685658
1746728847561868300,7.979868408203125,-0.10544131915867327,-0.0129451688288711,-0.0010449424756690858
1746728847571885000,7.989885009765625,-0.09990355877578258,-0.012367158878361805,0.007440433932747691
1746728847581903000,7.999903076171875,-0.09601298107802868,-0.013063899837713689,0.0002924984068609774
1746728847591921400,8.00992138671875,-0.10723404779434204,-0.011936959900707006,-0.0024607275577262044
1746728847601939500,8.019939453125,-0.1070832411468029,-0.008820736709469928,-0.0013556706589646637
1746728847611957200,8.029957275390625,-0.11142448522150517,-0.014866766274906695,0.007137962121143936
1746728847621975300,8.039975341796875,-0.11007540870010853,-0.004178098535398021,-0.0008946838174015283
1746728847631993600,8.04999365234375,-0.09959960739314555,-0.0072580905026290565,-0.004240231385640799
1746728847642011400,8.060011474609375,-0.10288812754452228,-0.00874017315339297,0.006522862430103123
1746728847652029400,8.070029541015625,-0.10962474232316016,-0.002160210241191089,0.005405256577022373
1746728847662047500,8.080047607421875,-0.11186872185766697,-0.010592860948527232,0.0021388751922175285
1746728847672064500,8.090064453125,-0.09809680161476135,-0.015330410864436999,0.004502809578273445
1746728847682082300,8.100082275390625,-0.0967483096152544,-0.00987255645049736,-0.006096471977885812
1746728847692100600,8.1101005859375,-0.09869301394224167,-0.006802967146271839,0.004974409145396203
1746728847702118400,8.120118408203124,-0.09465455220639706,-0.015753860440896824,0.006702968237362801
1746728847712136400,8.130136474609374,-0.09450666816830634,-0.008992567878728732,0.007692253269348293
1746728847722154500,8.140154541015624,-0.10184066431820392,-0.003603677914617583,-0.005985284954681992
1746728847732172500,8.150172607421876,-0.10662906763851641,-0.0057121305691078305,-0.009582816256303339
1746728847742190300,8.1601904296875,-0.10887246265113353,-0.006663065485237166,-0.006729618782270699
1746728847752208400,8.17020849609375,-0.11306640720963478,-0.011335222014738246,-0.0007052073935978114
1746728847762225400,8.180225341796875,-0.10109715247452258,-0.011757813074672593,0.0019177980537526309
1746728847772243500,8.190243408203125,-0.11336451337337493,-0.01420731598548591,0.0009641140581108629
1746728847782261200,8.20026123046875,-0.08703063319921493,-0.008244681254029274,0.0010185841917060316
1746728847792279600,8.210279541015625,-0.10064940870702266,-0.003013274273416027,-0.003919255802966654
1746728847802297300,8.22029736328125,-0.10289397276341915,-0.009155393757624551,-0.0059615935518406325
1746728847812315400,8.2303154296875,-0.10259411303400992,-0.00322314503127709,0.0038269196107052266
1746728847822333400,8.24033349609375,-0.10528758990168571,-0.009547799741849303,0.004182071457616985
1746728847832351500,8.2503515625,-0.11007774678766727,-0.009554923602379858,-0.00368895417843014
1746728847842369300,8.260369384765625,-0.10768763678073882,-0.00846766722179018,-0.006231423469167202
1746728847852386600,8.270386474609374,-0.10170797784924507,-0.011310288502881303,-0.00014063231339678166
1746728847862404400,8.280404296875,-0.11083820976614951,-0.005589033912401646,0.010112886278703808
1746728847872422400,8.29042236328125,-0.09767126967906951,-0.016137973520811647,0.004027081825304776
1746728847882440400,8.3004404296875,-0.10709843871593475,-0.01473385147708468,0.0007616137559525668
1746728847892458500,8.31045849609375,-0.10410919377207756,-0.01716526160878129,0.0029088001187890767
1746728847902476300,8.320476318359376,-0.10680383968353271,-0.011952458863938227,0.003948536696378142
1746728847912494300,8.330494384765625,-0.09049275635182857,-0.00788338279412128,0.007279507749993354
1746728847922512600,8.3405126953125,-0.10889876613616943,-0.014451006814558059,0.00830939878700301
1746728847932530400,8.350530517578125,-0.09633154550790786,-0.008628593404544516,-0.0009296820655465126
1746728847942547200,8.360547119140625,-0.10051906032562255,-0.020012668662844225,-0.006717654349841177
1746728847952565500,8.3705654296875,-0.1087473749667406,-0.002522604679642245,0.003605440613441169
1746728847962583600,8.38058349609375,-0.10605272905528544,-0.009502691091643646,0.0045713630361482495
1746728847972601300,8.390601318359375,-0.10081541292369366,-0.010684219893254339,-0.00006353022288531064
1746728847982619600,8.40061962890625,-0.1091957032561302,-0.012691431529819965,-0.001098389695957303
1746728847992637400,8.410637451171874,-0.1151829609721899,-0.009573089446732774,-0.005058726427983492
1746728848002655500,8.420655517578124,-0.11009469792246818,-0.00994199582436122,-0.002214351581223309
1746728848012673300,8.43067333984375,-0.10111059647798537,-0.016538243151083588,-0.00705569066517055
1746728848022691600,8.440691650390624,-0.10080722961723804,-0.012489059091825037,0.0019520656495355068
1746728848032708400,8.450708251953126,-0.09437281265556811,-0.014067615253850817,0.010200308833830059
1746728848042726400,8.460726318359375,-0.10828910980522632,-0.010203779432550072,0.005025408680271357
1746728848052744400,8.470744384765625,-0.10155366407036781,-0.007095027161715552,-0.009749825119972228
1746728848062762500,8.480762451171875,-0.10095628269910811,-0.01091365386811085,-0.0015275748934596776
1746728848072780300,8.4907802734375,-0.09975801282525062,-0.01403810603157617,0.014684979967214165
1746728848082798600,8.500798583984375,-0.10858429335951804,-0.005216227677790447,-0.0009264306625351309
1746728848092816400,8.51081640625,-0.09960837522149085,-0.00507082785773091,-0.0023754238944500685
1746728848102834400,8.52083447265625,-0.10305120915174483,-0.009337161799008026,-0.0010587152726948261
1746728848112852200,8.530852294921875,-0.10484978300631045,-0.0021498167113400994,-0.006198105721455067
1746728848122869500,8.540869384765625,-0.10066168366670608,-0.009873351034941151,0.0011507957366295159
1746728848132887300,8.55088720703125,-0.10290624772310257,-0.006766361462930217,0.0026087211936712262
1746728848142905600,8.560905517578124,-0.11083820976614951,-0.015174288720963523,0.005582768568396568
1746728848152923400,8.57092333984375,-0.11308394286632537,0.0026063191740307956,0.004627605001721531
1746728848162941400,8.58094140625,-0.09587561843395233,-0.001065446407580748,-0.00033763445653021333
1746728848172959200,8.590959228515626,-0.11024082839488983,-0.007092844337783753,0.0034420302126556635
1746728848182977500,8.6009775390625,-0.09991700277924537,-0.01216007373263128,-0.0007860358111560344
1746728848192995600,8.61099560546875,-0.10844751523733138,-0.00665691887224093,-0.0023330277911387384
1746728848203013400,8.621013427734376,-0.09602642508149146,-0.003924279037956148,0.005885678771417588
1746728848213031400,8.631031494140625,-0.1065033954322338,-0.0007228252486791461,-0.003370791607350111
1746728848223048400,8.64104833984375,-0.09707739543914794,-0.008444030617875978,-0.0010740041733719409
1746728848233066200,8.651066162109375,-0.11593407160043716,-0.003575840059621259,0.013628200923278927
1746728848243084500,8.66108447265625,-0.11189444082081318,-0.010671122949663549,-0.006198909439053386
1746728848253102600,8.6711025390625,-0.11039923382699489,-0.012662086704326793,0.001381901078764349
1746728848263120400,8.681120361328125,-0.0996282489657402,0.0000706906160339713,-0.0009967559523880482
1746728848273138400,8.691138427734375,-0.11175123295783997,-0.005616460775444284,0.0003235876648686826
1746728848283156500,8.701156494140625,-0.0984340707451105,-0.012981473118113353,0.0008757964538410306
1746728848293174500,8.711174560546874,-0.11100538302659987,-0.0165087887277361,0.004118212441168725
1746728848303192300,8.7211923828125,-0.10711655889451503,-0.009819693752098829,-0.002945588465221226
1746728848313209600,8.731209716796876,-0.10322364310920237,-0.015485135635267943,-0.005085230842418968
1746728848323227400,8.741227294921876,-0.0985825393050909,-0.0067430262531153855,0.003216075969673693
1746728848333245400,8.751245361328126,-0.10486264248788356,-0.006025306437816471,0.006708667325787246
1746728848343263500,8.761263427734375,-0.10441197611093521,-0.006850934473844245,0.005532591017428785
1746728848353281500,8.771281494140625,-0.10695406180918215,-0.0033551191141828894,0.006470091063249856
1746728848363299300,8.78129931640625,-0.10246610274016857,-0.014352597074536606,0.002654496564157307
1746728848373317400,8.7913173828125,-0.10904898826181889,-0.01441561584076844,-0.0021595891866832972
1746728848383335400,8.80133544921875,-0.10366028096079825,-0.006083475498994812,0.0010207761487923562
1746728848393353500,8.811353515625,-0.10126491025686263,-0.011096271292865275,0.0024615312753245235
1746728848403370500,8.82137060546875,-0.09991817182302475,-0.008600454155448824,0.007810746816173195
1746728848413388500,8.831388427734375,-0.11188976464569568,-0.00965160717619583,-0.002471175886504352
1746728848423406300,8.84140625,-0.11652619227468967,-0.013758996829250827,0.006445029687229544
1746728848433424400,8.85142431640625,-0.1032096145838499,-0.008189736196398735,-0.006020283202826976
1746728848443442400,8.8614423828125,-0.1029132619857788,-0.011479498456791042,0.00828125040475279
1746728848453460500,8.87146044921875,-0.11308920356333255,-0.010794849794032052,0.0023151998735032975
1746728848463478300,8.881478271484376,-0.09872399360239505,-0.010523412441508844,0.005278342261724174
1746728848473496300,8.891496337890626,-0.10889759709239005,-0.005148185676569119,-0.0012192213303409516
1746728848483514600,8.9015146484375,-0.1073971294015646,-0.009909901919355615,-0.006035170244704932
1746728848493532400,8.911532470703126,-0.10814356385469436,-0.007185719386162236,0.0005809599594213069
1746728848503549400,8.921549560546875,-0.1091921961247921,-0.006996279494976624,0.013097381982207298
1746728848513567500,8.9315673828125,-0.10993863057792186,-0.004281083985837176,0.015526362694799898
1746728848523585300,8.941585205078125,-0.10739479131400584,-0.013748511967854574,0.0033977344132028516
1746728848533603300,8.951603271484375,-0.07791852146089076,-0.01241242279219441,-0.005182005747780203
1746728848543621600,8.96162158203125,-0.12146247963309287,0.002064887507399544,-0.0005484093966893851
1746728848553639400,8.971639404296875,-0.11787760688364506,-0.010168333659833297,-0.0007509644977748394
1746728848563657500,8.981657470703125,-0.10590601406097412,-0.002363541660411283,0.0041641887410543855
1746728848573675500,8.991675537109375,-0.11159165848195553,-0.009452002084022387,0.006869922302104532
1746728848583693600,9.001693603515625,-0.09348667747080326,-0.012222517110127956,-0.003469630605634302
1746728848593710300,9.01171044921875,-0.11698153482675552,-0.004102887007873505,0.003356817880924791
1746728848603728600,9.021728759765624,-0.10530687912404536,-0.008983452990511431,0.0018381752125918864
1746728848613746400,9.031746337890626,-0.11054010360240936,-0.012612402343703434,0.013287059335410594
1746728848623764500,9.041764404296876,-0.10634908165335655,-0.008732757031917572,0.004054609153047204
1746728848633782300,9.0517822265625,-0.1138321308851242,-0.008275569582637398,-0.006314078517630696
1746728848643800600,9.061800537109375,-0.09737374803721904,-0.00868215022268705,-0.0077037245114333925
1746728848653818400,9.071818359375,-0.11084113237559795,-0.01018563185450621,0.005063475668337196
1746728848663836400,9.08183642578125,-0.11383505349457264,-0.017106069634296,0.010447908653039484
1746728848673854500,9.0918544921875,-0.10051730675995349,-0.020770693089067933,0.0011530607589520514
1746728848683871500,9.10187158203125,-0.11532909144461154,-0.010762070902436971,0.0016786738019436596
1746728848693889300,9.11188916015625,-0.10171557663381099,-0.006448847345821559,-0.005950852962117642
1746728848703907600,9.121907470703125,-0.1184767418205738,-0.0090765655009076,0.002920033898856491
1746728848713925400,9.13192529296875,-0.10066869792938232,-0.008368380698934197,0.00004782119709998369
1746728848723943400,9.141943359375,-0.10006897847056388,-0.010899470079131423,0.007714903492573648
1746728848733961200,9.151961181640624,-0.10066811340749263,-0.007703651446197181,0.005480184976756572
1746728848743979500,9.1619794921875,-0.10994681388437748,-0.00744589555915445,0.0024753040723502636
1746728848753997300,9.171997314453124,-0.09198854786753653,-0.008563811939489095,0.005362349017057568
1746728848764015400,9.182015380859376,-0.10096797313690185,-0.008832290149945765,0.00219336359212175
1746728848774033700,9.19203369140625,-0.09558277296721934,-0.008883682410465553,0.003056848553661257
1746728848784050400,9.202050537109375,-0.10635843400359153,-0.012196177092473953,0.004009619233850389
1746728848794068200,9.212068115234375,-0.09812602770924568,-0.009393979153316467,-0.0017469897978007792
1746728848804086500,9.22208642578125,-0.11039689573943615,-0.007761674376903101,0.0012302176483906806
1746728848814104300,9.232104248046875,-0.10485971987843513,-0.007212744390405714,-0.0026715572968125344
1746728848824122400,9.242122314453125,-0.10680617777109146,0.0005945409602019935,-0.001365516199544072
1746728848834140400,9.252140380859375,-0.10426058494150638,-0.0126133613249287,-0.004132314031757414
1746728848844158500,9.262158447265625,-0.11143909826874732,-0.0061361829337663945,0.0001945909903384745
1746728848854176500,9.272176513671875,-0.10096212791800499,-0.0058195821321103715,-0.009596114129293709
1746728848864194300,9.2821943359375,-0.09961188235282897,-0.005979567599948495,-0.0017275179123505948
1746728848874211300,9.29221142578125,-0.10155541763603687,-0.01432569080130197,0.0026364129181951283
1746728848884229400,9.3022294921875,-0.11068506503105163,-0.006331157516594976,0.0023774514547549187
1746728848894247400,9.312247314453124,-0.10530161842703818,-0.012675494175171479,0.01073788630925119
1746728848904265500,9.322265380859376,-0.09737374803721904,-0.014851413442147895,0.0010761230652220548
1746728848914283500,9.332283447265626,-0.10425649328827857,-0.01284505118895322,0.0008961268558166921
1746728848924301300,9.34230126953125,-0.10874503687918186,-0.020844041453069076,0.00014817629903554914
1746728848934319600,9.352319580078126,-0.11039046599864959,-0.009608991877175867,0.006310480054747313
1746728848944337400,9.36233740234375,-0.10320610745251178,-0.004538538478780538,0.0016693579843267798
1746728848954355500,9.37235546875,-0.10635083521902561,-0.006526935817021877,0.002949314792267978
1746728848964372500,9.38237255859375,-0.10679682542085647,-0.009606023601954802,-0.0014429653499275445
1746728848974390500,9.392390625,-0.10739186870455741,-0.0037156047233380374,0.0035978418288752432
1746728848984408300,9.402408203125,-0.10050853893160819,-0.009500910126511008,-0.0021269655587151646
1746728848994426400,9.41242626953125,-0.1023076973080635,-0.010245070424163713,-0.003321801366470754
1746728849004444400,9.4224443359375,-0.09677052144706248,0.0007551383493933826,0.0034718225627206264
1746728849014462500,9.43246240234375,-0.10963935537040233,-0.006826147092459723,-0.0032335568274371325
1746728849024480300,9.442480224609374,-0.11278057600557803,-0.010008247727295383,-0.0021587489364668726
1746728849034498600,9.45249853515625,-0.10305296271741389,-0.0055936552885919805,-0.004635824840795249
1746728849044516400,9.462516357421874,-0.09362520915865898,-0.011734642261639236,0.002648340818006545
1746728849054534400,9.472534423828124,-0.10799158816337585,-0.011385308234160766,-0.0003803410870954394
1746728849064551400,9.482551513671876,-0.10365151313245295,-0.007846448317216708,-0.0018167670983821153
1746728849074569500,9.492569580078126,-0.09810907657444476,-0.010410051727527752,-0.006721928666159511
1746728849084587300,9.502587158203125,-0.11187339803278445,-0.012939323609974235,0.007834365153778344
1746728849094605600,9.51260546875,-0.10543839654922485,-0.017638706073118373,0.0036523302287794646
1746728849104623400,9.522623291015625,-0.1042377885878086,-0.014682176088774576,0.003932608474884182
1746728849114641400,9.532641357421875,-0.1103688386887312,-0.006020155338663608,0.003800433462578803
1746728849124659500,9.542659423828125,-0.0982470237404108,-0.009531990251364185,-0.0003676277359947562
1746728849134677500,9.552677490234375,-0.11051613820493221,-0.006181008456181735,-0.0042434827886521816
1746728849144695600,9.562695556640625,-0.09944003291726111,-0.009222814704338089,0.0050852673750370735
1746728849154712300,9.57271240234375,-0.10871931791603565,-0.010340393157955258,0.0065457501153461635
1746728849164730600,9.582730712890625,-0.10677286002337932,-0.012857508811727165,-0.004477565539162605
1746728849174748400,9.59274853515625,-0.10991817231178283,-0.015060964539600536,-0.0027966267148964107
1746728849184766500,9.602766357421874,-0.10483224734961986,-0.01151151016340591,0.004516746772080659
1746728849194784500,9.612784423828124,-0.10139642768204211,-0.017712702891090885,-0.0029654987420886752
1746728849204802600,9.622802490234376,-0.09885317294001579,-0.006967281729355454,0.010760335603076964
1746728849214820400,9.6328203125,-0.11097440336644648,-0.006515345843927934,0.007889912999607621
1746728849224838400,9.64283837890625,-0.1024473980396986,-0.014158097415743394,0.005086235489416867
1746728849234856400,9.6528564453125,-0.10035714776217937,-0.014093178953370079,-0.0009156900728121399
1746728849244873500,9.66287353515625,-0.10321195267140865,-0.005835976144485175,-0.0036553259034641083
1746728849254891500,9.6728916015625,-0.09712824884355067,-0.012138674751576036,-0.012729041860159485
1746728849264909600,9.68290966796875,-0.08055529970526695,-0.016591370710963383,-0.012235266993846744
1746728849274927400,9.69292724609375,-0.1496913797736168,-0.006892398995393886,0.022117431522905826
1746728849284945400,9.7029453125,-0.09373393023014068,-0.004807537279045209,0.012552461450546979
1746728849294963500,9.71296337890625,-0.1085515601336956,-0.005930833087395876,0.00009933218862861394
1746728849304981500,9.7229814453125,-0.09957739556133746,-0.009702533645834774,0.00035091406321153043
1746728849314999300,9.732999267578125,-0.1013753848940134,-0.008387660788139328,0.0022067345303483305
1746728849325017300,9.743017333984374,-0.09823533330261706,-0.006130492978496477,0.0036917671900242566
1746728849335035400,9.753035400390624,-0.11365092909932135,-0.005132988107437267,0.009329645212832837
1746728849345052400,9.763052490234376,-0.1022813938230276,-0.012600510976510122,0.002575713973212987
1746728849355070500,9.773070556640626,-0.1124596734881401,-0.014684952567750587,0.005081815042626113
1746728849365088500,9.783088623046876,-0.10288345136940479,-0.009311324104852975,-0.004436502876412124
1746728849375106300,9.793106201171875,-0.10528057563900947,-0.005830925510032102,-0.002656871184334159
1746728849385124400,9.803124267578125,-0.10348317082822323,-0.0093631456236355,-0.003806096018385142
1746728849395142400,9.813142333984375,-0.10976678114235401,-0.012684371601371093,-0.0014222513554617761
1746728849405160400,9.823160400390625,-0.10393266816139221,-0.014845129831833764,0.0028719935060478744
1746728849415178500,9.833178466796875,-0.10064122540056705,-0.004946096366364509,-0.0041724268464371555
1746728849425196300,9.8431962890625,-0.11305997746884822,-0.009445499277999625,0.002499561730772257
1746728849435213300,9.85321337890625,-0.1103682541668415,-0.015195642036246135,-0.0002339000874198973
1746728849445231400,9.8632314453125,-0.10348609343767165,-0.002352225681953132,-0.001285747227910906
1746728849455249700,9.873249755859375,-0.10258826781511306,-0.007769903349131345,-0.003871087545994669
1746728849465267500,9.883267333984374,-0.09944587813615799,-0.009873972089448943,0.003754493695311248
1746728849475285500,9.893285400390624,-0.1070785649716854,-0.011222701550973579,-0.0022244893827475607
1746728849485303300,9.90330322265625,-0.10318623370826244,-0.012315145563334226,0.00028647052487358447
1746728849495321600,9.913321533203124,-0.10348317082822323,-0.004839074061624706,0.0020897936197929083
1746728849505339400,9.92333935546875,-0.10557751275897026,-0.013669153988175094,-0.004177596211899072
1746728849515357400,9.933357421875,-0.10886720195412636,-0.013271112847607581,0.0026471717742271718
1746728849525375500,9.94337548828125,-0.10407821411192417,-0.011145772990398109,0.0034200923754833636
1746728849535392500,9.953392578125,-0.11275953321754932,-0.01646561630629003,0.0028078056960366663
1746728849545410300,9.963410400390625,-0.10108487751483916,-0.012458362559461965,0.002522138888761401
1746728849555428600,9.9734287109375,-0.1157446865081787,-0.0035448056005407125,-0.004717639639042317
1746728849565446400,9.9834462890625,-0.1160416236281395,-0.01097248051641509,0.005340319848340005
1746728849575464400,9.99346435546875,-0.10990239022076129,-0.007552059347368776,0.0004680924357846379
1746728849585482200,10.003482177734375,-0.10256722502708435,-0.0007361139885149895,0.0080281524265185
1746728849595500000,10.0135,-0.10616086560487746,-0.011140165233518927,0.00870378666575998
1746728849605518000,10.02351806640625,-0.1166378359556198,-0.016879740931978447,0.003999390100780874
1746728849615536000,10.0335361328125,-0.09808511117696761,-0.006048066258896142,0.0000785816615447402
1746728849625554200,10.04355419921875,-0.10092822564840316,-0.006497983717173338,-0.002443045770563185
1746728849635571000,10.053571044921876,-0.10705810670554637,-0.005236877740174532,0.003325655557680875
1746728849645589000,10.063589111328126,-0.10166647679507732,-0.005599381776480004,0.010447926919348538
1746728849655607000,10.07360693359375,-0.1137842000901699,-0.010886254404531791,-0.007506101313792169
1746728849665625000,10.083625,-0.10958850196599959,-0.0011940777559299022,-0.007214918081182986
1746728849675643100,10.09364306640625,-0.10539338836371898,-0.004595008773216978,0.0022128172112628815
1746728849685661200,10.1036611328125,-0.10806932957470416,-0.0007568279829807579,0.005952423864696174
1746728849695679200,10.11367919921875,-0.1138800616800785,-0.006840814938629046,0.008427326078247279
1746728849705697000,10.123697021484375,-0.08903086710572242,-0.011077429595077409,-0.010219397126790136
1746728849715715000,10.133715087890625,-0.1099672721505165,-0.013081115833995863,-0.00702220852067694
1746728849725732000,10.143732177734375,-0.11623977654874323,-0.004314785326039418,0.004964143479708582
1746728849735750100,10.153750244140625,-0.0946872854322195,-0.015137911366485058,-0.00032583442088216543
1746728849745768200,10.163768310546875,-0.1093447563380003,-0.0012838383986148983,0.003772504276037216
1746728849755786200,10.1737861328125,-0.10709785419404506,-0.011784354021726175,-0.0013130188273265957
1746728849765804000,10.183803955078124,-0.10455226136445998,-0.008790752563159912,-0.01067983597908169
1746728849775822000,10.193822021484374,-0.10784311960339546,-0.006167856713663786,-0.004081150100100785
1746728849785840000,10.203840087890624,-0.11083353359103203,-0.011941252483334391,0.005570932000130415
1746728849795858200,10.213858154296876,-0.09960662165582179,-0.004405532349413261,0.0024788294699974356
1746728849805876000,10.2238759765625,-0.09780980136692523,-0.006247799215232953,0.00989524320634082
1746728849815894000,10.23389404296875,-0.10858370883762836,-0.012469833801547064,-0.0008317015837877988
1746728849825911000,10.2439111328125,-0.09945289239883422,-0.0075471731096971775,-0.009006678602471948
1746728849835929000,10.25392919921875,-0.10529109703302383,-0.00908493147045374,0.0008938435671851039
1746728849845947100,10.263947021484375,-0.10080079987645149,-0.008444332011975347,0.0052857401168905195
1746728849855965200,10.273965087890625,-0.10947627376317977,-0.007777602598397061,-0.0005656527924351394
1746728849865983000,10.28398291015625,-0.10603343983292579,-0.007625115450425073,-0.0015698796652257442
1746728849876001000,10.2940009765625,-0.10274433515965938,-0.002058859625412151,0.0023649207667447627
1746728849886019000,10.30401904296875,-0.1183072304725647,-0.004296692546922713,-0.0005074745981022715
1746728849896037000,10.314037109375,-0.1060375314861536,-0.009803016611933708,-0.001726641129516065
1746728849906055200,10.32405517578125,-0.10947978089451789,-0.006379919428611174,0.00018812471693381667
1746728849916072200,10.334072265625,-0.0975064345061779,-0.004883406393695622,-0.002689695741701871
1746728849926090000,10.344090087890624,-0.11351298193335532,-0.005435423386422917,0.0007470737739466131
1746728849936108000,10.35410791015625,-0.10273556733131409,-0.010637184147443622,-0.004176043575629592
1746728849946126000,10.3641259765625,-0.10647592290341854,-0.002018399750860408,0.00817660272018984
1746728849956144000,10.37414404296875,-0.1082721586704254,-0.009826388354366644,0.009539305908139794
1746728849966162200,10.384162109375,-0.10213292526304721,-0.004741678101755679,-0.002028108294121921
1746728849976180000,10.394179931640625,-0.10976502757668495,-0.003124324299301952,-0.005951163489371538
1746728849986198300,10.4041982421875,-0.10797112989723681,-0.010624279000097886,0.006016703006252646
1746728849996216000,10.414216064453125,-0.1100631337404251,-0.005821874553896486,0.0035348961278796193
1746728850006234000,10.424234130859375,-0.09389934992492198,-0.013181297405995428,-0.003000350859761238
1746728850016251100,10.434251220703125,-0.10377367820739745,-0.01689829036882147,-0.0038820655977353452
1746728850026269200,10.444269287109375,-0.1079629465907812,-0.007164895793842151,-0.0018130042387172578
1746728850036287000,10.454286865234375,-0.09524375027120113,-0.004043119644653052,0.0035616562706418334
1746728850046305300,10.46430517578125,-0.09778408240377902,-0.005683014072477817,0.00805286674266681
1746728850056323000,10.474322998046874,-0.10840542966127395,-0.012526349761756136,0.0024551198008470236
1746728850066341000,10.484341064453124,-0.10481412717103958,-0.006864478942006826,-0.0018867087957449256
1746728850076359000,10.49435888671875,-0.0991273137062788,-0.004487347147660329,-0.001869611530471593
1746728850086377200,10.504377197265624,-0.10585808326601981,-0.010073997306730597,-0.005056297008879483
1746728850096395000,10.51439501953125,-0.10585691422224044,-0.005821125635225325,0.006846029969863593
1746728850106413000,10.5244130859375,-0.10181436083316803,-0.011067099997308105,0.00903188610896468
1746728850116430000,10.53443017578125,-0.10824760875105857,-0.006362255907757208,0.003430431106407195
1746728850126448000,10.5444482421875,-0.10046294622421265,-0.008026380594540387,0.003127995827421546
1746728850136466000,10.5544658203125,-0.10854337682723998,-0.0035281467266846445,0.005352448677551001
1746728850146484200,10.564484130859375,-0.08295710014998912,-0.01183400184973143,0.006813789934385568
1746728850156502000,10.574501953125,-0.12290975583195686,-0.010318848046427591,0.011728340385016054
1746728850166520000,10.58452001953125,-0.08370236555933952,-0.010540025649592279,0.006412826184369624
1746728850176538000,10.5945380859375,-0.10659574989080428,-0.012487862648582084,-0.004312200643308461
1746728850186556200,10.60455615234375,-0.10330430712997912,-0.014654329100623725,-0.001923314479086548
1746728850196574200,10.61457421875,-0.11662322290837764,-0.01323585887113586,0.006223733353056014
1746728850206591200,10.62459130859375,-0.10450608413517475,-0.011143307038675993,0.011562281369417905
1746728850216609000,10.634609130859374,-0.10495441242456435,-0.009188263980764895,0.006344784183148294
1746728850226627000,10.644626953125,-0.11348375583887099,-0.010846634780196472,-0.0017513189130462705
1746728850236644900,10.654644775390626,-0.09957096582055092,-0.01154128424716182,-0.00591452127341181
1746728850246663200,10.6646630859375,-0.10660451771914958,-0.013876978919422253,0.004213051117770374
1746728850256681200,10.67468115234375,-0.09897299992740154,-0.008173351317178458,0.0003219802296720445
1746728850266699000,10.684698974609375,-0.09642682257592677,-0.008181973015051334,-0.00032751492131501435
1746728850276717300,10.69471728515625,-0.11064181041121482,-0.010290434802696109,0.0011917122689075767
1746728850286735000,10.704735107421875,-0.10211363604068756,-0.012778899750718846,0.011341642622370272
1746728850296753200,10.714753173828125,-0.10361118112206459,-0.005195422351779416,0.003039459027443081
1746728850306770200,10.724770263671875,-0.09328151028752327,-0.012831223593000322,-0.0005621273947879671
1746728850316788200,10.734788330078125,-0.09597089550197124,-0.011087339067738502,0.002976202799193561
1746728850326806000,10.744805908203125,-0.10674188036322593,-0.004000011155288666,-0.006218764916993677
1746728850336824000,10.754823974609375,-0.09986147319972515,-0.005774427816132083,0.001726020075008273
1746728850346842000,10.764842041015624,-0.10988777717351912,-0.012451320897322147,-0.0033445611875504255
1746728850356860200,10.774860107421874,-0.1019593222618103,-0.011804520026920362,0.018062986766640095
1746728850366878000,10.7848779296875,-0.10271043289005756,-0.007175636383565142,0.009690788409113884
1746728850376896300,10.794896240234374,-0.10959434718489647,-0.011606659367261454,0.006496887738630175
1746728850386914000,10.8049140625,-0.09103694623112678,-0.016034111287537962,0.0069913567246869205
1746728850396931000,10.81493115234375,-0.11333294919133186,-0.004004742129333317,-0.0028156967415474353
1746728850406949000,10.82494921875,-0.10420154823064803,-0.016293410677695647,-0.009338869698904455
1746728850416967200,10.83496728515625,-0.10539981810450554,-0.011004026432149112,0.0006584456424228847
1746728850426985000,10.84498486328125,-0.11901567100286484,-0.01584732001116499,-0.004777589665353298
1746728850437003000,10.8550029296875,-0.10569850879013538,-0.010764938712958246,-0.0010096519665792583
1746728850447021000,10.86502099609375,-0.10375321994125843,-0.006975181908020749,0.0002192322412505746
1746728850457039000,10.8750390625,-0.0914805983453989,-0.007719241740973666,0.004065221878606826
1746728850467057000,10.885056884765625,-0.09477496371567248,-0.0073059573655016715,0.005194171109609305
1746728850477075200,10.8950751953125,-0.10644786585271358,-0.010091185903549195,0.014442860040720552
1746728850487093200,10.90509326171875,-0.09881400997340678,-0.010883925450127572,0.008751388667151331
1746728850497110000,10.915110107421874,-0.10898819798529147,0.000054853726085275405,0.012101192285399883
1746728850507128000,10.925128173828124,-0.09776830031275749,-0.010105123097356408,-0.006192023040540516
1746728850517146000,10.93514599609375,-0.111087216091156,-0.006395381859224289,0.001417721310816705
1746728850527164000,10.945163818359376,-0.10076455951929092,-0.00985417141043581,0.00945988399637863
1746728850537182200,10.95518212890625,-0.11812427512109279,-0.009017620121594518,0.016162121581379325
1746728850547200300,10.9652001953125,-0.09432897351384162,-0.003152299151616171,0.00850753344129771
1746728850557218000,10.975218017578126,-0.1076449666827917,-0.009576423048134892,0.0033426614914089437
1746728850567236000,10.985236083984375,-0.09657119948267937,-0.017551228719064966,-0.005172215006127953
1746728850577254100,10.995254150390625,-0.11138649129867553,-0.008044162846403196,0.007522139133140445
1746728850587272200,11.005272216796875,-0.09926584539413452,-0.013349712775461375,-0.002760094096790999
1746728850597289000,11.0152890625,-0.1151262623488903,-0.0032261589722707867,0.0013045980588532984
1746728850607307000,11.02530712890625,-0.09297872794866562,-0.012465742148319258,-0.002717734526097774
1746728850617324800,11.03532470703125,-0.11348200227320193,-0.006553202769439667,-0.0026673925783485173
1746728850627342800,11.0453427734375,-0.09851882641911507,-0.004181249473709613,-0.003389423242583871
1746728850637361000,11.05536083984375,-0.10615034421086311,-0.009878182473685592,0.0006383527024649083
1746728850647379000,11.06537890625,-0.10524959597885608,-0.01758440033630468,0.00387338910093531
1746728850657397000,11.07539697265625,-0.10554711762070655,-0.012551940860738978,0.009422127535566687
1746728850667414800,11.085414794921874,-0.09701718968451023,-0.012038465780112891,-0.005944952944293618
1746728850677433000,11.09543310546875,-0.10853694708645344,-0.0032985300887376067,0.007352792181912809
1746728850687451000,11.105450927734376,-0.0943213747292757,-0.006359132368909195,-0.0014459610246121883
1746728850697468200,11.11546826171875,-0.10943535723090171,-0.010293731871480121,0.005158442209102213
1746728850707486000,11.12548583984375,-0.09387421548366547,-0.00999526038155891,0.004199753244780004
1746728850717504000,11.13550390625,-0.10569792426824569,-0.003193297882284969,0.0026307503623887894
1746728850727521800,11.145521728515625,-0.10150807136297225,-0.0037649876898620273,0.0072867229420691725
1746728850737540000,11.1555400390625,-0.10360592042505741,-0.005074618116859346,0.010013152231276034
1746728850747558000,11.165557861328125,-0.09762216984033584,-0.004154617195110768,0.006800400729849934
1746728850757576000,11.175575927734375,-0.11543138277530669,-0.0074087601528503,-0.0038927696548402306
1746728850767594000,11.185593994140625,-0.10286299310326576,-0.005087194470642134,-0.00136800041757524
1746728850777612000,11.195612060546875,-0.10615326682031154,-0.00819244874329306,0.0052500660153105855
1746728850787629800,11.2056298828125,-0.10256196433007717,-0.005850817520590499,0.0013186265842057765
1746728850797647000,11.215647216796874,-0.10914952602684497,-0.009182802354358137,0.0010618570778518914
1746728850807665000,11.225664794921874,-0.10705459957420825,-0.012846987417712808,0.006271919876337051
1746728850817683000,11.235682861328126,-0.10346621969342232,-0.0146155040607322,0.008389149492327124
1746728850827700700,11.24570068359375,-0.10556114614605903,-0.008591695460258052,0.006003825258370488
1746728850837719000,11.255718994140626,-0.10960311501324176,-0.0007032894311472773,-0.006436462788283825
1746728850847736800,11.26573681640625,-0.10361819538474082,-0.006892937851510942,-0.002831844158750027
1746728850857755000,11.2757548828125,-0.1024210945546627,-0.007072230808017775,0.004917692255787551
1746728850867773000,11.28577294921875,-0.12277063962221145,-0.013914004727872088,-0.004186729366425425
1746728850877791000,11.295791015625,-0.09702829560041427,-0.004916422747308388,-0.0010523768634535372
1746728850887807700,11.305807861328125,-0.10915011054873466,-0.0014793244380969554,0.00414126452319324
1746728850897826000,11.315825927734375,-0.10092004234194756,-0.002968804944027215,0.005475819328892976
1746728850907843800,11.32584375,-0.12022329322695731,-0.006770955439656973,0.006795066967606544
1746728850917862000,11.33586181640625,-0.10795125615298748,-0.006696876423293724,0.005574640060868114
1746728850927880000,11.3458798828125,-0.11363631605207919,-0.006156239341106266,0.003065506784152239
1746728850937898000,11.35589794921875,-0.10181319178938865,-0.01163889940273948,0.000553816224168986
1746728850947916000,11.365916015625,-0.11887129409611225,-0.015130075119901448,-0.003097198830358684
1746728850957933800,11.375933837890624,-0.09507774605453014,-0.012831598052335903,0.002077226399164647
1746728850967952100,11.3859521484375,-0.09986205772161483,-0.008364763969741762,0.010460822933539747
1746728850977970000,11.395969970703124,-0.09731588037014006,-0.008620775424269958,0.004898476098664104
1746728850987987000,11.405987060546876,-0.09791384626328944,-0.015328849095012993,0.004859386197291315
1746728850998005000,11.4160048828125,-0.09058218820095061,-0.010454393192753195,-0.0018575740328058599
1746728851008023000,11.42602294921875,-0.1041986256211996,-0.008863132812781258,0.0008779518783092498
1746728851018040800,11.436040771484375,-0.09462298802435398,-0.009081670934287831,0.005372103226091713
1746728851028059000,11.446058837890625,-0.11213000314235687,-0.0034477567005436866,0.005738634983543306
1746728851038077000,11.456076904296875,-0.09177695094346999,-0.0023217940110713243,-0.0023580709008499978
1746728851048095000,11.466094970703125,-0.10628946042060851,-0.017794325893092898,-0.007321100135706365
1746728851058112800,11.47611279296875,-0.1318786597073078,-0.011046367736533284,-0.0037033845625817773
1746728851068131000,11.486131103515625,-0.08354279108345508,-0.019375895996112374,-0.0009172792416997253
1746728851078148900,11.49614892578125,-0.11511223382353782,-0.009729832644714042,0.0005584010677412152
1746728851088166000,11.506165771484374,-0.08219313004016876,-0.0032151078552938995,-0.005739804027322679
1746728851098184000,11.516183837890624,-0.11256839455962181,-0.010362604989763349,-0.003661755644250661
1746728851108202000,11.526201904296874,-0.09431202237904071,-0.012386649030121042,-0.006295501681324095
1746728851118219800,11.5362197265625,-0.11630991917550564,-0.00955929838339798,-0.0005269830161705613
1746728851128238000,11.546238037109376,-0.09491057279407977,-0.0046926147956401106,-0.0012528313389979302
1746728851138256000,11.556255859375,-0.10284136579334735,-0.005483500311849639,-0.00046832989780232307
1746728851148274000,11.56627392578125,-0.11272212381660937,-0.006318407632876187,0.005193221261538565
1746728851158291700,11.576291748046875,-0.09626607905626297,-0.018079846569895742,0.0015433752507902682
1746728851168310000,11.58631005859375,-0.12439444143176077,0.00034966282104142006,0.006727171096857637
1746728851178328000,11.596328125,-0.10000643462836742,-0.006192781092366204,-0.0003266016058623791
1746728851188344800,11.6063447265625,-0.09790917008817196,-0.00486776129999198,-0.0022453495076857504
1746728851198363000,11.61636279296875,-0.10433949539661407,-0.012828812440205365,0.004446932938881218
1746728851208381000,11.626380859375,-0.11331775162220001,-0.017350682911975307,-0.0018556378040462732
1746728851218399000,11.63639892578125,-0.10494038389921188,-0.010817984074447303,0.005362111555039882
1746728851228417000,11.6464169921875,-0.09805646960437298,-0.007932820559572428,0.007285773093998432
1746728851238435000,11.65643505859375,-0.104337741830945,-0.005842168423254043,0.006089001057483255
1746728851248452900,11.666452880859374,-0.11451017627716063,-0.011858177309762685,0.005461114950105548
1746728851258471000,11.676470947265624,-0.11047054549753665,-0.004167312279902398,0.00636142479069531
1746728851268489000,11.686489013671874,-0.11510814217031001,-0.01064377828501165,0.0009936872124671936
1746728851278507000,11.696507080078124,-0.10538462053537369,-0.007171325534628703,0.0028790077687241137
1746728851288524000,11.70652392578125,-0.10718085630238056,-0.015826898277644066,-0.0016106500670313834
1746728851298542000,11.7165419921875,-0.10568564930856228,-0.004676969701936469,0.00788057891568169
1746728851308560000,11.726559814453125,-0.10613280855417251,-0.004925692899152637,0.006124072370864451
1746728851318578000,11.736577880859375,-0.09700316115915775,-0.013298758906358852,0.008301617339346557
1746728851328596000,11.746595947265625,-0.10298924983143806,-0.007510119901783764,0.010098419361934065
1746728851338614000,11.756614013671875,-0.1077799912393093,-0.008983297726884484,0.003201042797323316
1746728851348631800,11.7666318359375,-0.10628069259226322,-0.008103035160480066,0.00674474328616634
1746728851358649900,11.77664990234375,-0.1032838488638401,-0.010612058839341625,0.007622914360184222
1746728851368668000,11.78666796875,-0.10268471392691135,-0.004428776227682829,0.0003573803366161883
1746728851378686000,11.79668603515625,-0.11420388680696487,-0.010148697377601637,-0.005222794415894895
