time,seconds_elapsed,z,y,x
1746576145757738800,0.01973876953125,-0.01883154172003269,-0.0029270709944190457,0.0036862872973084447
1746576145767704000,0.0297041015625,-0.0071586395829916,-0.010840999623853712,0.015491063052555546
1746576145777668000,0.039668212890625,-0.005961538752913474,-0.006441897015227005,0.014940288168843834
1746576145787633000,0.0496328125,-0.007308277186751365,-0.0037958349192747844,0.006882041998161003
1746576145797598000,0.059597900390625,-0.007906827601790428,-0.007885177458985709,-0.004894576241681352
1746576145807562000,0.06956201171875,-0.02840659479498863,0.016763055749749765,0.0007747380990069359
1746576145817526800,0.07952685546875,-0.0029687866777181626,0.0024184182193828746,0.011113277226593344
1746576145827490800,0.08949072265625,-0.007457914790511131,0.0007747974645113573,0.010693216050462797
1746576145837456000,0.099455810546875,-0.023320085310935972,0.012931628927285782,0.014636857376014813
1746576145847420000,0.109419921875,-0.0156897365629673,0.011374083587247877,0.0014887224541045724
1746576145857385000,0.119385009765625,-0.013147066342830657,0.005918567260866985,-0.009808185977395623
1746576145867349000,0.129348876953125,-0.017485972329974172,0.0005544738112948835,0.0004770703266840428
1746576145877313800,0.139313720703125,-0.012399462845921515,-0.0075334551115985955,0.026434920262685044
1746576145887277800,0.14927783203125,-0.016440262669324874,0.00445629442227073,0.02752891691131517
1746576145897243100,0.1592431640625,-0.009556932896375655,-0.009614193208678625,0.019600343268597498
1746576145907207000,0.16920703125,-0.015841712254285812,-0.00949435708813835,0.004654977065837011
1746576145917172000,0.179171875,-0.018086276310682294,-0.007117334891646169,0.00467127974666655
1746576145927136000,0.189135986328125,-0.005815408280491829,-0.0017445284126559272,0.01753053299090825
1746576145937100800,0.199100830078125,-0.009856208103895188,-0.008298375069489702,0.014110458881733939
1746576145947065900,0.20906591796875,-0.014794249027967452,0.00666780102585908,0.014394189460249616
1746576145957030000,0.21902978515625,-0.005067804783582687,0.017076962270820513,0.014630939091881736
1746576145966995000,0.228994873046875,-0.005965630406141281,0.003444226736319251,0.01687848055665381
1746576145976959000,0.238958984375,-0.026315759995579717,0.0012868660393403843,0.0028803960082121193
1746576145986924000,0.248924072265625,-0.029309681114554405,0.00908031922741793,0.014631779342098162
1746576145996887800,0.2588876953125,-0.011503390789031983,0.004752039665565826,0.017537008397467434
1746576146006852900,0.268852783203125,-0.005816577324271202,0.001422689746879041,0.010954515601461753
1746576146016817000,0.27881689453125,-0.022277298259735106,-0.005612912544910796,0.004971194275002927
1746576146026782000,0.288781982421875,-0.021228081467747687,-0.005261281529068946,0.010598852297896519
1746576146036746000,0.29874609375,-0.028110826718807217,-0.008315819394635037,0.015214593331888317
1746576146046711000,0.3087109375,-0.018084522745013237,0.011804465227993204,0.02114783757207915
1746576146056675000,0.318675048828125,-0.01359481011033058,0.004900284463260323,-0.0059694754641968755
1746576146066640000,0.328639892578125,-0.01793313157558441,0.001379024135088548,0.0022135661299340424
1746576146076605000,0.33860498046875,-0.009252981513738632,0.002986139671318233,0.003645014572003856
1746576146086569000,0.34856884765625,-0.013443418940901756,0.004962188984639943,-0.007271899832272902
1746576146096534000,0.358533935546875,-0.019280454531311986,0.006811269183736294,0.026029216405469922
1746576146106498000,0.368498046875,-0.023620529562234878,0.00018839871156960724,0.009260379368904977
1746576146116462800,0.378462890625,-0.015390461355447768,-0.0031752690352499485,0.0014606745365541428
1746576146126427000,0.388427001953125,0.002267360410094261,0.016503404733142813,0.016260832715500145
1746576146136392000,0.398391845703125,-0.019429507613182066,0.008835541552957148,-0.0001245396951213479
1746576146146356000,0.40835595703125,-0.019429507613182066,-0.009297925767162814,0.007557073449203744
1746576146156320800,0.41832080078125,-0.001174304476380348,-0.006610960838664323,0.015234129149420185
1746576146166285000,0.42828515625,-0.01688566834926605,0.0029027631036471573,0.019875077689904718
1746576146176249900,0.438249755859375,-0.01793313157558441,-0.0029033339258050543,0.00515231386241503
1746576146186215000,0.44821484375,-0.014341829085350036,-0.0005795260541606695,0.0028845698598306624
1746576146196179000,0.458178955078125,-0.021972762355208397,0.005981754990457557,0.0029763489296659824
1746576146206143700,0.468143798828125,-0.007606383350491523,0.0015875568858115,0.027459358806442468
1746576146216107800,0.478107666015625,-0.01733282759487629,-0.0008781665074406191,0.006140813443111255
1746576146226073000,0.488072998046875,-0.039030280140042305,-0.006197338536474853,0.01613297768528573
1746576146236037000,0.498037109375,-0.007007832935452461,0.006878073642519303,0.014902750903740524
1746576146246002000,0.508001953125,-0.022120061871409413,0.007035250665340572,0.00940777021665126
1746576146255966000,0.517966064453125,-0.026907880669832226,0.01528369021245744,0.007703587514115497
1746576146265931000,0.527930908203125,-0.017330489507317543,0.007656003779033199,-0.006427037372812628
1746576146275894800,0.537894775390625,-0.00999766240119934,0.003578283178457059,0.02211299280980602
1746576146285859800,0.54785986328125,-0.004609539622068405,0.013006328998156822,0.02035552728376351
1746576146295824000,0.557823974609375,-0.007901566904783249,0.000505442471220158,0.002302605253411457
1746576146305789000,0.567788818359375,-0.02914952211678028,-0.002656642855471,-0.002675356689095497
1746576146315754000,0.57775390625,-0.014484452426433562,-0.005654701293446123,0.014026808319427072
1746576146325718000,0.587718017578125,-0.015382278048992157,-0.004112718848721124,0.011307950415322557
1746576146335682800,0.597682861328125,-0.019722353079915045,-0.009243318636249751,0.01771167997778393
1746576146345646800,0.607646728515625,-0.018972996017336843,0.0024914012572029606,0.0034484508202876894
1746576146355612200,0.617612060546875,-0.005355389553308487,0.006848121462250128,-0.009918048693193121
1746576146365576000,0.627575927734375,-0.0058043023645877835,0.005816248530708253,0.002598948718328029
1746576146375541000,0.637541015625,-0.010891980892419814,-0.0020012887858552857,0.0015908493880182504
1746576146385505000,0.647505126953125,-0.02301262679696083,0.006201270359498448,0.009393860422307625
1746576146395469800,0.6574697265625,-0.021664719319343564,-0.0010805206791264935,0.013225538406521081
1746576146405433900,0.667433837890625,-0.018372107514739035,-0.0022331065140431747,0.007162183246947825
1746576146415399000,0.67739892578125,-0.01807341682910919,0.002137043994734995,-0.0007273918259423225
1746576146425363000,0.687363037109375,-0.02226268521249294,-0.008746118836989626,-0.0006450564378872514
1746576146435328000,0.697327880859375,-0.021813772401213644,0.006997462238487787,0.013242142481449991
1746576146445293000,0.70729296875,-0.03154080116748809,-0.010985056870197877,0.015272506664739921
1746576146455257300,0.71725732421875,-0.01194002864062786,-0.008095842801290564,0.007140126678766683
1746576146465222400,0.727222412109375,-0.011790391036868094,0.005932403989974409,0.015327269059279933
1746576146475186400,0.7371865234375,-0.011490531307458876,0.006935607949458062,0.007052000870741903
1746576146485151200,0.747151123046875,-0.003409516182541847,0.0031596193749690426,0.014212302687857298
1746576146495115300,0.757115234375,-0.015380524483323096,-0.006728212276473641,0.0025212712390813973
1746576146505080600,0.76708056640625,-0.0101432083517313,-0.0003721623472170904,-0.009158334633382037
1746576146515044400,0.77704443359375,-0.014333061257004736,-0.010054826815379782,0.006356776015041396
1746576146525009400,0.787009521484375,-0.020019874721765515,0.0045416117852786556,0.00803523975443095
1746576146534973400,0.796973388671875,-0.01777589518725872,0.0054555802584625775,0.0008729560427833349
1746576146544938200,0.806938232421875,-0.029447628280520437,-0.009668919070600532,0.0014838270832784474
1746576146554902300,0.81690234375,-0.02166588836312294,0.006742893822374753,0.012253989960625766
1746576146564867600,0.82686767578125,0.0033241759866476056,-0.007644701500306837,0.013407735706167295
1746576146574832400,0.836832275390625,-0.018671967244148255,0.003557715314463712,0.01874712397274561
1746576146584796400,0.84679638671875,-0.017925532791018484,0.0030095479463692755,0.0034374727685470134
1746576146594761500,0.856761474609375,-0.01807517039477825,0.006267161502828821,-0.009091196814458817
1746576146604725200,0.866725341796875,-0.013287351596355437,0.007318346489616669,0.008630045576114208
1746576146614690300,0.876690185546875,-0.009098667734861373,0.007664333215961232,0.011107450274005531
1746576146624654300,0.886654296875,-0.024063597154617308,0.013114013456599787,0.008485321609489619
1746576146634619400,0.896619384765625,-0.0071545479297637935,-0.008097847528709097,0.01294492223369889
1746576146644583400,0.90658349609375,-0.016729601004719732,-0.000333976628142409,0.024181451380625364
1746576146654548500,0.916548583984375,-0.016281272715330124,0.0013357512489426881,0.004289358623838052
1746576146664512500,0.926512451171875,-0.011042787539958953,-0.001997338696522638,0.00151547346371226
1746576146674477300,0.936477294921875,-0.03079436671435833,0.005067539922101423,0.0052064734687563025
1746576146684441300,0.94644140625,-0.00445814845263958,0.00038301710137166083,0.008639397926349192
1746576146694406100,0.95640625,-0.021067922469973563,0.007719223474664613,0.018978293246962128
1746576146704371500,0.966371337890625,-0.021066753426194188,-0.004570312723377719,0.0030404728075955063
1746576146714335500,0.97633544921875,-0.021216391029953954,-0.0014110312751261516,0.016156806085444987
1746576146724300300,0.98630029296875,-0.012536240968108176,-0.0009921026101568713,0.013258399496506899
1746576146734264300,0.996264404296875,-0.00819733498096466,0.009589182065008207,0.0028374427824746818
1746576146744229400,1.0062294921875,-0.03154080116748809,-0.004885529852122999,0.006093732031527906
1746576146754193400,1.016193359375,-0.004905307698249817,0.0026225761890877036,-0.00004692614795640111
1746576146764158500,1.026158447265625,-0.01807400135099888,0.0070129064027918495,0.016279318220261484
1746576146774122500,1.03612255859375,-0.018223054432868955,0.001929346927651204,0.0012822035639546811
1746576146784087300,1.04608740234375,-0.02211363213062286,0.006715654188999906,-0.0024683354754466563
1746576146794051300,1.05605126953125,-0.007149871754646301,-0.00867937374371104,0.005303504102444276
1746576146804016400,1.066016357421875,-0.007897475251555442,-0.00031906218680087474,0.0061817025759257375
1746576146813980400,1.07598046875,-0.010142623829841614,0.0044466406779363745,0.006822987020993605
1746576146823945200,1.0859453125,-0.015978490376472473,0.00862013153687585,0.009527734201354906
1746576146833909200,1.0959091796875,-0.010142623829841614,-0.00350838714686688,0.013733780189603566
1746576146843874600,1.10587451171875,-0.023012042275071143,-0.008228926562471315,0.006543402894632891
1746576146853839400,1.11583935546875,-0.012986907345056533,0.0028398676350014284,0.011683204335346817
1746576146863803400,1.125803466796875,-0.02181494144499302,-0.0066112165669910605,0.0007239760261494666
1746576146873768400,1.1357685546875,-0.012238134804368018,-0.0032095183647237718,-0.009131748020555823
1746576146883732200,1.145732177734375,-0.011488777741789817,-0.008524932100670412,0.01509107655007392
1746576146893697500,1.155697509765625,-0.005502689069509506,0.014065537461196072,0.024162372220819815
1746576146903661600,1.16566162109375,-0.006100070440769195,0.003142362279491499,-0.004183377498714253
1746576146913626400,1.17562646484375,-0.011785714861750602,0.00714232320243027,0.00749665763201192
1746576146923590400,1.18559033203125,-0.021961071917414664,-0.00491731779645197,-0.0007722538809757679
1746576146933555500,1.195555419921875,-0.020315058276057243,-0.0015562210326315834,0.014109509033663198
1746576146943519200,1.205519287109375,-0.02869417956471443,0.0007374017633032053,0.01149690624931827
1746576146953484300,1.215484375,-0.018069909697771072,0.006315653986786492,0.007592601420311257
1746576146963448300,1.2254482421875,-0.02450491118133068,0.007018637457257136,0.01568127012872137
1746576146973413400,1.235413330078125,-0.01672375578582287,0.017316876540496014,0.0024990137415006755
1746576146983378400,1.24537841796875,-0.01851882250905037,0.006207503737462684,-0.009327763783000409
1746576146993342500,1.255342529296875,-0.025102877074480057,-0.0071431497529149054,-0.008868722303351386
1746576147003307300,1.265307373046875,-0.022110124999284744,-0.007405864942865446,0.02043388974959962
1746576147013271300,1.275271240234375,-0.0025087679505348204,0.009488772164145483,0.005918256733613088
1746576147023236400,1.285236328125,-0.017771803534030912,-0.005811229862296022,-0.010376569583034142
1746576147033200400,1.295200439453125,-0.006698036333918571,-0.008684661840181797,-0.007548022493068129
1746576147043165400,1.30516552734375,-0.013132453295588492,-0.01046357201305218,0.017314150293869898
1746576147053129500,1.31512939453125,-0.027798107507824896,0.004350304163992405,0.006015789690800011
1746576147063094300,1.32509423828125,-0.01582651468515396,0.004939136902615428,0.005540756057575345
1746576147073058300,1.335058349609375,-0.021064415338635442,-0.00486718591125682,-0.0040418227367103095
1746576147083023400,1.3450234375,-0.03542962529957294,-0.0003614993893075734,0.011076726342178881
1746576147092987400,1.3549873046875,-0.01851999155282974,0.0034154618661385028,-0.0011961601151619105
1746576147102952400,1.364952392578125,-0.008345219019055366,0.0110569439294748,0.0021555340660735964
1746576147112917500,1.37491748046875,-0.02720072613656521,0.00389502554400824,0.0005822294679004699
1746576147122881500,1.384881591796875,-0.00685059654712677,0.011153175412141718,0.011238593239849432
1746576147132846300,1.394846435546875,-0.006400514692068099,-0.0035886995411943644,0.003412776718707755
1746576147142810400,1.404810302734375,-0.021812603357434273,-0.004109609009604901,0.003366946549294516
1746576147152775200,1.414775146484375,-0.015676877081394196,-0.0005246038294164463,0.01083737376150675
1746576147162739200,1.4247392578125,-0.01926817957162857,-0.004091908956132829,0.018563474501529707
1746576147172704500,1.43470458984375,-0.026301146948337552,-0.007401832655142061,0.011421941316965967
1746576147182668500,1.44466845703125,-0.013732172754406928,-0.012484670611075124,0.002649473329167813
1746576147192633300,1.45463330078125,-0.012385434320569037,-0.0038094022203236815,0.0043038894726894796
1746576147202597400,1.464597412109375,-0.009243629163503646,0.0023795201142551375,-0.0010709263002965598
1746576147212562400,1.4745625,-0.021514497193694113,-0.00925742022683844,0.0191549649881199
1746576147222526200,1.484526123046875,-0.00400631303191185,0.007320246185758151,-0.0036432701394893225
1746576147232491500,1.494491455078125,-0.012384849798679352,0.011597836739988997,-0.0036862872973084447
1746576147242455600,1.50445556640625,-0.011636661779880523,0.008788514940300956,0.0043618941370863465
1746576147252420400,1.51442041015625,-0.02016658971607685,0.008695292832050472,0.0060325946951285
1746576147262384400,1.52438427734375,-0.01911912648975849,0.0028846794576849787,0.003933366526709869
1746576147272349400,1.534349365234375,-0.0058019642770290375,0.0060890786892967294,0.006340372869512066
1746576147282314200,1.544314208984375,-0.027651392513513562,0.005890788771375082,0.023988458692329004
1746576147292278300,1.5542783203125,-0.016727847439050675,-0.0036927307378267866,0.025950780874397603
1746576147302243600,1.56424365234375,-0.022114801174402236,-0.00550828769323416,0.008444478142447769
1746576147312207400,1.574207275390625,-0.029896541091799733,-0.009397527383849956,-0.0031429468013811856
1746576147322172400,1.58417236328125,-0.011789806514978409,-0.0015415120872668922,-0.0016752854016143827
1746576147332136400,1.594136474609375,-0.009245967251062392,0.010724739133310504,0.011478265480929985
1746576147342101200,1.604101318359375,-0.019720599514245984,-0.003950189797347411,0.0020769706708379087
1746576147352065300,1.614065185546875,-0.014034370571374893,-0.007146465088007971,-0.001331221204297617
1746576147362030300,1.6240302734375,-0.014632920986413955,-0.0013370846895035355,0.01572612305060029
1746576147371994400,1.633994384765625,-0.009395020332932472,0.005923672694247216,0.020962315804185346
1746576147381959400,1.64395947265625,-0.02031914992928505,-0.0005211469304282218,-0.0012813267811201511
1746576147391923500,1.65392333984375,-0.00879646991789341,-0.0010330282755894587,0.004699437262071296
1746576147401888300,1.66388818359375,0.00601531476676464,0.002354161910712719,0.012179764813790097
1746576147411852300,1.673852294921875,-0.013286767074465751,0.00021749237531330434,0.016321093269065022
1746576147421817300,1.6838173828125,-0.013585457760095596,-0.010239503766479901,0.021494632582599295
1746576147431782400,1.693782470703125,-0.004757423660159111,0.00468903459906578,-0.006153252799576148
1746576147441746400,1.703746337890625,-0.02510755324959755,-0.010282100799190811,0.0053163270513992755
1746576147451710000,1.7137099609375,-0.007000234150886535,-0.008372897043847478,0.00237712266119197
1746576147461674000,1.723674072265625,-0.013434651112556456,-0.009723626666213386,0.008115191389154642
1746576147471639000,1.73363916015625,-0.028398996010422704,0.0032144502681680023,0.025839922644756732
1746576147481602800,1.743602783203125,-0.023460370564460754,0.0013712198545457795,0.009046252561034635
1746576147491568000,1.753568115234375,-0.009393851289153099,0.0043430615724530065,0.0051484596712049096
1746576147501532200,1.7635322265625,-0.00864566327035427,-0.008241539448872208,0.004683362910104915
1746576147511497000,1.7734970703125,-0.012984569257497787,-0.0033716364241437985,0.010084719630144536
1746576147521461000,1.7834609375,-0.019418986219167707,-0.008059424347616731,0.024588744406728074
1746576147531426000,1.793426025390625,-0.030192893689870832,-0.0004635532579850405,0.020281840993044895
1746576147541389800,1.803389892578125,-0.0185217451184988,-0.003945979413110762,0.006234053817670792
1746576147551355100,1.813355224609375,-0.013284428986907005,0.0065570797935361035,0.00037857838827185333
1746576147561319200,1.823319091796875,-0.017772972577810287,0.001550179450912401,-0.0011490604372695087
1746576147571284000,1.833283935546875,-0.021214637464284897,-0.0017308423805981873,0.010664875871967523
1746576147581249000,1.8432490234375,-0.018671382722258566,0.0022503773092525077,0.004069587526470422
1746576147591213000,1.853213134765625,-0.013881810358166694,0.00042237643080297855,-0.004830132703343406
1746576147601177900,1.863177734375,-0.01163724630177021,0.0027930602180538697,0.010265072032576426
1746576147611142000,1.873141845703125,-0.01657470270395279,0.0021539357640314844,0.024348935168329623
1746576147621107200,1.883107177734375,-0.010739420679211615,0.016798428457230327,0.016918584238179026
1746576147631071000,1.893071044921875,-0.015827099207043647,0.00832147281728685,0.001124300455348566
1746576147641036000,1.9030361328125,-0.01702420003712177,0.004685107342619448,0.009934963295375928
1746576147651000000,1.913,-0.007446808874607086,-0.00428583322619088,0.009443809644412248
1746576147660964900,1.92296484375,-0.012983400213718414,0.004871999083692208,0.001963089367048815
1746576147670929000,1.932928955078125,-0.020167174237966535,-0.003113738973205909,-0.0021754900087136773
1746576147680894000,1.94289404296875,-0.01014145478606224,-0.009942886306927539,0.014017940026381983
1746576147690858000,1.95285791015625,-0.009691957452893257,-0.008067671586154028,0.025385721737006678
1746576147700823000,1.962822998046875,0.0054214405268430705,-0.0036391556533752006,0.013324368271650745
1746576147710787000,1.972787109375,-0.017922025659680367,-0.010814435843913815,-0.010924851115560158
1746576147720752000,1.982752197265625,-0.021811434313654898,0.00003963332406710833,0.005628635270427912
1746576147730717000,1.992717041015625,-0.015526654955744743,0.012894205826614052,0.015190143877221271
1746576147740681000,2.002680908203125,-0.009391513201594353,0.0014878228383837268,0.013888514093589037
1746576147750646000,2.01264599609375,-0.019717676904797553,0.005653495717048645,0.0018779683668632059
1746576147760610000,2.022610107421875,-0.009991232660412788,0.006035521871154196,0.015517987592099233
1746576147770575000,2.0325751953125,-0.02255903781056404,-0.0017995100029045716,0.0014675974676851182
1746576147780539100,2.0425390625,-0.010886720195412635,0.0019248853816650807,-0.00022365268804132936
1746576147790504000,2.05250390625,-0.014030278918147086,-0.003414502884913236,0.012122792195854708
1746576147800468000,2.062468017578125,-0.022111294043064115,-0.007441210250882431,0.022643364226305855
1746576147810433000,2.07243310546875,-0.005502104547619819,0.007385653271898627,0.014332257539406418
1746576147820396800,2.082396728515625,-0.01253565644621849,0.002527134724287316,-0.008997362784855066
1746576147830362000,2.092362060546875,0.00018529343903064726,-0.00822985357765574,-0.005275419652275741
1746576147840326100,2.102326171875,-0.015669862818717954,0.005867097368533723,0.013896112878154962
1746576147850291000,2.112291015625,-0.004894786304235458,0.004357834449899383,0.010313030226994306
1746576147860255000,2.1222548828125,-0.024346505749225616,0.0006407958213007077,0.013189663375541567
1746576147870220000,2.132219970703125,-0.015070727881789207,0.0018071864192839712,0.001980972083611414
1746576147880183800,2.142183837890625,-0.00938332989513874,-0.0032946256651775908,0.005656893250532448
1746576147890149000,2.152149169921875,-0.0036930092990398403,-0.0002569887020625174,0.013588088108599185
1746576147900114200,2.1621142578125,-0.03720715636610985,0.0020861540577141566,0.008139558645430952
1746576147910078000,2.172077880859375,-0.008622866916656494,-0.009474268714757636,0.012048530516400932
1746576147920043000,2.18204296875,-0.006377718338370323,-0.005109424568759277,0.010345653854962437
1746576147930007000,2.192007080078125,-0.00787584794163704,-0.017027264210465364,0.006155499555589631
1746576147939971800,2.201971923828125,-0.022242811468243598,-0.00044878951369319107,0.008559117498062551
1746576147949935900,2.211935791015625,-0.01670797369480133,0.0010102958539733662,0.008768732527596875
1746576147959901200,2.221901123046875,-0.00802782363295555,0.0005244759652530774,0.008375340162683279
1746576147969865000,2.231864990234375,-0.01745382362604141,-0.003939211745606735,-0.0028046730240341273
1746576147979830000,2.241830078125,-0.019996493846178055,0.0036832459568511694,0.00011084909648634492
1746576147989794000,2.2517939453125,-0.02193593747615814,-0.1452016580057796,0.09833136842246167
1746576147999758800,2.2617587890625,0.01532850203514099,-0.9934306804228573,0.4656428141428157
1746576148009723000,2.271722900390625,0.0401677597373724,-1.2549271422334014,0.5160515435179696
1746576148019688000,2.28168798828125,0.11916413956284522,-1.173513179872185,0.5011070723643526
1746576148029652200,2.29165234375,-0.16995616916716097,-0.7678385487515479,0.3245046701157465
1746576148039617000,2.301616943359375,-0.028216040658950805,-0.4823120267298072,0.02106649769786745
1746576148049582000,2.31158203125,0.06543547198474407,-0.5674664907936007,0.306548267262429
1746576148059546000,2.321546142578125,0.06004384207427501,-0.4924321464668959,0.2226853773791343
1746576148069511000,2.331510986328125,-0.09227087194025516,-0.3692752109408378,0.17802885485514996
1746576148079475000,2.341474853515625,0.0877419963389635,-0.33609139180667696,0.22420990179898215
1746576148089440000,2.35143994140625,-0.05022445884943008,-0.19241967418137937,0.19006123795434832
1746576148099404000,2.361404052734375,-0.02942833905816078,-0.03245426731717307,0.04432360990834422
1746576148109369000,2.371369140625,-0.07924304806292057,0.12635991455214096,-0.062173191386321554
1746576148119333000,2.3813330078125,-0.0026350246787071228,0.209253210484609,-0.07627303754249587
1746576148129298000,2.3912978515625,0.03207271608710289,0.3415571829319,-0.1266919686512556
1746576148139262000,2.401261962890625,0.01649929938018322,0.2926401899518445,-0.09768176367362029
1746576148149227000,2.41122705078125,-0.1406026489108801,0.2410377572800964,-0.11380958112659864
1746576148159190800,2.421190673828125,0.05510580115020275,0.4237424584591761,-0.20303424463821573
1746576148169156000,2.431156005859375,-0.10230126756727695,0.5700623159730807,-0.28056416864031924
1746576148179120000,2.4411201171875,0.02130290026962757,0.6223708510875702,-0.3738407652907073
1746576148189085000,2.4510849609375,0.0016840075641870497,0.7852046210289001,-0.4396356451723724
1746576148199049000,2.461049072265625,-0.04336100282073021,0.904611921697855,-0.4783247106593102
1746576148209014000,2.471013916015625,-0.03304126885831356,0.8081690247699618,-0.27551022798530755
1746576148218979000,2.48097900390625,-0.037380759367346764,0.7530952261932193,-0.06724890548172406
1746576148228943000,2.490943115234375,-0.019426585003733635,0.6557216973517089,0.07697484740260988
1746576148238908200,2.500908203125,-0.03798164786994457,0.3311552505787462,0.03662275320743211
1746576148248872000,2.510871826171875,0.0009247136294841766,-0.05073906644121744,0.008851789434859529
1746576148258837000,2.5208369140625,-0.004312017980217933,0.02900975288648624,0.002372747880173847
1746576148268801000,2.530801025390625,-0.007156301495432853,0.012298422757396473,-0.013373924768110737
1746576148278765800,2.540765869140625,-0.02855389431118965,0.000583087984425947,0.01289503694367595
1746576148288729900,2.550729736328125,-0.01598375107347965,0.013496592166554182,0.013867653968650848
1746576148298695200,2.560695068359375,-0.018375614646077156,-0.009127839030418545,0.0099204324465245
1746576148308659200,2.5706591796875,-0.00819733498096466,-0.011466068153060041,0.007394238437153399
1746576148318624000,2.5806240234375,-0.005503273591399192,-0.010168420424801297,0.002287316352734342
1746576148328588000,2.590588134765625,-0.01882102032601833,-0.01277541088568978,0.003116643316345289
1746576148338552800,2.600552734375,-0.021063830816745756,-0.0008014982417691498,0.02135764439785853
1746576148348516900,2.610516845703125,-0.021810265269875524,-0.004228308052406646,-0.0008200750780757516
1746576148358482200,2.620482177734375,-0.01761807427704334,-0.011989059980702585,0.005354120044829324
1746576148368447000,2.630447021484375,-0.0237502934217453,-0.009290477679646574,0.01331724441112019
1746576148378411000,2.640410888671875,-0.01970832455456257,-0.0022009349772240967,0.005060087268007919
1746576148388376000,2.6503759765625,-0.016414543706178664,-0.0005330154647352174,-0.001492932838341221
1746576148398340000,2.660340087890625,-0.021500468668341634,-0.0046302627496887,0.005008768072724342
1746576148408305000,2.670304931640625,-0.01985328598320484,0.002228900696383789,-0.0005622552589513361
1746576148418269000,2.68026904296875,-0.023143559700250626,0.005827696939907036,0.017508266360173
1746576148428234000,2.69023388671875,-0.010272972211241722,-0.008081668145465664,0.003414046227186918
1746576148438198000,2.700197998046875,-0.02134557036757469,-0.004635391015955247,-0.0033523243688978253
1746576148448163000,2.7101630859375,-0.006380056425929069,-0.006144361673644743,-0.0014024324101395904
1746576148458127000,2.720127197265625,-0.004283960929512978,-0.00158242405296769,0.00826605283562094
1746576148468092200,2.730092041015625,-0.011167290702462196,-0.012132724501402117,0.01577099423878826
1746576148478056200,2.74005615234375,-0.017451485538482664,-0.004035128134442493,0.018101181618869304
1746576148488021200,2.750021240234375,-0.02642857272028923,0.0008482645595213398,0.01266609615916386
1746576148497986000,2.759986083984375,-0.01101589953303337,0.0041230347467586395,0.0037046266715973614
1746576148507950000,2.7699501953125,-0.014755670583248138,0.013157368541136383,0.007896032213140279
1746576148517915100,2.7799150390625,-0.0038309564650058745,-0.0032423840212868526,-0.003517095609707758
1746576148527879200,2.789879150390625,-0.007871171766519545,-0.004139730153232813,0.013103145002713427
1746576148537844200,2.79984423828125,-0.017598785054683683,-0.009631929794768802,0.009291112433886155
1746576148547808300,2.809808349609375,-0.018199673557281495,-0.0063311438168631865,0.001232327407086268
1746576148557773000,2.81977294921875,0.0061871642023324964,-0.004577080390881747,0.0035982436876744028
1746576148567737000,2.829737060546875,-0.02718494404554367,0.0005749640434747561,0.012344937913399188
1746576148577702100,2.8397021484375,-0.007283142745494842,-0.0023298951191361994,0.001295967227825895
1746576148587666000,2.849666015625,-0.015512041908502578,0.0022527564960066228,-0.0011376622604206204
1746576148597631200,2.85963134765625,-0.00997720413506031,-0.008880526905576698,0.011487754828482865
1746576148607595300,2.86959521484375,-0.010575754550099372,-0.007485291421203874,0.006195183112006634
1746576148617560000,2.87956005859375,-0.018507716593146324,0.014836046909657306,0.0017661054902244357
1746576148627524000,2.889524169921875,-0.027935470151901242,-0.010311459324415772,0.004516838103625923
1746576148637489200,2.8994892578125,-0.01716097815930843,-0.0025882766272639856,0.0032474848880898206
1746576148647454000,2.909453857421875,-0.02793430110812187,-0.0055316457359353075,0.002665492882207036
1746576148657418000,2.91941796875,-0.021499299624562263,-0.00048335850357543675,-0.0005572137576527893
1746576148667383300,2.92938330078125,-0.011623217776417732,0.004456737380265258,0.015439999585598706
1746576148677347000,2.93934716796875,-0.016561258700489998,-0.010301586384372785,0.0008666541661601513
1746576148687312100,2.94931201171875,-0.019703648379445073,0.0024861314270412547,0.008045386689109727
1746576148697276200,2.959276123046875,-0.008331775015592575,-0.0116037641572766,-0.008220761522324755
1746576148707241000,2.969240966796875,0.00618307254910469,-0.010224991183937526,0.014492078610463068
1746576148717205000,2.979205078125,-0.02404313888847828,-0.00515794901875779,0.011334199101431295
1746576148727170300,2.98917041015625,-0.020002923586964608,-0.011262631702562793,0.008491934013366698
1746576148737134300,2.99913427734375,-0.02898176433444023,-0.004407116951723583,0.011756881492910907
1746576148747099100,3.00909912109375,-0.028683073648810384,-0.01093179687957745,-0.002474162428034469
1746576148757063200,3.019063232421875,-0.021499884146451948,-0.007361943602748215,0.0244360197967384
1746576148767028000,3.029028076171875,-0.015514379996061324,0.006078575561591424,0.005129444443481043
1746576148776992000,3.038991943359375,-0.021650106272101403,-0.008805397576442919,0.0157881280366797
1746576148786957000,3.04895703125,-0.018358663511276244,0.00662569261691533,0.011934302152739837
1746576148796922000,3.058922119140625,-0.015067805272340773,0.0038074842578731476,-0.00279159434675239
1746576148806886100,3.06888623046875,-0.023148235875368118,-0.007133176348172128,0.01248637394439429
1746576148816851200,3.078851318359375,-0.016862871995568275,0.00782544662838336,-0.0009982903223484754
1746576148826815200,3.088815185546875,-0.009382160851359367,0.0038644797086948525,0.009986392088513821
1746576148836780000,3.098780029296875,-0.004893032738566398,-0.009936794492858461,0.01147429255871102
1746576148846744000,3.108744140625,-0.020006430718302725,-0.008991595197771676,0.010991422678902744
1746576148856709000,3.118709228515625,-0.004293897801637649,-0.011773380536562763,0.0046545386744197455
1746576148866673200,3.128673095703125,-0.015517302605509757,-0.004651753062289208,-0.010690412172023206
1746576148876638200,3.13863818359375,-0.013123685467243193,-0.009802715217834337,0.0028850447838660326
1746576148886602200,3.148602294921875,-0.007138181316852569,-0.0012720703290076925,0.010075887869717552
1746576148896567000,3.158567138671875,-0.007886369335651398,-0.01047774666887708,0.010832149597117677
1746576148906531000,3.168531005859375,-0.018659692284464836,-0.009899636253667994,0.00602976341722533
1746576148916496100,3.17849609375,-0.020006430718302725,-0.005588906048238277,0.001531958807632327
1746576148926461200,3.188461181640625,-0.006239771172404289,0.002416541356127709,0.009504444657312705
1746576148936425200,3.19842529296875,-0.003397241222858429,0.004924190495233051,0.016765585633553563
1746576148946390300,3.208390380859375,-0.010279401952028274,0.005491765816695988,0.015279502661107107
1746576148956354000,3.21835400390625,-0.04948445413708687,0.0033829661023337394,-0.016921397249773144
1746576148966319000,3.228319091796875,0.007229366731643676,0.0036569790044333784,0.015739201727882027
1746576148976283100,3.238283203125,-0.031077275308966635,0.014900723343435673,0.012290787440212442
1746576148986248000,3.248248046875,-0.006985036581754684,0.006310502887633629,0.018491916235815732
1746576148996212200,3.258212158203125,-0.00982815105319023,0.004464893287257291,-0.009604845425020903
1746576149006177300,3.26817724609375,-0.028083938711881636,-0.0019939913953887296,0.005963383650127798
1746576149016141000,3.27814111328125,-0.011773439902067183,-0.005840250460803508,0.0018427874556276947
1746576149026106000,3.288106201171875,0.0006447276443243027,0.0041771715202135965,0.01859291979172267
1746576149036070100,3.298070068359375,-0.026887422403693198,-0.0043474272203166036,0.02525993079971522
1746576149046035000,3.308034912109375,-0.021799743875861168,0.0017186633190372958,0.01179127695285715
1746576149055999000,3.3179990234375,-0.006988543713092803,-0.011532046061358414,-0.00030461810291744767
1746576149065964300,3.32796435546875,-0.01088087497651577,-0.005262733700638637,0.006796053348295391
1746576149075929000,3.33792919921875,-0.012970540732145309,-0.8128001186367124,-0.21859814459811894
1746576149085893000,3.34789306640625,0.048830374142527576,-2.3168790587618946,-0.5218657462220638
1746576149095858200,3.357858154296875,0.059897711601853365,-2.3409615067474543,-0.3759745259163901
1746576149105822200,3.367822265625,-0.08405483225882053,-2.1866097339473662,-0.27820704758754
1746576149115787000,3.377787109375,0.1201975742638111,-2.288107576177269,-0.3186662097532302
1746576149125751000,3.3877509765625,0.09430442359447479,-2.2238315033607186,-0.4893845589319244
1746576149135716000,3.397716064453125,0.00017769465446472167,-2.140719504909962,-0.8152164590634405
1746576149145680100,3.40768017578125,-0.05936170502901077,-1.8778392605908214,-1.1806918393298982
1746576149155645200,3.417645263671875,0.11611994956135749,-1.574713953514397,-1.430644505275786
1746576149165609200,3.427609130859375,-0.04937924019694328,-1.135211871593818,-1.3836743720471858
1746576149175574000,3.437573974609375,0.1699380489885807,-0.828622687799111,-1.2231688258577138
1746576149185538000,3.4475380859375,0.05352408491671085,-0.4785974997187033,-1.0160229629158972
1746576149195503400,3.45750341796875,-0.2879787374794483,-0.04698386949300766,-0.7873769235666841
1746576149205467100,3.467467041015625,0.3515314644575119,0.39390451568681745,-0.5111055384831503
1746576149215432200,3.47743212890625,-0.35258301933705805,0.7286199794977903,-0.1278411021537613
1746576149225397000,3.48739697265625,-0.12490940521657466,1.0880637514498084,0.10385362070896662
1746576149235361000,3.497361083984375,0.4330722680687904,1.2404523344181477,0.30312070396654306
1746576149245326000,3.507326171875,-0.6440203728377819,1.2310415319941936,0.7065663339260965
1746576149255290000,3.5172900390625,0.3723188164204359,1.1457392569575457,0.7481951061267406
1746576149265255200,3.527255126953125,-0.4714800323963165,1.2007687780011445,0.7447193197749554
1746576149275219200,3.53721923828125,0.2913490906953812,1.2703627579048276,0.7279864308346062
1746576149285184300,3.547184326171875,-0.23746903194785116,1.2931886299580335,0.7427473621148616
1746576149295148000,3.55714794921875,0.06329787543416023,1.2998971876859664,0.7385219995047897
1746576149305113000,3.567113037109375,-0.13137480183839798,1.2492797839961944,0.7136768965836614
1746576149315077000,3.5770771484375,-0.10027882182896136,1.3089362341880797,1.3431335412137209
1746576149325042200,3.587042236328125,0.2914028667092323,1.2171353909123688,0.7080965391680598
1746576149335006200,3.597006103515625,-0.4134826014578342,1.4141088194079696,0.8276655332047492
1746576149344971300,3.60697119140625,-0.16103753417432307,1.2972212464749813,0.5077228007096797
1746576149354936000,3.61693603515625,0.3958750485748052,1.2027339405942707,0.38433497903719543
1746576149364900000,3.626900146484375,-0.4218418490022421,1.35799486412853,0.4404118902418762
1746576149374865200,3.636865234375,0.08227028692960739,1.0649630810432136,0.2720085582735948
1746576149384829000,3.646828857421875,0.05969897415935993,-0.07558617408976424,-0.0014138671196065843
1746576149394794200,3.656794189453125,-0.16281155810952186,0.032475816995278,-0.03958321044822223
1746576149404758300,3.66675830078125,0.1286860011458397,0.02322213222864084,0.05260902503156103
1746576149414723000,3.67672314453125,-0.13511691097617148,0.030885465364181436,-0.04113124360782094
1746576149424687000,3.68668701171875,0.07856266458332538,0.014821178134088404,0.05567865086840465
1746576149434652200,3.696652099609375,-0.0867792887866497,0.013693904836941509,-0.01029396020034328
1746576149444616200,3.7066162109375,0.006742459997534751,0.0019537644162774086,0.013988814396597445
1746576149454581500,3.71658154296875,-0.0134545248568058,0.004015637982683256,-0.005912804240360856
1746576149464545500,3.726545654296875,-0.030815409502387044,-0.0028741169644752517,0.010170726546319201
1746576149474510300,3.73651025390625,-0.006124620360136032,-0.012415240370365791,0.009941986691206692
1746576149484475400,3.746475341796875,-0.028720483049750327,-0.020078372576506808,0.015585362873040139
1746576149494439400,3.756439453125,0.005246668481826782,-0.011860063306172378,0.011716485550440848
1746576149504404200,3.766404296875,-0.024082886376976965,0.0021376193834701553,0.008218286437448114
1746576149514368300,3.7763681640625,-0.004180500555038452,0.0029926242110319434,0.005238028517644852
1746576149524333600,3.78633349609375,-0.01869534811973572,0.010762984217889607,0.005976937251444906
1746576149534297300,3.79629736328125,-0.012709843969345092,0.0007261405837722122,0.01406520410105586
1746576149544262400,3.806262451171875,-0.025877953100204465,0.001386403723945841,-0.0018498656503856182
1746576149554226400,3.816226318359375,-0.0374006331115961,0.011349296205863356,0.00940496633821167
1746576149564191200,3.826191162109375,-0.015105214673280715,-0.0026408698976039886,0.010448968098964541
1746576149574155300,3.8361552734375,-0.011963409516215323,0.006090019404212944,0.01660187383866869
1746576149584120300,3.846120361328125,-0.023785364735126494,0.01042037219214253,0.007835369800776242
1746576149594084400,3.85608447265625,-0.01735153229534626,-0.00004744217118714004,0.006957838047575205
1746576149604049400,3.86604931640625,-0.014057751446962356,-0.011968049158714711,0.0073181135941762475
1746576149614014500,3.876014404296875,-0.017798691540956497,-0.0011613308303756638,0.006390815281961113
1746576149623978500,3.885978515625,-0.017649638459086417,0.005224063924374058,0.0010837492492515592
1746576149633943300,3.895943359375,-0.028722821137309073,-0.02200619426735211,0.0022718813215848056
1746576149643907300,3.9059072265625,-0.0061263739258050915,-0.012165832186560145,0.0022227084176149217
1746576149653872400,3.915872314453125,-0.009716507372260094,0.0022004372203024104,0.006320462592644616
1746576149663836400,3.92583642578125,-0.01270867492556572,0.0010676611975533887,0.0008193535588681697
1746576149673801500,3.935801513671875,-0.018543956950306893,0.0034999618118163197,0.00734314757073298
1746576149683765500,3.945765625,-0.019741057780385016,0.0018136846587294712,0.008421380394650622
1746576149693730300,3.955730224609375,-0.009266425517201422,-0.00039558432199992237,0.0061459919417276975
1746576149703694300,3.9656943359375,-0.017345687076449394,0.004395225584530271,0.00783595432266593
1746576149713659400,3.975659423828125,-0.013754969108104705,0.0028718336758436634,0.004644967128476128
1746576149723623200,3.985623046875,-0.012257424026727675,0.008505852940864861,0.0037088005232159046
1746576149733588500,3.99558837890625,-0.014202712875604628,-0.002195619481289759,0.011365452756220475
1746576149743552500,4.005552490234375,-0.03185936559736729,0.006090950985974632,-0.000010512260859832167
1746576149753517300,4.015517333984375,-0.019438859963417054,0.0008455794120905921,-0.001064405227964744
1746576149763481300,4.0254814453125,-0.013600655329227447,-0.0004153439018176868,-0.007795046923542394
1746576149773446400,4.0354462890625,-0.007613397613167762,0.006502340231882408,0.012127358773117883
1746576149783411200,4.0454111328125,-0.012097849550843238,0.004032173558953218,0.009414391753682866
1746576149793375500,4.05537548828125,-0.03140285400152206,-0.007437219062354415,0.007429044889053329
1746576149803340500,4.065340576171875,-0.01942892309129238,-0.008371326141268946,0.0006629848202224821
1746576149813304300,4.07530419921875,-0.020775077003240584,0.002906142370821908,0.0032999000619165597
1746576149823269400,4.085269287109375,-0.01793137800991535,-0.001694519825046882,-0.0009898695538751781
1746576149833233400,4.0952333984375,-0.00850537801682949,0.0032534579711500553,0.004161905452422798
1746576149843198200,4.1051982421875,-0.009555763852596282,0.0005702878683572634,0.0016247333913110196
1746576149853162200,4.115162353515625,-0.004320785808563233,0.006588780972897074,0.0029570231746882196
1746576149863127600,4.12512744140625,-0.006865209594368934,-0.00028339721837546675,0.00720887193288654
1746576149873091600,4.135091552734375,-0.011952303600311279,-0.0003531608192250132,0.00800270745800808
1746576149883056400,4.145056396484375,-0.02107844386398792,0.006168386436626315,0.006000911782076582
1746576149893020400,4.1550205078125,-0.021373627418279646,0.00493314555324614,-0.009904495091876015
1746576149902985200,4.164985107421875,-0.011496376526355743,-0.0002722456366987899,-0.00060997599135153
1746576149912950300,4.1749501953125,-0.006557166558504105,0.0006920054187299683,0.012559000789187848
1746576149922914300,4.184914306640625,-0.011792144602537155,0.00041254915653262287,0.025835356067493556
1746576149932879400,4.19487939453125,-0.024810616129636764,-0.0007215740065090358,0.013210386503161862
1746576149942843400,4.204843505859375,-0.009994739791750907,0.002138701662281528,-0.0007100479654967784
1746576149952808400,4.214808349609375,-0.0055050271570682525,-0.013051254985271953,0.006804081391124054
1746576149962772500,4.2247724609375,-0.004455810365080833,-0.001463113088812679,0.0022610311340074984
1746576149972737300,4.2347373046875,-0.01866904463469982,0.0017945187339559196,0.013923841135296969
1746576149982701300,4.244701416015625,-0.01926642600595951,0.007931907244119792,0.008913182499585672
1746576149992666400,4.254666259765625,-0.030637130326032637,0.00537070585344918,0.0056889323566108934
1746576150002630400,4.26463037109375,-0.0113327103972435,0.0035267173880012704,-0.01109646308911033
1746576150012595500,4.274595458984375,-0.011629647517204285,0.004890717483893968,0.023882075708406045
1746576150022559500,4.2845595703125,-0.02539455349743366,-0.20648586466312407,0.1135770875449758
1746576150032524300,4.294524169921875,0.05764437971711158,-1.0557684055879712,0.4646231522388756
1746576150042488300,4.30448828125,-0.0026654198169708252,-1.266073828539252,0.6442011362321675
1746576150052453400,4.314453369140625,0.030700258690118786,-1.2202957546394317,0.7118585951153189
1746576150062418400,4.32441845703125,-0.03887479731738567,-1.3708049536019562,0.7501115342073142
1746576150072382500,4.334382568359375,0.038492520001530646,-1.4787266913995145,0.7921854198269546
1746576150082347500,4.344347412109375,-0.0768412476181984,-1.2201862298503516,0.5216034054914489
1746576150092311300,4.354311279296875,0.036983284482359886,-1.0251849051453172,0.46699247518610204
1746576150102276400,4.3642763671875,0.4471545694351196,-0.8443335402153432,0.08878464639284647
1746576150112240400,4.374240478515625,0.009109189128875731,-0.6795639799058437,0.22712078427700325
1746576150122205400,4.384205322265625,-0.14743220266997814,-0.4085014155117795,0.1462232104727067
1746576150132169500,4.39416943359375,-0.7108399926573038,-0.2042261213039048,-0.24198238118644802
1746576150142134500,4.404134521484375,-0.4002075248211622,0.09058701050654053,-0.5306360587853938
1746576150152098300,4.414098388671875,1.2993278633654117,0.44062071068696673,-0.4102632740851491
1746576150162063400,4.4240634765625,-0.013112579551339149,0.7098175908070057,-0.6160789113365114
1746576150172027400,4.43402734375,-0.7260030749976635,0.8161495751950889,-0.8108237039972096
1746576150181992200,4.4439921875,-0.3066705784678459,0.9011495793495327,-0.826655552444607
1746576150191956200,4.453956298828125,0.9192845901727675,1.5267986483901739,-1.138331026527658
1746576150201921500,4.463921630859375,-0.40165304745435715,1.5413105733454227,-0.676281012712419
1746576150211886300,4.47388623046875,-0.7318015321433544,1.1952672579754142,-0.18465030055521056
1746576150221850400,4.483850341796875,0.8266928157150745,1.2984531263574957,0.01990863289963454
1746576150231815400,4.4938154296875,-0.024478023174405096,1.19932478973791,0.18580105975922195
1746576150241779200,4.503779296875,-0.6082669224113225,0.6636499330677091,-0.19732063449807463
1746576150251744300,4.513744140625,0.15039514412879942,0.3624309345366433,-0.003272756326664239
1746576150261708500,4.52370849609375,0.24763912830650806,0.3246866390865296,0.09792612122297287
1746576150271673300,4.53367333984375,-0.24479367574751376,-0.02334322872450575,-0.0733494417133741
1746576150281637400,4.543637451171875,0.039226679494977,0.00905208408019971,0.015925518080219626
1746576150291602400,4.5536025390625,-0.007895137163996696,-0.002720159378624521,0.006203174622217193
1746576150301566500,4.56356640625,-0.006102408528327941,0.0003719385849311948,0.0066194272729102515
1746576150311531300,4.57353125,0.025467034211754797,-0.011730984433251433,0.019001162665896118
1746576150321495300,4.583495361328125,-0.040678047347068785,0.00871176447623875,-0.0018223474557977168
1746576150331460400,4.59346044921875,0.019016250637173653,-0.00048403892358765005,0.026838468695431945
1746576150341425400,4.60342529296875,-0.06657061349451542,0.004795545447152108,-0.005621255681570619
1746576150351389400,4.613389404296875,-0.033795302096009255,0.005628676369623281,-0.013109456012491137
1746576150361354200,4.623354248046875,0.031143910804390905,0.0041811033432371915,0.018523032893287016
1746576150371318300,4.633318359375,-0.022126491612195966,0.027400815285928547,0.008606445504818112
1746576150381283300,4.643283447265625,-0.04950958857834339,0.019401505361404267,0.008657572903856634
1746576150391247400,4.653247314453125,-0.021079028385877607,0.014872922021057456,-0.004909719011886045
1746576150401212400,4.66321240234375,-0.011351999619603157,0.0055881434298353265,-0.004673590434761718
1746576150411176400,4.673176513671875,-0.013744447714090346,0.012160018933704123,0.0006192735426593572
1746576150421141500,4.6831416015625,-0.008209025418758393,0.016932265703659504,0.00877224879208952
1746576150431105300,4.693105224609375,-0.022873510587215422,0.004237906997813843,0.006353597677266225
1746576150441070300,4.7030703125,-0.019133155015110967,-0.008294772040029055,0.007431766569102182
1746576150451034400,4.713034423828125,-0.013147066342830657,-0.014318292946135625,0.005633704171190038
1746576150460999200,4.722999267578125,-0.02780979794561863,-0.00003224460205528885,0.003029038098128512
1746576150470963200,4.732963134765625,-0.017333412116765975,0.0048679576628142965,0.0038355139091145246
1746576150480928300,4.74292822265625,-0.012995090651512145,0.006320412360294721,0.02417232735925354
1746576150490893300,4.752893310546875,-0.020326748713850974,0.004490045994822867,-0.009693994146352634
1746576150500857300,4.762857421875,-0.022871172499656676,0.010946076566679402,0.00439779656752944
1746576150510822400,4.772822509765625,-0.016287117934226988,0.008223487768950872,-0.0011335432077292352
1746576150520786200,4.7827861328125,-0.02062660844326019,0.0033055671843001616,0.006082123792124912
1746576150530751200,4.792751220703125,-0.01553892991542816,0.0070419818002264946,0.005171310823829844
1746576150540715300,4.80271533203125,0.0040641806989908215,0.01890871230920311,0.0013096943590790032
1746576150550680000,4.81268017578125,-0.005362403815984726,0.01804804492583498,-0.007233102191844955
1746576150560644000,4.82264404296875,-0.014938041412830352,0.018857594043319114,0.0020731895448639986
1746576150570609400,4.832609375,0.0016717326045036314,0.002758824588311836,-0.0013804397740401328
1746576150580573400,4.842573486328125,-0.01329202777147293,0.006773937414609826,0.01432856774497777
1746576150590538200,4.852538330078125,-0.026309914776682854,0.006847742436337284,0.01709364854414016
1746576150600502300,4.862502197265625,-0.017031214299798012,-0.0033603432785719633,0.00579867634139955
1746576150610467000,4.872467041015625,-0.008052958074212075,-0.0026293484231689943,0.011602357651479541
1746576150620432100,4.88243212890625,-0.015233809489011764,-0.0018254938275320454,0.0022468473450280723
1746576150630396400,4.892396484375,-0.020919453909993172,0.0023288219734793527,0.019463236352847888
1746576150640361200,4.902361328125,-0.019573299998044965,-0.0046792986563406885,0.005129398777708411
1746576150650325200,4.9123251953125,-0.02765373060107231,0.0063025433434639126,-0.005979521934175863
1746576150660290300,4.922290283203125,-0.02032207253873348,0.010078280756203458,0.012136245332472026
1746576150670254300,4.93225439453125,-0.021818448576331136,0.016078452752763404,0.0009224577403161674
1746576150680219100,4.94221923828125,-0.025559973192214966,0.01611521826630924,0.0022966778361238538
1746576150690183200,4.95218310546875,-0.015384616136550903,0.006520707005634904,-0.002052356819389388
1746576150700148200,4.962148193359375,-0.026605682852864264,0.008047980504995212,-0.010442355695087462
1746576150710112300,4.9721123046875,-0.021815525966882705,0.01319090548455715,0.00301386792846024
1746576150720077300,4.982077392578125,-0.0007172083586454391,0.00796606067547109,0.001834412352927029
1746576150730041300,4.992041259765625,-0.029596681362390517,0.00423895274400711,0.012570654694363474
1746576150740006100,5.002006103515625,-0.02181611048877239,0.006022461460181512,0.012982605629274621
1746576150749970200,5.01197021484375,-0.02314940491914749,0.01110898464396596,-0.0171555256660562
1746576150759935200,5.021935302734375,-0.02344575751721859,-0.0013983407569117844,-0.01560113583090715
1746576150769900300,5.031900390625,0.09206102858185768,-0.011054076118953525,0.048612210480356584
1746576150779864300,5.0418642578125,-0.0670031596928835,0.01839453854225576,-0.00558001035572961
1746576150789829400,5.051829345703125,-0.0075993690878152845,0.004935072648851201,0.015354504126077516
1746576150799793200,5.061793212890625,-0.009846271231770514,0.0031449880614178253,0.008812352473614737
1746576150809758200,5.07175830078125,-0.047398880034685134,0.010441319082048721,-0.013439035026729105
1746576150819722200,5.08172216796875,-0.04497603680193424,-0.22659714399538933,0.12033773165317252
1746576150829687300,5.091687255859375,0.010377017107605933,-0.9409839424140751,0.4178449613858014
1746576150839651300,5.1016513671875,0.10357727885246276,-1.1675650851227342,0.5302679561253637
1746576150849616400,5.111616455078125,-0.005711947906017303,-1.2935127473458647,0.5933575225710869
1746576150859580200,5.121580078125,0.09553542669415474,-1.4052505363002419,0.6069881711797789
1746576150869545200,5.131545166015625,0.04822305589914322,-1.668083726607263,0.5713912264892831
1746576150879509200,5.14150927734375,-0.0990402199447155,-1.7557368756189942,0.5594266479292884
1746576150889474000,5.15147412109375,-0.11156535499691962,-1.6328119222179054,0.39443803804162886
1746576150899438000,5.16143798828125,0.013494272345304488,-1.4110108533926307,0.32481033853143454
1746576150909403400,5.1714033203125,0.36173312499821186,-1.1400209523759781,0.19138857756797223
1746576150919368200,5.1813681640625,0.04655132329463958,-1.022583490475267,0.14948952792542985
1746576150929332200,5.191332275390625,-0.5214513932675123,-0.7737814558692276,0.03524937336184084
1746576150939297300,5.20129736328125,-0.19810031363368033,-0.530411529314518,-0.04871041015782393
1746576150949261300,5.21126123046875,0.40013095245361324,-0.3216526051528752,-0.046024586873641235
1746576150959226400,5.221226318359375,0.19310557408630846,-0.014980035657342522,-0.22278569594845174
1746576150969190400,5.2311904296875,-0.12258593070507048,0.2672220181168057,-0.29507382857324554
1746576150979155200,5.2411552734375,-0.5680728591889143,0.5477128292599692,-0.3713797820046544
1746576150989119200,5.251119140625,0.34915713654160496,0.9233447522837668,-0.4069443953281268
1746576150999084300,5.261084228515625,0.203578452783823,1.2278833602242172,-0.5141079351695255
1746576151009048300,5.27104833984375,-0.5888561194986105,1.3246230481415986,-0.4870453023293987
1746576151019013000,5.28101318359375,0.4003735290378332,1.3674138498589397,-0.4606855205290019
1746576151028977200,5.29097705078125,-0.04461480227410793,1.3481379253722727,-0.36840120458528397
1746576151038942500,5.3009423828125,-0.12691080816686154,1.3892038029931484,-0.3519880491185933
1746576151048907300,5.3109072265625,-0.0386252064704895,1.3692134466268122,-0.23882987197227776
1746576151058871300,5.320871337890625,0.007611059525609016,1.3070591882698237,-0.14571602813554926
1746576151068836000,5.330836181640625,-0.0923386764794588,1.3280587216787039,-0.03752400376293808
1746576151078800100,5.340800048828125,-0.03907002762854099,1.3398378606691956,0.07314816525392234
1746576151088765200,5.35076513671875,-0.03218494428992271,1.3890557728245854,0.14727998951664192
1746576151098729500,5.3607294921875,-0.03442833930253982,0.7428261264394969,0.18892120107375085
1746576151108694300,5.3706943359375,-0.009137246179580689,-0.13563047738834283,-0.0194189131539315
1746576151118658300,5.380658203125,-0.02888590274453163,0.03895866707540117,0.00044581667189486324
1746576151128623400,5.390623291015625,-0.008983516922593117,0.013490911344438791,-0.02029593345047906
1746576151138587100,5.400587158203125,-0.005841127243638038,0.00016821444006636738,-0.0038575430778320877
1746576151148552200,5.41055224609375,-0.023496610921621322,0.008157368296757339,0.011419466232089325
1746576151158516200,5.42051611328125,-0.013918050715327262,-0.002070604862133041,0.010845191741781309
1746576151168481300,5.430481201171875,-0.01556114174723625,-0.00010829181321896612,0.010963575690751895
1746576151178445300,5.4404453125,-0.017056348741054533,0.013144691722653805,0.013171680194279178
1746576151188410400,5.450410400390625,-0.00658171647787094,0.007515143136773258,0.013549646661197765
1746576151198375200,5.460375244140625,-0.008676058408617973,0.007308770377095789,-0.00035015601138584313
1746576151208339200,5.470339111328125,-0.004635843107104301,0.013315235117124393,-0.0005230740260332823
1746576151218304300,5.48030419921875,0.0026958149552345273,0.0069913841241505,-0.005089770020218566
1746576151228268000,5.49026806640625,-0.016008885514736174,0.007044977474911138,0.019712699335580692
1746576151238233300,5.5002333984375,-0.004637012150883675,0.014436439433088526,0.019117409456707535
1746576151248197400,5.510197265625,-0.022144027268886566,0.014704132192255928,-0.0013999481921084225
1746576151258162200,5.520162109375,-0.017506430596113204,0.009678011125931515,0.012105274805473163
1746576151268126200,5.530126220703125,-0.006283025792241096,0.013259961265930905,0.011478411611402407
1746576151278091300,5.54009130859375,-0.015710779350996018,0.011062496887426823,-0.0018500939792487768
1746576151288055300,5.55005517578125,-0.017207155388593673,0.0035068847429472953,0.009875259864237158
1746576151298020400,5.560020263671875,-0.01989946321249008,-0.0035484862618148324,-0.0018523864010348914
1746576151307984400,5.569984375,-0.004635843107104301,0.012209073106665164,0.0014410747869405894
1746576151317949200,5.57994921875,-0.014361118307709694,0.012510777733288705,0.008846766199870034
1746576151327914200,5.589914306640625,-0.02094517287313938,0.02365192021434195,-0.0022000855938531455
1746576151337878300,5.599878173828125,-0.00628068770468235,0.01295508743468672,-0.0036278807741124183
1746576151347843000,5.609843017578125,-0.026032266879081726,0.013667829680768772,0.007574490374885499
1746576151357807000,5.61980712890625,-0.019746318477392194,0.013154637727933004,-0.012698445792496203
1746576151367772400,5.6297724609375,-0.01675415092408657,0.0070678377606905995,-0.004607557727536187
1746576151377736400,5.639736328125,-0.018549802169203756,0.006795514492178335,0.006584620821010321
1746576151387701200,5.649701171875,-0.00912321765422821,0.0081191277787555,0.012672178840078412
1746576151397665300,5.659665283203125,0.003147650375962257,0.011866799007635563,0.01512718904307112
1746576151407630000,5.669630126953125,0.0031482348978519436,0.002391964037297293,0.0047797176903579385
1746576151417594000,5.679593994140625,-0.019447043269872663,0.008178666813112795,0.0030295860874000936
1746576151427559200,5.68955908203125,-0.040994273689389224,0.0003974840181414038,-0.0076958608653862025
1746576151437523500,5.6995234375,-0.011664134308695792,-0.0027716475372668355,0.0027204288066830485
1746576151447488300,5.70948828125,-0.0041822541207075115,0.0063892078467644746,-0.0008941358281299471
1746576151457453000,5.719453125,-0.02034253080487251,0.005221168714389205,0.010843027184158563
1746576151467417900,5.72941796875,-0.018396657434105873,0.006044075070368126,0.021310170260630548
1746576151477383000,5.7393828125,-0.018996376892924306,0.0054265642265323545,0.00031088344692252576
1746576151487347000,5.749346923828125,-0.01854629503786564,0.009952919077174738,0.0005217588517814875
1746576151497312000,5.75931201171875,-0.021689269238710403,0.00504152869801037,0.021764188505290074
1746576151507276000,5.769276123046875,0.0007563713252544403,0.005752983169304207,0.015224840731266885
1746576151517241000,5.779240966796875,-0.020641221490502355,0.011159061730233951,-0.0008295826919376849
1746576151527204900,5.789204833984375,-0.021388824987411497,-0.0032013350582681594,-0.006437485701590776
1746576151537170000,5.799169921875,-0.01929506757855415,0.013554377635242417,-0.0009349610288627445
1746576151547134000,5.809134033203125,-0.020492752930521965,0.011774956005718559,0.011654535363288596
1746576151557099000,5.81909912109375,0.0034480946272611615,-0.0037351862066425383,0.012325000237068161
1746576151567063000,5.82906298828125,-0.0038841479569673536,0.00780888365264982,0.003198220652574673
1746576151577028000,5.839028076171875,-0.021092472389340398,0.012184760649316012,-0.008802032008999958
1746576151586992000,5.8489921875,-0.010469371566176415,0.004167686739237978,0.006799021623516455
1746576151596957000,5.85895703125,-0.026779870375990868,0.006787897441303357,0.010955310185905546
1746576151606922000,5.868921875,-0.012415244936943053,0.013991307747783139,0.004522062268014997
1746576151616886000,5.878885986328125,-0.030220366218686102,0.012910517640598118,0.006080918215727434
1746576151626851000,5.88885107421875,-0.01390986740887165,0.008561163324676454,0.006789970667380839
1746576151636815000,5.898815185546875,-0.02019406224489212,0.0143929016854614,-0.004748235706705599
1746576151646780000,5.90877978515625,-0.013161679390072822,0.006338162646116688,-0.013082686736574397
1746576151656744000,5.918743896484375,-0.031715573212504386,0.01284622936588712,0.013329300175094976
1746576151666709000,5.928708984375,-0.02019406224489212,0.007390448178024962,0.008769326182641089
1746576151676673000,5.938673095703125,-0.007025953114032745,0.012962010365817695,-0.0014187716235872358
1746576151686638000,5.94863818359375,-0.03141688252687454,0.014281148406676948,-0.01635589972096495
1746576151696602000,5.95860205078125,-0.00867313579916954,-0.003521945314761251,-0.00414214130602777
1746576151706567200,5.968567138671875,-0.02184066040813923,0.008744484002329408,0.01182728898115456
1746576151716531000,5.978531005859375,-0.016154431465268133,0.007707003313908353,0.007778369783377275
1746576151726496000,5.98849609375,-0.029772622451186177,-0.003173013146081939,-0.002486272990936413
1746576151736460000,5.9984599609375,-0.014659808993339537,0.014362333017261699,0.006546206773072481
1746576151746424800,6.0084248046875,-0.014660393515229225,0.007923112016310916,-0.005984992693737149
1746576151756390100,6.01839013671875,-0.020794950747489927,-0.0013997655290178953,-0.004193259571911767
1746576151766354200,6.028354248046875,-0.013462708163261413,0.0057309631337411696,0.013335090595064684
1746576151776319000,6.038319091796875,-0.006879822641611099,0.011224299853015691,0.0037671157148666677
1746576151786283000,6.048282958984375,-0.010022212320566177,0.007063335115509107,-0.004780220013856888
1746576151796248000,6.058248046875,-0.007030629289150238,0.0060703054901678115,-0.008759791169315577
1746576151806211800,6.0682119140625,-0.017056933262944222,0.005641439953073859,-0.00003941869493573904
1746576151816177000,6.078177001953125,-0.008078677037358284,0.010384853354189543,0.008243539609713479
1746576151826141200,6.08814111328125,-0.006583470043540001,0.008140481094038114,0.01823184052752331
1746576151836106000,6.09810595703125,-0.020201076507568357,0.01244229734065011,-0.004169202842889353
1746576151846070000,6.108070068359375,-0.01975099465250969,0.00007560425316914915,-0.013648494792636483
1746576151856035000,6.11803515625,-0.03650982175171375,0.0012825049580540507,-0.0024381321334280073
1746576151865999000,6.1279990234375,-0.02020049198567867,-0.004578687826078385,0.012017167263757437
1746576151875964000,6.1379638671875,-0.01720773991048336,0.007296824210975318,0.00715007268404588
1746576151885929200,6.14792919921875,-0.018404840740561486,0.008735296048875898,0.019926944874459878
1746576151895893000,6.15789306640625,-0.004637596672773361,0.010481491262232884,-0.0008743990811984985
1746576151905858000,6.167858154296875,-0.017056348741054533,0.008984594634827226,-0.0013041140016634017
1746576151915822000,6.177822021484375,-0.019001053068041802,0.005402936755772679,-0.008981571560679004
1746576151925787000,6.187786865234375,-0.020647651231288908,0.010879450204409658,-0.004199826310016214
1746576151935751000,6.1977509765625,-0.03980184903442859,0.007135368305258453,0.005121818259451538
1746576151945716000,6.207716064453125,-0.01585924791097641,0.012682517571002245,0.005798192284209653
1746576151955680000,6.217679931640625,-0.014661562559008598,0.0032307072832249103,-0.0004909253221005201
1746576151965645000,6.22764501953125,-0.011369535276293754,0.008821357763977722,0.004486333367507905
1746576151975609000,6.237609130859375,-0.017206570866703987,0.01196541881021112,0.011904464136902243
1746576151985574000,6.247573974609375,-0.008078092515468597,0.00876559072243981,0.01997621824312955
1746576151995538000,6.257537841796875,-0.017804536759853364,0.006506833743909373,0.008167122505791484
1746576152005503000,6.2675029296875,-0.026632570859789848,-0.0015903927302919328,-0.010563397392025217
1746576152015468000,6.277468017578125,-0.01047170965373516,-0.0049063488778658204,-0.012216626225458457
1746576152025432000,6.28743212890625,-0.013314824125170707,0.009634911769721656,0.006056066902261227
1746576152035397000,6.297397216796875,-0.014812369206547736,0.0075119373995345086,0.006008702362887561
1746576152045361200,6.307361083984375,-0.005385784691572189,0.009453801315464078,0.014161504082381725
1746576152055326000,6.317325927734375,-0.015562895312905311,0.0069673821940552435,0.00917813531239517
1746576152065290000,6.3272900390625,-0.013166940087080001,0.009307917438214644,-0.0025711382627952844
1746576152075255000,6.337255126953125,0.00014963760375976562,0.0050699784743599595,0.008355484684742986
1746576152085218800,6.34721875,0.004636427628993987,0.01306779969469644,0.010739301948202773
1746576152095184100,6.35718408203125,-0.02663841607868671,0.007286284550651907,0.00492976628607139
1746576152105148200,6.367148193359375,0.0019411971956491468,0.00625932525624521,0.020599857433652505
1746576152115113000,6.377113037109375,-0.028583704927563666,0.007424295648699626,0.006021781040169298
1746576152125077000,6.387076904296875,-0.025140286475419996,0.013914077793108298,-0.006625427755434066
1746576152135042000,6.3970419921875,-0.010477554872632026,0.010339881701301783,0.018040236078714952
1746576152145005800,6.407005859375,-0.015265958192944526,0.00958467028667219,0.0017777959280181675
1746576152154971100,6.41697119140625,-0.02484218031167984,0.013144152866536751,0.00605180171909742
1746576152164936200,6.426936279296875,-0.015413257709145546,0.011731235595000907,-0.00394052691985853
1746576152174900000,6.43689990234375,-0.006285948401689529,0.005864745581243187,0.00257553131012246
1746576152184865000,6.446864990234375,-0.02065115836262703,0.012251524008903652,-0.003661372051760554
1746576152194829000,6.4568291015625,-0.027384850531816482,0.012329146689223126,0.011948129748692735
1746576152204793900,6.4667939453125,-0.022147534400224683,0.011840340258972718,0.0036105825794395057
1746576152214758000,6.4767578125,-0.029629414588212964,0.00970046041975729,-0.001010081224841997
1746576152224723200,6.48672314453125,-0.011523264533281325,0.006799569612788036,-0.003822197769815102
1746576152234687000,6.49668701171875,-0.013318331256508827,0.01171069513047114,0.01429203512687236
1746576152244652000,6.506652099609375,-0.020800795966386794,0.00871931302845478,0.01702314972435124
1746576152254616000,6.516615966796875,-0.0074836337536573405,0.005284589339420199,0.015414317155070602
1746576152264580900,6.526580810546875,-0.0037426936596632,0.0019741678834892806,0.019742263356782495
1746576152274545000,6.536544921875,-0.019903554865717887,0.0058388256886973975,0.00045994566194713113
1746576152284510000,6.546510009765625,-0.015563479834794997,0.012753619178989902,-0.011124995063850656
1746576152294475000,6.55647509765625,-0.0173585465580225,0.008087061273213476,0.0074122946836519986
1746576152304439000,6.56643896484375,-0.014964929419755935,0.010222328869393095,0.013096642196690662
1746576152314404000,6.576404052734375,-0.02139993090331554,0.006453715317184105,0.012043607746111228
1746576152324368100,6.5863681640625,-0.013318915778398513,0.007085172487981617,0.012362902828352526
1746576152334333000,6.5963330078125,-0.020949849048256874,0.014151932536438106,0.012551657732948661
1746576152344297000,6.606296875,-0.028879473003745076,0.006724613813590258,0.007142300369543954
1746576152354262000,6.616261962890625,-0.03037643356323242,0.01281836867800448,0.011385728359268977
1746576152364226000,6.62622607421875,-0.01780687484741211,0.012230851113633251,-0.012585669600404798
1746576152374191000,6.636191162109375,-0.01855447834432125,0.011621194782690145,0.0017645071881823241
1746576152384155100,6.646155029296875,-0.022145780834555626,0.007388005059189163,0.018834692658344282
1746576152394120000,6.656119873046875,-0.021994974187016486,0.011166911676549353,0.0048153917919378725
1746576152404084000,6.666083984375,-0.017206570866703987,0.011410410709376446,0.0008331628885120153
1746576152414049000,6.676049072265625,-0.03157061178386211,-0.0028578599494183433,-0.010588340037036686
1746576152424014000,6.68601416015625,-0.015111059892177581,0.004197415157221257,0.011117058352567254
1746576152433978000,6.69597802734375,-0.012717442753911018,0.0074617050496395675,0.014176811249367892
1746576152443943000,6.70594287109375,-0.003589548924565315,0.006504262760910205,0.009779334342246874
1746576152453907000,6.715906982421875,-0.0035901334464550016,-0.009765392581862396,0.004226084129279479
1746576152463871700,6.725871826171875,-0.03142272774577141,-0.012452754802582785,-0.000412371060019359
1746576152473835800,6.735835693359375,-0.020348376023769377,0.00948915575663559,0.021664892849279565
1746576152483800600,6.745800537109375,-0.01765431463420391,0.011000290971947834,0.013106323340488597
1746576152493764600,6.7557646484375,-0.029327801293134687,0.013352685617259703,0.013922516827890648
1746576152503729700,6.765729736328125,-0.03516249879598617,0.007376679947576485,0.01437712872759439
1746576152513693700,6.775693603515625,-0.017653730112314223,0.0060255438998341555,-0.0003830627671442926
1746576152523658500,6.785658447265625,-0.020796119791269302,0.0152518611689331,-0.00258174185520038
1746576152533622800,6.795622802734375,-0.021993220621347426,0.005100373612623661,0.0017528441498521714
1746576152543587600,6.805587646484375,-0.014810615640878676,0.00449151643270161,0.0011464026893023402
1746576152553552600,6.815552734375,-0.022890461722016333,0.0076446193019161,0.006343076283251866
1746576152563516700,6.8255166015625,-0.026331542086601257,0.006804401051532477,-0.009298683818988502
1746576152573481500,6.8354814453125,-0.025284078860282895,-0.0003321362975053489,0.0015420052776113152
1746576152583445500,6.845445556640625,-0.020796119791269302,0.006106545847328379,0.01614056733669713
1746576152593410800,6.855410888671875,-0.008227145597338677,0.007739622375299222,0.022333083567582068
1746576152603374600,6.86537451171875,-0.011669395005702972,-0.0049699110667919735,-0.008751333868224173
1746576152613339600,6.875339599609375,-0.021844167539477346,0.000777277115965262,-0.012474281647801398
1746576152623303700,6.8853037109375,-0.004038461735844612,0.006411511010117828,0.013856474987510591
1746576152633268500,6.8952685546875,-0.017056933262944222,0.01013794765472412,0.014326969442935659
1746576152643232500,6.905232421875,-0.02169511445760727,0.010865124851535074,-0.010389136803662404
1746576152653197600,6.915197509765625,-0.00822656107544899,0.009708661992521956,-0.011488311950908972
1746576152663161600,6.92516162109375,-0.015858078867197034,0.015591564284963532,0.011695314898248762
1746576152673126700,6.935126708984375,-0.006130465579032898,0.005936422577966004,0.012962019498972221
1746576152683090700,6.945090576171875,-0.009421323817968367,0.011384353819512761,-0.0011240721264854073
1746576152693055700,6.9550556640625,-0.029921675533056257,0.007738809524546377,0.0017193528722040355
1746576152703020500,6.9650205078125,-0.020642975056171416,0.006485996451857499,-0.012230636484501883
1746576152712984600,6.974984619140625,-0.015404489880800246,0.006121889546932652,-0.0019657927807886152
1746576152722949600,6.98494970703125,0.005993687456846237,0.012521911048656329,0.010908128309622407
1746576152732913700,6.99491357421875,-0.003582534661889076,0.010646111805993131,0.00853775504962541
1746576152742878700,7.004878662109375,-0.01016717374920845,0.008674683868861756,0.021029179628472772
1746576152752842800,7.0148427734375,-0.003133037328720093,0.006059258939768187,0.005710349603975191
1746576152762807600,7.0248076171875,-0.020340777239203453,0.011976949417800642,0.0007384886086918413
1746576152772771600,7.034771484375,-0.01824468174278736,0.009501996971899643,-0.004519915976701304
1746576152782736600,7.044736572265625,-0.0062742579638957975,0.010957278380705975,0.02353623054595664
1746576152792700400,7.054700439453125,-0.010613748472929,-0.004908668699115514,0.006935881944093853
1746576152802665700,7.064665771484375,-0.016150339812040327,0.0035455864852527155,-0.0007427537918556481
1746576152812630500,7.074630615234375,-0.007620411875844001,0.00912215364172589,0.005171466087456792
1746576152822594600,7.084594482421875,-0.01719604947268963,0.011360982077079824,0.0041230347467586395
1746576152832559600,7.0945595703125,-0.017793430843949316,0.004248008266719989,0.008908752919640392
1746576152842523600,7.104523681640625,-0.010011106404662132,0.008359622003743425,-0.004332841572538018
1746576152852488400,7.114488525390625,-0.014051321706175804,0.004286326416535303,-0.0010030030300840734
1746576152862452700,7.12445263671875,-0.014350012391805647,0.007120992720033973,-0.0069035140444524586
1746576152872417800,7.134417724609375,-0.018988193586468697,0.010590906453458592,0.009949375413218513
1746576152882381600,7.144381591796875,-0.011806173127889633,-0.005727236806694418,0.012529007509723305
1746576152892346600,7.1543466796875,-0.018839725026488303,-0.001176213305676356,-0.004539698389405385
1746576152902310700,7.164310546875,-0.02497369773685932,0.010642221082164905,0.011709462154610082
1746576152912275500,7.174275390625,-0.017342179945111273,0.00956186936639715,0.004371054691076279
1746576152922239500,7.184239501953125,-0.02168108593225479,0.004456134592066519,0.0010675013673491775
1746576152932204800,7.194204833984375,-0.0177899237126112,0.002938546803081408,0.015083322501881047
1746576152942169600,7.204169677734375,-0.0035749358773231503,0.005471134020620957,-0.0023681813029106705
1746576152952133600,7.214133544921875,-0.008661445361375808,0.01910184199481737,0.0022756624475587157
1746576152962098700,7.2240986328125,-0.03140694565474987,0.0037410953576210884,-0.003122095809597522
1746576152972062500,7.2340625,-0.007165069323778152,0.008021800317545421,0.009736618578527123
1746576152982027500,7.244027587890625,-0.0049205052673816675,0.0064645015726797275,0.0166838073679246
1746576152991991600,7.253991455078125,-0.021529694762825964,0.003998321521701291,0.022815423724427818
1746576153001956600,7.26395654296875,-0.016592238360643385,0.007906302445405163,0.0017497388773132115
1746576153011920600,7.273920654296875,-0.007314122405648231,0.009399267249787225,-0.0048871418538969005
1746576153021885700,7.2838857421875,-0.016140987461805343,0.004161133700865321,0.010770519070373847
1746576153031849700,7.293849609375,-0.01853577364385128,0.0011648196954047306,0.01785693366737105
1746576153041814500,7.303814453125,-0.031254969963431356,0.006555664154584519,-0.0006890051774680614
1746576153051778600,7.313778564453125,-0.016590484794974325,0.00594092978972476,-0.0003798844293691218
1746576153061743600,7.32374365234375,-0.009108604606986046,0.011843564262520522,0.004203232976654544
1746576153071708700,7.333708740234375,-0.023771920731663704,0.0077609985234681515,0.01312815157980658
1746576153081672700,7.343672607421875,-0.019582652348279952,0.007772113572526723,0.02152511905240826
1746576153091637500,7.353637451171875,-0.019133739537000656,0.011501148599595763,-0.003624693303182721
1746576153101601500,7.3636015625,-0.020330255845189094,0.007159612263948656,0.004870373382186517
1746576153111566600,7.373566650390625,-0.018085107266902923,0.010769710786198265,0.022147132541425526
1746576153121530600,7.383530517578125,-0.026314590951800346,0.005216994862770661,0.008971945215808227
1746576153131495700,7.39349560546875,-0.028259879800677297,0.009219946893816814,0.00044986265935003755
1746576153141459700,7.403459716796875,-0.00835807850062847,0.005474659418268129,-0.012124153035879135
1746576153151424800,7.4134248046875,-0.011649521261453627,0.004754825277696363,0.01191714095538482
1746576153161388500,7.423388427734375,-0.016886837393045424,0.004372200901969336,0.008359923397842793
1746576153171353600,7.433353515625,-0.020627777487039565,0.005303111376799643,0.010374176696548238
1746576153181318400,7.443318359375,-0.015988427248597146,0.0061644180809846145,-0.002211374172847718
1746576153191282700,7.45328271484375,-0.009103928431868552,-0.0019137018339475615,-0.014891772851999848
1746576153201247700,7.463247802734375,-0.007008417457342147,0.010357179895974695,0.009439370931312441
1746576153211211800,7.473211669921875,-0.004614215797185898,0.006743450944800861,0.0066167238591704515
1746576153221176600,7.483176513671875,-0.020027473506331443,0.009595127748604864,0.009679171036556362
1746576153231140600,7.493140625,-0.023171032229065892,0.006502984119276516,0.01841419309079647
1746576153241105700,7.503105712890625,-0.011498130092024803,0.008999632373754866,-0.00649179143840447
1746576153251069400,7.5130693359375,-0.011496961048245428,0.008924329514685086,0.0034705530542414632
1746576153261034800,7.52303466796875,-0.01897884123623371,0.011176665885583498,0.001366575645469129
1746576153270998800,7.532998779296875,-0.021223405292630195,0.007864833357278257,0.01663449746663682
1746576153280963600,7.542963623046875,-0.023317747223377226,0.004806308869761414,0.012620430386532096
1746576153290928600,7.5529287109375,-0.0053606502503156656,0.009668713574623688,0.0036101715874858197
1746576153300892700,7.562892578125,-0.00954933411180973,0.005996390870586037,0.0007347440153360367
1746576153310857500,7.572857421875,-0.008201426634192465,0.011052929908060468,0.00648733445899561
1746576153320821500,7.582821533203125,-0.013588964891433715,0.008303708831733092,0.010510379429999737
1746576153330786800,7.592786865234375,-0.005958031621575355,0.008218099207780324,-0.0013142244037240743
1746576153340750600,7.60275048828125,-0.02196867070198059,0.007985820255288854,0.0030369017441757022
1746576153350715600,7.612715576171875,-0.020622516790032387,0.011020278880628757,0.013845588267315178
1746576153360679700,7.6226796875,-0.02152034241259098,0.0021793533330783247,-0.00022870332249440252
1746576153370644500,7.63264453125,-0.028254034581780434,0.00792481534963008,-0.009439133469294756
1746576153380608500,7.6426083984375,-0.017179682859778403,0.011073940730048342,0.004960764212533831
1746576153390573800,7.65257373046875,-0.02840191861987114,0.0024253000513184816,0.010873175727250054
1746576153400538600,7.66253857421875,-0.009397358420491218,0.00260405415170826,-0.0019131675444077699
1746576153410502700,7.672502685546875,-0.020619594180583952,0.02025055080563761,-0.009144096045475452
1746576153420467700,7.6824677734375,-0.016578794357180595,0.0073752643086249,0.000529823427228257
1746576153430431500,7.692431396484375,-0.017925532791018484,0.007384557293355465,-0.00696799411540851
1746576153440396500,7.702396484375,0.005268295791745185,0.0059326779846102,0.0028926983673591166
1746576153450360600,7.712360595703125,-0.026155600997805593,-0.006791427405527793,0.008876695547252893
1746576153460325000,7.7223251953125,-0.03887479731738567,-0.004036927365884185,0.0057894427221734076
1746576153470289000,7.732288818359375,-0.022862404671311377,0.004840069575468078,0.005595454520033672
1746576153480254000,7.74225390625,-0.01582826825082302,0.007305372843611985,0.011725700903357937
1746576153490218000,7.752218017578125,-0.017623919495940207,-0.0030372259711613876,-0.00041428902246989306
1746576153500183000,7.76218310546875,-0.016876315999031066,-0.006972967118048109,0.005722441900568083
1746576153510148000,7.772148193359375,-0.018223054432868955,0.013980206398456357,0.009889562384225427
1746576153520112000,7.782112060546875,-0.0020627777487039565,0.01776151960203424,0.0015461517297662795
1746576153530077000,7.792076904296875,-0.02899754642546177,0.00622023535487242,-0.0008454287150409072
1746576153540041000,7.802041015625,-0.023461539608240125,0.015551497136056422,0.0009606160599272697
1746576153550006000,7.812006103515625,-0.024209727627038956,0.009224668734706938,-0.012597990225860849
1746576153559969800,7.8219697265625,-0.013285598030686378,0.010243321425071917,0.0035370424191933122
1746576153569935000,7.83193505859375,-0.026304069557785987,0.0023483532244339585,-0.002932674184720963
1746576153579899100,7.841899169921875,-0.019270517659187317,0.0068175436608958985,-0.007166247500712051
1746576153589864000,7.851864013671875,-0.012836100697517394,0.0063570454430999235,0.011265307716839016
1746576153599828000,7.861827880859375,-0.011938859596848487,-0.0018945678752148522,0.012378557055210694
1746576153609793000,7.87179296875,-0.02600537887215614,-0.0003102349929511547,-0.005977759235352278
1746576153619757800,7.8817578125,-0.021964579048752784,0.003737200067215599,0.006680117084737867
1746576153629722000,7.89172216796875,-0.011790391036868094,0.002492081677215174,0.004391047166334465
1746576153639687200,7.901687255859375,-0.012238719326257705,-0.002778963194042444,0.00125914234877564
1746576153649651000,7.91165087890625,-0.02151683528125286,-0.002630143007612787,0.0030760464444756505
1746576153659616000,7.921615966796875,0.002425181320309639,0.006750930998357944,0.014621668940037488
1746576153669580000,7.931580078125,-0.009994155269861221,0.010797201581322587,0.020245929429447276
1746576153679544800,7.941544921875,-0.021216391029953954,0.001886923424876295,0.011003688505431637
1746576153689508900,7.9515087890625,-0.0149316116720438,0.010674579848651774,-0.01441216350835748
1746576153699474200,7.96147412109375,-0.02076689369678497,0.006991105562937446,-0.0016167418811004607
1746576153709439000,7.97143896484375,-0.008048281899094581,0.003293538819788955,0.0043481578726787115
1746576153719403000,7.981403076171875,-0.0038578444719314575,0.003435700936568901,0.014327553964825346
1746576153729368000,7.9913681640625,-0.014032617005705832,0.0017921075811609625,0.0057705827580764885
1746576153739331800,8.001331787109375,-0.006401099213957786,0.009013405170780605,0.0009622143619693815
1746576153749297000,8.011296875,-0.0280985517591238,0.005704604849778115,-0.0020108100994490085
1746576153759261000,8.021260986328125,-0.012835516175627708,0.002638760138908401,0.006669349095551297
1746576153769226000,8.03122607421875,-0.011488777741789817,0.0077386633940739556,0.011044294510455802
1746576153779190000,8.04118994140625,-0.015829437294602393,0.009201557287178001,-0.011076096154516562
1746576153789155000,8.051155029296876,-0.017475450935959817,0.005771272311243228,0.004334330276725813
1746576153799119000,8.061119140625,-0.02570610366463661,0.009389873800356871,0.021997896796464918
1746576153809084000,8.071083984375,-0.014482114338874816,0.007427894111583009,0.012162146958708762
1746576153819049200,8.08104931640625,-0.011937106031179428,0.004135684165777639,0.010295229708822443
1746576153829013000,8.091012939453124,-0.018670213678479194,0.00804897145226132,-0.002950867428537458
1746576153838978000,8.10097802734375,-0.018969488885998725,0.008928060408309102,-0.002328808273747563
1746576153848942000,8.110942138671875,-0.006849427503347397,0.009984414760558865,0.0012985701768659054
1746576153858907000,8.120906982421875,-0.010740005201101303,0.0027622038554865865,-0.006439522395050153
1746576153868871000,8.130870849609375,-0.015528408521413802,0.0030972444961313156,0.0097516517508775
1746576153878836000,8.1408359375,-0.02241173829436302,0.0036940093794604763,0.0001926090958062559
1746576153888800000,8.150800048828126,-0.01492985810637474,0.0023348133228486404,-0.001423256002459675
1746576153898765000,8.16076513671875,-0.01881985128223896,0.003789816170441918,0.01081401115222834
1746576153908730000,8.170730224609375,-0.016126958936452863,0.010782008578768,0.01027465271167457
1746576153918694100,8.180694091796875,-0.024207389539480206,0.008178895141975954,0.0003596362257841974
1746576153928659000,8.190658935546875,-0.015528993043303489,0.006501659811870194,0.005049310145666823
1746576153938623000,8.200623046875,-0.007000234150886535,-0.005381738704117014,0.009785334824770689
1746576153948587800,8.210587890625,-0.005055529823899269,0.007157991129020228,0.005237754523009061
1746576153958552000,8.220552001953125,-0.005206336471438407,0.009882091463822872,0.0012569229922257364
1746576153968517000,8.23051708984375,-0.026155600997805593,0.008823147862264886,0.00036655915691517294
1746576153978481200,8.240481201171875,-0.02016834328174591,0.007299052700679749,0.0029482827458065003
1746576153988446000,8.250446044921874,-0.009693711018562316,-0.003489572848542593,0.020614315217267722
1746576153998410000,8.260409912109376,-0.02106499986052513,0.001597644454985857,0.02015363890295848
1746576154008375000,8.270375,-0.03124035691618919,-0.0059204760901629926,-0.010640901341335848
1746576154018340000,8.280340087890625,-0.007148702710866928,0.008952961954125203,-0.013518520870571956
1746576154028304100,8.29030419921875,-0.011039280408620834,0.002346138434461318,0.007565055826259776
1746576154038269000,8.30026904296875,-0.009392682245373726,0.01794347943966277,0.010138614375004544
1746576154048233000,8.31023291015625,-0.02106499986052513,0.00700554508024361,0.0021635529757477344
1746576154058198000,8.320197998046876,-0.021512743628025053,0.00800190374040976,-0.007633527085743844
1746576154068162000,8.330162109375,-0.013583119672536849,-0.0016694721487583591,0.006350465005263686
1746576154078126800,8.340126953125,-0.012385434320569037,-0.007111695168726145,0.00889939143625088
1746576154088091000,8.3500908203125,-0.012534487402439117,-0.004815117797302082,-0.0018369787693489341
1746576154098056200,8.36005615234375,-0.019717092382907867,-0.005510666879988275,0.010336767295608297
1746576154108020000,8.37002001953125,-0.016724340307712554,0.004204516184865497,0.004367483627656475
1746576154117985000,8.379985107421875,-0.01702420003712177,0.002336594287981279,-0.0006493855531327426
1746576154127950000,8.3899501953125,-0.026601591199636457,0.003983772406540811,0.004494197013555095
1746576154137913900,8.399913818359375,-0.01897007340788841,0.0030412125931121407,0.00021291209831833839
1746576154147879200,8.409879150390625,-0.0056529111951589585,0.008568643378233537,0.005040807178802788
1746576154157843200,8.41984326171875,-0.019119711011648177,0.0010442026901524514,-0.0018632091891486197
1746576154167808000,8.42980810546875,-0.022412322816252706,0.006935708414157852,-0.0017107768401037901
1746576154177772000,8.43977197265625,-0.02181435692310333,0.00968974722949788,0.009863715556915849
1746576154187737000,8.449737060546875,-0.022712182545661926,0.008135357394348829,0.002519344143476337
1746576154197700900,8.459700927734374,-0.027350363740324974,0.005099318733275867,-0.0009286682853940874
1746576154207666000,8.469666015625,-0.01867079820036888,-0.00007122490557376294,-0.012428762005642056
1746576154217631000,8.479630859375,-0.015977321332693098,0.0016963601556839421,0.012281791283003985
1746576154227595000,8.489594970703125,-0.023009704187512397,0.00460704627088271,0.010175914178090169
1746576154237560000,8.49956005859375,-0.01567746160328388,0.0029899892959510906,-0.0028355248200241474
1746576154247524000,8.509524169921875,-0.029144845941662785,0.008503683816664852,0.0004494242679327726
1746576154257489000,8.519489013671874,-0.013732757276296614,0.009693774950644002,-0.0020419906890019775
1746576154267453000,8.529452880859376,-0.02001753663420677,0.0026183429719647392,0.0020218794827349482
1746576154277418000,8.53941796875,-0.013581950628757476,0.004213526041805744,-0.0026618122209329156
1746576154287381800,8.5493818359375,-0.004901800566911697,-0.002299527380336076,-0.01245444443617016
1746576154297347000,8.55934716796875,-0.015075988578796386,-0.00028185371526051313,-0.023412987758778033
1746576154307312000,8.56931201171875,-0.0043014965862035745,0.0023338132424280044,-0.004889169414201751
1746576154317276000,8.57927587890625,-0.022706921848654745,0.009474328080262056,0.01250490511492826
1746576154327241000,8.589240966796876,-0.0060977323532104485,0.0014081862974911928,0.005939436518959701
1746576154337205000,8.599205078125,-0.009240122032165527,-0.008308028813824057,0.011167071506753563
1746576154347170000,8.609170166015625,-0.007593523868918419,0.00641447471876163,0.0031862196875270454
1746576154357134000,8.619134033203125,-0.00355447761118412,0.008193001299141906,0.00043834575149230657
1746576154367099100,8.62909912109375,-0.006398176604509353,0.003228483360097743,0.011007716226577757
1746576154377063000,8.63906298828125,-0.026601006677746772,0.006214385569398291,0.011435485785128548
1746576154387028000,8.649028076171875,-0.01642564962208271,0.001677180531178601,0.0018186850608326493
1746576154396992000,8.658991943359375,-0.011937106031179428,0.0019188757659867404,-0.0005742653571534902
1746576154406956800,8.668956787109375,-0.008346388062834739,0.004517842750623822,-0.00029774083755910395
1746576154416922000,8.678922119140625,-0.034981297010183335,0.003148728088196367,0.0013060958961956203
1746576154426886100,8.68888623046875,-0.014181085565686225,0.0047769092453410844,0.011892033913591876
1746576154436851000,8.698850830078126,-0.002209492743015289,0.008656618489208632,0.019345464325230568
1746576154446815000,8.70881494140625,-0.02106324629485607,0.009128099325322546,0.007881939755706117
1746576154456780300,8.7187802734375,-0.014479191729426383,-0.007164443702693097,-0.008426668491121381
1746576154466744000,8.728744140625,-0.01073883615732193,-0.0030778776419581842,0.009843348622322083
1746576154476709400,8.73870947265625,-0.005202829340100288,-0.013905702690407633,0.006733080247836187
1746576154486673400,8.74867333984375,0.003923895445466041,-0.007934957717731594,0.00953431007261388
1746576154496638200,8.75863818359375,-0.020617256093025206,0.0025851439552614466,0.007297344800783321
1746576154506603300,8.768603271484375,-0.023908698853850364,-0.004112129760254174,-0.00836982373734936
1746576154516567300,8.7785673828125,-0.014181670087575912,0.006977446930343285,-0.017991912558116017
1746576154526532000,8.788531982421874,-0.030341362249851227,0.005358033601543866,-0.009579637918528169
1746576154536496000,8.79849609375,-0.01911737292408943,0.01139641415006481,0.0030885679993312804
1746576154546461400,8.80846142578125,-0.022258593559265134,0.018102437427616677,-0.0003079973700921982
1746576154556425200,8.81842529296875,-0.010586860466003418,0.01721226995512843,-0.011811159830261021
1746576154566390300,8.828390380859375,-0.01866729106903076,0.0010923937800107523,-0.0071807966158725315
1746576154576354300,8.838354248046874,-0.014029109874367713,0.005292521484126337,-0.0044846985328476875
1746576154586319000,8.848319091796874,-0.01073708259165287,0.004202863083896227,0.0069654276989866044
1746576154596283100,8.858283203125,-0.02076397108733654,0.006661896441457793,0.019748802695423364
1746576154606248200,8.868248291015625,-0.013282675421237945,0.010055351971765047,-0.0007953790282364935
1746576154616213200,8.878213134765625,-0.011336217528581619,-0.004208598704938777,0.003325144101027399
1746576154626177300,8.88817724609375,-0.003704699736833572,-0.015696864990075117,0.005843255268642679
1746576154636142300,8.898142333984374,-0.0019090484917163848,-0.0019266069812932981,0.00824348481078632
1746576154646106400,8.9081064453125,-0.016124620848894117,-0.010917964717047288,0.0076201561475172635
1746576154656071200,8.9180712890625,-0.013431143981218337,-0.0015131582090398296,0.004196574907004833
1746576154666035200,8.92803515625,-0.018071078741550443,0.0011908491858048365,0.0170368585892953
1746576154676000300,8.938000244140625,-0.019717092382907867,0.002049516408331692,0.010008010265277699
1746576154685964300,8.94796435546875,-0.006249123522639274,0.008633840401819907,-0.0027407044097315517
1746576154695929300,8.957929443359374,-0.0188180977165699,0.010477280877996235,-0.009458322226954623
1746576154705894100,8.96789404296875,-0.022857728496193885,0.019261430170433594,0.01129997717142105
1746576154715858200,8.977858154296875,-0.01552373234629631,0.019242698070500046,0.011031078835856169
1746576154725823200,8.9878232421875,-0.017169161465764044,0.014303319139289668,-0.006404204486496746
1746576154735787300,8.997787353515625,-0.01971475429534912,0.0010009754697792232,-0.008293552763899788
1746576154745752300,9.00775244140625,-0.017769465446472166,0.0038184851425001397,0.007430579259013756
1746576154755716400,9.01771630859375,-0.02016308258473873,-0.0010201779271708802,0.011624542083824053
1746576154765681200,9.02768115234375,-0.01896656627655029,-0.011015114081744104,0.010907580320350826
1746576154775645200,9.037645263671875,-0.009838087925314903,-0.0051592002609279,0.00711283681304194
1746576154785610200,9.0476103515625,-0.011783961296081542,-0.0009254579815780743,-0.00664014126737602
1746576154795574300,9.05757421875,-0.012532149314880371,-0.0020091432987479492,0.008031266832211986
1746576154805539300,9.067539306640626,-0.025251930156350133,0.001507449987460859,0.006485233833454549
1746576154815504400,9.07750439453125,-0.02779576942026615,0.001986981699289754,0.005056050413707271
1746576154825468400,9.087468505859375,-0.01462707576751709,0.007566955522401258,-0.004942625767644495
1746576154835433200,9.09743310546875,-0.014775544327497482,0.0062934969539055596,-0.013075782071752473
1746576154845397200,9.107397216796874,-0.0246522106975317,0.008288378831860609,0.0002578928843606263
1746576154855362300,9.1173623046875,-0.022407646641135214,0.0022201968001201748,0.0002044547972269356
1746576154865326000,9.127326171875,-0.01118541088104248,0.007798385091521777,0.008030864973412826
1746576154875291400,9.13729150390625,-0.023756138640642164,0.0020298572932137176,0.003610253785876557
1746576154885255400,9.14725537109375,-0.01492810454070568,0.0047808913007145746,0.013486691827047615
1746576154895220200,9.15722021484375,-0.005949263793230056,0.002652217842102982,-0.0018007475453428923
1746576154905185300,9.167185302734374,-0.022410569250583646,0.004635852240258828,0.006486777336569502
1746576154915149300,9.1771494140625,-0.013882394880056381,-0.0059580635876161974,0.0148239317801781
1746576154925114000,9.187114013671875,-0.007597615522146224,-0.000023819267004728315,0.01652864420567639
1746576154935078100,9.197078125,-0.00969312649667263,-0.008612299856869503,0.00514795734770596
1746576154945043200,9.207043212890625,-0.02211246308684349,0.0022802929569035765,0.007946456359280273
1746576154955007200,9.21700732421875,-0.010589198553562164,0.005930883319745771,0.00865926253744401
1746576154964972300,9.22697216796875,-0.01403144796192646,0.002673151032277383,0.014484041434479877
1746576154974936300,9.236936279296875,-0.01103811136484146,0.002185285316943191,-0.004816980960825458
1746576154984901000,9.246901123046875,-0.012533318358659744,0.003378458890574984,-0.00849836375415325
1746576154994865200,9.256865234375,-0.014179332000017164,0.014232103366870433,-0.001975391726195812
1746576155004830500,9.26683056640625,-0.01672375578582287,0.0021137361843837424,-0.0004547032312490046
1746576155014795300,9.276795166015624,-0.00729717127084732,0.010233480451069771,-0.010282096232613547
1746576155024759300,9.28675927734375,-0.02420680501759052,0.005751279835985042,-0.0012745317141525446
1746576155034724400,9.296724365234375,-0.017922610181570053,-0.0002875299707986414,0.009579857114236801
1746576155044688100,9.306688232421875,-0.019717676904797553,0.0056803608910879115,-0.0035941337681375442
1746576155054653200,9.316653076171875,-0.013133037817478179,-0.002095168481231667,-0.0019959595901891587
1746576155064617200,9.3266171875,-0.015976736810803412,0.006191000127233564,0.012812756354548037
1746576155074582300,9.336582275390626,-0.011786883905529975,0.00953159295914229,-0.0031498605993576347
1746576155084546300,9.34654638671875,-0.015227964270114898,-0.0039833796808961775,0.013020115494914351
1746576155094511400,9.356511474609375,-0.017922025659680367,0.005572228908073157,-0.014287879541562869
1746576155104476200,9.36647607421875,-0.026003040784597396,-0.004057632227195427,-0.002263990276074037
1746576155114440200,9.376440185546874,-0.019867899030447004,0.01553769237298984,0.013293817869760095
1746576155124405200,9.3864052734375,-0.004754501050710678,0.015113046353287063,0.004476707022637128
1746576155134369300,9.396369384765626,-0.020316227319836615,0.0010674831010401248,-0.0008253723077010363
1746576155144334300,9.406334228515625,-0.015377601873874663,0.006896490648621693,0.012606237464398144
1746576155154298400,9.41629833984375,-0.006849427503347397,0.003269988980842754,-0.007356125783314928
1746576155164263200,9.42626318359375,-0.006699205377697944,0.0060330102536594495,0.01364384601698257
1746576155174227200,9.436227294921874,-0.0040068975538015365,0.002309651482128538,0.003979991280566901
1746576155184192300,9.446192138671876,-0.01762333497405052,-0.002587797136651352,0.013945322314742952
1746576155194156300,9.45615625,-0.014930442628264427,0.008734218336641788,0.012103274644631892
1746576155204121300,9.466121337890625,-0.030043840608000753,0.0022899878004333,-0.007927450264710933
1746576155214086400,9.47608642578125,-0.01328501350879669,-0.0015739302192581816,-0.011623363906890153
1746576155224050200,9.48605029296875,-0.01657820983529091,0.0026293347234372048,0.009099581050314009
1746576155234015200,9.49601513671875,-0.018972996017336843,0.007774643456330522,0.021383226363686843
1746576155243979300,9.505979248046875,-0.031842414462566374,0.00605016231785994,0.010044497217610478
1746576155253944000,9.515944091796875,-0.01717851381599903,0.009275129413465038,-0.003885472264373675
1746576155263908000,9.525908203125,-0.012241057413816451,0.004873259459016844,-0.010756910670129582
1746576155273873400,9.535873291015625,-0.020920622953772543,0.009657972984900698,-0.0017218827560078352
1746576155283837400,9.54583740234375,-0.0074538231372833245,0.00557853078469634,0.0068665978338569396
1746576155293802200,9.55580224609375,-0.022417583513259887,0.007996341649303212,0.006863675224408507
1746576155303767300,9.565767333984375,-0.020921791997551918,0.007452096971077844,0.004631934116967022
1746576155313731000,9.57573095703125,-0.023465046739578246,0.004604246959020383,0.003701877592084929
1746576155323696400,9.5856962890625,-0.02152034241259098,-0.0038890113617526365,0.008519315210636706
1746576155333660400,9.595660400390624,-0.008203180199861526,0.004055463102995417,-0.0028317528272047638
1746576155343625200,9.605625244140626,-0.013890578186511992,0.009553928088536485,-0.0007301500386092812
1746576155353589200,9.61558935546875,-0.01613455772101879,0.006456898221536539,-0.0008107318609952926
1746576155363554300,9.62555419921875,-0.02451484805345535,0.003505122044123709,-0.011843180670030415
1746576155373518300,9.635518310546875,-0.029902970832586286,0.010118831962300463,-0.002771455741021782
1746576155383483100,9.645483154296874,-0.025115152034163472,0.006648087111813947,0.008199125079251825
1746576155393447200,9.655447265625,-0.030351883643865582,0.005954323560837656,-0.002188367756595835
1746576155403412200,9.665412109375,-0.018680150550603864,0.007684417022764682,-0.002876432219147682
1746576155413377300,9.675377197265625,-0.013591887500882149,0.005595691982051358,0.021792355153849346
1746576155423341300,9.68534130859375,-0.018380290821194648,0.005405722367903217,0.009005199031438678
1746576155433306000,9.69530615234375,-0.02825637266933918,0.008344438134343364,-0.0028881774558685716
1746576155443270100,9.705270263671874,-0.014340660041570663,0.008646951045142487,0.00118724615634419
1746576155453235200,9.715235107421876,-0.029904724398255346,-0.01580828490871936,0.0027776754192542284
1746576155463199500,9.725199462890625,-0.022123569002747534,-0.0021022740754531697,-0.004282572690024971
1746576155473164500,9.73516455078125,-0.026314006429910657,-0.012463070700620301,0.01865369180194102
1746576155483128600,9.745128662109375,-0.020925883650779725,-0.0025102703544544053,0.013383989504398777
1746576155493093400,9.75509326171875,-0.014939794978499411,-0.004923966732947155,0.011064213920477777
1746576155503057400,9.765057373046876,-0.009551672199368475,0.006689231972955167,0.010730241858912632
1746576155513022500,9.7750224609375,-0.005212181690335273,0.002613854026515037,0.0019070939966477453
1746576155522987500,9.784987548828125,-0.01778232492804527,0.007303404648811556,-0.001353871427522972
1746576155532951600,9.79495166015625,-0.013892331752181053,0.018567109497031196,0.012448453086800872
1746576155542916600,9.80491650390625,-0.0210749367326498,0.008123018502583727,-0.006734614617796614
1746576155552880600,9.814880615234374,-0.009702478846907616,0.005606857263459824,0.004632911364501342
1746576155562845400,9.824845458984376,-0.026312837386131285,0.00232201777335722,0.011852551286574453
1746576155572809500,9.8348095703125,-0.023469722914695738,0.005783748200326226,0.010636124701518564
1746576155582774500,9.8447744140625,-0.017931962531805037,0.001999790948512964,0.0008575210116337984
1746576155592738300,9.85473828125,-0.018680150550603864,0.01030106122798752,-0.013278108843974769
1746576155602703600,9.86470361328125,0.0043634559065103525,-0.003977698858780786,0.008128260933281853
1746576155612668400,9.87466845703125,-0.0016214637219905852,-0.00048253651966806497,0.013656879028491675
1746576155622632400,9.884632568359375,-0.028856676650047302,-0.000730455999285914,0.002038821484381333
1746576155632597500,9.894597412109375,-0.021224574336409566,0.002554849281697534,0.0129308206431102
1746576155642561500,9.9045615234375,-0.019578560695052146,-0.0011885430642869324,0.005738726315088569
1746576155652526600,9.914526611328125,-0.017484218764305115,-0.0033688690783223135,0.006644671312021091
1746576155662490600,9.92449072265625,-0.0167354462236166,0.006496157086268067,0.0024511834112461656
1746576155672455400,9.934455322265626,-0.007607552394270896,0.0028595998153556137,-0.012957809114735572
1746576155682419500,9.94441943359375,-0.004914660048484802,0.007079628663184121,0.01415658131209202
1746576155692384500,9.954384521484375,-0.02691080327928066,0.022204082326474597,-0.002819313470739871
1746576155702349300,9.964349365234375,-0.0038660277783870694,0.012603506651194765,-0.007490209624916314
1746576155712313300,9.974313232421874,-0.02885492308437824,0.0016683168047107754,0.006512067041452974
1746576155722278700,9.984278564453126,-0.00850362445116043,0.010779487828118725,-0.002949990645702928
1746576155732242700,9.99424267578125,-0.006259060394763946,0.002353047665860504,0.010739813404856248
1746576155742207500,10.00420751953125,-0.030799627411365507,-0.0025375510870246213,0.0007153999940492212
1746576155752171500,10.014171630859375,-0.030500936725735662,-0.0025071468156063928,0.01059672427289188
1746576155762136600,10.024136474609374,-0.02092471460700035,-0.0006708438996924087,0.009430676168203353
1746576155772100400,10.034100341796876,-0.005062544086575508,-0.005507045584218577,0.009445252682827412
1746576155782065400,10.0440654296875,-0.015537176349759102,-0.0020596496432786805,-0.011559678420377894
1746576155792029700,10.05402978515625,-0.008054711639881133,0.00826961933246348,0.008735524377739057
1746576155801994500,10.063994384765625,-0.02122223624885082,0.007506188078760169,0.01247813583901152
1746576155811959600,10.07395947265625,-0.03857786019742489,0.007877985099796205,0.013207756154658272
1746576155821923600,10.083923583984374,-0.008799392527341842,0.009364282701374032,0.0038940756959374993
1746576155831888400,10.093888427734376,-0.004609539622068405,0.011509774864045903,-0.0001804802665952593
1746576155841852400,10.103852294921875,-0.020620763224363327,0.019250237489561547,0.005800484705995768
1746576155851817700,10.113817626953125,-0.020172434934973716,0.010437067598616704,0.016769841683562842
1746576155861781500,10.123781494140625,0.004368716603517532,0.002766386840259656,-0.00016562062418088317
1746576155871746600,10.13374658203125,-0.004310264414548874,0.008016708583896979,0.0024006131346337497
1746576155881710600,10.143710693359376,-0.008350479716062545,0.0021528808846836907,0.0018038893504999578
1746576155891675400,10.15367529296875,-0.01852525224983692,0.003177903950330801,0.012973865200392901
1746576155901639400,10.163639404296875,-0.004907061263918876,-0.005964438529475592,0.01226247466118075
1746576155911604500,10.1736044921875,-0.013435820156335829,-0.0003923055195249617,-0.0008118095732294022
1746576155921569500,10.183569580078125,-0.017775310665369033,-0.0012616676660021765,0.021327148794895036
1746576155931533600,10.193533447265626,-0.020917115822434423,0.005023910842929035,0.011258512649871408
1746576155941498600,10.20349853515625,-0.007000818672776222,0.0041590924408286805,0.0026860150804277508
1746576155951462400,10.21346240234375,-0.02705167305469513,0.006744693053816445,-0.0109987200693693
1746576155961427500,10.223427490234375,-0.02794949867725372,0.008810187915991991,0.0026057255189865826
1746576155971391500,10.2333916015625,-0.004305003717541694,0.01830280513819307,-0.0031671405277214943
1746576155981356500,10.2433564453125,-0.018819266760349274,0.0026082873688312246,-0.004731074509350583
1746576155991320600,10.253320556640626,-0.02016483615040779,0.002916248206305317,-0.004234751492924988
1746576156001285600,10.26328564453125,-0.0158247611194849,0.0057415210603736335,-0.005624141758400946
1746576156011250400,10.27325048828125,-0.011036942321062088,0.003772892435104586,0.0017535200032871216
1746576156021214500,10.28321435546875,-0.017919687572121618,0.0046137454397277905,0.007898772159498184
1746576156031179500,10.293179443359374,-0.008192658805847167,0.00485610282823909,0.004284810312883928
1746576156041143300,10.303143310546876,-0.004600771793723106,0.010070759603451005,-0.00038211291907355185
1746576156051108600,10.313108642578126,-0.006246200913190841,0.00015094364485703407,-0.005629557719035074
1746576156061072600,10.32307275390625,-0.020160744497179982,-0.007895899782399646,-0.015460996707854792
1746576156071037400,10.333037353515625,-0.01642038892507553,-0.0024398035007063296,0.012207949728658423
1746576156081001500,10.34300146484375,-0.009088730862736701,0.002255971366399899,0.005640791499102488
1746576156090966500,10.352966552734374,-0.018964228188991544,0.005453826692793518,-0.0010195066403131932
1746576156100931300,10.362931396484376,-0.010883213064074516,-0.002639198530325666,-0.0037547128910198806
1746576156110895400,10.372895263671875,-0.030934651967883108,0.005171402155375108,-0.01079440226946026
1746576156120860700,10.382860595703125,-0.02195639574229717,0.006539996227994561,-0.002748759852023795
1746576156130824400,10.392824462890625,-0.009836334359645843,0.00926670864499174,0.0020759294912219045
1746576156140789500,10.40278955078125,-0.013875380617380141,-0.0034964592470554633,0.004871396295493468
1746576156150753500,10.41275341796875,-0.015371756654977798,0.003364891589526087,-0.000370185019262135
1746576156160718300,10.42271826171875,-0.020160744497179982,0.0006422753923339769,0.005390661796089261
1746576156170682400,10.432682373046875,-0.020160744497179982,0.0019397678569657727,0.00018378646853379904
1746576156180647700,10.442647705078125,0.004380407041311264,-0.0023459146721754223,-0.001449577753804624
1746576156190611700,10.45261181640625,-0.012978139516711234,-0.0014561581916408613,-0.0051087669816333794
1746576156200576500,10.462576416015626,-0.013277999246120453,0.004023044971004129,-0.003704106081789359
1746576156210541600,10.47254150390625,-0.01731763002574444,0.009800386263430117,-0.0019274791975505648
1746576156220505600,10.482505615234375,-0.003700608083605766,0.002624503284692764,0.0006527374208439141
1746576156230470400,10.492470458984375,-0.020311551144719123,0.01015785793159157,-0.013670423496654257
1746576156240434400,10.502434326171874,-0.007890460988879203,0.010026532302657142,-0.00298679725844413
1746576156250399500,10.5123994140625,-0.018065818044543266,0.0096767233511433,0.00886928855893202
1746576156260363500,10.522363525390626,-0.02689502118825912,0.005572183242300525,0.00697002167571336
1746576156270328600,10.53232861328125,-0.004898293435573578,0.0015219534368487073,-0.0036131215963978317
1746576156280292600,10.542292724609375,-0.028691256955265997,0.01008091567128431,0.00840343374600634
1746576156290257400,10.55225732421875,-0.029140169766545293,0.007419866068754345,0.010712002949323505
1746576156300222500,10.562222412109374,-0.023603578427433967,0.007369852914568036,-0.00017641601283103226
1746576156310186800,10.572186767578126,-0.009687281277775763,-0.0065927721614250905,-0.013295260908175259
1746576156320151600,10.582151611328126,-0.007442717221379279,0.00483739812776912,0.0030467107521370052
1746576156330115600,10.592115478515625,-0.007292495095729827,0.005914379709516651,-0.002164429758582264
1746576156340080400,10.602080322265625,-0.008787117567658424,0.0019111445506801827,-0.0002991199438925832
1746576156350044400,10.61204443359375,-0.014921674799919127,-0.00419530539852567,-0.0006583817103412002
1746576156360009500,10.622009521484374,0.004232523003220558,0.008489509160839952,0.004083963111694902
1746576156369973500,10.631973388671875,-0.0044458734929561615,0.005755622650962322,0.009288692147936671
1746576156379938600,10.6419384765625,-0.031979192584753034,0.009668174718506634,-0.012085054001351818
1746576156389903600,10.651903564453125,-0.01656710391938686,0.0014480068512260913,-0.011183045394020154
1746576156399867600,10.66186767578125,-0.014621230548620223,0.006942814008379355,-0.003563172374293208
1746576156409832400,10.67183251953125,-0.015666940209269523,0.00913394454421941,-0.002456270578317344
1746576156419796500,10.68179638671875,-0.01686345651745796,0.0014961888079298659,0.006316544469352811
1746576156429761500,10.691761474609375,-0.014469254857301711,0.002076774308015592,0.007634276004415005
1746576156439725300,10.701725341796875,-0.018957798448204992,0.0017597853472921996,0.01077178857885301
1746576156449690600,10.711690673828125,-0.0023468553870916366,0.0006920693508116527,0.012325009370222687
1746576156459655000,10.721655029296874,-0.00803308432996273,0.0026361297904048116,0.0076656757896766065
1746576156469620000,10.731619873046874,-0.014018003958463667,-0.0056991523565258825,-0.0025700970831792802
1746576156479584000,10.741583984375,-0.015365326914191246,0.002842753711831756,0.012264557020412757
1746576156489548800,10.751548828125,-0.020602058523893355,0.0007745280364528298,0.00290395954689011
1746576156499513900,10.761513916015625,-0.009378653720021248,0.001961180537752807,-0.005054013720247894
1746576156509478000,10.771477783203125,-0.008180968368053435,0.004926231755269691,0.01228558154213242
1746576156519443000,10.78144287109375,-0.02045242092013359,0.00865449046420399,0.021200398876378312
1746576156529407000,10.791406982421876,-0.02209843456149101,0.0033241120545659214,-0.009404473147867246
1746576156539372000,10.8013720703125,-0.015063713619112967,0.0065332011610269546,0.003038317383127287
1746576156549336000,10.811336181640625,-0.01611059232354164,-0.007509160920558497,0.004131537713622674
1746576156559300900,10.82130078125,-0.0020446575701236723,0.004264941135211847,0.005374532645195722
1746576156569265000,10.831264892578124,-0.013866028267145156,0.003162884477712214,-0.0043328872383106495
1746576156579230000,10.84122998046875,-0.014314941078424452,-0.005773135474766604,-0.006014638913329691
1746576156589193700,10.85119384765625,-0.016259645405411718,-0.007109726973925716,0.00038209465276449917
1746576156599159000,10.861158935546875,-0.015661679512262345,0.007430757355527021,0.0008598773655015975
1746576156609123800,10.871123779296875,-0.020899580165743826,0.0186625737947179,0.0201964825308416
1746576156619088000,10.881087890625,-0.01880406919121742,0.007879122177534736,0.004785782104963436
1746576156629053000,10.891052978515624,-0.02778349446058273,0.006632647514087148,0.007342124657426029
1746576156639017000,10.901016845703126,-0.011024082839488983,0.00906168759218417,-0.0016340583420824258
1746576156648981800,10.910981689453125,-0.016710311782360075,0.008214555543824099,0.01088152343048714
1746576156658946000,10.920946044921875,-0.011173720443248748,0.005550989757222123,0.000367545537604019
1746576156668911000,10.9309111328125,-0.022397125247120855,-0.008697238193964585,0.0055540447974111885
1746576156678875000,10.940875,-0.0036930092990398403,0.004738942721975036,0.008772120927926152
1746576156688840000,10.95083984375,-0.010725392153859137,-0.0024968628836097195,0.0027369689495302736
1746576156698804700,10.9608046875,-0.016560089656710623,-0.006822480130917392,-0.0011215970416087657
1746576156708768800,10.970768798828125,-0.017607552883028982,-0.008315170940663665,0.004967312684329227
1746576156718734000,10.980734130859375,-0.010573416462540626,0.0022346682834671807,-0.0025565526150166987
1746576156728698000,10.990697998046874,-0.0011480009913444518,0.007213383711222559,0.020007691093627364
1746576156738663000,11.000662841796874,-0.00892974090874195,0.004115499894274398,0.00013945413646288216
1746576156748627000,11.010626953125,0.008728080856800078,0.0032516998389037323,-0.00889480659267865
1746576156758592000,11.020592041015625,-0.016262568014860153,0.0034930525804171336,0.00027562947045080364
1746576156768555800,11.0305556640625,-0.004441197317838669,0.016789788493048397,0.018220497149601576
1746576156778520800,11.040520751953125,-0.008930909952521323,0.008156788341444917,-0.006006017215456814
1746576156788486000,11.05048583984375,-0.014468670335412024,0.006786641632555984,-0.0046886510065756734
1746576156798450000,11.060449951171876,-0.02045417448580265,0.002618242507264949,0.00850051917862147
1746576156808415000,11.0704150390625,-0.019556933385133743,0.005651180462376214,0.0034334998463280498
1746576156818379000,11.08037890625,-0.010578092637658118,-0.0028827477955026552,0.0019079068474005907
1746576156828343800,11.09034375,-0.026740707409381864,0.0018259915844537316,0.006038586044497788
1746576156838307800,11.100307861328124,-0.01881108345389366,0.007836205484415404,0.008961067628767342
1746576156848273200,11.110273193359374,-0.010132102435827255,0.0007930546404095367,-0.00451283778194338
1746576156858237000,11.12023681640625,-0.014620646026730537,-0.004287194066215306,-0.0031992892316542562
1746576156868202000,11.130201904296875,-0.02674012288749218,0.0003150390322320163,-0.004772840424999594
1746576156878167000,11.1401669921875,-0.0010024550408124922,0.0022954859594581647,0.009264617152605206
1746576156888130800,11.150130859375,-0.008635141876339911,0.009590328275901264,0.003881955999881029
1746576156898095900,11.160095947265624,-0.015519640693068503,0.00117551461935509,0.009940790247963741
1746576156908060000,11.170059814453126,-0.019859131202101706,0.0026774618812138214,-0.012548159734765066
1746576156918025000,11.18002490234375,-0.010880290454626082,0.01957347352798097,-0.002716638547554612
1746576156927989000,11.189989013671875,-0.016268997755646705,0.006021950003528036,0.02896734308344312
1746576156937954000,11.1999541015625,-0.014623568636178969,0.0010957045485265552,0.001939178768498823
1746576156947917800,11.209917724609374,-0.019860884767770766,0.0013146490954095496,-0.010802914369478821
1746576156957883000,11.2198828125,-0.02075871039032936,0.009562239259155466,-0.0030650775258895006
1746576156967847000,11.229846923828125,-0.016569442006945607,0.005659025842114351,0.003896057590469718
1746576156977811700,11.239811767578125,-0.01507365049123764,0.0004263950187945738,0.003521324260253459
1746576156987777000,11.249777099609375,-0.006695113724470138,-0.007647870704927481,-0.014378900559572503
1746576156997741000,11.259740966796874,-0.009987725529074669,0.0004814131416613236,-0.015086409508110955
1746576157007705900,11.269705810546874,-0.0029547581523656843,0.0018149313343223184,0.0196454336524941
1746576157017670000,11.279669921875,-0.007593523868918419,0.006138772183074615,0.004084483701502904
1746576157027635000,11.289635009765625,-0.024053660282492638,-0.001178181500476785,-0.008810187915991991
1746576157037599000,11.299598876953125,-0.006994388931989669,-0.0025623476015636695,-0.0016262129623442888
1746576157047564000,11.30956396484375,-0.014774959805607795,0.017924560110061428,-0.00921229331032373
1746576157057529000,11.319529052734374,-0.004001052334904671,0.02869649481938686,0.005902164115337655
1746576157067492900,11.329492919921876,-0.006844166806340217,0.00277947465069592,-0.0015295202553737908
1746576157077458000,11.3394580078125,-0.0063958385169506065,0.0019742181158391757,-0.0011719572556670753
1746576157087422000,11.349421875,-0.03138590286672115,0.0018775802077958359,0.006462976335873827
1746576157097386800,11.35938671875,-0.027045827835798262,0.006650343000981956,0.012587222236674278
1746576157107350800,11.369350830078124,-0.01746960571706295,0.003943508894811384,-0.00039374855794012544
1746576157117316000,11.379316162109374,-0.00789279907643795,0.0071384050791384645,0.0030216128434985873
1746576157127279900,11.38927978515625,-0.009837503403425216,-0.0021647996513405815,0.010167593874316662
1746576157137245000,11.399244873046875,-0.013578443497419357,-0.006488503502774984,0.005080536400992423
1746576157147209000,11.409208984375,-0.00011105915904045104,0.00589008095189929,0.005857731318566948
1746576157157173800,11.419173828125,-0.009838672447204589,-0.007372939920797943,0.01099260998899117
1746576157167138800,11.429138916015624,-0.006997311541438103,0.009926396396430209,0.006756652919668704
1746576157177102800,11.439102783203126,-0.02420563597381115,0.009639428114634937,0.0075307334315497425
1746576157187068000,11.44906787109375,-0.005501520025730133,0.010078193991235457,-0.005159236793546006
1746576157197032000,11.459031982421875,-0.003706453302502632,0.0023659208471653983,-0.0036376897820737213
1746576157206997000,11.4689970703125,-0.021811434313654898,0.007872021149890497,-0.005213661261368543
1746576157216961000,11.4789609375,-0.019866729986667633,0.008208239967469125,-0.002810673506557941
1746576157226925800,11.48892578125,-0.030639468413591383,0.005736516091693193,0.0026840697185136378
1746576157236889900,11.498889892578125,-0.028545711004734037,0.003768832747917622,0.013120132670132442
1746576157246855000,11.50885498046875,-0.008345219019055366,-0.0039015283500310033,0.0010811463002115488
1746576157256820000,11.518820068359375,-0.004754501050710678,0.007142432800284587,0.008763225235417485
1746576157266784000,11.528783935546874,-0.0177723880559206,0.006636807665973902,0.00624973544399254
1746576157276748800,11.538748779296874,-0.009692541974782943,0.004759588217781856,0.011553431342681868
1746576157286712800,11.548712890625,-0.024356442621350286,-0.005756202606274746,0.009434320296859368
1746576157296678000,11.558677978515625,-0.019119711011648177,0.006431873378134332,0.013375915795797482
1746576157306642000,11.568641845703125,-0.02944412114918232,0.0043034510812722145,0.00032637327699922025
1746576157316607000,11.57860693359375,-0.031091303834319114,0.0022886908924905584,-0.004126724541187286
1746576157326571000,11.588571044921874,-0.0037082068681716916,0.009075204660883173,0.010851438819477335
1746576157336535800,11.598535888671876,-0.001014145478606224,0.002241271554189734,-0.001957189349224791
1746576157346500900,11.6085009765625,-0.023308394873142242,-0.0030778639422263947,-0.01240007476727478
1746576157356465000,11.61846484375,-0.019417817175388336,0.005518247398245148,0.0006781458567362279
1746576157366429700,11.6284296875,-0.009541735327243804,0.0012826236890628932,0.009375128322374075
1746576157376394000,11.63839404296875,-0.02779752298593521,0.005780314134224317,0.02345194066283293
1746576157386359000,11.648359130859374,-0.00550035098195076,-0.010427665016031823,0.0060486599139403545
1746576157396323000,11.658322998046875,-0.0038543373405933376,-0.005369637274369597,-0.00009452814934775233
1746576157406288000,11.668287841796875,-0.01702244647145271,-0.008478750304807908,0.015578467341372743
1746576157416252000,11.678251953125,-0.015974983245134352,0.005098930574208497,0.01135880381972529
1746576157426217000,11.688217041015625,-0.010738251635432242,0.004945525544206611,0.006616751258634031
1746576157436182000,11.69818212890625,-0.018819266760349274,0.015483642364502883,0.000572758386656642
1746576157446146000,11.70814599609375,-0.013731588232517241,0.001063583244057372,-0.0007480418883264064
1746576157456110800,11.71811083984375,-0.01672317126393318,0.008072471058857627,0.00009955138433724642
1746576157466074000,11.72807421875,-0.009689619365334511,0.011795249875076115,-0.008342734801024198
1746576157476039000,11.738038818359374,-0.006546645164489746,0.007147798528568818,0.0012052932696882636
1746576157486003000,11.7480029296875,-0.012831424522399902,0.009489881842420436,0.005700622794404625
1746576157495967700,11.7579677734375,-0.012681786918640137,0.00278509610730689,0.0004484196209348738
1746576157505931800,11.767931884765625,-0.013279752811789511,0.009532405809895134,-0.0030283713778480885
1746576157515896800,11.777896728515625,-0.024651041653752325,-0.0022519573449855668,0.016075922868959605
1746576157525862000,11.78786181640625,-0.021956980264186857,-0.008690296996524557,0.022132272899011148
1746576157535826000,11.797825927734374,-0.008487842360138893,0.004452705092541873,0.00092723438013345
1746576157545791000,11.807791015625,-0.006242693781852722,0.002309934609918855,0.007622475968766957
1746576157555755000,11.817755126953125,-0.006689853027462959,-0.016218925235955976,0.005025810539070517
