time,seconds_elapsed,z,y,x
1746734437453143000,0.01214306640625,-0.022563129463791846,0.0008111702524125576,0.0031108985621482134
1746734437463109000,0.022109130859375,-0.04411152892708778,0.005266761421784758,-0.008936883035581558
1746734437473076200,0.032076171875,-0.010445406168699264,0.00813427968211472,-0.012583148849755525
1746734437483043000,0.04204296875,-0.007456161224842071,-0.0037886151606217025,0.004100676784478128
1746734437493010000,0.052010009765625,-0.026312837386131285,0.0011621756471693514,-0.003882138662971556
1746734437502977000,0.06197705078125,-0.04441957196295261,-0.006898892668262124,-0.008540449330210685
1746734437512943000,0.071943115234375,-0.007604629784822464,-0.009693711018562316,0.0028225100748240947
1746734437522910200,0.08191015625,-0.006408113476634025,-0.013550021120533346,-0.00004175678249448538
1746734437532877300,0.091877197265625,-0.024959084689617154,0.006701506932638586,0.002153634369932115
1746734437542844200,0.10184423828125,-0.024660978525876998,-0.00031688392944633956,-0.009934186977241188
1746734437552810200,0.111810302734375,-0.006707973206043243,0.005614734609238803,-0.011264978923276067
1746734437562777000,0.121777099609375,-0.03169628399014473,-0.015033318480849265,0.0022866313661448656
1746734437572744200,0.131744140625,-0.02885492308437824,-0.00719597591869533,-0.0005704202990978956
1746734437582711300,0.141711181640625,-0.02257131277024746,0.006138100896216928,0.002445986646320671
1746734437592677000,0.151677001953125,-0.005666939720511436,0.006109641986712813,0.008603413297515362
1746734437602644200,0.161644287109375,-0.03080956428349018,-0.021790062732063232,0.013131010257173328
1746734437612611000,0.171611083984375,-0.0357493587732315,-0.01335245272181928,-0.009338467840105294
1746734437622578200,0.181578125,-0.029315526333451268,0.007337466748617589,-0.011326956509891897
1746734437632544000,0.1915439453125,-0.01929039140343666,0.004794577332772314,-0.02058284236676991
1746734437642511000,0.201510986328125,-0.014055413359403609,0.008137604150362313,-0.0036454803628847
1746734437652478200,0.211478271484375,-0.029319617986679074,0.01548025853075087,-0.003599175269436091
1746734437662445000,0.221445068359375,-0.04398410315513611,-0.00021601737085729836,-0.008410685470700263
1746734437672412200,0.231412109375,-0.015100538498163223,-0.011786555111967027,-0.003403616164717823
1746734437682378000,0.2413779296875,-0.008815759140253067,-0.008454524612426757,-0.011408625177666545
1746734437692345000,0.251344970703125,-0.020638298881053924,0.01131510167531669,0.011050642052851617
1746734437702312200,0.261312255859375,-0.03320785759687424,0.006661284520104527,0.0007651574199087917
1746734437712279000,0.271279052734375,-0.014504326170682907,-0.017858093577995896,-0.008199453872814774
1746734437722245000,0.2812451171875,-0.03485153315067291,-0.00237421831805259,0.008235566365811974
1746734437732212000,0.2912119140625,-0.0421802686035633,-0.0008482143271714448,-0.01223207038976252
1746734437742179000,0.301178955078125,-0.014942717587947844,0.00532287552319467,-0.012514339663553982
1746734437752146000,0.31114599609375,-0.02421907997727394,0.006524725593626499,-0.003303553323727101
1746734437762112300,0.3211123046875,-0.014344167172908782,0.005494907621853053,-0.010440236803237348
1746734437772079000,0.3310791015625,-0.021378303593397138,-0.002285553653910756,0.005755147726926952
1746734437782046000,0.3410458984375,-0.0299023863106966,-0.0069140537047758695,-0.01476142447059974
1746734437792013000,0.351012939453125,-0.011949380990862846,0.0056034825628623365,-0.017293829025048762
1746734437801979100,0.360979248046875,0.0001689268261194229,-0.005401164923794567,-0.004738079638872295
1746734437811946200,0.3709462890625,-0.02901099042892456,-0.0008620236568152904,-0.005383958060666919
1746734437821913300,0.380913330078125,-0.057740825828909874,-0.008812325074151158,-0.008666559927910565
1746734437831880200,0.390880126953125,-0.004466916280984878,-0.00005476239454001188,0.011517528912238777
1746734437841846300,0.40084619140625,-0.0029687866777181626,-0.006828019389137625,0.011193685519043355
1746734437851813000,0.410813232421875,-0.05279693968594074,-0.0011513985248282552,0.0024813319543376565
1746734437861780200,0.4207802734375,-0.029154782813787458,0.0019805428253486753,0.0014825667079538106
1746734437871747000,0.4307470703125,0.009300912308692932,0.0015160305861383675,-0.005023362853657454
1746734437881714200,0.440714111328125,-0.029152444726228712,-0.0010974033152684568,-0.005390186872053891
1746734437891680300,0.45068017578125,-0.04276829762458801,-0.00068400020878762,0.007201638474501669
1746734437901647000,0.460647216796875,-0.022114801174402236,0.0031254750767722725,0.005059347482491284
1746734437911614200,0.4706142578125,-0.024808278042078018,-0.01497293006312102,-0.005419047640357166
1746734437921581000,0.4805810546875,-0.032740240085124966,-0.020024916223064064,0.013437299727369099
1746734437931547100,0.490547119140625,-0.024959084689617154,0.005247764460369945,-0.005402005174010992
1746734437941514000,0.500513916015625,-0.008197919502854346,0.0032787659423425793,-0.008719185164291411
1746734437951481000,0.510481201171875,-0.009245967251062392,-0.006588438479602336,-0.0013946144298650324
1746734437961448200,0.5204482421875,-0.02196165643930435,0.0036546865826472636,0.0017294906737282871
1746734437971414000,0.5304140625,-0.026152093866467475,-0.005764627941325306,-0.007992660988029091
1746734437981381000,0.540381103515625,-0.025705519142746925,-0.00045333325807005165,-0.003945157429203391
1746734437991347200,0.55034716796875,-0.005059036955237389,-0.005974617430195212,-0.006960651059169322
1746734438001314300,0.560314208984375,-0.0198725752055645,-0.006851802123524248,-0.010757230330538005
1746734438011280400,0.5702802734375,-0.03633388066291809,0.003498765368573367,0.0013722016686573623
1746734438021247500,0.58024755859375,-0.025858079355955122,-0.012402568118460475,-0.0034060273175127802
1746734438031214300,0.59021435546875,-0.010598550903797148,-0.011383563801646231,0.005393109481502324
1746734438041181400,0.600181396484375,-0.015537176349759102,0.016444463920406997,0.007209365123230963
1746734438051148300,0.610148193359375,-0.021820786663889882,0.00458243241943419,0.006796236011385917
1746734438061114400,0.6201142578125,-0.02406710428595543,-0.011997238720580936,-0.0033717414554208514
1746734438071081500,0.63008154296875,-0.013894085317850111,-0.024965185636840758,-0.004985314131900668
1746734438081048300,0.64004833984375,-0.03619125732183456,0.0034757863517850636,-0.013925558168347923
1746734438091015400,0.650015380859375,-0.02406885785162449,0.016938969439081845,-0.01968329971116036
1746734438100981200,0.659981201171875,-0.017937807750701903,0.010423413532599806,0.004354341018293052
1746734438110948400,0.6699482421875,-0.009710662153363227,-0.019126433013379573,-0.008510419518128037
1746734438120915500,0.67991552734375,-0.002675356689095497,-0.0033375834574922917,-0.01971981406295672
1746734438130882300,0.68988232421875,-0.028111995762586592,0.0020047274185344575,-0.01047245857240632
1746734438140848400,0.699848388671875,-0.04247779024541378,0.0054697001153603195,-0.007187683014385402
1746734438150815200,0.709815185546875,-0.007016016241908073,0.0075193261215463275,0.010268643095996231
1746734438160782300,0.7197822265625,-0.015995441511273384,-0.0026596111306920645,-0.01091200076714158
1746734438170749400,0.72974951171875,-0.03933773865401745,-0.007092040620185434,0.004896832130849361
1746734438180716300,0.73971630859375,-0.036790392258763314,-0.004921783909015357,-0.004872044749464839
1746734438190682400,0.749682373046875,-0.004464578193426132,0.016387692231871188,0.0004779197100549936
1746734438200649200,0.759649169921875,-0.020772154393792153,0.009703976684249938,0.003948646294232458
1746734438210616300,0.7696162109375,-0.02361643790900707,-0.0037333778420463202,0.0026029307737015185
1746734438220583400,0.77958349609375,-0.027505262041091917,-0.006341879840008914,-0.021023991996701807
1746734438230549200,0.78954931640625,-0.018674889853596686,-0.019109445345960558,-0.013105638353899121
1746734438240516400,0.799516357421875,-0.05458908379971981,-0.007473404620587825,-0.01282453812388703
1746734438250483200,0.809483154296875,-0.04231821576952934,0.00984974183049053,0.005901113802567124
1746734438260450300,0.8194501953125,-0.009546411502361298,-0.007067746429145335,-0.007442004835326224
1746734438270416400,0.82941650390625,-0.006701543465256691,-0.01680423714350909,-0.00975780749702826
1746734438280383200,0.83938330078125,-0.014631751942634582,0.012989756889268756,-0.006969400621205568
1746734438290350300,0.849350341796875,-0.042459085544943806,0.01618855293057859,-0.004227718963939696
1746734438300317200,0.859317138671875,-0.019714169773459432,-0.0019315525844693182,-0.009132113346736878
1746734438310283500,0.869283447265625,0.0006336217284202575,-0.008802095941081643,0.0071423643016256385
1746734438320250400,0.87925048828125,-0.04231003246307373,-0.017591295867972076,-0.0013080686575733125
1746734438330217500,0.889217529296875,-0.04170972848236561,-0.008507021984644234,-0.010443159412685782
1746734438340184600,0.8991845703125,-0.014324293428659438,-0.0028733634792268274,-0.0016059373592957854
1746734438350151400,0.9091513671875,-0.011481763479113578,-0.012597250440344213,0.004700597172696143
1746734438360117500,0.919117431640625,-0.03183130854666233,0.0046980946883559225,-0.00004380260910838842
1746734438370084400,0.92908447265625,-0.04619418042004108,0.0031228812608867884,-0.0031562720738351345
1746734438380051500,0.939051513671875,-0.021502222234010694,-0.007998743668943643,-0.009008413901831954
1746734438390018300,0.949018310546875,-0.006390577819943428,-0.012816190420649945,-0.005380341331474483
1746734438399984400,0.958984375,-0.01267243456840515,-0.018521781651116908,0.009178966429457067
1746734438409951500,0.968951416015625,-0.018957213926315306,0.035090785266645254,0.010307842595223337
1746734438419918300,0.97891845703125,0.002139350116252899,0.04718176668528467,0.003925393282808363
1746734438429885400,0.988885498046875,-0.02704115166068077,-0.009891352482512593,-0.0077017152174375944
1746734438439851300,0.998851318359375,-0.08240414244234562,-0.07567834131866694,-0.009177304195333271
1746734438449818400,1.008818359375,-0.08853519254326819,-0.07776471913866698,-0.03411870709778741
1746734438459785200,1.01878515625,0.006785130095481872,0.012838877176493405,-0.029104203404020517
1746734438469752300,1.02875244140625,0.04913140291571617,0.07345460085459053,0.011193393258098512
1746734438479718400,1.038718505859375,0.03132160545885563,0.07446677357181906,0.04300192371737212
1746734438489685200,1.048685302734375,-0.04080664216279983,0.00004109919536858797,0.036241160878166555
1746734438499652400,1.05865234375,-0.059058922690153115,-0.0745898884948343,-0.01012991047874093
1746734438509619200,1.068619140625,-0.04693476965427398,-0.07710377101190388,-0.05840524455439299
1746734438519586300,1.07858642578125,-0.02404430793225765,-0.003526603223569691,-0.06363631360828877
1746734438529552100,1.08855224609375,0.0015384616136550901,0.03299560308568179,-0.006649594082310795
1746734438539519200,1.098519287109375,-0.0056423898011446,0.051488450903259216,0.04574141341755166
1746734438549486300,1.108486328125,-0.011321604481339453,-0.008965944733284414,0.0622891002504155
1746734438559453200,1.118453125,-0.039895957058668136,-0.030220439283922314,0.027973135281167922
1746734438569419300,1.128419189453125,-0.047071547776460644,-0.033502821955457326,-0.04903919458761811
1746734438579386000,1.13838623046875,-0.03076806322932243,-0.010892857675254344,-0.08384944587983191
1746734438589353200,1.148353271484375,-0.006384148079156876,0.003626191140525043,-0.06027359570953995
1746734438599320300,1.1583203125,0.007077391040325165,0.0065707932250574225,0.021669980016350746
1746734438609286400,1.168286376953125,-0.04110650189220905,-0.013508520066365598,0.05961637390982359
1746734438619253500,1.17825341796875,-0.031224574825167654,-0.016335267924889922,0.05747075844956562
1746734438629220400,1.188220458984375,-0.020745850908756254,-0.006216682557761669,-0.001586337609682232
1746734438639187500,1.1981875,-0.03361410031020641,0.012635134765319526,-0.0466577245448716
1746734438649153300,1.2081533203125,-0.008627543091773986,0.013467676599323748,-0.08229074519574642
1746734438659120400,1.218120361328125,-0.0033960721790790554,0.008488682610355318,-0.03175300087975338
1746734438669087500,1.22808740234375,-0.025396891584992407,-0.02052424404732883,0.03441474916860461
1746734438679054300,1.238054443359375,-0.044997664111852645,-0.01175499092992395,0.05643237357884645
1746734438689021400,1.248021484375,-0.03661386664807796,0.0001413081668317318,0.037654790535755454
1746734438698987300,1.2579873046875,-0.02449263622164726,0.0005922302721068262,-0.023283059502486138
1746734438708954400,1.267954345703125,-0.0012964695513248442,-0.00007547638900578022,-0.07147150074597447
1746734438718921500,1.27792138671875,-0.025236732587218282,-0.007631335128657519,-0.07232165130190552
1746734438728888300,1.287888427734375,-0.045290509578585623,-0.01814348639063537,0.0070136964206583795
1746734438738854400,1.2978544921875,-0.0095288758456707,-0.016342099524475632,0.030285997067112474
1746734438748821200,1.3078212890625,-0.007588263171911239,0.004332805039919912,0.04384206433594227
1746734438758788400,1.317788330078125,-0.03183072402477264,0.004430895119532942,0.03383945176498964
1746734438768755500,1.32775537109375,-0.03347556862235069,0.0042642333157360554,-0.01452933274777606
1746734438778721300,1.33772119140625,-0.014320201775431632,-0.006423822502419352,-0.052795423582289364
1746734438788688400,1.3476884765625,-0.021507482931017875,-0.015476313007995485,-0.04957331973062828
1746734438798655200,1.3576552734375,-0.03542845625579357,0.0003071662530303001,-0.015934358973801136
1746734438808622300,1.367622314453125,-0.01956570121347904,0.008867452794872223,0.014465291068237273
1746734438818588200,1.377588134765625,-0.009390344157814978,0.010615867364779114,0.035553781402204186
1746734438828555300,1.38755517578125,-0.0005634791016578674,-0.017756423301808533,0.024747451232932507
1746734438838522400,1.3975224609375,-0.019712416207790375,-0.010928915369324386,-0.017119093512650577
1746734438848489200,1.4074892578125,-0.033330607193708416,-0.01509403569214046,-0.028933468213304874
1746734438858456300,1.417456298828125,-0.012387187886238098,-0.016195494128018618,-0.035086985874362285
1746734438868422100,1.427422119140625,-0.02361117721199989,0.0008569090902805328,-0.01229059564396739
1746734438878389200,1.43738916015625,-0.02735211730599403,0.00685728201624006,0.013570132326800375
1746734438888356400,1.4473564453125,-0.022713936111330983,-0.003722856448031962,0.024744693020265548
1746734438898323200,1.4573232421875,-0.03483165940642357,-0.006299538535624742,0.0022342070591636
1746734438908289500,1.46728955078125,-0.018823358413577077,0.003665536770224571,-0.01993199550891295
1746734438918256400,1.47725634765625,-0.02885024690926075,-0.00021952450219541787,-0.016599471819028256
1746734438928223500,1.487223388671875,-0.040970308291912075,0.007677621955797076,-0.00505141990436241
1746734438938190300,1.4971904296875,-0.011344985356926917,-0.003045468643121421,0.0027910554906353355
1746734438948156400,1.507156494140625,-0.01134615440070629,-0.0048318771358579395,-0.008689502412080764
1746734438958123500,1.51712353515625,-0.031094810965657232,0.016176314503513277,-0.0001622413570061326
1746734438968090400,1.52709033203125,-0.03513268817961216,0.006555266862362623,0.01010912341903895
1746734438978057500,1.537057373046875,-0.027201310658454894,0.007561375164985657,0.013595504230074584
1746734438988023600,1.5470234375,-0.019269933137297628,-0.014163184582814573,-0.01839327816693112
1746734438997990700,1.55699072265625,-0.024656886872649192,-0.024496143352985382,-0.007908818629477173
1746734439007957800,1.566957763671875,-0.02405833645761013,-0.004424501911364495,-0.007054832148645072
1746734439017924600,1.576924560546875,-0.034680852758884426,0.0003055953504517674,-0.00001004646997898817
1746734439027891700,1.5868916015625,-0.026902035450935363,0.007825579059123993,-0.009825210177432745
1746734439037857500,1.596857421875,-0.035280572217702866,-0.004191021949052811,-0.018338899364881218
1746734439047824600,1.60682470703125,-0.034977205356955525,0.00921056714411825,-0.012279763722699134
1746734439057791700,1.616791748046875,-0.01298223116993904,0.007143880405277013,-0.010905662357900291
1746734439067758600,1.626758544921875,-0.02046469587981701,-0.015888400940224527,-0.009860171892959624
1746734439077724700,1.636724609375,-0.029894203004240987,0.004686111989617347,-0.006878123874869197
1746734439087691500,1.64669140625,-0.03348550549447536,-0.0038346827920526265,-0.020197934702411293
1746734439097658600,1.65665869140625,-0.0197200149923563,-0.007657236754894256,-0.009336367214564233
1746734439107625700,1.666625732421875,-0.025706688186526296,-0.003476699667237699,-0.00478489618897438
1746734439117591600,1.676591552734375,-0.028999299991130826,-0.0009510171145200729,0.006049417965766042
1746734439127558700,1.68655859375,-0.01807867752611637,-0.010674392618983983,-0.0038314496553502973
1746734439137525500,1.696525390625,-0.007756605476140975,-0.004640336619131267,-0.0160404314304702
1746734439147492600,1.70649267578125,-0.017785832059383392,0.00500544360447675,-0.004618179586250335
1746734439157459700,1.716459716796875,-0.03229834153652191,-0.0025463234819471836,-0.0007287526659667491
1746734439167425500,1.726425537109375,-0.03095335666835308,-0.001772087706439197,-0.007111841299198568
1746734439177392600,1.736392578125,-0.00865443109869957,0.0022102233953773974,0.009754446496162562
1746734439187359500,1.746359375,-0.01089607254564762,-0.0037103257600218055,-0.010585362628661096
1746734439197326600,1.75632666015625,-0.03753390410244465,-0.010998436941578984,-0.009374653398338704
1746734439207292700,1.766292724609375,-0.021673487147688863,-0.004818104338832199,0.005739456967450678
1746734439217259500,1.776259521484375,-0.01598725820481777,-0.0064704381231218576,-0.008769855905603616
1746734439227226600,1.7862265625,-0.027209493964910507,0.0012989172367379067,0.001396240131370723
1746734439237193500,1.796193359375,-0.020323241582512853,0.0006644187254831195,0.005491930213477462
1746734439247159800,1.806159912109375,-0.03588204524219036,-0.003752192140370607,0.002914809734467417
1746734439257126700,1.816126708984375,-0.023159341791272162,-0.011930018703266978,0.0023193463256582615
1746734439267093800,1.82609375,-0.010887889239192008,-0.009098485071770846,0.001969674371462315
1746734439277060600,1.836060546875,-0.028246435797214507,0.009789024619199335,-0.007160612344369292
1746734439287026700,1.846026611328125,-0.03153554047048092,0.003699183311499655,0.0036503574674017726
1746734439296993800,1.855993896484375,-0.022703999239206313,-0.027093795163370668,0.006852934634685516
1746734439306960600,1.865960693359375,-0.016570611050724982,-0.005249518026039004,-0.0002392155833542347
1746734439316927700,1.875927734375,-0.03617372166514397,0.007161525659821927,0.00516909146727994
1746734439326894600,1.88589453125,-0.013426467806100845,-0.00018372253645211457,-0.005827409245539456
1746734439336860700,1.895860595703125,-0.01148293252289295,0.0031554683562368155,-0.005095733970124274
1746734439346827500,1.90582763671875,-0.031235096219182013,-0.00867503549531102,-0.013897683780733494
1746734439356794600,1.915794677734375,-0.05367839869558811,-0.01011040206067264,0.007688508675992489
1746734439366761700,1.92576171875,-0.02509703185558319,-0.0036920594509691,-0.0081810596995987
1746734439376727600,1.9357275390625,-0.013128946164250373,-0.009153722390346229,-0.0030845402781851587
1746734439386694700,1.945694580078125,-0.012234043151140211,-0.0009867460150271654,0.0011086188290268181
1746734439396661500,1.95566162109375,-0.01911737292408943,0.001873831047862768,-0.00970021382458508
1746734439406628600,1.965628662109375,-0.024507249268889426,-0.01781889407876879,0.002916782495845109
1746734439416594400,1.975594482421875,-0.017475450935959817,-0.002998926087655127,-0.004974975400976836
1746734439426561500,1.9855615234375,-0.034683775368332864,0.004446165753901004,-0.016275135235488413
1746734439436528600,1.995528564453125,-0.03228957370817661,0.008821969685330987,-0.007810089229047298
1746734439446495500,2.00549560546875,-0.02375847672820091,-0.009018259442411363,0.0054861945924349126
1746734439456462600,2.015462646484375,-0.02420505145192146,-0.02104421280082315,0.014142561919894069
1746734439466428400,2.025428466796875,-0.030188802036643026,-0.007262501816265285,0.0023640622502192855
1746734439476395500,2.0353955078125,-0.029437106886506078,-0.009118431881256401,-0.0020465024673379955
1746734439486362600,2.045362548828125,-0.013128946164250373,-0.009189962747506797,-0.011055135564878582
1746734439496329500,2.05532958984375,-0.012981646648049353,-0.0022280147803947327,0.0062864050594158465
1746734439506295800,2.0652958984375,-0.020165420672297478,0.0033116818312555548,-0.0015784282978624105
1746734439516262700,2.0752626953125,-0.035576924815773965,0.004751249647699296,0.003985471173282713
1746734439526229500,2.0852294921875,-0.01073532902598381,-0.017688289969041943,0.0028546953113749622
1746734439536196600,2.095196533203125,-0.005797872623801231,-0.027817250599712132,-0.01770136864632368
1746734439546162700,2.10516259765625,-0.04574935926198959,-0.00598992459718138,0.0025828378337435422
1746734439556129800,2.1151298828125,-0.04335808021128178,0.006360292279534042,0.002727744463458657
1746734439566096600,2.1250966796875,-0.01552548591196537,0.0065163230914622545,0.004979468913003802
1746734439576063700,2.135063720703125,-0.024355273577570915,-0.00645513095613569,0.01272414648933336
1746734439586029600,2.145029541015625,-0.011783961296081542,-0.004404408971406519,0.0013476882819086313
1746734439595996700,2.15499658203125,-0.041558921834826464,0.0045463016601279375,-0.015217607272882013
1746734439605963800,2.1649638671875,-0.013875965139269829,-0.009336970002762972,-0.013627031879499554
1746734439615930600,2.1749306640625,-0.007739654341340064,0.0010100172927603125,-0.003099847445171326
1746734439625897700,2.184897705078125,-0.03362462170422077,-0.00233162128534168,0.007643610088340937
1746734439635863600,2.194863525390625,-0.022850129711627958,-0.010410261790081858,0.01436460717273876
1746734439645830700,2.20483056640625,-0.024342998617887496,-0.0027014044458046555,0.00517880914369598
1746734439655797800,2.2147978515625,-0.034522447326779365,-0.008258600181527435,-0.006349350760411471
1746734439665764600,2.2247646484375,-0.030635376760363577,-0.010277136929705739,-0.013959770965203643
1746734439675730700,2.234730712890625,-0.022407646641135214,-0.006934658101387322,-0.02110882073594257
1746734439685697500,2.244697509765625,-0.01208382102549076,-0.01710917490683496,-0.0017543693866580723
1746734439695664600,2.25466455078125,-0.024654548785090446,0.007600574664212763,0.003963789064437151
1746734439705631700,2.2646318359375,-0.021512159106135367,0.014032142081670463,0.008311535945162176
1746734439715597600,2.27459765625,-0.022415829947590827,-0.009637487319298088,0.006272139072045683
1746734439725564700,2.284564697265625,-0.021819033098220825,-0.0009067761139944196,0.004631660122331231
1746734439735531500,2.294531494140625,-0.028106150543689725,-0.003093034111894667,-0.008531480572465807
1746734439745498600,2.30449853515625,-0.031250293788313864,-0.009328129109181463,-0.01945544577203691
1746734439755465500,2.314465576171875,-0.03319675168097019,0.01687437977027148,-0.003414027960877865
1746734439765431600,2.324431640625,-0.035443069303035736,0.017360482786782084,0.017101977981068193
1746734439775398700,2.334398681640625,-0.026911387801170347,-0.006457542108930647,0.021821919175051153
1746734439785365500,2.344365478515625,-0.03019990795254707,0.004386398390680551,0.000708093470428139
1746734439795332600,2.35433251953125,-0.03648293374478817,0.002787767555005848,-0.004749824875593185
1746734439805298700,2.364298583984375,-0.020920622953772543,-0.005340739973448217,-0.007962685974873603
1746734439815265500,2.374265625,-0.020321488016843796,-0.017328407148085534,-0.011079776815790683
1746734439825232400,2.384232421875,-0.04576046517789364,0.003450067388638854,-0.006399619642924517
1746734439835199500,2.394199462890625,-0.012537994533777236,0.01159432047549635,-0.009375146588683127
1746734439845165800,2.404165771484375,-0.014929273584485054,-0.0027186478415504095,-0.006791632901504635
1746734439855132700,2.414132568359375,-0.010737667113542557,-0.017467559890449045,-0.007340279760211706
1746734439865099800,2.424099853515625,-0.034677930149435994,-0.0021560820553451774,-0.009490900189150124
1746734439875066600,2.434066650390625,-0.027646131816506384,-0.00005078033916652202,0.007447685657441616
1746734439885033700,2.44403369140625,-0.027497078734636304,-0.011751008874550462,0.008418393853120505
1746734439894999800,2.453999755859375,-0.024357027143239972,-0.008413863808475435,0.00024721622671931983
1746734439904966700,2.463966552734375,-0.0194148945659399,-0.02034826642591506,0.0059227776451036334
1746734439914933800,2.473933837890625,-0.020461188748478888,-0.006458747685328126,0.006350099679082632
1746734439924900600,2.483900634765625,-0.01178454581797123,-0.006228336462937295,-0.008488317284174263
1746734439934866700,2.49386669921875,-0.0019102175354957578,-0.010824432081542908,0.007528715004399418
1746734439944833500,2.50383349609375,-0.030941666230559346,0.011859401152469216,0.00717356315748766
1746734439954800600,2.513800537109375,-0.03737725223600864,0.0032595132526010272,0.007683028783276677
1746734439964767700,2.523767822265625,-0.006102993050217628,-0.0021078589994460344,0.015136943252105265
1746734439974734600,2.533734619140625,-0.022265023300051687,-0.010362184864655136,-0.001381042562238872
1746734439984700700,2.54370068359375,-0.033040099814534186,0.0024059651631861924,-0.006478804092667997
1746734439994667500,2.55366748046875,-0.03453530680835247,-0.002853891593776643,-0.00949809711491689
1746734440004634600,2.563634521484375,-0.0010147300004959105,-0.015472111756913364,-0.009663754271715879
1746734440014601500,2.5736015625,-0.012689970225095748,0.005238813968934119,-0.0007693404046818613
1746734440024567600,2.583567626953125,-0.046504561543464655,-0.0006287628902122379,-0.0011778116077184677
1746734440034534700,2.59353466796875,-0.011787468427419661,-0.009759981187805532,0.0020573161222971975
1746734440044501500,2.60350146484375,-0.0038519992530345916,-0.009839585762657225,-0.01178334024157375
1746734440054468600,2.613468505859375,-0.017319383591413495,-0.002032821001857519,-0.0022709954055957493
1746734440064434400,2.623434326171875,-0.03707037824392319,-0.00447637822907418,-0.005060425194725394
1746734440074401500,2.633401611328125,-0.02330488774180412,-0.008988485358655452,-0.013807758741267025
1746734440084368400,2.643368408203125,-0.027196634483337402,-0.004511230346746742,0.003922342809196561
1746734440094335500,2.65333544921875,-0.02270809089243412,-0.014120185691304504,0.011652790930774062
1746734440104302600,2.663302490234375,-0.028395488879084586,0.0020587591607123612,-0.022308186588343232
1746734440114268400,2.673268310546875,-0.019264087918400764,-0.0008256371691823005,-0.018497195199131965
1746734440124235500,2.683235595703125,-0.019262334352731704,0.005245974362082779,-0.010103186868596821
1746734440134202400,2.693202392578125,-0.021208207723498344,0.006892462927475571,0.004903225339017808
1746734440144169500,2.70316943359375,-0.03033668607473373,-0.0008753580624237656,0.002488601945340633
1746734440154135600,2.713135498046875,-0.02629822433888912,0.0012359715357422828,-0.01660542663577944
1746734440164102700,2.7231025390625,-0.014172902259230612,-0.021755575940571724,-0.01621211646925658
1746734440174069800,2.73306982421875,-0.036916064465045924,-0.00755633366368711,-0.00699108273005113
1746734440184036600,2.74303662109375,-0.028684827214479444,0.002598565125837922,-0.0055132652624510226
1746734440194002700,2.753002685546875,-0.020456512573361396,-0.012209127905592322,-0.01203258402859792
1746734440203969500,2.762969482421875,0.0004933364748954773,-0.020615612125210462,0.0026723062154836953
1746734440213936600,2.7729365234375,-0.034818215402960775,-0.006909888986311853,0.00038644203431904313
1746734440223903700,2.78290380859375,-0.04603811307549476,0.015793598796240985,-0.015242924377229064
1746734440233870600,2.79287060546875,-0.0023427637338638303,-0.0027878040876239537,-0.012868468597158789
1746734440243836700,2.802836669921875,-0.024490298134088515,-0.002867079868912697,-0.014727193407434969
1746734440253803500,2.812803466796875,-0.03002572042942047,-0.004861724284850061,0.0029592333980835973
1746734440263770600,2.8227705078125,-0.03137538147270679,0.007609452090412378,0.017083620340470222
1746734440273737700,2.83273779296875,-0.023597148686647414,-0.008225465096905827,0.0019015410386957227
1746734440283703600,2.84270361328125,-0.01880757632255554,-0.0037704219168052076,-0.006913396117649972
1746734440293670700,2.852670654296875,-0.013119009292125701,-0.016379362794943154,-0.00530619838302955
1746734440303637500,2.862637451171875,-0.03466507066786289,-0.011204882766492664,0.004434731044434011
1746734440313604600,2.8726044921875,-0.02015431475639343,-0.0041049876334145665,-0.005807188441418111
1746734440323570400,2.8825703125,-0.02225041025280952,-0.010189239450544119,0.01420366272367537
1746734440333537500,2.89253759765625,-0.029584406402707097,-0.010432510154508053,0.013145440641324967
1746734440343504600,2.902504638671875,-0.03182955498099327,0.003646101417392492,0.0010309870155528187
1746734440353471500,2.912471435546875,-0.016867548170685767,-0.00122906687092036,-0.009917911695875227
1746734440363438600,2.9224384765625,-0.011485270610451698,-0.014263320489041506,-0.005864252390898763
1746734440373404400,2.932404296875,-0.028542788395285606,-0.003077434683963656,-0.008249613157473504
1746734440383371500,2.94237158203125,-0.025099369943141936,0.012017441258393227,-0.0066675133314915
1746734440393338600,2.952338623046875,-0.017468436673283575,-0.010747786648757755,-0.004210384236648678
1746734440403305500,2.962305419921875,-0.0243558580994606,-0.011100655207037924,0.0013528941799886523
1746734440413271600,2.972271484375,-0.025251930156350133,-0.004691482284478843,0.0014726481021381914
1746734440423238400,2.98223828125,-0.0325865108281374,0.003112944388762116,-0.010427669582609086
1746734440433205500,2.99220556640625,-0.03079202862679958,0.006702201052382588,0.0019096512799151241
1746734440443172600,3.002172607421875,-0.0017664251506328583,-0.007095876545086503,-0.008713248613849282
1746734440453139500,3.012139404296875,-0.013287936118245124,0.003529452767781913,0.008607030026707797
1746734440463105800,3.022105712890625,-0.03977379198372364,-0.0073836439779028295,0.0037810529086738823
1746734440473072600,3.03207275390625,-0.017476619979739188,0.004896064945869147,-0.002712126769218594
1746734440483039700,3.042039794921875,-0.0019137246668338775,-0.00029945787061005826,-0.0031244704297743735
1746734440493006600,3.052006591796875,-0.03648293374478817,0.004734554241225123,0.003760192783735692
1746734440502972700,3.06197265625,-0.03274550078213215,-0.015077413350902498,-0.007773063420597463
1746734440512939800,3.071939697265625,-0.02975216418504715,-0.019626674153096973,-0.008586334298551082
1746734440522906600,3.08190673828125,-0.013590133935213088,-0.018324870839528738,-0.008996047610603273
1746734440532873700,3.091873779296875,-0.029150691160559652,0.0014151640275493263,-0.0011364932166412472
1746734440542839600,3.101839599609375,-0.03887947349250316,-0.002262465039268136,0.0006420059642754495
1746734440552806700,3.111806640625,-0.008952537262439728,-0.003125109750591218,-0.004476396495383232
1746734440562773500,3.1217734375,-0.03334697380661964,-0.00976874901615083,-0.006406633905600756
1746734440572740600,3.13174072265625,-0.040082419541478155,0.0062668053098022935,0.002936217848677188
1746734440582707700,3.141707763671875,-0.02317687744796276,0.005280972610227763,-0.00434122580839321
1746734440592673500,3.151673583984375,-0.007166238367557525,0.002594290809519589,-0.0028318806913681326
1746734440602640600,3.161640625,-0.01255611471235752,-0.004355382197909057,0.00673677917541936
1746734440612607500,3.171607421875,-0.03260989170372486,-0.007463029357045889,0.0037987894947640595
1746734440622574600,3.18157470703125,-0.029320202508568764,-0.005581526459380984,-0.0025079642329365014
1746734440632540400,3.19154052734375,-0.01525485227704048,0.01674118184465915,-0.015090784289129078
1746734440642507500,3.201507568359375,-0.02603285140097141,0.0016364786280319093,-0.010728607024252414
1746734440652474600,3.211474609375,-0.014959084200859068,0.01160053102057427,0.014803765774983912
1746734440662441500,3.22144140625,-0.027527473872900006,-0.003972739555872976,-0.00004811345804482698
1746734440672408600,3.23140869140625,-0.021541969722509383,-0.00667264616433531,0.0021926512060686945
1746734440682374400,3.24137451171875,-0.00912497121989727,0.001756999735161662,-0.0010488697321154176
1746734440692341500,3.251341552734375,-0.02677928585410118,0.007109284015931188,-0.012650679394323378
1746734440702308600,3.26130859375,-0.0321679931551218,0.007775237111374736,-0.00563159441249445
1746734440712275500,3.271275390625,0.008531681501865387,-0.014817922164499758,-0.0022717625905759632
1746734440722241500,3.281241455078125,-0.01466273160278797,-0.01616919064298272,0.004208557605743408
1746734440732208400,3.29120849609375,-0.04474105900228023,-0.0164829692998901,0.0131058392832987
1746734440742175500,3.301175537109375,-0.029029110607504842,-0.006321604236960411,-0.0030276772581040857
1746734440752142600,3.311142578125,-0.0113718733638525,-0.011402012773789464,0.006539283841941505
1746734440762108700,3.321108642578125,-0.03172258747518063,-0.010952771168947219,0.00700222517857328
1746734440772075800,3.33107568359375,-0.041597500279545785,-0.004542502267844975,0.0011398359511978924
1746734440782042600,3.341042724609375,-0.012117138773202895,-0.001335340256989002,0.0074907393478788435
1746734440792009500,3.351009521484375,-0.02618365804851055,-0.018543774287216364,-0.00400435853684321
1746734440801976600,3.3609765625,-0.022143442746996877,0.006895056743361055,0.0012195318575948476
1746734440811942700,3.370942626953125,-0.008826280534267424,0.0037808702455833553,-0.009560220832005143
1746734440821909800,3.38090966796875,-0.012269698986411094,0.00439030738081783,-0.0032021935747936366
1746734440831876600,3.390876708984375,-0.012121230426430702,-0.003732574124448001,0.004397814833838492
1746734440841843700,3.40084375,-0.004191021949052811,-0.01731616872102022,0.0024364881656132637
1746734440851809500,3.4108095703125,-0.022900398594141006,-0.0005923398699611425,-0.00039946591267362233
1746734440861776600,3.420776611328125,-0.04519640155434608,0.0019708982141688463,0.003172602154128253
1746734440871743700,3.43074365234375,-0.01556640244424343,-0.0015019289955496787,-0.004501110811531543
1746734440881710600,3.440710693359375,-0.004792494973540306,0.00014729951620101928,0.0034407698373310268
1746734440891677700,3.450677734375,-0.02903320226073265,-0.0018223565889522431,-0.00823432425679639
1746734440901643500,3.4606435546875,-0.029180501776933668,-0.019848792471177875,0.00629493542574346
1746734440911610600,3.470610595703125,-0.01271861179769039,0.003646612874045968,-0.013233776511903852
1746734440921577700,3.48057763671875,-0.003590717968344688,0.012749080001190304,-0.005566548085957765
1746734440931544600,3.490544677734375,-0.035165421405434605,0.01530588834453374,0.01300734734488651
1746734440941510700,3.5005107421875,-0.021699206110835072,-0.0008544979374855757,0.0052810456754639745
1746734440951477500,3.5104775390625,-0.01197276186645031,-0.018801110049150884,-0.019401870687585324
1746734440961444600,3.520444580078125,-0.014367548048496246,0.006099266723170876,-0.00944981926009059
1746734440971411500,3.530411376953125,-0.02739011122882366,0.03628792262934148,0.0036975393436849114
1746734440981377500,3.54037744140625,-0.018712883776426315,0.02802212552204728,-0.009708360598422587
1746734440991345000,3.550344970703125,-0.02620411631464958,-0.009598470483161509,0.005875175643712282
1746734441001311700,3.560311767578125,0.02930734302699566,-0.03193984695505351,-0.003060812342725694
1746734441011278800,3.57027880859375,-0.07514087344110011,-0.04205795739814639,0.003765252551343292
1746734441021246000,3.580245849609375,-0.12332125924229621,-0.03480057014841586,0.000025682430528104303
1746734441031211800,3.590211669921875,0.005966214928030967,0.0167347886364907,-0.011693031609617172
1746734441041179000,3.600178955078125,0.0352963543087244,0.016108984888345,-0.009139584267139435
1746734441051145700,3.610145751953125,-0.06780395468175411,-0.0007756605476140976,0.0036921873151324687
1746734441061112800,3.62011279296875,-0.037725627282261844,-0.010070581506937742,-0.0038155579664744432
1746734441071078700,3.63007861328125,-0.00106616792678833,-0.017474245359562338,-0.035005901728477326
1746734441081045800,3.640045654296875,-0.04521043007969856,0.004205087007023394,-0.014968911475129425
1746734441091012900,3.650012939453125,-0.021569442251324653,0.012297646439261734,-0.0015633951255120337
1746734441100979700,3.659979736328125,-0.012590601503849028,-0.0061585226297378535,0.0015294380569830536
1746734441110946800,3.66994677734375,-0.02425882746577263,-0.03884074891731143,0.02318091430226341
1746734441120913000,3.679912841796875,-0.06076864921748638,-0.03747727854438126,0.0007348718794994056
1746734441130880000,3.6898798828125,-0.03173077078163623,0.013315006788261235,-0.0031735885348170992
1746734441140846800,3.699846923828125,-0.030233225700259207,-0.0042889658981934186,-0.011287446483410894
1746734441150813700,3.709813720703125,-0.0447469042211771,-0.046565315287373954,-0.02421226664399728
1746734441160780000,3.719780029296875,0.07032324402630329,0.06384370928127318,0.0028032208524644375
1746734441170747000,3.729746826171875,0.05565583624839782,0.1523371085094288,0.026982407210767268
1746734441180714000,3.7397138671875,-0.0728846189469099,0.03592599398177117,0.04355237894067541
1746734441190681000,3.74968115234375,-0.0772287856310606,-0.13394728267490863,0.016058953467849642
1746734441200648000,3.75964794921875,-0.11044482653439044,-0.15646383305061606,-0.05271233014240861
1746734441210614000,3.769614013671875,-0.044299160453677176,-0.027593817107379435,-0.10431443402059376
1746734441220580900,3.779580810546875,0.01915653589069843,0.09531816721428185,-0.0021364823057316244
1746734441230548000,3.7895478515625,0.04458908331096172,0.08178860435988754,0.09255757992714643
1746734441240514800,3.799514892578125,0.040246670192480086,0.0276961815033108,0.09510699041532351
1746734441250481000,3.80948095703125,0.0026940613895654678,0.0013992723386734723,0.030491821837518363
1746734441260448000,3.819447998046875,-0.12419687303304672,-0.047069611547701055,-0.088565971274022
1746734441270414800,3.829414794921875,-0.08409925592243671,-0.06117503806129097,-0.10811123248767107
1746734441280382000,3.8393818359375,0.016303484547138213,-0.0527710015270859,-0.03896881401007995
1746734441290348800,3.849348876953125,-0.02394844634234905,0.011453048841282724,0.023745544181391597
1746734441300315000,3.85931494140625,-0.02858253588378429,0.05219119234513491,0.06921776700243354
1746734441310282000,3.869281982421875,0.05941080486774444,0.046750352998077865,0.03831619532024488
1746734441320248800,3.879248779296875,-0.03949614408612251,-0.010568082700297236,0.048184787981677794
1746734441330216000,3.8892158203125,-0.07795067016482353,-0.037396030001714826,-0.051216465561464426
1746734441340181800,3.899181640625,-0.021238602861762046,-0.05095416136346757,-0.0788534824897535
1746734441350148900,3.90914892578125,-0.009269348126649856,-0.0012698372727259993,-0.1097633470762521
1746734441360115700,3.91911572265625,0.0261900877892971,0.024763817845843732,0.026972178077697754
1746734441370082800,3.929082763671875,-0.06763210524618625,-0.008877608862705529,0.08031727143200114
1746734441380049000,3.939048828125,-0.01929506757855415,-0.016790172085538506,0.09906803953340276
1746734441390015700,3.949015625,-0.01585048008263111,-0.024127492703683674,0.025102055090572683
1746734441399982800,3.95898291015625,-0.008062894946336746,0.021993549414910375,-0.09156597507391125
1746734441409949700,3.96894970703125,-0.023925065466761587,0.025752280893921852,-0.11013378782384096
1746734441419916800,3.978916748046875,-0.04861936174035072,-0.00496777847521007,-0.06131466572768986
1746734441429883000,3.9888828125,-0.027521628654003143,-0.047091165792383254,0.07817582069020718
1746734441439849700,3.998849609375,-0.03634440205693245,-0.005599208246544004,0.07687147835968061
1746734441449816800,4.00881689453125,-0.007910334733128547,0.0038948154814541338,0.05742534840526059
1746734441459783700,4.01878369140625,-0.039331308913230896,-0.0015153364663943647,-0.032596849559061225
1746734441469750000,4.02875,-0.016583470532298087,-0.011755465853959321,-0.043574609038792546
1746734441479716900,4.038716796875,-0.014937456890940665,-0.004154854657128453,-0.07132926099738106
1746734441489684000,4.04868408203125,-0.035440146693587304,0.021890527431853116,-0.02725380803067237
1746734441499651000,4.058651123046875,-0.032897476473450656,-0.014449746439233422,0.02859797091493383
1746734441509618000,4.068617919921875,-0.003420622098445892,-0.023789675584062933,0.059633927832823244
1746734441519584000,4.078583984375,-0.01972819829881191,-0.019463300284929572,0.040222485599294304
1746734441529550800,4.08855078125,-0.04216974720954895,0.01582596669588238,-0.021441249294392763
1746734441539518000,4.09851806640625,-0.00909925225675106,-0.004813756957277655,-0.02925227010520175
1746734441549485000,4.108485107421875,-0.015088263538479803,-0.025032003795355556,-0.054457347178831696
1746734441559451000,4.118450927734375,-0.00042319384813308713,-0.010707016246952116,-0.005799443526379764
1746734441569418000,4.12841796875,-0.050696752536296845,0.00953388081435114,-0.001032576184440404
1746734441579384800,4.138384765625,-0.017775310665369033,0.015767697170004247,0.03969594097454101
1746734441589352000,4.14835205078125,-0.012086743634939194,-0.016849208796396852,0.031208354342728853
1746734441599319000,4.158319091796875,-0.008049450942873954,-0.010793233225680886,-0.01577487582946196
1746734441609284900,4.168284912109375,-0.05249065021574497,-0.007972476716525852,-0.04720438037589192
1746734441619252000,4.178251953125,-0.020617256093025206,-0.015800284265354275,-0.02111367957415059
1746734441629218800,4.18821875,-0.008345803540945053,-0.01080627537034452,-0.0008138188672251999
1746734441639186000,4.19818603515625,-0.003706453302502632,0.014025675808265805,0.0035176527321338653
1746734441649151700,4.20815185546875,-0.03722410750091076,0.012357596465572714,0.009783745655883103
1746734441659118800,4.218118896484375,-0.02091243964731693,-0.007212452129460871,0.013563848716486245
1746734441669086000,4.2280859375,0.0003349310427904129,-0.024665691233612595,0.010229881988186388
1746734441679052800,4.238052734375,-0.027199557092785834,-0.0057858533924445505,-0.03794765426879748
1746734441689020000,4.24802001953125,-0.03288403246998787,-0.0006537512009963393,-0.010604797981493174
1746734441698985700,4.25798583984375,-0.028094460105895995,-0.007727087120711803,-0.011049034617654978
1746734441708952800,4.267952880859375,-0.005199322208762168,-0.02061729262564331,0.004374159963615239
1746734441718920000,4.277919921875,-0.02046469587981701,-0.017876506017521023,-0.003223912216257304
1746734441728886800,4.28788671875,-0.0188180977165699,0.021036285222694278,0.0012139606333337724
1746734441738852900,4.297852783203125,-0.012835516175627708,-0.007950776341371238,-0.002612575384881347
1746734441748819700,4.30781982421875,0.01035889692902565,-0.03340115167926997,-0.007250774845853448
1746734441758786800,4.317786865234375,-0.026453707161545752,-0.009434329430013894,-0.008704809579066932
1746734441768753700,4.327753662109375,-0.05608312174975872,0.0034495193993672726,-0.002849434614367783
1746734441778720000,4.337719970703125,-0.008800561571121215,-0.0035011765213683248,-0.0038898105127736925
1746734441788687000,4.34768701171875,-0.009845686709880829,0.0048161681100726125,0.010163831014651804
1746734441798654000,4.357654052734375,-0.023015549406409264,0.005186535792425275,0.0075879709109663955
1746734441808621000,4.36762109375,-0.025855741268396376,-0.0024904285762459037,-0.008474471421912311
1746734441818588000,4.377587890625,-0.03184066089689731,-0.01373717772308737,-0.008478453477285802
1746734441828554000,4.387553955078125,0.00826221691071987,-0.005195522816479206,-0.004303030956164002
1746734441838520800,4.397520751953125,-0.01522913331389427,0.015888181744515895,0.007013586822804063
1746734441848488000,4.407488037109375,-0.04649930084645748,-0.0057670756267383695,0.0011664134308695792
1746734441858455000,4.417455078125,-0.018964812710881233,-0.02751980202309787,0.009871515270881355
1746734441868420900,4.4274208984375,-0.01027998647391796,-0.008464278821460901,-0.0039900377505458886
1746734441878388000,4.437387939453125,-0.019257658177614212,0.022511764602735636,0.000016914602182805537
1746734441888354800,4.447354736328125,-0.028532851523160933,0.02288658926449716,0.0037617819526232776
1746734441898322000,4.457322021484375,-0.01940495769381523,-0.029011246157251296,-0.005404434593115001
1746734441908289000,4.4672890625,-0.020451836398243904,-0.02876837731208652,-0.003984667455684394
1746734441918254800,4.4772548828125,-0.02104629516005516,-0.0011882599364966154,-0.006104655284341424
1746734441928222000,4.487221923828125,-0.04708382273614406,-0.0019147475801408289,-0.011652316006738692
1746734441938188800,4.497188720703125,-0.016556582525372503,-0.017770451827161013,-0.008425700376741587
1746734441948156000,4.507156005859375,-0.01535772812962532,0.016023206301033495,0.010229041737969964
1746734441958121700,4.517121826171875,-0.021639000356197355,0.01640581241045147,-0.007342928375024348
1746734441968088800,4.5270888671875,-0.03405716790258884,-0.008780322500690817,0.0073227806361392134
1746734441978056000,4.537055908203125,-0.018945523488521576,-0.02082556508146226,0.00698710067467764
1746734441988022800,4.547022705078125,-0.015950433325767517,-0.021012246759980917,-0.011344108574092387
1746734441997990100,4.556990234375,-0.026572949627041816,-0.006228701789118349,-0.020786073321290312
1746734442007956000,4.5669560546875,-0.016844167295098304,-0.011174889487028121,-0.007872194679826498
1746734442017923000,4.576923095703125,-0.016695698735117913,-0.005450557023473084,0.0025829474315978585
1746734442027890000,4.586889892578125,-0.02596972303688526,-0.010735255960747599,0.00549056024029851
1746734442037857000,4.59685693359375,-0.025517303094267845,-0.0031799086777493358,0.006517126809060574
1746734442047823000,4.606822998046875,-0.029851532906293866,0.004042772584781051,-0.015574786680098622
1746734442057790000,4.6167900390625,-0.007555529946088791,0.0009702332716435193,-0.00788996779853478
1746734442067757000,4.626757080078125,-0.005611994662880897,-0.005146788303926586,-0.004861176295578479
1746734442077724000,4.636723876953125,-0.025811317604780195,-0.0011773732163012026,-0.002276420499384403
1746734442087691000,4.64669091796875,-0.03239244956076145,-0.007365231538377702,0.0038080322471447286
1746734442097657000,4.656656982421875,-0.011595160725712775,-0.005941811139136552,0.0064829688111320135
1746734442107624000,4.6666240234375,-0.021769348737597463,0.01425126472506672,-0.009115363141335547
1746734442117591000,4.676591064453125,-0.03000000146627426,0.006170286132767796,-0.006852971167303622
1746734442127558000,4.686557861328125,-0.022662498185038564,-0.009770429516583681,-0.015194244663603603
1746734442137524200,4.696524169921875,-0.01488192731142044,0.005222447356022894,-0.005501209498476237
1746734442147491000,4.706490966796875,-0.03358896586894989,-0.007008417457342147,-0.0038036300666630268
1746734442157458200,4.716458251953125,-0.04301847299337387,-0.002455795654281974,-0.013217044572811573
1746734442167425300,4.72642529296875,-0.030750527572631834,0.0018199819687753915,-0.007120700459089129
1746734442177392000,4.73639208984375,-0.024909400328993796,-0.007261332772485912,-0.0016698511746712028
1746734442187358200,4.746358154296875,-0.012635609689354895,-0.0031864480163902044,0.00002047653244808316
1746734442197325000,4.756324951171875,-0.032086744612455365,0.006492430759221315,-0.01586061788415536
1746734442207292200,4.766292236328125,-0.009492635488510131,-0.004231646220386028,-0.017232417694013565
1746734442217259300,4.77625927734375,-0.020266542959213256,-0.01961896577067673,0.001135378971789032
1746734442227225000,4.78622509765625,-0.01877542761862278,-0.006601919015683234,-0.004266516604367643
1746734442237192200,4.796192138671875,-0.030299861195683477,-0.00025244039110839365,-0.0036671807380393145
1746734442247159000,4.806158935546875,-0.02461129416525364,-0.004631166931986809,0.0009311068376526236
1746734442257126100,4.816126220703125,-0.01114449434876442,-0.021411877069436012,0.006234674872178584
1746734442267093200,4.82609326171875,-0.0006704466074705124,-0.004327909669093788,0.0036770993438549338
1746734442277059000,4.83605908203125,-0.0361328051328659,0.009254990807734429,-0.010718889347836375
1746734442287026200,4.846026123046875,-0.025360066705942153,0.0007580518256872892,-0.004587674850132316
1746734442296993000,4.855992919921875,-0.005754033482074737,-0.017405600570142267,0.002673566590808332
1746734442306960100,4.865960205078125,-0.033877135160565376,-0.02315097582172602,-0.008620875888969749
1746734442316926000,4.875926025390625,-0.04674070838689804,-0.0038357787705957888,0.009777151518315076
1746734442326893000,4.88589306640625,-0.027135844206809995,-0.0014801555551588535,0.0028569055347703394
1746734442336860200,4.895860107421875,-0.02669043852686882,-0.01038779422994703,0.010066909978818147
1746734442346827000,4.905826904296875,-0.020106968483328817,0.003862885973230004,0.00017760332291945813
1746734442356794000,4.915794189453125,-0.029982465809583664,-0.00043784342799335716,-0.02028667243178934
1746734442366760000,4.925760009765625,-0.024442951861023902,-0.01875971859283745,-0.014333718844130634
1746734442376727000,4.93572705078125,-0.010227379503846168,-0.006788856422528624,-0.00012145268889144063
1746734442386694100,4.945694091796875,-0.0030447745233774183,-0.005461699471995234,0.010103040738124399
1746734442396661000,4.955660888671875,-0.029379239219427106,-0.005817198378778993,0.00023797347433865068
1746734442406627000,4.965626953125,-0.03132335902452469,-0.012706227240152657,0.0048165517025627195
1746734442416594000,4.975593994140625,-0.01606090796291828,-0.03783946292027831,0.004391220696270465
1746734442426561000,4.98556103515625,-0.017257424271106717,-0.008685629954561591,-0.01579526103036478
1746734442436527900,4.99552783203125,-0.029525369691848755,-0.002437017888575792,-0.017928035275358706
1746734442446495000,5.005494873046875,-0.02967500729560852,0.0019094503505155444,0.0031388825476169582
1746734442456461300,5.01546142578125,0.004741057047247886,-0.0067826458774507044,0.014576277162041514
1746734442466428200,5.02542822265625,-0.019947978529334068,-0.009081460871733725,0.0008355923076160251
1746734442476395000,5.03539501953125,-0.04493512026965618,0.006087174426577985,-0.008971041033510117
1746734442486361900,5.04536181640625,-0.01575637205839157,0.0008245046580210327,0.004104311779979616
1746734442496328200,5.055328125,-0.016804419806599614,-0.0016853958036750554,0.0013888970751315354
1746734442506295000,5.065294921875,-0.030421441748738287,-0.002339877657033503,0.004177340483572334
1746734442516262100,5.07526220703125,-0.03820318166613579,-0.019003245025128124,-0.008412128509115427
1746734442526229200,5.085229248046875,-0.009023264411091804,0.006370594477839767,0.00901128171235323
1746734442536196000,5.095196044921875,-0.017256255227327346,-0.005192125282995403,0.016174360008444636
1746734442546162200,5.105162109375,-0.028927988320589064,-0.0071160790828987954,-0.005564465726725757
1746734442556129000,5.11512890625,-0.030723055043816564,-0.00373513140771538,-0.0017458390203304588
1746734442566096100,5.12509619140625,-0.02189502094388008,-0.00599350479375571,-0.019801537529658526
1746734442576063200,5.135063232421875,-0.01336567752957344,-0.016313202223554254,0.004723283928539604
1746734442586029000,5.145029052734375,-0.017855390164256094,-0.0025215543668717145,-0.008320687365997581
1746734442595996200,5.15499609375,-0.04344283588528633,0.005882701363041996,0.002078578106034547
1746734442605963000,5.164962890625,-0.016209376522898673,0.001378741007298231,-0.00010636471761390566
1746734442615930000,5.17493017578125,-0.007828501668572425,-0.019015556517429647,0.009347710592485963
1746734442625897200,5.184897216796875,-0.030422610792517662,-0.013667327357269823,0.012041333590634166
1746734442635863000,5.194863037109375,-0.045237902608513826,-0.010352394123002887,-0.008589987560361624
1746734442645830100,5.204830078125,-0.01635901412665844,-0.000739310592599213,-0.020992592211440203
1746734442655797000,5.214796875,-0.004542319604754447,0.004879698332957923,0.0037655813449062403
1746734442665764000,5.22476416015625,-0.032521628898382185,0.002105338248796761,0.002115713512338698
1746734442675730000,5.23472998046875,-0.034465164181590076,-0.016342062991857528,-0.009102229665126652
1746734442685697000,5.244697021484375,-0.012618074032664298,-0.010597089599072932,-0.01181243847189471
1746734442695664000,5.2546640625,-0.025783845075964925,-0.004385667738318443,-0.002220817854627967
1746734442705631000,5.264630859375,-0.035660511445999146,0.004895334293507039,-0.0022014007681049404
1746734442715598000,5.27459814453125,-0.03491232342720031,-0.001544379897788167,-0.0035317725890316068
1746734442725564000,5.28456396484375,-0.01575812562406063,0.004072985059954226,-0.017510065591614693
1746734442735531000,5.294531005859375,-0.002141688203811645,-0.003855250656045973,0.003911145561747252
1746734442745498000,5.304498046875,-0.02054652894437313,-0.014954882949776947,0.008728464449290185
1746734442755465000,5.31446484375,-0.012616904988884925,-0.01256758595444262,0.0011621756471693514
1746734442765432000,5.32443212890625,-0.014118541723489761,0.014816789653338491,0.006115870798099786
1746734442775398000,5.33439794921875,-0.011128127735853194,-0.003682670568116009,0.00926640725089237
1746734442785365000,5.344364990234375,-0.022947160345315933,-0.00855959242209792,-0.007754596182145178
1746734442795332000,5.35433203125,-0.034766777476668356,-0.012361322792619466,0.005579590230621398
1746734442805299000,5.364298828125,-0.020998364365100858,-0.006311667364835739,-0.003183726336341351
1746734442815265300,5.374265380859375,-0.022643208962678907,-0.004576989059336483,-0.008683237068075686
1746734442825232100,5.384232177734375,-0.026384149056673047,-0.007873802115023136,-0.007617708462104201
1746734442835199200,5.39419921875,-0.028330022427439688,-0.00037789340168237684,-0.019889087948948142
1746734442845166000,5.404166015625,-0.010668109008669853,-0.013062639462389052,-0.00779045294681564
1746734442855132200,5.414132080078125,-0.023089783686399457,-0.018725231801345943,-0.0014644647956825792
1746734442865099300,5.424099365234375,-0.031768764704465866,-0.012626220806501805,0.009665873163565993
1746734442875066000,5.434066162109375,-0.02428863808214664,0.0040488369993865484,-0.0021709873635321853
1746734442885033200,5.444033203125,-0.002291325807571411,0.004368643538281322,-0.004644903196394443
1746734442895000000,5.454,-0.009473930788040161,-0.006535575781203806,0.006999138172343373
1746734442904966100,5.463966064453125,-0.03371814520657063,-0.012438698877766727,0.00669613663777709
1746734442914933000,5.47393310546875,-0.03685878131985664,-0.005000511701032519,-0.003478160971961915
1746734442924900000,5.483900146484375,-0.019650456887483597,-0.0052786710552871225,-0.0073969783835113045
1746734442934867200,5.4938671875,-0.032819735062122345,-0.01003843280300498,0.012499032496567815
1746734442944834000,5.503833984375,-0.030423195314407347,0.004726955456659197,-0.005186718455515801
1746734442954800000,5.513800048828125,-0.02069733559191227,-0.004284070527367294,-0.0006144786365330219
1746734442964767000,5.52376708984375,-0.004537058907747268,-0.011463716365769505,0.0019516637907363472
1746734442974734000,5.533734130859375,-0.019499650239944457,-0.028861316292546686,-0.006424863682035356
1746734442984701200,5.543701171875,-0.044186932250857354,-0.0034921894973143934,-0.017058796426467595
1746734442994666800,5.553666748046875,-0.03445873444080352,-0.00310041370075196,-0.02633967059412971
1746734443004633600,5.563633544921875,-0.020989012014865874,-0.009126213328912853,-0.0021299247007817027
1746734443014600700,5.5736005859375,-0.014255904367566108,-0.01496050897296518,-0.0016553659915924071
1746734443024567800,5.58356787109375,-0.025626608687639236,-0.011139014456048608,0.016487426279298962
1746734443034534700,5.59353466796875,-0.02233165879547596,0.001189392447657883,-0.010861476156301796
1746734443044500700,5.603500732421875,-0.017990414720773697,-0.009029876814968883,-0.002663191327266395
1746734443054467600,5.613467529296875,-0.01200315700471401,0.005318162815459072,0.012561101414728909
1746734443064434700,5.6234345703125,-0.03340074982047081,-0.013157332008518277,0.012344956179708242
1746734443074401800,5.63340185546875,-0.03280278392732143,-0.03745112118981778,0.008137567617744207
1746734443084368000,5.643367919921875,-0.027118893072009084,-0.006795066967606544,0.01621136755058542
1746734443094334700,5.653334716796875,-0.026223990058898923,0.0020769158719107506,0.001474967923387885
1746734443104301600,5.663301513671875,-0.03685001349151134,0.004332549311593175,0.0027026282885111866
1746734443114268700,5.6732685546875,-0.025029227316379545,-0.012286942382156848,-0.015789890735503284
1746734443124235500,5.683235595703125,-0.02203705976307392,-0.014242021972686052,-0.018599870122317223
1746734443134201900,5.693201904296875,-0.01844166561961174,0.0018239640241488814,0.0020321816810406745
1746734443144169000,5.7031689453125,-0.007667758148908615,0.021881138549000024,0.0015656418815255164
1746734443154135800,5.7131357421875,-0.010659341180324553,0.022988405671156942,0.009046754884533584
1746734443164103000,5.72310302734375,-0.04582242449820041,-0.027476620468497276,0.023994769702106712
1746734443174068700,5.73306884765625,-0.043724575436115264,-0.06666344287712127,-0.006302168884128332
1746734443184035800,5.743035888671875,-0.042374914392828936,-0.02089486745800823,-0.043868039027415213
1746734443194003000,5.7530029296875,-0.0022679449319839475,0.02295125199854374,-0.03274765620660037
1746734443203969800,5.7629697265625,0.001771101325750351,0.03916892142575234,0.013470763605553656
1746734443213937000,5.77293701171875,-0.006907295170426368,0.023770459426939484,0.040187980541493744
1746734443223902700,5.78290283203125,-0.04027472724318504,-0.016058131483942268,0.0025990400498732925
1746734443233869800,5.792869873046875,-0.04535948316156864,-0.04806044921595603,-0.019775489772949368
1746734443243836700,5.802836669921875,-0.03218845142126083,-0.024057167413830755,-0.0416138303598389
1746734443253803800,5.8128037109375,-0.021117022308707236,0.008309855444729328,-0.023204331710468977
1746734443263769900,5.822769775390625,-0.0010655834048986434,0.03079506083410233,0.015488405304588377
1746734443273736700,5.83273681640625,-0.02635433844029903,0.012233202900923787,0.039751634950842704
1746734443283703800,5.842703857421875,0.0004331307202577591,-0.005203888786025345,0.030482213758956638
1746734443293670700,5.852670654296875,-0.026048633491992948,-0.027519838555715978,0.007437493056990206
1746734443303637800,5.8626376953125,-0.03936930283606052,0.0074671940755099055,-0.034227848294377326
1746734443313603600,5.872603515625,-0.028148820641636846,-0.009201251326501368,-0.03188934061052277
1746734443323570700,5.88257080078125,-0.012439210334420204,-0.021863858620636164,-0.019742318155709652
1746734443333537800,5.892537841796875,-0.0042108956933021545,-0.002084039732441306,0.020848525831941515
1746734443343504600,5.902504638671875,-0.0465548304259777,-0.013108414832875132,0.02265141053544357
1746734443353471700,5.9124716796875,-0.043109658408164976,-0.011652553468756377,0.001278111910726875
1746734443363437600,5.9224375,-0.009138999745249747,-0.0004683481641113758,-0.015398388933576642
1746734443373404700,5.93240478515625,-0.005993687456846237,0.004164681931398809,-0.024501349251065403
1746734443383371800,5.942371826171875,-0.027990999731421468,0.008977963964641093,-0.03217111669396981
1746734443393338600,5.952338623046875,-0.019461071795225143,-0.021569003859907388,0.0025661606935784217
1746734443403304700,5.9623046875,-0.024698972448706627,-0.03754789609517902,0.01766520135439932
1746734443413271600,5.972271484375,-0.024252982246875762,-0.010103753124177455,0.035933209173846986
1746734443423238700,5.98223876953125,-0.011082535028457642,-0.001493709156475961,0.005860653928015381
1746734443433205800,5.992205810546875,-0.012129998254776,0.00461754026543349,-0.03254926582397893
1746734443443172600,6.002172607421875,-0.011979191607236862,-0.009602489071153103,-0.043800545015465465
1746734443453139000,6.012138916015625,-0.012878770795464515,-0.01238828386478126,-0.013295388772338629
1746734443463105800,6.022105712890625,-0.03786883514523506,-0.008525872815586626,0.021954989236500112
1746734443473072600,6.03207275390625,-0.029489129334688186,-0.006882781783677637,0.022701916879974304
1746734443483039700,6.042039794921875,-0.010935235512256622,-0.005066818402893841,0.009407222227379679
1746734443493006600,6.052006591796875,-0.013778349983692168,-0.005827865903265774,-0.019308054924290625
1746734443502973000,6.061972900390625,-0.03158464030921459,-0.01171049420107156,-0.013433902193885296
1746734443512939800,6.071939697265625,-0.0523848517537117,-0.005328172752819955,-0.015539222176373005
1746734443522907000,6.081906982421875,-0.01392681854367256,0.002677329450473189,-0.013390209182631223
1746734443532873700,6.091873779296875,0.017945991057157516,-0.0037526670644059774,0.0003828070388175547
1746734443542839800,6.10183984375,-0.01961421653032303,0.011813771912455558,0.016734898234345017
1746734443552807000,6.111806884765625,-0.02335515662431717,-0.0019699118334800003,-0.0005784209424629808
1746734443562773800,6.121773681640625,-0.016173136165738105,-0.02845876337364316,-0.0034112149492837485
1746734443572740900,6.131740966796875,-0.023356910189986226,-0.015441278227232395,-0.002598674723692238
1746734443582707700,6.141707763671875,-0.03128653414547443,-0.011556290020048618,-0.0038292028993368145
1746734443592673800,6.151673828125,-0.009889525851607323,-0.0036084362881258127,-0.014579053641017525
1746734443602641000,6.161640869140625,-0.013778349983692168,-0.009034735653176904,0.01219493498345837
1746734443612607700,6.171607666015625,-0.02993862666785717,-0.0012911357890814542,0.03332220469154417
1746734443622574800,6.181574951171875,-0.016771686580777167,0.0011270678011700511,-0.007516823637206107
1746734443632540700,6.191540771484375,-0.003906944310665131,-0.000753777509368956,-0.011029982857313006
1746734443642507800,6.2015078125,-0.0339893633633852,-0.006171016785129904,-0.01007752270437777
1746734443652474600,6.211474609375,-0.05314122307896614,-0.0023422157445922493,-0.008100066885259003
1746734443662441700,6.221441650390625,-0.028299627289175986,-0.007347038294561207,0.006148786687012762
1746734443672408800,6.231408935546875,-0.004958499190211295,-0.01016717374920845,0.0050311260350048535
1746734443682374700,6.241374755859375,-0.011093056422471999,-0.008085508636943996,0.0017335823269560933
1746734443692341800,6.251341796875,-0.02725157954096794,-0.005593801419064402,0.007093794185854494
1746734443702308600,6.26130859375,-0.027848376390337944,-0.013123137477971612,0.0025911490043625234
1746734443712275700,6.271275634765625,-0.013476736688613891,-0.015262158800661563,0.005464877809770405
1746734443722242800,6.281242919921875,-0.03173077078163623,-0.03708374918214977,0.007682462527696042
1746734443732208600,6.291208740234375,-0.042053427353501316,-0.011765658454410731,0.0025398937411606312
1746734443742175700,6.30117578125,-0.04309855249226093,-0.003982238036580384,-0.007507105960790067
1746734443752142600,6.311142578125,-0.02633446469604969,-0.02145710445065051,-0.012161672034673393
1746734443762109700,6.321109619140625,0.007633271357417106,-0.019935886232741177,-0.013709796525817363
1746734443772075800,6.33107568359375,0.005240823262929916,-0.0037649420240893957,-0.004982281924597919
1746734443782042600,6.341042724609375,-0.03606149346232414,0.02579520672019571,0.01788823298793286
1746734443792009700,6.351009765625,0.0040413843452930445,0.036773477656580504,0.022725553483888505
1746734443801976600,6.3609765625,-0.014368717092275619,-0.012499379556439816,0.02442817441700026
1746734443811943700,6.370943603515625,-0.05372749853432178,-0.05405855711959302,-0.005075074774585664
1746734443821909800,6.38090966796875,-0.07347790866494178,-0.04132387096993625,-0.027669804953038692
1746734443831876900,6.390876953125,-0.004045475998520851,0.0031974808670580386,-0.015465554151963441
1746734443841844000,6.400843994140625,0.014359364742040633,0.025660255228914318,0.012967581590078771
1746734443851810800,6.410810791015625,-0.02708908245563507,0.017410970865003764,0.034931977975741026
1746734443861777000,6.42077685546875,-0.030825930896401402,-0.0062954468823969364,0.026175383410509675
1746734443871743700,6.43074365234375,-0.024090485161542892,-0.039131694687902924,-0.012551347205694764
1746734443881710800,6.4407109375,-0.04638824168741703,-0.016382358469627798,-0.035535241098515684
1746734443891678000,6.450677978515625,-0.025737083324789998,0.017657785232923925,-0.0317220577522181
1746734443901644800,6.460644775390625,-0.017504092508554458,0.01845112756770104,-0.006528232724964618
1746734443911611000,6.47061083984375,-0.03381283775269985,-0.003417589891143143,0.02738061274811625
1746734443921577700,6.48057763671875,-0.024537059885263442,-0.009828370248898863,0.036403073441609736
1746734443931544800,6.490544921875,-0.0023877719193696975,0.004735065697878599,0.010257683310564607
1746734443941511700,6.50051171875,-0.020641806012392044,0.004365172939561307,0.0017540588594041765
1746734443951478800,6.510478759765625,-0.01405892049074173,-0.006219093710556626,-0.01546891515282914
1746734443961444900,6.52044482421875,-0.0017898060262203216,0.00355447761118412,0.003810005008522421
1746734443971411700,6.53041162109375,-0.028126608809828757,-0.024242753113806248,0.00796685069333762
1746734443981378800,6.54037890625,-0.059846858197450635,-0.03437375957109034,0.018638101507164537
1746734443991345200,6.55034521484375,-0.0371001888602972,-0.01202211743351072,0.008825257620960474
1746734444001311200,6.560311279296875,0.0007575403690338134,0.0026943171178922054,-0.0003536174769513309
1746734444011278000,6.570278076171875,-0.024831074395775792,0.014809008205682038,-0.02111260186191648
1746734444021245200,6.5802451171875,-0.033359833288192746,0.0009900339506566523,-0.03766231625508517
1746734444031212300,6.59021240234375,-0.006122282272577285,-0.019913053346425295,-0.02823195061413571
1746734444041179100,6.60017919921875,-0.02183189257979393,-0.02354925442431122,0.01616959250178188
1746734444051145200,6.610145263671875,-0.04412497293055057,0.0007820172231644392,0.02871518582012504
1746734444061112000,6.620112060546875,-0.044271687924861906,0.002054375246539712,0.011768672395404427
1746734444071079200,6.6300791015625,0.0030178865164518353,-0.014169468193128705,0.0013548121424391865
1746734444081046300,6.64004638671875,-0.010593874728679656,-0.021748561677895486,-0.002485131346620619
1746734444091013000,6.65001318359375,-0.03871989901661873,-0.013789127106033265,-0.008978493687603622
1746734444100979500,6.6599794921875,-0.02091127060353756,-0.01734817129448056,-0.0052665056934580205
1746734444110946300,6.6699462890625,-0.002210077264904976,-0.014900376283563672,0.0019685966592282054
1746734444120913200,6.6799130859375,-0.021216975551843643,-0.0014782193263992666,-0.0010548793477937579
1746734444130880300,6.68988037109375,-0.008648001357913018,-0.007876103669963776,-0.003761197430733591
1746734444140846300,6.699846435546875,-0.02615443195402622,-0.023650632439553735,-0.005964388297125697
1746734444150813400,6.7098134765625,-0.020916531300544737,-0.021600531509332357,-0.0026304763677529987
1746734444160780300,6.7197802734375,-0.020770400828123092,-0.006918693347275256,-0.001895440091472119
1746734444170747400,6.729747314453125,-0.02301730297207832,0.0032827114650979634,-0.0030068353994749486
1746734444180714200,6.73971435546875,-0.02242050612270832,-0.004754318387620151,-0.0031660080165602264
1746734444190680300,6.749680419921875,-0.016581716966629027,-0.007044584749266505,0.0017134893869981168
1746734444200647400,6.7596474609375,-0.02346563126146793,0.0013635799707844853,0.015469444875791667
1746734444210614300,6.7696142578125,-0.02122048268318176,-0.0002745426250621676,-0.0034255540018901225
1746734444220581400,6.779581298828125,-0.04636018463671207,-0.009677782797068357,-0.01406089325211942
1746734444230547200,6.789547119140625,-0.011792144602537155,0.0005271656792610884,-0.027707890207413582
1746734444240514300,6.799514404296875,-0.01373860249519348,-0.003067205550894141,-0.013726181405037641
1746734444250481400,6.8094814453125,-0.04546002092659473,0.000157126790471375,-0.001574300112016499
1746734444260448300,6.8194482421875,-0.046509237718582154,0.0010609802950173617,0.002387479658424854
1746734444270415400,6.829415283203125,-0.01343757372200489,-0.010060425439104436,0.01748876707525924
1746734444280381200,6.839381103515625,-0.013436404678225516,-0.015617109718173742,0.008344762361329049
1746734444290348300,6.849348388671875,-0.027803368204832077,-0.007525025209970772,0.008545125505328178
1746734444300315100,6.859315185546875,-0.034984219619631766,-0.010403430190496147,-0.004188957856129855
1746734444310282200,6.8692822265625,0.007214753684401512,-0.015850699278339743,-0.01865419412543997
1746734444320249300,6.879249267578125,-0.0310918883562088,-0.006010236732847988,0.002331730883195996
1746734444330215200,6.889215087890625,-0.039919922456145285,0.014619038591533899,0.01804559724042192
1746734444340182300,6.899182373046875,-0.027052257576584814,-0.0079194678876549,0.010086582793667911
1746734444350149000,6.909149169921875,-0.01762684210538864,-0.008129603506997228,-0.003452916932851076
1746734444360116200,6.9191162109375,-0.02600362530648708,-0.011492905927635728,-0.0034713111060671507
1746734444370082000,6.92908203125,-0.03213701349496841,-0.02109780615158379,-0.017127404683269558
1746734444380049200,6.939049072265625,-0.02510579968392849,-0.02346785975117236,-0.0007819076253101229
1746734444390016300,6.949016357421875,0.0006318681627511978,-0.0056376040281727905,-0.005005370539240539
1746734444399983000,6.958983154296875,-0.021362521502375602,-0.008831796959601342,0.011118391793128103
1746734444409950200,6.9689501953125,-0.01941547908782959,0.006395107864588499,0.01393666408425197
1746734444419916000,6.978916015625,-0.018665537503361702,-0.0130656716696918,-0.00242883458212018
1746734444429883100,6.988883056640625,-0.021958149307966232,-0.007043415705487131,-0.009494699581433086
1746734444439850200,6.998850341796875,-0.01851122372448444,-0.0161663410987705,-0.0017334361964836717
1746734444449817000,7.008817138671875,-0.03048398559093475,-0.014929127454012632,0.0023350553514435886
1746734444459784200,7.0187841796875,-0.027343349477648732,-0.012503763470612465,-0.0015389913366176187
1746734444469750300,7.028750244140625,-0.02360299390554428,-0.01740432192850858,-0.00772146109752357
1746734444479717400,7.03871728515625,-0.02853986578583717,-0.015288206557370721,0.01390332807023078
1746734444489684200,7.048684326171875,-0.018512977290153502,0.0036899040265008804,0.006539758765976875
1746734444499651000,7.058651123046875,-0.04006079223155975,-0.009353336615674198,0.01138752759071067
1746734444509617400,7.068617431640625,-0.017165069812536238,-0.008371120645292102,0.00798961051441729
1746734444519584300,7.078584228515625,-0.0188093298882246,-0.009596132395602763,0.000631301907170564
1746734444529551400,7.08855126953125,-0.03212824566662311,0.006118848206475376,-0.0014330832767300307
1746734444539518500,7.0985185546875,-0.01955751790702343,-0.012031177522800862,-0.0015475217029452322
1746734444549485300,7.1084853515625,-0.014618892461061477,-0.01801832564100623,-0.008913301230594516
1746734444559451400,7.118451416015625,-0.02045417448580265,-0.015626936992444097,-0.007438442905060946
1746734444569418200,7.128418212890625,-0.030180618730187413,-0.0028224004769697784,0.005396178221423179
1746734444579385300,7.13838525390625,-0.022698154020309447,-0.02243778605107218,0.016759228958003223
1746734444589352200,7.148352294921875,-0.011027005448937416,-0.01706131717711687,-0.0002482391400262713
1746734444599319300,7.1583193359375,-0.020151976668834684,-0.008607157890871167,-0.007304203799832612
1746734444609285400,7.168285400390625,-0.03376899861097336,0.005927709548547864,-0.0013415873346850275
1746734444619252200,7.178252197265625,-0.02060088948011398,-0.0034651188272982834,-0.006786700998060405
1746734444629219300,7.18821923828125,-0.024642273825407027,-0.007516440044716,0.007354838008526712
1746734444639186200,7.198186279296875,-0.01356909114718437,-0.02186780414339155,0.008225611227378249
1746734444649153300,7.2081533203125,-0.03466390162408352,-0.002179097604751587,0.005884948119055479
1746734444659119400,7.218119384765625,-0.02328969017267227,-0.011185082087479531,-0.00955411988478154
1746734444669086200,7.228086181640625,0.009181085321307183,-0.026081074456870555,-0.006354739321582019
1746734444679053300,7.23805322265625,-0.03167407215833664,-0.008757343483902514,-0.0006788308433257042
1746734444689020200,7.248020263671875,-0.04559036930799484,-0.010095204491540789,-0.006685414314363152
1746734444698986200,7.257986328125,-0.026885084316134452,-0.027032529962807892,-0.015929554934520272
1746734444708953000,7.267953125,-0.006235679519176483,-0.010406937321834266,-0.018479367281496524
1746734444718920200,7.277920166015625,-0.01745382362604141,-0.0006248904326930642,-0.007603753001987934
1746734444728887300,7.28788720703125,-0.03017418898940086,-0.009017784518375992,-0.008278839251957833
1746734444738854100,7.297854248046875,-0.03376666052341461,-0.011250512006506324,0.006850450416654348
1746734444748820200,7.3078203125,-0.020898411121964455,-0.018141952020674944,0.001975044666323811
1746734444758787000,7.317787109375,-0.021945874348282813,0.004404116710461676,-0.002133778891991824
1746734444768754200,7.327754150390625,-0.030173604467511175,0.0031571853892877694,-0.006355013316217809
1746734444778721300,7.33772119140625,-0.023290274694561956,-0.016877740771137177,0.0011067191328853368
1746734444788687000,7.34768701171875,-0.02149403892755508,-0.02697743877470493,0.007788005261402576
1746734444798654200,7.357654296875,-0.040351884132623674,-0.029225984886474907,-0.005061849966831505
1746734444808621000,7.36762109375,-0.051719081321358676,-0.02506630792375654,-0.009044526394829153
1746734444818588200,7.377588134765625,-0.003683656948804855,0.006889430720172822,0.003700553284678608
1746734444828555300,7.38755517578125,0.013375029879808426,0.014698022111877799,0.004101590099930763
1746734444838521300,7.397521240234375,-0.025232640933990476,0.0063420990357175465,0.0032182313941419125
1746734444848488400,7.407488525390625,-0.0394487978130579,-0.024784312644600865,0.0038321803077124056
1746734444858455300,7.417455322265625,-0.034061844077706335,-0.0401117552338168,-0.0032274193475954234
1746734444868422100,7.427422119140625,-0.010418518161773681,-0.03970573171619326,-0.005288297400157898
1746734444878389200,7.43738916015625,-0.031814357411861414,-0.0039865123528987165,-0.01608069037562236
1746734444888355300,7.447355224609375,-0.03525368421077728,0.004354359284602105,0.005563588943891227
1746734444898322400,7.457322509765625,-0.0024795418560504914,-0.0063323082940652965,0.016725637215655297
1746734444908289300,7.467289306640625,-0.012952420553565025,-0.03300320187024772,0.00995965021206066
1746734444918256400,7.47725634765625,-0.0365904857724905,-0.015007051528431474,-0.02540865508802235
1746734444928223200,7.48722314453125,-0.04017886565327644,-0.0138730790624395,-0.043237248576898125
1746734444938189300,7.497189208984375,-0.026415128716826438,-0.013216076458431779,-0.01251857744725421
1746734444948156400,7.507156494140625,-0.013848492610454559,-0.017391608577407895,0.018409279453661293
1746734444958123300,7.517123291015625,-0.0334533567905426,-0.0010823153439909218,0.023484372494556007
1746734444968090400,7.52709033203125,-0.020731822383403778,-0.01657693119365722,0.030535039924737065
1746734444978056200,7.53705615234375,-0.01220014088153839,-0.00020681115109473465,0.012474665240291505
1746734444988023300,7.547023193359375,-0.023873627540469167,-0.014371712766960263,-0.0318335187700577
1746734444997990700,7.55699072265625,-0.020881459987163543,0.0011956395253539085,-0.03165249964734539
1746734445007957800,7.566957763671875,-0.03344984965920448,0.0026391163319349287,-0.014576971281785518
1746734445017924900,7.5769248046875,-0.01848433571755886,-0.017442973438464106,0.006191219322942197
1746734445027890700,7.586890625,-0.019830489629507064,-0.021523959141783414,0.028980631823278962
1746734445037857800,7.59685791015625,-0.029255905100703236,-0.011501271897181867,0.02292620888883248
1746734445047824600,7.60682470703125,-0.02910802106261253,-0.0042206864349544045,-0.009176920602843164
1746734445057791700,7.616791748046875,-0.02132861923277378,-0.009118395348638295,-0.009622910804674029
1746734445067758800,7.6267587890625,-0.025518472138047216,-0.0025812486648559567,-0.0002665967806242406
1746734445077724700,7.636724609375,-0.02192600060403347,-0.007262611414119601,0.005440748015511781
1746734445087691800,7.64669189453125,-0.03628711891174316,-0.017531966896168885,0.018117182905599473
1746734445097658600,7.65665869140625,-0.02431318800151348,-0.019413981250487267,0.024699118579179048
1746734445107625700,7.666625732421875,-0.02266658983826637,-0.02317344338186085,0.0034557482107542455
1746734445117591600,7.676591552734375,-0.030447160711884497,-0.003155724084563553,-0.01625432990947738
1746734445127558700,7.68655859375,-0.03254033359885215,-0.013967771608568727,-0.025720661912951616
1746734445137525800,7.69652587890625,-0.02311316456198692,-0.008545563896745443,-0.00300853416621685
1746734445147492600,7.70649267578125,-0.021466566398739815,-0.017860723926499483,0.013180950346123427
1746734445157459700,7.716459716796875,-0.03523439498841762,0.0004401449829339981,0.003427709426358342
1746734445167425500,7.726425537109375,-0.027450316983461377,-0.014304967673681675,-0.0030240787952207026
1746734445177392600,7.736392578125,-0.011138649129867553,-0.020031309431232512,-0.007647482545860111
1746734445187359700,7.74635986328125,-0.013981179079413413,-0.016868863344937562,0.008168729940988124
1746734445197326600,7.75632666015625,-0.03268704859316349,-0.007397307177074253,-0.005324866550881415
1746734445207293700,7.766293701171875,-0.018322423154115676,-0.002909275042824447,-0.00424245987534523
1746734445217259500,7.776259521484375,-0.012187281399965286,-0.02089231017474085,0.002678900353051722
1746734445227226600,7.7862265625,-0.023859014493227002,-0.023720482805371285,-0.001384567959886044
1746734445237193700,7.79619384765625,-0.03702653910219669,-0.015099771313183009,-0.007590911786723882
1746734445247160600,7.80616064453125,-0.028047698354721068,-0.01018898372221738,-0.016116766336001453
1746734445257127000,7.816126953125,-0.0036561844199895855,-0.014408976037427782,0.008001538414228708
1746734445267093800,7.82609375,-0.01368073482811451,-0.004427278390340507,0.018348836237005887
1746734445277060900,7.836060791015625,-0.02834872712790966,-0.013069032670557498,0.004543050257116556
1746734445287027700,7.84602783203125,-0.02385784544944763,-0.0008584434602409601,-0.003384984529484063
1746734445296994600,7.85599462890625,-0.0008119009047746658,-0.008828326360881327,-0.008471366149373352
1746734445306961000,7.8659609375,-0.025503274568915366,-0.013284903910942374,-0.004141282789502293
1746734445316927700,7.875927734375,-0.03223521317243576,-0.015269940248318016,-0.012390128761995583
1746734445326894800,7.885894775390625,-0.020863924330472947,-0.014214366780780256,-0.01490474193142727
1746734445336861700,7.89586181640625,-0.022662498185038564,-0.027620412853360175,0.01820599370021373
1746734445346828800,7.905828857421875,-0.018919220003485678,-0.01170340687315911,0.012860120893921701
1746734445356794600,7.915794677734375,-0.04211129502058029,-0.006478950223140418,-0.012024528586305677
1746734445366761700,7.92576171875,-0.02535012983381748,-0.006801314045302569,-0.012980989060923456
1746734445376728800,7.935728759765625,-0.01592237627506256,-0.02221541200466454,-0.018376436629984526
1746734445386695700,7.94569580078125,-0.0281944133490324,-0.01830192835535854,-0.008910396887455135
1746734445396661800,7.955661865234375,-0.029246552750468252,-0.021216646758280694,-0.003873279503080994
1746734445406628600,7.965628662109375,-0.011740122154355048,-0.0029315234072506426,0.004816515169944614
1746734445416595700,7.975595703125,-0.012640870386362075,-0.003704042149707675,0.013418814222607761
1746734445426562800,7.985562744140625,-0.026409868019819257,-0.012802709884569049,-0.007777392535842954
1746734445436529700,7.99552978515625,-0.024014497315883634,0.002290339426882565,-0.01377897103819996
1746734445446495700,8.005495849609375,-0.02326397120952606,-0.017361505700089038,-0.0010813289633020758
1746734445456462600,8.015462646484375,-0.021768764215707778,-0.016306005297787488,-0.00015992153575643896
1746734445466429700,8.0254296875,-0.016536124259233474,-0.0009435279278084635,0.011444317545555532
1746734445476396800,8.035396728515625,-0.017287819409370422,0.0043752559421584005,0.008465904522966593
1746734445486363600,8.04536376953125,-0.01369768596291542,-0.016425101632811127,0.0016512012731283903
1746734445496329700,8.055329833984375,-0.027314123383164406,-0.009515687570534646,-0.016670326831843704
1746734445506296600,8.065296630859375,-0.01923427730202675,-0.008749087112210691,-0.012647665453329682
1746734445516263700,8.075263671875,-0.03449731288552284,-0.0011340089986100793,-0.005733246422372758
1746734445526230800,8.085230712890626,-0.03479658809304237,-0.018642923812754453,-0.012317812444455921
1746734445536196600,8.095196533203126,-0.010551789152622223,-0.023343794980086385,0.0031907223327085374
1746734445546163700,8.105163818359374,-0.012346271353960037,-0.013164090542867778,0.0029785226204432544
1746734445556130600,8.115130615234374,-0.024465748214721677,0.0046074572628363964,0.0038602921573445198
1746734445566097700,8.12509765625,-0.022670681491494177,-0.00015044132135808467,-0.012313866921700537
1746734445576064800,8.135064697265625,-0.027308862686157225,-0.008843743125721813,-0.004837722354754805
1746734445586030800,8.14503076171875,-0.028356325912475583,-0.011267317010834813,-0.0007552388140931725
1746734445595997700,8.154997802734375,-0.025811317604780195,-0.017146145916357637,-0.004616352955345064
1746734445605964500,8.164964599609375,-0.0109971948325634,-0.006224719733744859,0.009451225765887647
1746734445615931600,8.174931640625,-0.015037410134077072,-0.002338891276344657,0.0075162025826983146
1746734445625898500,8.1848984375,-0.018779519271850585,-0.006671550185792147,0.0027617197982966898
1746734445635864800,8.19486474609375,-0.05289630840718746,-0.004464943519607186,-0.005137180225364864
1746734445645832000,8.20483203125,-0.01952478468120098,-0.012763875711522996,-0.003782879539579153
1746734445655798800,8.214798828125,-0.0294014510512352,-0.020996464668959377,-0.0029918204934336243
1746734445665766000,8.224765869140626,-0.011598667857050896,-0.008813786378875374,-0.0017100370545871555
1746734445675732700,8.234732666015624,-0.01863455784320831,-0.006362593834474683,-0.0013573146267794071
1746734445685698800,8.24469873046875,-0.016987959679961202,-0.020769414447434246,-0.004470533010177314
1746734445695665700,8.254665771484374,-0.006664718586206436,-0.01592946360297501,0.0021270934228785334
1746734445705632800,8.2646328125,-0.01729483367204666,0.007678754466958344,0.015527842265833168
1746734445715600000,8.274599853515625,-0.03270750685930252,0.005599500507488846,0.000399301515892148
1746734445725566700,8.284566650390625,-0.03615267887711525,-0.021571707273647187,-0.00537053232351318
1746734445735532800,8.29453271484375,-0.032117139750719066,-0.04663702881671488,-0.012474482577200978
1746734445745499600,8.304499755859375,-0.04049743008315563,-0.044571036197617646,-0.009699355308059602
1746734445755466800,8.314466796875,-0.03585807984471321,-0.001327887602895498,0.006608768881577998
1746734445765433900,8.324433837890625,-0.016849427992105485,0.037163426822237666,0.019136808276921508
1746734445775399700,8.334399658203125,0.007988660666346549,-0.006602320874482393,0.03194613056536764
1746734445785366800,8.34436669921875,-0.04378536571264267,-0.019470789471641183,0.020694285118300466
1746734445795333600,8.354333740234376,-0.055907180660963056,-0.03009356150124222,-0.02771665803575888
1746734445805300700,8.36430078125,-0.013258125501871108,-0.03630012452378869,-0.02800524745248258
1746734445815267800,8.374267822265624,-0.01684650538265705,-0.012416779306903481,-0.0012688691583462059
1746734445825233700,8.384233642578126,-0.023430559948086738,-0.011807378704287112,0.018460260722227395
1746734445835200800,8.39420068359375,-0.028965397721529004,-0.012311674964614211,0.03552501196544617
1746734445845167600,8.404167724609374,0.0069517188340425485,-0.014234167459793388,0.027457751371245828
1746734445855134700,8.414134765625,-0.005019873988628387,-0.013494126214832067,-0.013806662762723862
1746734445865101800,8.424101806640625,-0.025669863307476042,-0.0064577978372573844,-0.01873107702024281
1746734445875067600,8.434067626953125,-0.025371757143735883,-0.00513736288845539,-0.02283310551159084
1746734445885034800,8.44403466796875,-0.012055179452896117,-0.010054616752825677,-0.0021580000177957117
1746734445895001600,8.454001708984375,-0.01504617796242237,-0.009198913238942622,0.01549220469687134
1746734445904968700,8.46396875,-0.029113281759619712,-0.01426894651222974,0.02522429323075339
1746734445914934500,8.4739345703125,-0.028964228677749632,-0.022596556809358296,0.003171086050476879
1746734445924901600,8.483901611328125,-0.024177578923106194,-0.011603855488821863,0.005688658361975104
1746734445934868700,8.49386865234375,-0.004427168792486191,-0.005894976322725415,-0.009078739191684872
1746734445944835600,8.503835693359376,-0.020588029998540876,-0.003973251012526453,-0.02248962583616376
1746734445954802700,8.513802734375,-0.04452946207821369,-0.0152853570131585,0.008897866199444979
1746734445964768800,8.523768798828126,-0.0009855039060115813,-0.018573365707881748,0.009528802780434489
1746734445974735600,8.533735595703124,-0.006521510723233223,-0.013634886392392217,0.048387690142635255
1746734445984702700,8.54370263671875,-0.019392098212242127,-0.0063903951568529006,0.01680821919888258
1746734445994669600,8.553669677734375,-0.03435352050065994,-0.0010369418323040009,-0.015419468254223466
1746734446004636400,8.563636474609375,-0.001132218900322914,-0.009288089359737932,-0.011741729589551686
1746734446014602800,8.573602783203125,-0.02627601250708103,-0.0036393794156610966,-0.0018156528535299003
1746734446024569600,8.583569580078125,-0.024777882903814313,-0.004876045071147382,0.013411617296840995
1746734446034536700,8.59353662109375,-0.03315817323625087,-0.01670421083513647,0.01809109861627221
1746734446044503800,8.60350390625,-0.0074181673020124435,-0.026884244065918026,0.019334668936580417
1746734446054469600,8.6134697265625,-0.02133329540789127,-0.0202762971682474,0.0065127794275060295
1746734446064436700,8.623436767578125,-0.02971124765276909,-0.027922939463891086,-0.005803060255572199
1746734446074403600,8.633403564453126,-0.03479717261493206,-0.010928476977907121,-0.021487097730115055
1746734446084370700,8.64337060546875,0.004110357928276062,-0.025155520577169955,-0.014540749190934002
1746734446094337500,8.653337646484376,-0.010103460863232612,-0.012201382990553974,0.002094816854782402
1746734446104303600,8.6633037109375,-0.03134849346578121,-0.012992094976827502,0.01817674933942035
1746734446114270700,8.673270751953124,-0.024764438900351522,-0.015919709393940867,0.002188888346403837
1746734446124237600,8.683237548828124,-0.0032166239589452744,0.0008646174727007746,-0.017145342198759315
1746734446134204700,8.69320458984375,-0.02625906137228012,-0.017719890683703124,-0.01582596669588238
1746734446144171500,8.703171630859375,-0.030746435919404028,-0.01789020574931055,-0.020363263065647334
1746734446154137600,8.7131376953125,-0.015485153901576995,-0.0005379793342202902,-0.023134664007741956
1746734446164104700,8.723104736328125,-0.010247837769985198,-0.012639591744728385,-0.006535813243221491
1746734446174071600,8.733071533203125,-0.026858780831098553,-0.021706731830164788,0.01676273608934134
1746734446184038700,8.74303857421875,-0.018331190982460974,0.0012194587923586367,0.010035784188192337
1746734446194005500,8.753005615234375,-0.04571604151427745,-0.005305851323157549,-0.007048457206785678
1746734446203971600,8.7629716796875,-0.023119594302773473,-0.029449089585244653,0.005855539361480623
1746734446213938400,8.7729384765625,-0.007708090159296989,-0.020780081971921025,-0.0003730528297834098
1746734446223905500,8.782905517578126,-0.018332944548130035,-0.0030589857118204235,0.005245006247702986
1746734446233872600,8.79287255859375,-0.035842882275581356,0.0008383505202829838,-0.00708498982489109
1746734446243839500,8.802839599609374,-0.005168342548608779,-0.012153269532509147,-0.0027336627475917337
1746734446253805600,8.8128056640625,-0.025820085433125493,-0.011190598512813447,0.015816742209810764
1746734446263772400,8.8227724609375,-0.05499766460061073,-0.015023746934905647,0.007033862425852567
1746734446273739500,8.832739501953125,-0.03299859876036644,-0.014662402809225022,-0.012825487971957773
1746734446283706600,8.84270654296875,-0.006661211454868316,-0.02603595667351037,-0.0046314409266225995
1746734446293672400,8.85267236328125,-0.03194938196837902,-0.006284231368638575,0.008047313784714788
1746734446303639600,8.8626396484375,-0.03164543058574199,-0.002932290592230856,-0.005334675558842718
1746734446313606400,8.8726064453125,-0.014582067582011223,-0.006052358841523528,0.007063070254027843
1746734446323573500,8.882573486328125,-0.010090601381659507,-0.02003569334540516,0.00841126999258995
1746734446333540600,8.89254052734375,-0.02520458388328552,-0.018328743297047912,0.001902947544492781
1746734446343506700,8.902506591796875,-0.02101531549990177,-0.002913439761288464,0.015231982858106494
1746734446353473500,8.9124736328125,-0.010241408029198646,-0.018852219181880354,0.0020611703135073184
1746734446363440600,8.922440673828126,-0.0015653496205806732,-0.02161357365399599,-0.009157430451083928
1746734446373407500,8.932407470703126,-0.023259879556298255,-0.018061470662988723,0.0019908632899634537
1746734446383374600,8.94237451171875,-0.008593056300282478,-0.014698095177114009,0.009790394592378288
1746734446393340700,8.952340576171874,-0.027895722663402556,-0.031627712265960874,-0.02718225889811292
1746734446403307800,8.962307861328124,-0.021463059267401694,-0.021095285400934517,-0.013414941765088588
1746734446413274600,8.972274658203125,-0.011738368588685988,-0.001923369278013706,-0.0015475034366361797
1746734446423241700,8.98224169921875,-0.010841127488017082,0.002329758121818304,0.013053268845845014
1746734446433208600,8.99220849609375,-0.009494973576068877,0.001034822940453887,0.0044490152981132266
1746734446443174700,9.002174560546875,-0.016530279040336607,-0.024283194722048936,0.009606598990689963
1746734446453141800,9.012141845703125,-0.029251813447475433,-0.027090945619158445,0.009647844316530972
1746734446463108600,9.022108642578125,-0.04436521142721176,-0.015338877298682926,-0.012073902419675141
1746734446473075700,9.03207568359375,-0.02626023041605949,-0.015545615384541451,-0.010728132100217044
1746734446483041500,9.04204150390625,-0.01728314323425293,-0.006107888421043753,0.006828969237208366
1746734446493008600,9.052008544921875,-0.030900749698281285,-0.01316328682526946,0.024551325872633603
1746734446502975500,9.0619755859375,-0.03090191874206066,0.006447714834660292,0.022486557096242903
1746734446512942600,9.071942626953126,-0.019826397976279258,-0.0003493614269420504,0.009474971967656164
1746734446522909700,9.08190966796875,-0.027007833912968633,-0.009654219258390367,-0.02107060761740431
1746734446532875500,9.09187548828125,-0.020569909819960593,-0.018838519450090824,-0.017240728864632546
1746734446542842600,9.101842529296874,-0.04510813874900341,-0.016992708920314906,-0.025870244717784225
1746734446552809500,9.1118095703125,-0.024753332984447478,-0.00020936843436211348,0.004221417087316512
1746734446562776600,9.121776611328125,-0.00844224965274334,-0.012033442545123398,0.02318727097781375
1746734446572743700,9.13174365234375,-0.01652151121199131,-0.006714256816357374,0.028192038728855548
1746734446582709500,9.14170947265625,-0.020709026029706,-0.00109546708650887,0.02071631428701803
1746734446592676600,9.151676513671875,-0.02415185995995998,-0.02304693092536181,-0.026597791807353496
1746734446602643500,9.1616435546875,-0.020559388425946235,-0.03605531944986433,-0.025182426850404588
1746734446612610600,9.171610595703125,-0.00978548095524311,-0.01615063207298517,-0.014851130314357579
1746734446622577700,9.18157763671875,-0.029088731840252874,-0.029947029170021414,-0.008070932122319937
1746734446632543500,9.19154345703125,0.00009527706801891326,-0.023907566342689094,0.020736608156375586
1746734446642510600,9.201510498046876,0.01954699651300907,0.026411950379051266,0.023267587938718498
1746734446652477400,9.2114775390625,-0.028189737173914906,0.0018539938362315295,0.011781458811741322
1746734446662444500,9.221444580078124,-0.08310556870996952,-0.03337919557578862,0.00902114551924169
1746734446672411600,9.23141162109375,-0.04090776444971561,-0.07089676959794014,-0.028661044480092823
1746734446682377500,9.24137744140625,-0.0021527941197156905,-0.03962605407610535,-0.0310058357742615
1746734446692344600,9.251344482421874,-0.011277180817723274,0.02568637605085969,0.017597816940303893
1746734446702311400,9.2613115234375,-0.015322072294354437,0.03908738062214106,0.0471603585710749
1746734446712278500,9.271278564453125,-0.0033481413841247557,0.004177833673916757,0.03213350636363029
1746734446722245600,9.28124560546875,-0.027736148187518118,-0.05050495629124343,0.0017184030241332946
1746734446732211700,9.291211669921875,-0.0528770191848278,-0.06200304985065013,-0.0410393184075132
1746734446742178600,9.301178466796875,-0.02998129676580429,-0.024327947179228065,-0.05645012843124568
1746734446752145400,9.3111455078125,-0.00409691392481327,0.00495886451639235,-0.033898415410611775
1746734446762112500,9.321112548828125,-0.006493453672528266,0.025231435357592997,0.02520315911117941
1746734446772078600,9.33107861328125,-0.022951836520433425,0.005128741190582513,0.04659684293679893
1746734446782045700,9.341045654296876,-0.022799276307225225,-0.011577150144986807,0.04199568755058571
1746734446792012800,9.3510126953125,-0.020552958685159682,-0.032105303182452916,-0.0068367872174829245
1746734446801979600,9.360979736328124,-0.03013034984767437,-0.0242755228722468,-0.04803350641010329
1746734446811946800,9.37094677734375,-0.013819266515970229,0.0004245455550029874,-0.03549366697911173
1746734446821912600,9.38091259765625,-0.01576689345240593,0.0184589455479756,0.011898819847404957
1746734446831879700,9.390879638671874,-0.021303484791517256,-0.009994995520077645,0.043959060045424846
1746734446841846500,9.400846435546875,-0.013520575830340385,-0.010982326056994497,0.047923196169734
1746734446851813600,9.410813720703125,-0.010079495465755463,-0.020544410052523016,0.004083195926714688
1746734446861780700,9.42078076171875,-0.026088380980491637,0.009776493931189179,-0.030499329290539025
1746734446871746600,9.43074658203125,0.0006979191362857818,-0.012251432677358388,-0.04890557653689757
1746734446881713700,9.440713623046875,-0.002742576706409454,0.00034052053336054087,-0.033594555359520016
1746734446891680500,9.450680419921875,-0.021146248403191566,-0.014795710332691668,0.010950433081388473
1746734446901647600,9.460647705078125,-0.046133974665403366,-0.02848550525009632,0.04840171866798773
1746734446911614700,9.47061474609375,-0.009770283386111259,-0.02029628051035106,0.03251883415309712
1746734446921580500,9.48058056640625,-0.019644027146697045,-0.014801263290643692,-0.010463964738696813
1746734446931547600,9.490547607421876,-0.02129120983183384,-0.0063721653804183,-0.042054011875391005
1746734446941514500,9.500514404296876,-0.038050621452927584,-0.01625986460112035,-0.03664727572733536
1746734446951481600,9.510481689453124,-0.001239186406135559,-0.027964184789732095,0.009313899654429405
1746734446961448700,9.52044873046875,-0.026078444108366964,-0.0005920110763981938,0.011678108035121112
1746734446971414500,9.53041455078125,-0.017395371437072753,-0.008793072384409606,0.02770146046662703
1746734446981381600,9.540381591796875,-0.022632103046774862,0.008566058695502579,0.016301000329107047
1746734446991348500,9.550348388671875,0.004302081108093261,-0.014618819395825267,-0.011676573665160684
1746734447001316400,9.56031640625,-0.023533435800671576,-0.033086386641673744,-0.027079857969563453
1746734447011282400,9.570282470703125,-0.03550619766712188,-0.019601028255186975,-0.021641301911137997
1746734447021249300,9.580249267578125,-0.03550853575468063,-0.004140716533921659,0.005018832809012383
1746734447031216400,9.59021630859375,-0.002589431971311569,-0.017741992917656896,0.03497360689407214
1746734447041183500,9.60018359375,-0.02623275788724422,-0.013085326218232511,0.014475666331779212
1746734447051150300,9.610150390625,-0.03162029614448547,-0.01455079566091299,0.0018939057215116917
1746734447061116400,9.620116455078126,-0.031019407641887663,-0.007292531628347933,-0.005435852644685655
1746734447071083300,9.630083251953126,-0.004683773902058601,-0.011042129952833055,-0.009738536540977656
1746734447081050400,9.64005029296875,-0.02727905206978321,-0.019688048951514065,-0.013511972398776561
1746734447091017500,9.650017578125,-0.02443769116401672,-0.03776197723727673,0.005502926531527191
1746734447100984300,9.659984375,-0.013063479712605476,-0.003230360223352909,0.006985018315445631
1746734447110950400,9.669950439453125,0.001450198808312416,0.0005779825510457158,0.0031747575785964727
1746734447120917200,9.679917236328125,-0.03296995718777179,-0.014032361277379096,0.01791524885902181
1746734447130884400,9.68988427734375,-0.03431611109972,-0.02186119173951447,0.005097487535793334
1746734447140851200,9.699851318359375,-0.02578793672919273,-0.01314808925613761,0.007940145349502563
1746734447150818300,9.709818359375,-0.021148586490750312,-0.0233384977504611,-0.015241645735595374
1746734447160784400,9.719784423828125,-0.02907937949001789,-0.014072693287767469,-0.0007077829431742429
1746734447170751200,9.729751220703125,-0.025640052691102026,-0.004389942054636776,0.0049142764559946955
1746734447180718300,9.73971826171875,-0.0263905787974596,0.004957841603085399,0.0049009055177681145
1746734447190685200,9.749685302734376,-0.023844985967874526,-0.011560600868985057,0.007298577776644379
1746734447200652300,9.75965234375,-0.019354104289412498,-0.009531104335375129,-0.016311576522048562
1746734447210618400,9.769618408203126,-0.03686345749497413,0.008453720894828438,-0.0033961452443152665
1746734447220585500,9.77958544921875,-0.028483167162537574,-0.004701528754457831,-0.0077762782909907395
1746734447230552300,9.78955224609375,-0.01037760162949562,-0.021570392099395392,0.009983323348592966
1746734447240519200,9.799519287109375,-0.014717676660418509,-0.012293152927234768,0.013440222336817532
1746734447250486300,9.809486328125,-0.03222644534409046,-0.018684388334304095,-0.002114964593667537
1746734447260452400,9.819452392578125,-0.030585692399740218,-0.01321264239232987,-0.006505363306030631
1746734447270419500,9.82941943359375,-0.003354571124911308,-0.016396131266653537,0.0036350137677974995
1746734447280386600,9.839386474609375,-0.01921674164533615,-0.021450528579391538,0.008998422230780125
1746734447290353400,9.849353515625,-0.04106324727237224,-0.01371536775007844,0.00904726634118706
1746734447300319500,9.859319580078125,-0.0018564415216445922,-0.016637684937566517,0.011331541353464127
1746734447310286300,9.869286376953125,-0.003654430854320526,-0.027041663117334244,-0.007529774450324475
1746734447320253400,9.87925341796875,-0.03433481580018997,-0.019443791866861283,0.009873981222603469
1746734447330220500,9.889220458984376,-0.05349018264710903,-0.00015190262608230114,-0.002468746467400342
1746734447340187400,9.8991875,-0.029397359398007392,-0.004380662769638001,-0.01081674196543172
1746734447350153500,9.909153564453124,-0.01847206075787544,-0.008868987164832651,-0.0022345541190356014
1746734447360120300,9.919120361328124,-0.018768997877836226,-0.009440832236036657,-0.006129150404781103
1746734447370087400,9.92908740234375,-0.0311877499461174,-0.008229593282751739,-0.007103694525361061
1746734447380054500,9.939054443359375,-0.029839842468500136,-0.004840827627293765,-0.007391571556031704
1746734447390021400,9.949021484375,-0.02206102516055107,-0.026913177899457512,-0.006794372847862541
1746734447399987500,9.958987548828125,-0.025053777235746384,-0.026895459579676387,-0.02104662395361811
1746734447409954300,9.968954345703125,-0.02520166127383709,-0.005814239236712456,-0.002379022357333451
1746734447419921400,9.97892138671875,-0.021458967614173888,-0.003915602541156113,0.0076397741634398695
1746734447429888500,9.988888427734375,-0.013829203388094902,-0.021078005472570657,0.012867336085997522
1746734447439855400,9.99885546875,-0.021011223846673963,-0.0242491828545928,-0.007306943746190518
1746734447449821400,10.008821533203125,-0.04420622147321701,-0.0060106751242652535,-0.009022606823965907
1746734447459788300,10.018788330078126,-0.018619944795966147,-0.00851995453145355,-0.002410093349032104
1746734447469755400,10.02875537109375,-0.02041618056297302,-0.01402626033015549,0.007591386710759252
1746734447479722200,10.03872216796875,-0.025058453410863876,-0.0129306471131742,0.007231924014911055
1746734447489689300,10.048689453125,-0.036133974176645274,-0.0019568696888163685,0.0065315754595212635
1746734447499655400,10.058655517578124,-0.016380056914687156,-0.026317221300303933,0.018448186691943556
1746734447509622300,10.068622314453124,-0.020566402688622473,-0.02277534744236618,0.005654482097737491
1746734447519589400,10.07858935546875,-0.01637596526145935,-0.012187537128292023,-0.013032518318761139
1746734447529556200,10.08855615234375,-0.046453708139061925,-0.008240918394364416,-0.022074176903069016
1746734447539522300,10.098522216796875,-0.018769582399725912,-0.021983174151368436,-0.01796323445290327
1746734447549489200,10.1084892578125,-0.025352467921376225,-0.026355909342877567,-0.003747735160961747
1746734447559456300,10.118456298828125,-0.024754502028226853,-0.02143642698880285,-0.006394961734116077
1746734447569423400,10.12842333984375,-0.034332477712631225,-0.002419591829739511,0.008466543843783437
1746734447579390200,10.13839013671875,-0.011288871255517006,-0.0038754166612401603,-0.003695091658271849
1746734447589356500,10.1483564453125,-0.01203764379620552,-0.01847604281324893,-0.009018953562155365
1746734447599323400,10.158323486328126,-0.008743862947821616,-0.017605287860706448,-0.01338518594764173
1746734447609290200,10.168290283203126,-0.030291677889227864,-0.012543437893874942,-0.008416585488524288
1746734447619257300,10.17825732421875,-0.018771335965394972,-0.0068230509530752895,0.012852997033391147
1746734447629224200,10.18822412109375,-0.025655250260233877,-0.027312041023932396,0.016165044190827756
1746734447639190500,10.1981904296875,-0.022814473876357075,-0.012945040964707732,0.0035466230982914566
1746734447649157400,10.208157470703124,-0.05259235702455044,-0.0023214286848902703,-0.0037746597005054354
1746734447659124500,10.21812451171875,-0.021171967366337776,-0.027081848997250198,-0.002543930595461279
1746734447669091600,10.228091552734375,-0.010250760379433631,0.0006166340610012412,-0.006356547686178237
1746734447679058400,10.238058349609375,-0.021171382844448087,-0.018337291929684578,-0.004083433388732374
1746734447689024500,10.2480244140625,-0.04496200827658176,-0.008066694338619708,-0.005729136502835899
1746734447698991400,10.257991455078125,-0.0011187748968601225,-0.010162607171945273,-0.0032963929305784402
1746734447708958500,10.26795849609375,0.006962240228056907,-0.014783325775153934,0.014600005097500979
1746734447718925600,10.277925537109375,-0.03164659962952137,-0.0013997472627088428,0.003985818233154714
1746734447728892400,10.287892333984376,-0.031048049214482305,-0.0013874723030254245,-0.0012706227240152656
1746734447738858500,10.2978583984375,-0.01907762543559074,-0.013213811436109245,-0.011410287411790341
1746734447748825300,10.307825439453126,-0.0129448217689991,-0.011297602551244198,0.003605623276531696
1746734447758792400,10.31779248046875,-0.022821488139033317,-0.010542290671914815,0.02606039699502289
1746734447768759600,10.327759521484374,-0.03299684519469738,-0.015790310860611497,0.01622623632615432
1746734447778726400,10.337726318359374,-0.03135141607522964,-0.01353613872565329,-0.007279197222739457
1746734447788692500,10.3476923828125,-0.026261983981728552,-0.021486915067024527,0.008255951566714792
1746734447798659300,10.357659423828125,-0.01084814175069332,0.0048118572611361736,0.008262052513938396
1746734447808626400,10.36762646484375,-0.03598667466044426,0.01210332944355905,0.007097483980283141
1746734447818593300,10.37759326171875,-0.03539163137674332,-0.003072977704554796,0.0033702070854604244
1746734447828559400,10.387559326171875,-0.028809914898872375,-0.027082835377939044,0.005142696650698781
1746734447838526500,10.3975263671875,-0.01833236002624035,-0.019377375567145645,-0.0020562018774449822
1746734447848493300,10.407493408203125,-0.034492052188515664,-0.01625146209895611,-0.015997743066214026
1746734447858460400,10.41746044921875,-0.005310965889692306,-0.015508534777164459,-0.006030950727313756
1746734447868427300,10.42742724609375,-0.00710544809103012,-0.0008333090189844369,0.01797695245100185
1746734447878393300,10.437393310546875,-0.0344902986228466,-0.010866809918545186,0.011451021280977875
1746734447888360200,10.447360107421876,-0.0291050984531641,-0.024292364409193395,0.0025035985850729047
1746734447898327300,10.457327392578126,-0.009656301617622374,-0.017339768792316315,-0.001909596480987966
1746734447908294400,10.46729443359375,-0.009057751202583312,-0.018048209322616457,0.0005497063046321272
1746734447918261200,10.47726123046875,-0.020278817918896675,-0.011254968985915183,0.003466196539532393
1746734447928227300,10.487227294921874,-0.03628594986796379,-0.002118307328224182,0.009338120780233293
1746734447938194200,10.497194091796874,-0.018028993165493012,-0.0058737508716061705,0.013364435420557855
1746734447948161300,10.507161376953125,-0.03329144422709942,-0.030585692399740218,0.008720043680816887
1746734447958128400,10.51712841796875,-0.029251228925585744,-0.0263574802454561,-0.009590634236577899
1746734447968095200,10.52709521484375,-0.024762100812792776,0.019872429075092075,-0.030244057621527463
1746734447978061300,10.537061279296875,-0.016085457882285117,-0.001005633378587663,0.0029794359358958898
1746734447988028200,10.547028076171875,-0.026860534396767614,-0.01415364956948906,0.0015175832224078476
1746734447997995300,10.556995361328125,-0.018931494963169097,-0.015353417280688881,0.012364702059794216
1746734448007962400,10.56696240234375,-0.03987959044575691,-0.017211502770148216,-0.0067210518833249805
1746734448017929200,10.57692919921875,-0.01728255871236324,-0.0024516309358179568,-0.005992956804484128
1746734448027895600,10.5868955078125,-0.015635960549116135,-0.006941233972646296,0.007905055769812316
1746734448037862400,10.5968623046875,-0.026561259189248083,-0.007061718547157943,-0.008206614265963435
1746734448047829500,10.60682958984375,-0.03269289381206036,-0.007631042867712676,-0.008028609084244817
1746734448057796400,10.61679638671875,-0.020124504140019414,-0.012838183056749403,-0.003978548242151737
1746734448067763500,10.626763427734375,-0.018928572353720665,-0.015106237586587667,0.006129862790834158
1746734448077729500,10.6367294921875,-0.01997662010192871,-0.01257744976133108,-0.00025276918467134236
1746734448087696400,10.6466962890625,-0.01877542761862278,0.0003634995501488447,-0.009431991342455148
1746734448097663500,10.65666357421875,-0.015933482190966606,-0.01323741150740534,-0.0029874731118790803
1746734448107630600,10.666630615234375,-0.020420272216200828,-0.0240574596747756,-0.001364712481945753
1746734448117597400,10.676597412109375,-0.012339841613173485,-0.009385777580551802,0.005495346013270318
1746734448127563500,10.6865634765625,-0.04106967701315879,-0.017489771722257137,-0.0013675254935398696
1746734448137530400,10.6965302734375,-0.024160043266415594,-0.023351539895124732,0.016141352787986396
1746734448147497500,10.70649755859375,-0.027302432945370672,-0.02470920158177614,0.0010634645130485295
1746734448157464300,10.71646435546875,-0.021012977412343023,-0.0038822117282077667,-0.01407884903391823
1746734448167431400,10.726431396484376,-0.029088731840252874,-0.00580130668990314,0.0032573760944418608
1746734448177397500,10.7363974609375,0.0005406827479600906,-0.018852621040679512,0.01896890436410904
1746734448187364400,10.7463642578125,-0.027443887242674825,-0.0015989230966195463,0.005102145444601774
1746734448197331500,10.75633154296875,-0.04555237538516521,-0.006910108182020485,-0.0016604805581271647
1746734448207298300,10.76629833984375,-0.030286417192220687,-0.005013846106640994,-0.0023096103829331697
1746734448217265400,10.776265380859375,-0.025347207224369048,-0.0003565218200907111,0.00015455124089494346
1746734448227231200,10.786231201171875,-0.024599603727459906,-0.011406469753198326,0.01988704212233424
1746734448237198300,10.7961982421875,-0.024449381601810455,0.005793561774864792,0.0022275398563593625
1746734448247165400,10.80616552734375,-0.040462358769774436,-0.001055427337065339,0.007024272613599896
1746734448257132300,10.81613232421875,-0.025049685582518577,-0.019280856390111147,0.003396857630368322
1746734448267098400,10.826098388671875,-0.019362872117757796,-0.026292452185228465,0.01619240712178871
1746734448277065200,10.836065185546875,-0.018313655325770378,-0.010741101179644465,-0.004520856691617519
1746734448287032300,10.8460322265625,-0.03237666746973991,-0.0014930515693500636,-0.007309811556711792
1746734448296999400,10.85599951171875,-0.018610592445731163,-0.0023733050025999546,0.005249335362948477
1746734448306966300,10.86596630859375,-0.005590367352962493,-0.015577252631820738,0.01405824463730678
1746734448316932400,10.875932373046876,-0.02534311557114124,-0.0036063539288938044,0.0072062963833101085
1746734448326899200,10.885899169921874,-0.04583879111111164,-0.00012753536980599165,-0.010644855997245758
1746734448336866300,10.8958662109375,0.00010112228691577911,-0.013012662840820848,-0.015448950077034533
1746734448346833400,10.90583349609375,-0.026833061867952344,-0.026634178294986485,-0.009484872307162731
1746734448356800300,10.91580029296875,-0.04104980326890945,-0.02255297339595854,-0.0038033926046453412
1746734448366766300,10.925766357421875,-0.035816578790545464,-0.011557678259536623,0.02214210930643603
1746734448376733200,10.935733154296875,-0.007537994289398193,0.004975523390248418,0.016043244442064314
1746734448386700300,10.9457001953125,-0.008138298270106314,-0.014440101828053593,0.009909819720964878
1746734448396667400,10.95566748046875,-0.032978725016117094,-0.011175474008917809,-0.01754122791485861
1746734448406634200,10.96563427734375,-0.021456629526615142,-0.02226462144125253,-0.019450915727391837
1746734448416600600,10.9756005859375,-0.010686229187250137,-0.024907025708816945,0.00024034809451550245
1746734448426567400,10.9855673828125,-0.02205927159488201,-0.012331987100280821,0.0063774260774254795
1746734448436534500,10.995534423828126,-0.055874447435140605,-0.024831074395775792,0.020297175559494642
1746734448446501400,11.00550146484375,-0.026691023048758505,-0.024957659917511043,0.0031059849250130354
1746734448456468200,11.01546826171875,0.029420740273594856,0.0102809363219887,0.0036797296923585235
1746734448466434600,11.0254345703125,0.005624854144454002,0.03377557448223233,-0.000744534756988287
1746734448476401400,11.0354013671875,-0.047349195674061775,0.004549954921938479,0.0034017347348853943
1746734448486368500,11.045368408203124,-0.062464347219467156,-0.06562343230489641,-0.010456767812930047
1746734448496335400,11.05533544921875,-0.0379237802028656,-0.06322451793700457,-0.026459132255334406
1746734448506302500,11.065302490234375,-0.02146539735496044,-0.02015606832206249,-0.012568700199294834
1746734448516268500,11.0752685546875,-0.019520693027973175,0.03999547191038728,0.02800552144711837
1746734448526235400,11.0852353515625,0.010856325057148933,0.04737049419041723,0.037947161078453064
1746734448536202500,11.095202392578125,0.008759645038843154,-0.004596168683841825,0.020628983063437044
1746734448546169300,11.10516943359375,-0.060220952206850045,-0.040310346545837816,-0.011495317080430686
1746734448556136400,11.115136474609375,-0.06411152990460395,-0.040024953733198344,-0.04646181838028133
1746734448566102300,11.125102294921875,-0.018322423154115676,-0.03342621305529028,-0.06100417500641197
1746734448576069400,11.1350693359375,-0.01578033745586872,-0.0038829058479517694,-0.009710260294564068
1746734448586036500,11.145036376953126,-0.0371785147935152,0.005253755809739232,0.04218940175808966
1746734448596003300,11.15500341796875,-0.02430968087017536,0.007082980530895292,0.04512540041105821
1746734448605969400,11.164969482421874,-0.020267712002992627,-0.022573943118751046,0.028330515617784113
1746734448615936300,11.174936279296874,-0.03163783180117607,-0.04715275978650897,-0.027672709296178072
1746734448625903400,11.1849033203125,-0.029841596034169197,-0.017401472384296356,-0.05011831332752481
1746734448635870500,11.194870361328125,-0.021612112349271774,-0.0021389847900718448,-0.03779538631653413
1746734448645837300,11.20483740234375,-0.030740006178617475,0.009217654472030698,0.011739208838902414
1746734448655803400,11.214803466796875,-0.008892331507802009,-0.0122015656536445,0.04035367423091084
1746734448665770200,11.224770263671875,-0.023853753796219825,-0.0245549974007532,0.04007414490347728
1746734448675737300,11.2347373046875,-0.02953939821720123,-0.012774397105537355,0.012416961969994008
1746734448685704400,11.244704345703125,-0.027141104903817177,-0.0239771244475618,-0.04231350306179374
1746734448695671300,11.25467138671875,-0.023699440017342567,-0.012459522470086812,-0.0569721064787358
1746734448705637400,11.264637451171875,-0.018313070803880692,-0.0052649347908794875,-0.0403723058661446
1746734448715604200,11.274604248046876,-0.026841829696297646,-0.01216064912136644,0.0277265766415745
1746734448725571300,11.2845712890625,-0.022801029872894285,-0.018173954594135282,0.03222531283292919
1746734448735538400,11.294538330078124,-0.03462415413558483,-0.01303469200953841,0.04268547817934304
1746734448745505300,11.30450537109375,-0.02729483416080475,-0.014718626508489251,-0.002254446129593998
1746734448755471400,11.314471435546874,-0.03582476209700108,0.0002538286305963993,-0.037539968517050146
1746734448765438200,11.324438232421874,-0.010236731854081154,-0.013917466193437575,-0.03910120821809396
1746734448775405300,11.3344052734375,-0.01173310789167881,-0.021845701909437774,-0.014876977141667157
1746734448785372200,11.3443720703125,-0.02490180154442787,-0.011074315189383923,0.0310875227083452
1746734448795339300,11.35433935546875,-0.03088496760725975,-0.00033957068528980014,0.030288353420980272
1746734448805305600,11.3643056640625,-0.02280161439478397,-0.00980674293898046,0.01990857810070738
1746734448815272400,11.3742724609375,-0.012625088295340538,-0.012210881471261382,-0.014095215646829456
1746734448825239300,11.3842392578125,-0.029833412727713584,-0.02090352568849921,-0.02516604197118431
1746734448835206100,11.3942060546875,-0.04060556663274765,-0.015131627756170928,-0.032923652094323186
1746734448845173200,11.40417333984375,-0.024748656809329986,-0.010413403595238924,-0.0037900947316549718
1746734448855139300,11.414139404296876,-0.019963760620355604,-0.010314290602318942,0.012971070455107836
1746734448865106400,11.4241064453125,-0.012483049476146698,0.008749379373155534,0.0292461874242872
1746734448875073500,11.434073486328124,-0.03687573245465755,-0.008121164472214877,0.026261125465203074
1746734448885040400,11.444040283203124,-0.019816461104154585,-0.02174994991738349,-0.0038140053302049633
1746734448895007500,11.454007568359375,-0.02161561948060989,-0.020457097095251082,-0.01040575001174584
1746734448904973300,11.463973388671874,-0.019071780216693878,-0.019906587073020635,0.0001451075591146946
1746734448914940400,11.4739404296875,-0.02176116543114185,-0.0026898966711014507,0.019498042804747817
1746734448924907500,11.483907470703125,-0.017868834167718887,0.0035690541258081793,0.01585385934980586
1746734448934874400,11.493874267578125,-0.019061843344569205,-0.0049844738816842435,0.013318660050071774
1746734448944841500,11.503841552734375,-0.009931611427664756,-0.011996142742037773,0.0032934520548209547
1746734448954807300,11.513807373046875,-0.031177813073992727,-0.014847878911346197,-0.009538027266506105
1746734448964774400,11.5237744140625,-0.026391747841238974,-0.03556220217067748,-0.012548406329937279
1746734448974741500,11.533741455078125,-0.009337737187743186,-0.02229596642758697,-0.0008296009582467377
1746734448984708400,11.543708251953126,-0.0274450562864542,-0.008346351530216635,-0.006502002305164933
1746734448994675500,11.553675537109376,-0.03672141867578029,-0.0034437472457066174,0.015359591293148695
1746734449004640800,11.563640869140626,-0.025348376268148422,-0.00016717326045036316,0.00891306376857683
1746734449014608000,11.57360791015625,-0.01726736114323139,-0.01963770700376481,0.0035309871377423403
1746734449024574700,11.58357470703125,-0.012925532546639442,-0.006533603019826114,0.009807528390269726
1746734449034541800,11.593541748046874,-0.021155016231536865,-0.009695574182085692,-0.007710848371963948
1746734449044509000,11.603509033203125,-0.023099136036634445,-0.017757921139150857,-0.014524912300985305
1746734449054474800,11.613474853515624,-0.021149755534529684,-0.023541217248328028,-0.007384977418463677
1746734449064441900,11.62344189453125,-0.04344342040717602,-0.012192615162208676,0.006319942002836615
1746734449074408700,11.63340869140625,-0.04044774572253227,-0.015406243446469306,0.018266656112577766
1746734449084375800,11.643375732421875,-0.01291208854317665,-0.005263181225210428,0.018953067474160343
1746734449094343000,11.653343017578125,-0.0178507139891386,-0.00024864099882543084,-0.004328329794202
1746734449104308700,11.663308837890625,-0.019646949756145476,-0.011915661384351552,-0.007018591791484505
1746734449114275800,11.67327587890625,-0.020244331127405167,-0.012067783206142484,-0.011400606267992407
1746734449124242700,11.68324267578125,-0.010368249279260635,-0.02824983333069831,0.006895513401087373
1746734449134209800,11.693209716796876,-0.022190204498171804,-0.03455211181268096,-0.003978913568332791
1746734449144175900,11.70317578125,-0.03566168048977852,-0.0007840995823964476,-0.016365736128389836
1746734449154143000,11.71314306640625,-0.027433950370550155,-0.0032630569165572523,-0.005735182651132345
1746734449164109800,11.72310986328125,-0.0021469489008188246,-0.02492503628954291,-0.018421463081799445
1746734449174076700,11.73307666015625,-0.008578443253040312,-0.011168971202895044,0.00911457769004628
