time,seconds_elapsed,z,y,x
1746729001255142100,0.02114208984375,-0.10982874046266078,0.009292655937001109,0.00938798780394718
1746729001265159200,0.0311591796875,-0.1001034652620554,0.004050700162909925,0.009653506872337311
1746729001275177000,0.041177001953125,-0.10938099669516085,0.00684330828981474,-0.005879523025266826
1746729001285195000,0.051195068359375,-0.10563830303549766,0.01206626710249111,-0.0035529615075327453
1746729001295212000,0.0612119140625,-0.11012626210451125,0.002222425289824605,0.0023527006059885025
1746729001305230000,0.07122998046875,-0.11282032349407672,0.008791665878612548,-0.002548223178088665
1746729001315247000,0.0812470703125,-0.10145254178345203,0.0009142470343969761,0.006114537357538938
1746729001325265200,0.09126513671875,-0.1135749412536621,-0.002437547611538321,0.0054081061212345955
1746729001335282200,0.1012822265625,-0.11417582975625991,0.002355641481745988,0.008285743916779756
1746729001345300200,0.11130029296875,-0.11118658481240272,0.00624460261114873,-0.009149594204500316
1746729001355318000,0.121318115234375,-0.11702303588092326,0.003942317018145695,-0.0028293964733369648
1746729001365335000,0.1313349609375,-0.106098321762681,0.004517486557597294,-0.0023467275229282674
1746729001375353000,0.14135302734375,-0.09981003527343273,0.0023998824822716413,0.0025743805326521397
1746729001385370000,0.1513701171875,-0.10818331134319305,0.007731270105484873,0.005746379898581654
1746729001395388200,0.16138818359375,-0.0984556980550289,0.004600114206597209,0.011790610232576727
1746729001405405000,0.171405029296875,-0.11342121199667453,0.005353745585493743,0.007988295340165496
1746729001415423200,0.18142333984375,-0.10354513014853,0.0014993808454368263,0.007703377451561391
1746729001425441000,0.19144091796875,-0.11491817255616188,0.005448575128940865,0.00561559312576428
1746729001435458300,0.201458251953125,-0.10459142433106898,0.003346132090128958,0.003744008833914995
1746729001445476000,0.21147607421875,-0.11206979738771915,0.0018841241130139678,0.008903802749887108
1746729001455493000,0.2214931640625,-0.10383914465904236,0.006481078248145059,-0.003060081690363586
1746729001465511200,0.23151123046875,-0.11012100140750408,0.009941319970926269,-0.002158621072303504
1746729001475528000,0.24152783203125,-0.09755202721357345,0.0021253672566730526,0.0037136684945784505
1746729001485546200,0.251546142578125,-0.1063812303572893,0.009889854645170271,0.008894870524760335
1746729001495564300,0.261564208984375,-0.10742460193037986,0.008401123057911172,0.006323924058210104
1746729001505581000,0.2715810546875,-0.11131284154057502,0.009101791273709386,0.008038454624824226
1746729001515599000,0.28159912109375,-0.10383213039636612,-0.001587451854534447,0.004148607579432428
1746729001525616000,0.2916162109375,-0.10936813721358775,0.0021776089005637912,-0.0028460553471930322
1746729001535634000,0.301634033203125,-0.10143559064865111,-0.0010139993481338024,0.00728893316546455
1746729001545652200,0.31165234375,-0.110412093308568,0.005206263406202197,0.006661686378903686
1746729001555669000,0.3216689453125,-0.11280454140305518,0.0002733279155101627,-0.00036105186473578215
1746729001565687300,0.331687255859375,-0.111605687007308,-0.00041375016635283824,0.0070693721306510264
1746729001575704000,0.3417041015625,-0.10217910249233245,0.008137823346070945,0.009158069771900772
1746729001585722000,0.35172216796875,-0.11295534805059432,0.005752745707286521,0.017439722035452722
1746729001595739100,0.3617392578125,-0.11146014105677604,0.004528546807728707,0.003244187819305807
1746729001605757000,0.3717568359375,-0.10143383708298205,-0.0037523565371520816,0.0006838540783151984
1746729001615774200,0.381774169921875,-0.10861761110723019,0.008893244823254645,0.009121610219031571
1746729001625792000,0.3917919921875,-0.10727321076095103,0.002266456227796152,-0.0014777809349820017
1746729001635810000,0.40181005859375,-0.10188742606937885,0.007091291701514273,0.004921783909015357
1746729001645827000,0.4118271484375,-0.10922200674116611,-0.0017312168399337678,-0.002348006164561957
1746729001655845000,0.42184521484375,-0.11445640026330947,0.006645913421036675,-0.0005120594416745007
1746729001665862100,0.431862060546875,-0.1009913540124893,0.010704002305958419,0.006665631901659071
1746729001675880200,0.441880126953125,-0.10068974071741103,0.001183903421787545,0.008220679323934018
1746729001685898000,0.45189794921875,-0.1081675292521715,-0.001189986102702096,0.011229049093369393
1746729001695915300,0.461915283203125,-0.11265198118984698,-0.004406290401238948,0.015159611741639673
1746729001705933000,0.47193310546875,-0.10726268936693668,0.0025607447329442944,0.0038437976802699267
1746729001715950000,0.4819501953125,-0.1041162080347538,0.0074546359880361705,0.002806654918566346
1746729001725968100,0.491968017578125,-0.11309621782600879,0.005929627510998398,-0.001491170139517635
1746729001735985200,0.501985107421875,-0.10516717839241027,0.0016817425418645142,0.0008952135403640567
1746729001746003200,0.512003173828125,-0.10471592749357223,-0.002121796193253249,0.007689074931573122
1746729001756021000,0.52202099609375,-0.11414368105232715,0.0039433581977616995,-0.004578377298824489
1746729001766038800,0.532038818359375,-0.10411854612231254,0.001417018057918176,-0.001379489925969392
1746729001776056800,0.542056884765625,-0.11489128454923629,-0.0005168908804189413,0.006480813386663794
1746729001786073600,0.552073486328125,-0.10411737707853316,0.0012745499804615974,0.009154854901507496
1746729001796092000,0.562091796875,-0.10621113448739052,0.0014157850820571184,0.008914671203773468
1746729001806108700,0.572108642578125,-0.1042640920728445,0.0057443066725041715,0.005248732574749737
1746729001816126700,0.582126708984375,-0.09932838923633099,-0.004595986020751297,0.0008709741482511162
1746729001826144800,0.592144775390625,-0.10217033466398716,-0.00027017697719857093,0.000008475567400455475
1746729001836161500,0.60216162109375,-0.11458967125415802,0.0019577921374235303,0.0027141725958324966
1746729001846179800,0.612179931640625,-0.09977496396005153,0.0005940477698575705,0.010663944290205835
1746729001856196600,0.622196533203125,-0.11009937409758568,0.0016052615058608352,0.002903996079508215
1746729001866214700,0.632214599609375,-0.10815233168303966,0.008223401003982871,-0.0021715353528037667
1746729001876231700,0.642231689453125,-0.12087094348073005,0.016185566389048472,0.005271254933811724
1746729001886249700,0.652249755859375,-0.10785130290985107,0.0003018416239414364,0.003367430606484413
1746729001896267800,0.662267822265625,-0.10261398677825927,0.0024548823388293385,0.004140716533921659
1746729001906284800,0.672284912109375,-0.09917173736989497,0.0032924108752049506,0.00953508639074862
1746729001916302600,0.682302490234375,-0.1008136593580246,0.006959664678480476,0.006516798015497625
1746729001926319900,0.69231982421875,-0.11113748497366904,-0.003916031799418852,0.0024776421599090096
1746729001936337700,0.702337646484375,-0.10544833342134952,-0.0037035489593632517,0.003845514713320881
1746729001946354700,0.712354736328125,-0.10919102708101272,0.0014146069051232189,0.00520547795491293
1746729001956372700,0.722372802734375,-0.10963993989229201,-0.00005748407458886504,0.003558806726429611
1746729001966390500,0.732390625,-0.10634732808768749,0.006416534245107322,0.005997267653420567
1746729001976407800,0.74240771484375,-0.11607435685396193,-0.0029387477324809876,0.008411909313406794
1746729001986425600,0.752425537109375,-0.11637363206148146,0.0048934071979019785,0.004617211471870541
1746729001996443000,0.76244287109375,-0.10141162525117396,-0.0017150237569585442,0.004762154634203762
1746729002006460700,0.772460693359375,-0.11188391942679882,0.00009149594204500317,0.009209946089610456
1746729002016477700,0.782477783203125,-0.10605156001150608,0.0029390765260439364,0.009137246179580689
1746729002026495700,0.792495849609375,-0.11667699892222881,0.003345483636157587,0.005921316340379417
1746729002036513800,0.802513671875,-0.11518120740652084,0.006621509632142261,0.008421718321368097
1746729002046530800,0.81253076171875,-0.11563362734913825,0.0010260825115721672,0.005176343191973865
1746729002056548900,0.822548828125,-0.10126666382253169,0.007239139206986874,0.002155552332382649
1746729002066565600,0.832565673828125,-0.10500526582896709,0.004267119392566383,0.00024317937241867183
1746729002076583700,0.842583740234375,-0.10066402175426482,0.004499795637279749,0.011364018850959837
1746729002086600700,0.8526005859375,-0.10904197399914264,0.005829948262497783,0.0075479494278319174
1746729002096618800,0.86261865234375,-0.10769348199963569,0.006911149361636489,0.0005962671264074743
1746729002106636800,0.87263671875,-0.11338087998628615,0.0021917287574615327,0.007308240654133259
1746729002116653600,0.882653564453125,-0.10320786101818084,0.004894156116573139,0.009458240028563887
1746729002126672000,0.892671875,-0.10650281091034412,-0.0030695527716074135,0.010375610601808876
1746729002136688600,0.902688720703125,-0.118472650167346,-0.0016356840435881167,0.009181322783324867
1746729002146707000,0.91270703125,-0.10904723469614983,0.012043315485166385,0.004202547990065068
1746729002156723700,0.9227236328125,-0.1035100588351488,0.009655169106461107,0.0028919220492243766
1746729002166741500,0.932741455078125,-0.10799860242605208,-0.0021276048795320092,0.003766421595122665
1746729002176759800,0.942759765625,-0.10575345384776591,0.006100764560513198,0.00677897434933111
1746729002186776600,0.952776611328125,-0.10724982988536358,0.0023475860394537446,-0.0019059066865593193
1746729002196794600,0.962794677734375,-0.11069324833750724,0.005418006460741162,-0.0054642019563354545
1746729002206811600,0.972811767578125,-0.11966975099742412,-0.0027923797980416564,0.003289963189791888
1746729002216829700,0.98282958984375,-0.10380699595510959,0.0025620507740415632,0.013289872347004711
1746729002226847700,0.99284765625,-0.1065033954322338,0.0051715939516201615,0.0072074836933985345
1746729002236864800,1.00286474609375,-0.10710369941294193,-0.0048212918097618965,-0.001394450033083558
1746729002246882600,1.012882568359375,-0.10560556980967521,-0.0002957132772542536,0.005752791373059153
1746729002256899800,1.02289990234375,-0.10500935748219489,0.004758720568101853,0.0012219430103898048
1746729002266917600,1.032917724609375,-0.09543255084156989,0.010636727489717304,0.0031127982582896947
1746729002276934700,1.0429345703125,-0.11218903985321521,0.006316882396070286,0.00631424291441217
1746729002286952700,1.05295263671875,-0.10784428864717482,0.0018096797704696655,0.007344353147130459
1746729002296970800,1.062970703125,-0.10290274059176445,0.006336975336028262,-0.0012343093016184865
1746729002306987800,1.07298779296875,-0.11382570114433765,0.005373071340471506,0.008929339049942791
1746729002317005600,1.083005615234375,-0.11068681859672069,0.0006755155082326382,0.005970836304221302
1746729002327022800,1.09302294921875,-0.1030570543706417,0.006455204021371901,-0.00042131241830065846
1746729002337040600,1.10304052734375,-0.10171148498058319,0.007041388145182281,0.009262827054318041
1746729002347058000,1.113057861328125,-0.10784896482229232,0.009048700246447697,0.0044007191769778724
1746729002357075700,1.12307568359375,-0.10814765550792217,-0.001982734782435,-0.0028731077509000897
1746729002367093800,1.13309375,-0.10081658196747302,0.007349020189093425,0.004579363679513335
1746729002377110800,1.14311083984375,-0.11488368576467037,0.005047867107251659,0.012431940343417226
1746729002387128800,1.15312890625,-0.10560498528778553,-0.0029522008690983054,0.007365304603613913
1746729002397145900,1.163145751953125,-0.10545417864024638,0.00480993929868564,0.0033536943420767783
1746729002407163600,1.17316357421875,-0.1026122332125902,0.0005123699689283966,0.0009355272844433784
1746729002417180700,1.1831806640625,-0.1168342353105545,0.004412190419062972,0.005149674380756915
1746729002427198700,1.19319873046875,-0.11099836876392363,-0.006299912994960323,-0.00374114102339372
1746729002437216800,1.203216796875,-0.11578618756234645,0.0003112761725671589,0.009396244175639003
1746729002447233800,1.21323388671875,-0.10860942780077457,0.004452650293614715,0.000979932681750506
1746729002457251800,1.223251953125,-0.10980652863085269,0.0010238631550222635,-0.0036629794869571923
1746729002467268600,1.2332685546875,-0.11190262412726878,0.007788726780610158,0.0013193572365678846
1746729002477287000,1.243286865234375,-0.10098024809658526,-0.007368556006625294,0.00035133418831974263
1746729002487303700,1.2533037109375,-0.10726561197638511,0.003057907999586314,0.009344733184110372
1746729002497321700,1.26332177734375,-0.10606851114630698,0.0016639511568471788,0.0073083319856785236
1746729002507339800,1.27333984375,-0.11549860279262066,0.008191297965822741,0.00033664807584136725
1746729002517356500,1.2833564453125,-0.11011398714482784,0.007964384741615503,0.008434102878905832
1746729002527374800,1.293374755859375,-0.10607084923386573,0.011217157726176083,0.014069368819519876
1746729002537391600,1.3033916015625,-0.11340250729620456,0.004359811777854338,0.0060388783054426305
1746729002547409700,1.31340966796875,-0.1066688151270151,0.0013114205252844839,-0.0017712657225318251
1746729002557426700,1.3234267578125,-0.10636544826626777,0.009692660705791785,0.00453227313477546
1746729002567444700,1.33344482421875,-0.10636544826626777,0.007419975666608661,0.0036310134461149573
1746729002577462800,1.343462890625,-0.10696341415941715,-0.0004496343304868787,0.0022722923135384916
1746729002587479800,1.353479736328125,-0.1148953762024641,0.005414088337449357,0.005737794733326882
1746729002597497600,1.36349755859375,-0.10576514428555965,0.006666800945438444,-0.000047236675210297104
1746729002607514600,1.3735146484375,-0.11204700103402138,0.008257275874121114,0.009040580872073769
1746729002617532700,1.38353271484375,-0.1202759001970291,0.0011462291593663395,0.01144747761702165
1746729002627549700,1.3935498046875,-0.11114566828012466,0.005341160098556429,0.002725771702080965
1746729002637567700,1.403567626953125,-0.11817863565683365,0.0021586119391489773,-0.005007580762635916
1746729002647585500,1.41358544921875,-0.1100982050538063,0.003206449624802917,0.012801723503880202
1746729002657602800,1.423602783203125,-0.1035147350102663,0.008391076587932185,0.007279014559648931
1746729002667620600,1.43362060546875,-0.10905307991504669,-0.006642780749034136,0.0011113953080028295
1746729002677638000,1.443637939453125,-0.10082125814259052,0.004195040537044406,0.00593450461551547
1746729002687655700,1.45365576171875,-0.1014192240357399,-0.006015132103674113,0.0047400341339409345
1746729002697673000,1.4636728515625,-0.11413958939909934,0.008767864877916871,0.006022255964204669
1746729002707690800,1.473690673828125,-0.10605798975229262,-0.003717221291689202,0.015008768561482429
1746729002717708800,1.483708740234375,-0.09692600426971912,-0.0007566270535811782,0.00754100823039189
1746729002727725800,1.493725830078125,-0.11383856062591076,-0.0009533552020788192,-0.0015209442232735455
1746729002737743600,1.50374365234375,-0.10381576378345489,0.003950536857219413,0.0067116812667809425
1746729002747761000,1.513760986328125,-0.09722878660857677,0.008366773263737559,0.004552987129241228
1746729002757778700,1.52377880859375,-0.10366203452646731,-0.0011699936274439096,-0.007640979739837348
1746729002767795500,1.53379541015625,-0.11338614068329333,0.002084523789631203,0.005593472625501454
1746729002777813500,1.5438134765625,-0.11084347046315669,0.009760373913450165,0.004813610826805234
1746729002787831600,1.55383154296875,-0.10844985332489013,0.007576508802035823,0.00363967167660594
1746729002797848600,1.5638486328125,-0.09019289662241935,0.005526599668059498,0.007442114433180541
1746729002807866600,1.57386669921875,-0.10934534085988998,0.004650730148982257,-0.0005760645885951816
1746729002817883400,1.58388330078125,-0.11129355231821536,0.013227903893543407,0.003804159789625555
1746729002827901400,1.5939013671875,-0.10411386994719504,0.007359605515189468,0.005545888890419155
1746729002837918500,1.60391845703125,-0.10740414366424084,0.0026601773862726984,0.004991798671614378
1746729002847936500,1.6139365234375,-0.10575988358855247,0.0022024876134935766,-0.008866320283710956
1746729002857954600,1.62395458984375,-0.11159808822274207,-0.004737084125028923,0.00014444997198879717
1746729002867971300,1.633971435546875,-0.1056108305066824,-0.0000785816615447402,-0.0017067856515757737
1746729002877989600,1.64398974609375,-0.11338730972707271,0.0016724358574021607,0.0018282200741581618
1746729002888006400,1.65400634765625,-0.11009294435679912,0.0019777024142909796,0.010096008209139109
1746729002898024400,1.6640244140625,-0.10395955616831778,0.005217360188951715,0.002809942854195833
1746729002908041500,1.67404150390625,-0.11323708760142326,0.0014994630438275635,0.011415219315234572
1746729002918059500,1.6840595703125,-0.10620412022471427,-0.0030829054435249415,0.007398220492526889
1746729002928077600,1.69407763671875,-0.10770166530609131,0.0052570711448322975,0.0064291927972808475
1746729002938094300,1.70409423828125,-0.11279168192148208,-0.002792388931196183,-0.005472275664936751
1746729002948112400,1.7141123046875,-0.1014192240357399,0.00344794849678874,0.0011682583280839026
1746729002958129400,1.72412939453125,-0.10605740523040294,-0.002937642620783299,0.008481047293171286
1746729002968147500,1.7341474609375,-0.11668050605356693,0.002059572011465207,0.0016730477787554262
1746729002978164500,1.74416455078125,-0.10306231506764889,0.003449355002585798,-0.001546480523329228
1746729002988182500,1.7541826171875,-0.10470657514333724,0.0024898075217381116,-0.004269238284416496
1746729002998200300,1.764200439453125,-0.11488017863333225,0.0042434553891886025,0.00147142425943166
1746729003008217600,1.774217529296875,-0.1177227085828781,-0.005876974875153974,0.0012898754137568174
1746729003018235400,1.7842353515625,-0.11083937880992889,-0.0003194229464046657,-0.0009251337545923889
1746729003028252400,1.79425244140625,-0.1181716213941574,0.0028425116832368072,0.006113715373631566
1746729003038270500,1.8042705078125,-0.10799977146983146,0.0006577606558334082,0.002384812777303159
1746729003048287500,1.81428759765625,-0.10904898826181889,0.004281558909872547,-0.001715644811466336
1746729003058305500,1.824305419921875,-0.11458674864470958,0.005518818220403045,0.00785148068536073
1746729003068323300,1.8343232421875,-0.10785188743174075,-0.002923796758521348,0.0014294117486104369
1746729003078340600,1.844340576171875,-0.11563479639291763,0.007586975397123024,0.0027107385297305883
1746729003088358400,1.8543583984375,-0.11204407842457294,-0.004650538352737203,0.005690685922279954
1746729003098375700,1.864375732421875,-0.10845043784677982,0.002911056007957086,0.008982512275595217
1746729003108393500,1.8743935546875,-0.10441372967660427,-0.0024752766728866845,0.006809460819140076
1746729003118410500,1.884410400390625,-0.10516484030485153,-0.00007971417270600796,-0.00011763503029942511
1746729003128428500,1.894428466796875,-0.11609072346687316,0.0033787739844061433,0.007119549681618809
1746729003138446600,1.904446533203125,-0.1068131920337677,0.00372659190823324,0.00646559755122289
1746729003148463400,1.91446337890625,-0.11623860750496387,0.0020806969978846607,0.002044547972269356
1746729003158481700,1.924481689453125,-0.10995149005949496,0.0012446936983149498,-0.0031312289641238747
1746729003168498400,1.93449853515625,-0.11204758555591106,-0.00011985438684932886,0.0047468839998357
1746729003178516500,1.9445166015625,-0.10815350072681904,0.0033825916429981585,0.009037475599534809
1746729003188533500,1.954533447265625,-0.10426233850717544,0.0035378461367916313,0.001141973109357059
1746729003198551300,1.96455126953125,-0.10740706627368926,0.005945820593973621,0.0020874189996160568
1746729003208569600,1.974569580078125,-0.1018675523251295,0.007913741399766876,0.007322141315322369
1746729003218586400,1.98458642578125,-0.10979659175872802,0.006340290671121329,0.00030818916633725164
1746729003228604700,1.994604736328125,-0.09992167895436287,0.010373309046868234,0.000048990240879356856
1746729003238621400,2.004621337890625,-0.10949731655120849,0.0045106092922389505,0.009729494717996567
1746729003248639500,2.014639404296875,-0.10530746364593505,0.004765296439360827,0.008797949488926678
1746729003258656500,2.024656494140625,-0.10485562822520732,0.009325115168187766,0.0024533662351779637
1746729003268674300,2.03467431640625,-0.11099252354502677,-0.00007786927549168468,0.001876625793147832
1746729003278692600,2.044692626953125,-0.1091957032561302,0.00620227957307361,0.002968512683082372
1746729003288709400,2.05470947265625,-0.10605214453339576,0.006727490757266059,0.011669340206775814
1746729003298727400,2.0647275390625,-0.10335574505627154,0.0012863134834915399,0.0033068595256656405
1746729003308744400,2.074744384765625,-0.10126140312552452,-0.0029183259989600625,-0.0029979579732753335
1746729003318762500,2.084762451171875,-0.11233166319429874,-0.002998716025101021,-0.0024035905430093408
1746729003328779500,2.094779541015625,-0.11547522191703319,-0.000036486952332779763,0.004787362140696495
1746729003338797600,2.104797607421875,-0.10664835686087608,0.006659037764091044,0.011660974237229674
1746729003348815400,2.1148154296875,-0.10605272905528544,0.009016177083179354,0.003960829922370612
1746729003358832400,2.124832275390625,-0.10560849241912364,0.008557373065548017,0.012203629746567458
1746729003368850400,2.134850341796875,-0.11204232485890388,0.004263329133437946,0.0026717764925211665
1746729003378867500,2.144867431640625,-0.11339023233652114,0.001105248695006594,-0.006509528024494647
1746729003388885500,2.154885498046875,-0.10441372967660427,0.007788452785974368,0.01337601626049727
1746729003398902500,2.164902587890625,-0.10247019439339637,0.001710749440640211,0.010770820464473217
1746729003408920600,2.174920654296875,-0.11129939753711222,-0.000044405397307127715,-0.006203987472970038
1746729003418938400,2.1849384765625,-0.11414368105232715,0.003354744654847309,-0.0019427680982276796
1746729003428955600,2.19495556640625,-0.11473930885791778,-0.0009396098045166581,-0.0011174962552264332
1746729003438973400,2.204973388671875,-0.09962123470306396,-0.005453580097621306,0.012758377552498132
1746729003448990500,2.214990478515625,-0.10889759709239005,-0.0013152107844129205,0.004472962429281324
1746729003459008500,2.225008544921875,-0.10485621274709701,0.0036629886201117188,0.005227434058394283
1746729003469025300,2.235025390625,-0.10889292091727257,0.008639662787830456,0.005749466904811561
1746729003479043600,2.245043701171875,-0.10469780731499194,-0.005502122813928872,-0.007747015663888305
1746729003489061600,2.2550615234375,-0.1032008467555046,0.008015137681318446,0.0024201032863929864
1746729003499078400,2.265078369140625,-0.10738660800755023,0.004891863694787025,-0.0006159582075662911
1746729003509096400,2.275096435546875,-0.10065350036025046,-0.000053109293570742005,0.0053461468009278175
1746729003519113500,2.285113525390625,-0.10544190368056297,-0.009038507645996287,0.0005419796559028327
1746729003529131500,2.295131591796875,-0.1085860469251871,0.004228367417911067,0.005602149122301489
1746729003539148500,2.3051484375,-0.10454524710178374,0.004542219140054658,-0.00020754180345684288
1746729003549166300,2.315166259765625,-0.10724047753512858,0.002527363053150475,0.009273677241895347
1746729003559184600,2.3251845703125,-0.10948387254774569,-0.0014616700503975151,0.009192465231847018
1746729003569201400,2.335201416015625,-0.1049959134787321,0.004077387240435928,-0.000135645611025393
1746729003579219500,2.345219482421875,-0.10888649117648601,0.0032658881944604215,0.005592376646958291
1746729003589236500,2.355236572265625,-0.09661620766818522,0.002297828613594174,0.002343476119916886
1746729003599254300,2.365254150390625,-0.10993044727146625,0.005056516204588115,0.008430869742203504
1746729003609271600,2.375271484375,-0.11037877556085586,-0.0033154720903839914,-0.0037331221137195825
1746729003619289300,2.385289306640625,-0.11067863529026507,0.0033322679615579542,0.0044293790158815675
1746729003629307400,2.395307373046875,-0.10873393096327781,-0.0016204042760655283,-0.005247782726678997
1746729003639324400,2.405324462890625,-0.10349603030979633,-0.006924438101472333,0.0055987515888176855
1746729003649342500,2.415342529296875,-0.09960486809015273,0.004187496551405638,0.00900454144431278
1746729003659359500,2.425359375,-0.1135182426303625,-0.003707768476754427,0.007585979883279651
1746729003669377500,2.43537744140625,-0.11741057389378547,0.00837646354069002,0.006590539105143398
1746729003679394600,2.44539453125,-0.11082885741591453,-0.002049434209940955,0.003218377524614334
1746729003689412600,2.45541259765625,-0.11486965723931788,0.004320648811245337,-0.006646470543462782
1746729003699430400,2.465430419921875,-0.10903612878024578,0.007821633536368607,0.002642331202328205
1746729003709447400,2.475447509765625,-0.110529582208395,-0.005094455328490585,0.012100772160291672
1746729003719465500,2.485465576171875,-0.11472118867933749,0.0046682384062092745,0.005225461297016591
1746729003729482500,2.495482421875,-0.10394845025241374,0.004123062146222219,-0.00004842398529872298
1746729003739500500,2.50550048828125,-0.10424655641615391,0.004679453919967636,0.00027971199052408336
1746729003749517600,2.515517578125,-0.10110241317152976,0.0009903901436831802,-0.0017772570719011126
1746729003759535600,2.52553564453125,-0.11636486423313618,0.006536470830347389,0.00955203752554953
1746729003769553000,2.535552978515625,-0.11337561928927897,0.001228107889695093,0.0006082863577641547
1746729003779571000,2.545571044921875,-0.10035773228406905,-0.000683479618979618,-0.0016555851873010397
1746729003789589000,2.555589111328125,-0.10245616586804389,0.002372519551310688,0.0025635851440019906
1746729003799605800,2.565605712890625,-0.11038812791109084,0.007058047019038349,0.0015827208804897962
1746729003809624000,2.5756240234375,-0.11233166319429874,0.003517899327306077,-0.0008778970793820917
1746729003819640800,2.585640869140625,-0.10125906503796576,-0.006395116997743025,0.005899141041189432
1746729003829658600,2.59565869140625,-0.10170797784924507,0.0038668771617580205,0.0006178213710896671
1746729003839676000,2.605676025390625,-0.10365209765434265,-0.00014622180396690963,-0.00012017404725775122
1746729003849693700,2.615693603515625,-0.10095686722099781,0.00018322021295316516,0.0015253464037552475
1746729003859712000,2.6257119140625,-0.10724281562268734,0.006887713687121867,0.006993804410099983
1746729003869728800,2.635728759765625,-0.10769114391207694,-0.0030615795277059077,-0.0021244265417568386
1746729003879746800,2.645746826171875,-0.09257540784478187,0.0058862724264618005,-0.0006168532567098736
1746729003889763800,2.655763916015625,-0.10514204395115374,-0.002492839729040861,0.007644815664738416
1746729003899782000,2.665781982421875,-0.1145686284661293,0.0004970171361695975,-0.0024923648050054906
1746729003909799000,2.675798828125,-0.10439502497613429,-0.0024692487908992916,-0.003693520755693316
1746729003919817000,2.68581689453125,-0.1216051029741764,0.002816619190154597,0.002407645663619041
1746729003929834800,2.695834716796875,-0.11262684674859046,-0.0022192560852039604,0.008783975762501358
1746729003939851800,2.705851806640625,-0.10305062462985515,-0.0000960259866900742,0.009384042281191796
1746729003949869800,2.715869873046875,-0.10320376936495304,-0.0018779592337086796,0.008334387097787112
1746729003959886800,2.725886962890625,-0.11682137582898139,0.003451647424371913,-0.006614431437384337
1746729003969905000,2.73590478515625,-0.10425415520071983,0.003522054912615567,0.0045462833938188845
1746729003979922000,2.745921875,-0.10200608401298522,0.0039006607003509997,0.010126860005129128
1746729003989940000,2.75593994140625,-0.11861468898653983,-0.0032607553616166114,0.009652228230703622
1746729003999957800,2.765957763671875,-0.10694529398083687,-0.0015031528382562101,-0.001601425580959767
1746729004009975000,2.77597509765625,-0.10889175187349319,-0.001059053199412301,-0.0010663140572607518
1746729004019992800,2.785992919921875,-0.10440379280447959,-0.005515712947864085,-0.005445826049428433
1746729004030009900,2.796009765625,-0.10380874952077865,0.0025091058772522953,0.011068707432504743
1746729004040028000,2.80602783203125,-0.1060503909677267,0.005864772980706766,0.008909392240457236
1746729004050044700,2.816044677734375,-0.10754793604910373,-0.006437229973264038,0.0020230485265143212
1746729004060063000,2.82606298828125,-0.10440671541392803,0.002708309110626578,-0.0030976372217759486
1746729004070080800,2.836080810546875,-0.10874679044485092,-0.005168369948072358,-0.006692702571675181
1746729004080097800,2.846097900390625,-0.10141337881684302,-0.007423418865865096,0.0035980427582748232
1746729004090115800,2.85611572265625,-0.11054010360240936,0.00615910715162754,0.0077617383089847855
1746729004100132900,2.8661328125,-0.10126549477875232,0.0020106000368949025,0.00413512704335153
1746729004110151000,2.87615087890625,-0.10291501555144786,0.00006634323447942733,0.0007713862312957644
1746729004120168000,2.88616796875,-0.11114742184579372,0.0027507417465560137,0.0017871939440257847
1746729004130185700,2.896185791015625,-0.10875088209807872,-0.0028970548820681868,0.015511493919230996
1746729004140204000,2.9062041015625,-0.10486030440032482,-0.002579833025904372,0.014331453821808098
1746729004150220800,2.916220703125,-0.10186930589079857,-0.00715057500754483,-0.0017320479569956659
1746729004160238800,2.92623876953125,-0.09558218844532966,0.0056411385589744895,-0.005337269374728203
1746729004170256000,2.936255859375,-0.11189151821136474,0.0009781243171542882,-0.00004173851618543267
1746729004180273700,2.946273681640625,-0.10052198293507099,-0.0048263424442149695,0.006136073335912078
1746729004190291000,2.956291015625,-0.1068085158586502,0.0038521271171979604,0.003958765829447657
1746729004200308700,2.966308837890625,-0.11294482665657997,-0.000617355580208823,-0.0010379647456109523
1746729004210326800,2.976326904296875,-0.11579320182502269,0.0053626504111569375,-0.007767857522517442
1746729004220343800,2.98634375,-0.1119020396053791,0.0006973163480870425,0.006922273543849587
1746729004230361900,2.99636181640625,-0.11220131481289863,-0.00422402916951105,0.007364044228289276
1746729004240379000,3.00637890625,-0.10157412233650684,0.003042728696763515,0.009703501760214566
1746729004250397000,3.01639697265625,-0.11085282281339168,-0.003856648028688505,0.0009664886782877147
1746729004260414000,3.0264140625,-0.10247311700284481,-0.005331204960122704,0.005756554232724011
1746729004270431700,3.036431640625,-0.11668693579435348,0.0051123563113622365,0.005081321852281689
1746729004280449800,3.04644970703125,-0.11039748026132583,0.0033066129304934293,0.008208057304378598
1746729004290466800,3.056466796875,-0.11248714601695536,-0.001402651605848223,0.005248988303076476
1746729004300484900,3.06648486328125,-0.10695289276540279,0.0004955832309089601,0.007432889947108924
1746729004310502000,3.076501953125,-0.11009177531301975,0.0017749737832695245,0.001880406919121742
1746729004320520000,3.08652001953125,-0.10380699595510959,0.00041790575166232883,-0.002178531349170953
1746729004330537000,3.096536865234375,-0.1038064114332199,0.004220366774545983,0.0061832186795771115
1746729004340555000,3.106554931640625,-0.099915833735466,0.006072826240817085,0.001872095748502761
1746729004350572800,3.11657275390625,-0.10874211426973342,0.007984514214191584,0.004959503837209195
1746729004360589800,3.12658984375,-0.10425357067883013,-0.004176162306638434,0.0065665371750481425
1746729004370607900,3.13660791015625,-0.10275602559745312,0.008296584971202538,0.0036513438480906186
1746729004380625000,3.146625,-0.0901864668816328,0.0044137247890233995,0.0017860249002464115
1746729004390643000,3.156642822265625,-0.1085907231003046,0.004606142088584602,0.0067849839650094505
1746729004400659700,3.16665966796875,-0.0978156465858221,0.0051841429059393705,0.00786653212402016
1746729004410678000,3.176677978515625,-0.09961188235282897,-0.00036644955906085666,0.00545289511103183
1746729004420694800,3.18669482421875,-0.11278057600557803,0.0007733315932098775,0.0009838051392696797
1746729004430712800,3.196712890625,-0.10485329013764857,0.0014506919986568391,0.011569569626729935
1746729004440731000,3.20673095703125,-0.10171148498058319,-0.005970607975358143,0.0014765570922754703
1746729004450748000,3.216747802734375,-0.09393325219452381,0.0013605020977091042,0.005227945515047758
1746729004460766000,3.226765869140625,-0.1068003325521946,0.0030980938795022663,0.007511197614017874
1746729004470782700,3.23678271484375,-0.10754676700532435,-0.002831734560895711,0.009710662153363227
1746729004480800800,3.24680078125,-0.1124853924512863,0.003882111263507977,0.0027312515947967766
1746729004490817800,3.25681787109375,-0.10560206267833709,0.001228345351712778,0.0031859365597367286
1746729004500835800,3.2668359375,-0.11128536901175975,0.005433733752835542,0.007662497451901435
1746729004510854000,3.27685400390625,-0.10978607036471366,0.0014850052602123469,0.001638798449281603
1746729004520871000,3.286870849609375,-0.10424830998182297,0.0028595724158920347,0.0020618826995603737
1746729004530888700,3.296888671875,-0.10110416673719883,-0.003061433397233486,-0.004032159859221429
1746729004540906000,3.306906005859375,-0.10903846686780452,-0.0004264178516808897,0.010316756554041058
1746729004550923800,3.316923828125,-0.10634615904390811,0.008056109012523665,0.012920399713795631
1746729004560940800,3.32694091796875,-0.10529928033947944,-0.0004160243218299001,0.0016342501383274793
1746729004570958800,3.336958740234375,-0.11053542742729186,0.005912128386925905,0.005579571964312345
1746729004580977000,3.346976806640625,-0.10769348199963569,-0.0007871774554718286,0.0012191665314137934
1746729004590994000,3.356993896484375,-0.10245791943371295,0.002241787577420473,0.00040076282061636445
1746729004601011700,3.36701171875,-0.10410627116262912,-0.004534172830916941,-0.003977817589789628
1746729004611029000,3.377029052734375,-0.10694997015595435,0.007972796376934274,0.007875866207946091
1746729004621046800,3.387046875,-0.10634966617524623,-0.004605073509505018,0.0006117752227932214
1746729004631064000,3.39706396484375,-0.10231061991751193,0.0015048790044616908,0.0021835363178513943
1746729004641081900,3.407081787109375,-0.1068044242054224,-0.0022627481670584528,0.006450600911490619
1746729004651100000,3.417099853515625,-0.10770166530609131,0.0023936171382665634,0.003495185171999037
1746729004661117000,3.427116943359375,-0.10621054996550082,-0.003969807813270017,-0.007156812952086329
1746729004671135000,3.437135009765625,-0.11683891148567199,0.0014069076558575033,0.004391001500561833
1746729004681151700,3.44715185546875,-0.10741115792691706,0.008118470191629604,0.007566453198902309
1746729004691169800,3.457169677734375,-0.10965338389575481,-0.004449344091676175,0.007136939207836986
1746729004701186800,3.467186767578125,-0.10905249539315699,-0.000749895918695256,0.0004843311845324933
1746729004711204900,3.477204833984375,-0.11219371602833271,0.0011601024210918694,0.002607077225856483
1746729004721223000,3.487222900390625,-0.10725216797292232,0.0020776647905819115,0.00896815495667979
1746729004731239700,3.49723974609375,-0.1066477723389864,0.0029653982773888855,-0.0028232955261133607
1746729004741258000,3.507258056640625,-0.1151782847970724,-0.007244390770839527,0.001905376963596791
1746729004751274800,3.517274658203125,-0.10994389127492904,0.0036450237051583825,-0.005263473486155271
1746729004761293000,3.52729296875,-0.11188742655813694,0.004234559696679935,-0.006406414709892123
1746729004771310000,3.53731005859375,-0.10350655170381069,0.002881327589973807,0.0042752113674767315
1746729004781328000,3.547327880859375,-0.10754793604910373,0.0049001109333243215,0.004482607040461152
1746729004791345200,3.55734521484375,-0.10320844554007053,0.0032960641370154914,0.0014992073155008256
1746729004801363000,3.567363037109375,-0.10874854401051998,-0.00031295667300000786,0.006597918694000691
1746729004811381000,3.577381103515625,-0.11129296779632568,-0.005964077769871801,0.0025424327581189572
1746729004821398000,3.58739794921875,-0.11697861221730708,0.003455355485109612,0.0050256278759799895
1746729004831416000,3.597416015625,-0.10126783286631107,0.0033054073540959507,0.004464852188061923
1746729004841433000,3.60743310546875,-0.10485387465953826,0.0007176467500627041,0.0030079131117090583
1746729004851451000,3.617450927734375,-0.10425415520071983,-0.0013771792378742247,0.000815298438258469
1746729004861468200,3.62746826171875,-0.10665011042654514,0.008934316619159654,-0.004277056264691054
1746729004871486000,3.63748583984375,-0.10590309145152568,-0.0012480455660261213,0.004347052760981023
1746729004881504000,3.64750390625,-0.1106909102499485,-0.006506769811827689,0.003537015019729733
1746729004891521000,3.65752099609375,-0.11113806949555874,0.0006826302356086671,0.006698620855808257
1746729004901539000,3.6675390625,-0.106499303779006,0.008145157269155606,0.0033969306956045326
1746729004911556000,3.67755615234375,-0.10350888979136944,-0.00048390192626975476,0.0039035285108722745
1746729004921574100,3.68757421875,-0.11353870089650153,0.003355886299163103,0.0066186692210845645
1746729004931591000,3.6975908203125,-0.10620528926849365,-0.00126079544974491,0.009968710301350802
1746729004941609000,3.70760888671875,-0.10231295800507068,-0.0007087510575540364,0.002549885412212461
1746729004951627000,3.717626953125,-0.10949497846364974,0.00439887427976355,0.009310374256782232
1746729004961644000,3.72764404296875,-0.10215922874808311,0.005582540239533409,0.0029657910030335185
1746729004971662000,3.737662109375,-0.1145727201193571,-0.0012710611154325305,0.0060172875281423325
1746729004981678800,3.747678955078125,-0.09556523731052875,0.00073881740225479,-0.0006170541861094534
1746729004991697200,3.757697265625,-0.1111222874045372,0.00012747143772430717,0.0025401129368692633
1746729005001714000,3.7677138671875,-0.10334230105280875,0.001897020127205178,0.0009778503225184977
1746729005011732200,3.777732177734375,-0.10873217739760875,0.0019571071508340536,0.0007156739886850118
1746729005021750000,3.78775,-0.10379705908298492,-0.004812441783025861,-0.000010539660323411225
1746729005031767000,3.79776708984375,-0.10484686039686203,0.0003574716681614518,-0.00500551666971296
1746729005041785000,3.80778515625,-0.11307459051609038,0.002538752096844837,-0.0004604023196734488
1746729005051801900,3.8178017578125,-0.11067863529026507,0.0017913677956443279,0.008160217840969562
1746729005061820000,3.82781982421875,-0.11666472396254539,-0.0012539273175410925,0.00818496868973598
1746729005071837000,3.8378369140625,-0.1142716913461685,0.0025342677179723975,0.0008068411371670663
1746729005081855000,3.84785498046875,-0.11023498317599296,-0.004542474868381396,0.007602839686535298
1746729005091873000,3.857873046875,-0.1087386071383953,-0.005243727606069296,0.004329462305363268
1746729005101890000,3.86789013671875,-0.10529811129570006,-0.0052813927353359755,0.0003017411592416465
1746729005111907800,3.877907958984375,-0.10140811811983584,0.006669376495014876,-0.005796813177876174
1746729005121925000,3.887925048828125,-0.09662029932141303,-0.005183275256259366,-0.0057741446883417666
1746729005131943000,3.89794287109375,-0.10889058282971381,0.003420521633746102,-0.004009874962177127
1746729005141960000,3.9079599609375,-0.11218261011242865,0.000979156363615766,0.0053120070693083105
1746729005151978000,3.91797802734375,-0.09616495676934718,0.004534455958707257,0.008736556424200534
1746729005161995000,3.9279951171875,-0.10963058754205703,0.005691918898141011,0.003170191001333296
1746729005172013000,3.938012939453125,-0.10483984613418579,-0.0030749321996234357,0.004117445256188511
1746729005182030800,3.94803076171875,-0.1175572888880968,-0.00799156500948593,0.001300214144680649
1746729005192048000,3.958048095703125,-0.10662965216040611,0.002771967197675258,0.010064115233533084
1746729005202066000,3.96806591796875,-0.10558452702164649,0.0014804386829491705,0.008882303304132073
1746729005212083200,3.978083251953125,-0.10753449204564094,-0.008595796246640384,-0.002790507501363754
1746729005222101000,3.98810107421875,-0.09870411985814571,0.0014434128744993358,0.0016986571440473198
1746729005232118000,3.998117919921875,-0.10603285531103611,0.004184564808802679,0.0019415259892120956
1746729005242136000,4.008135986328125,-0.10827800388932228,-0.0017881346589419989,-0.008385715426225215
1746729005252154000,4.018154052734375,-0.10917290690243243,0.010821883931430056,0.002740987537521869
1746729005262171100,4.028171142578125,-0.1147077446758747,0.00463772453693673,0.010431688170600683
1746729005272189000,4.03818896484375,-0.10139116698503493,0.002180120518058538,0.004737568182218819
1746729005282206000,4.0482060546875,-0.10543021324276923,0.0018089582512620835,0.0013774075667373836
1746729005292224000,4.05822412109375,-0.11126432622373103,0.004491036942088977,0.0010122640487737952
1746729005302241000,4.068240966796875,-0.11874386832416058,0.003795492425980046,0.013328925715759396
1746729005312259000,4.078259033203125,-0.11186170759499073,0.0016104034718591718,0.0056866125353612
1746729005322277000,4.088277099609375,-0.11036065538227557,0.0012351586849894374,0.0065861186583526425
1746729005332294000,4.0982939453125,-0.10228080930113792,-0.004771105125639588,0.002446644233446568
1746729005342312200,4.108312255859375,-0.11155892525613308,0.0015538509790319949,0.008119885830581187
1746729005352329000,4.118328857421875,-0.1114092876523733,-0.003284839490102604,-0.002304039158672094
1746729005362347000,4.128346923828125,-0.11320669246315955,0.003441299560293555,0.0034615568970330058
1746729005372364000,4.138364013671875,-0.0998901147723198,0.00392878168313764,0.012401362542062998
1746729005382381800,4.1483818359375,-0.10886837099790572,0.0009265950593166052,0.008213281468767672
1746729005392400100,4.158400146484375,-0.10423077432513236,-0.0056049986665137105,0.007296970341447741
1746729005402417000,4.1684169921875,-0.10737433304786681,0.0038326643649023023,0.003941650297865271
1746729005412435000,4.17843505859375,-0.11680208660662174,0.007298696507653221,0.01193988251015544
1746729005422452000,4.188451904296875,-0.10632803886532782,-0.004425570490444079,0.012483962791599332
1746729005432470000,4.198469970703125,-0.10258592972755431,0.0033535208121407774,0.004222640930023044
1746729005442487000,4.208487060546875,-0.11230828231871127,0.0031933344149030745,-0.0014327179505489766
1746729005452505000,4.218505126953125,-0.10213175621926784,0.002311848005792126,0.003258526871912181
1746729005462523000,4.22852294921875,-0.11201017615497112,-0.0017610183231532572,0.009051376260723918
1746729005472540000,4.238539794921875,-0.1070744733184576,-0.0013669409716501831,0.019174108080007135
1746729005482558000,4.248557861328125,-0.10333353322446345,-0.0004983779761940241,0.006753894707001745
1746729005492575000,4.258574951171875,-0.11171265451312064,-0.00185136348772794,-0.0035541122850030657
1746729005502593000,4.268593017578125,-0.11007131704688071,0.0027356446421239523,0.0014550028475932776
1746729005512610000,4.278610107421875,-0.1070791494935751,0.007539181599486619,0.0024911226959899065
1746729005522628000,4.288628173828125,-0.10603051722347735,-0.005068343639699742,0.0086360734581016
1746729005532646000,4.29864599609375,-0.09884674319922923,0.007097703175991774,0.014116532429493962
1746729005542663200,4.3086630859375,-0.10812602819800377,0.0040480972138699145,0.012585578268859535
1746729005552681000,4.318680908203125,-0.10393617529273033,0.007150145749282091,0.004551708487607538
1746729005562698200,4.3286982421875,-0.09645254153907298,0.0034446970937773583,-0.0016274185387417674
1746729005572716000,4.338716064453125,-0.10183481909930706,0.00031375125744380057,0.010254906831588596
1746729005582732800,4.34873291015625,-0.10826865153908728,-0.006084215284511447,0.010744900571927427
1746729005592751000,4.358751220703125,-0.11156009429991244,0.0002533628397155553,0.0004709237136878073
1746729005602768000,4.368767822265625,-0.1147036530226469,-0.004647807539533823,0.005457315557822585
1746729005612786200,4.3787861328125,-0.10452888048887252,0.003408739864407107,0.0061718935679644345
1746729005622804000,4.388803955078125,-0.11515315035581589,0.0024888120078947395,0.007052293131686747
1746729005632821000,4.398821044921875,-0.10796996085345745,0.0003717193892225623,0.01454283155016601
1746729005642839000,4.408839111328125,-0.11395488048195838,0.0017513006467372177,0.006729984108451753
1746729005652856000,4.41885595703125,-0.0971931307733059,0.005186928518069908,0.006519885021727532
1746729005662873900,4.428873779296875,-0.10377835438251495,0.0011574172736611218,0.007392009947448969
1746729005672891000,4.438890869140625,-0.11574994720518589,0.005880838199518621,0.006950294061936438
1746729005682909000,4.448908935546875,-0.10901917764544486,0.0006444719159975648,0.009432941190525889
1746729005692927200,4.45892724609375,-0.11425824734270572,-0.002270438283169642,0.013738164103776216
1746729005702944000,4.468944091796875,-0.10812661271989345,-0.0027795933817047623,0.003465100560989231
1746729005712961800,4.4789619140625,-0.11261632535457611,-0.002035588347679004,-0.003756612587161362
1746729005722979000,4.48897900390625,-0.1114180554807186,-0.0016819891370367258,0.012721570939756928
1746729005732996900,4.498996826171875,-0.10992051039934157,0.0022310652540065345,0.007545501742418855
1746729005743014100,4.50901416015625,-0.09839783038794994,0.00400688842064701,0.005020732505153864
1746729005753032000,4.519031982421875,-0.11321019959449767,-0.00013784670126624406,0.010203541970532387
1746729005763050000,4.529050048828125,-0.11216098280251026,-0.0006598338819108903,0.007763217880018055
1746729005773066200,4.539066162109375,-0.10437690479755402,-0.0005876910943072289,0.00008455474460497499
1746729005783084000,4.549083984375,-0.10407938315570354,-0.0030443635314237323,0.0043858321350999175
1746729005793101300,4.559101318359375,-0.10109130725562572,-0.0023809403197839855,0.006674746789876371
1746729005803119000,4.569119140625,-0.10004501307308673,-0.002991172039462253,0.004318648650404065
1746729005813136400,4.579136474609375,-0.10962123519182204,-0.002048246899852529,-0.0011152860318310559
1746729005823154200,4.589154296875,-0.1049824694752693,0.005656244796561077,-0.0009283486249856651
1746729005833171200,4.599171142578125,-0.11186404568254947,0.0027695834443438798,0.0067575662351213395
1746729005843189200,4.609189208984375,-0.11171323903501033,0.0022295126177370546,0.003037084407266229
1746729005853207000,4.61920703125,-0.10408289028704165,-0.0025588541699573396,-0.00001970934746786952
1746729005863224300,4.629224365234375,-0.09973930812478064,0.0023647655031178143,0.0030831155060790476
1746729005873242000,4.6392421875,-0.10722001926898955,0.001636003703996539,0.009729933109413832
1746729005883259400,4.64925927734375,-0.10422726719379424,0.00789036965733394,0.005828505224082618
1746729005893277200,4.659277099609375,-0.10437515123188496,0.00655572352008894,0.004318009329587221
1746729005903294200,4.669294189453125,-0.10048457353413104,0.003351255789818242,0.003691109602898359
1746729005913312300,4.679312255859375,-0.10497370164692402,-0.003383842885168269,0.013260847181919961
1746729005923330300,4.689330322265625,-0.10841887366473674,-0.0017054430778604,0.003549655305594206
1746729005933347300,4.699347412109375,-0.10198387218117713,-0.005293658561864868,0.00598000599136576
1746729005943365400,4.709365478515625,-0.10288052875995636,0.0008168876071460544,0.005198153164982795
1746729005953382100,4.719382080078125,-0.0997369700372219,0.0010410974176134913,0.010755074906069785
1746729005963400200,4.729400146484375,-0.11978665537536144,0.0005096665551885963,0.0032868761835619805
1746729005973417200,4.739417236328125,-0.10302549018859862,0.0030854992594104257,0.008113364758249371
1746729005983435300,4.749435302734375,-0.11185177072286605,0.006287720233667642,0.008160144775733352
1746729005993453300,4.759453369140625,-0.09359890567362308,0.0022896544402930884,0.004171951922401785
1746729006003470000,4.769469970703125,-0.10512392377257347,0.002966165462369099,0.007971892194636166
1746729006013488400,4.77948828125,-0.09794073427021503,-0.006870780818630009,0.007701623885892331
1746729006023505200,4.789505126953125,-0.11948679564595222,0.0008851853366941213,0.006864223213680088
1746729006033523200,4.799523193359375,-0.11873451597392558,-0.006203603880479931,0.002975271217431873
1746729006043540200,4.809540283203125,-0.11364449935853481,0.004696615117322654,0.007714191106520593
1746729006053558000,4.81955810546875,-0.10900398007631301,0.004983213506359606,0.006803633866552263
1746729006063575300,4.8295751953125,-0.10571195279359817,-0.005234439187915996,0.010008914447575807
1746729006073593000,4.839593017578125,-0.11259586708843708,-0.00244203199041076,0.0011190488914959132
1746729006083611100,4.849611083984375,-0.09882745397686958,0.002261451259115711,-0.0067042103463783856
1746729006093628200,4.859628173828125,-0.11184592550396918,-0.0008810480176936835,0.004083707383368164
1746729006103646200,4.869646240234375,-0.10151859275698662,0.0012765684076119213,0.003986220091953874
1746729006113663200,4.879663330078125,-0.1060065518260002,0.0018534184474963693,0.009871314341481774
1746729006123681300,4.889681396484375,-0.1107908634930849,-0.0017324406826402991,0.011610212164372205
1746729006133698300,4.8996982421875,-0.10735212121605872,0.0026518479493446647,0.004033986490126699
1746729006143716400,4.90971630859375,-0.10630699607729911,0.001421082311682403,0.010506981896515935
1746729006153734100,4.919734130859375,-0.10526070189476013,-0.00024126140996813772,0.01739655874716118
1746729006163751200,4.929751220703125,-0.10496493381857872,0.0014872702825348824,0.007714830427337438
1746729006173769200,4.939769287109375,-0.1024210945546627,0.006449477533483877,0.00009505787231028079
1746729006183786200,4.9497861328125,-0.10765665712058543,-0.0014948782002553343,0.01085009624576196
1746729006193804300,4.95980419921875,-0.11184592550396918,-0.00025219379593618215,0.009038480246532707
1746729006203821000,4.969821044921875,-0.10256664050519466,0.002808253220608458,0.011078096315357833
1746729006213839400,4.97983935546875,-0.1079500871092081,-0.0024659791215788573,0.009720982617978007
1746729006223857200,4.989857177734375,-0.10779577333033084,0.008937540622707456,0.005090820332989097
1746729006233874400,4.99987451171875,-0.10974281574487685,0.0041791214487049725,0.0038275589315220713
1746729006243892200,5.009892333984375,-0.10525485667586326,0.0021004063453525304,-0.0006961473043076694
1746729006253909000,5.019908935546875,-0.10869593704044818,0.005615036003338173,0.003772358145564794
1746729006263927300,5.02992724609375,-0.10510346550643443,0.0011821589892730116,0.007662844511773436
1746729006273944000,5.039944091796875,-0.10839490826725959,-0.0006179401020985096,0.005305084138177335
1746729006283962400,5.04996240234375,-0.09761866270899772,-0.007299226230615749,0.0008527443718165158
1746729006293980200,5.059980224609375,-0.11153495985865593,0.003362717898748815,-0.0006305895211175084
1746729006303997200,5.0699970703125,-0.11931669977605343,0.0048773693785537035,-0.0006445815138518809
1746729006314015200,5.08001513671875,-0.11168225937485694,-0.005629183259699493,0.005241097257565707
1746729006324032300,5.0900322265625,-0.112280809789896,0.0042128227889072145,-0.0012240436359308659
1746729006334050300,5.10005029296875,-0.11287994472682475,-0.00434007503092289,0.00032777064964175225
1746729006344067300,5.1100673828125,-0.10824234805405139,0.0019823877225629985,0.0031367636557668443
1746729006354085000,5.120085205078125,-0.09791735339462757,-0.0013276684071868658,0.004904960638377815
1746729006364102100,5.13010205078125,-0.1050958667218685,-0.0002390785860363394,0.017906681960076092
1746729006374120200,5.1401201171875,-0.10629822824895381,-0.006292469474021345,0.008362480681110174
1746729006384138200,5.15013818359375,-0.10420505536198615,-0.002294275816483423,-0.0008578772046603262
1746729006394155300,5.1601552734375,-0.10165829348862171,0.006753940372774377,0.007603826067224145
1746729006404173000,5.170173095703125,-0.10494915172755717,-0.007792051248857751,0.01288023210018873
1746729006414190300,5.1801904296875,-0.10943652627468109,0.0013201152883935718,0.014145922920759767
1746729006424208100,5.1902080078125,-0.11093290231227874,0.004700871167331934,0.007680708962026983
1746729006434225400,5.200225341796875,-0.10914017367660998,-0.006060770476842298,0.008677811974287032
1746729006444243200,5.2102431640625,-0.11168693554997443,-0.00359086409881711,0.006510350008402019
1746729006454261200,5.22026123046875,-0.11617723270654677,0.0015943565193563699,-0.0014250095681287347
1746729006464278300,5.2302783203125,-0.114080552688241,0.004177422681963071,0.00689697470581159
1746729006474296300,5.24029638671875,-0.12021452539861202,0.0019330778212752191,0.005460895754396915
1746729006484313300,5.250313232421875,-0.11303192041814326,-0.002158502341294661,0.009620170858316122
1746729006494331100,5.2603310546875,-0.10494681363999843,-0.0017065116569399833,0.0019686149255372584
1746729006504348200,5.27034814453125,-0.10389584328234196,0.0010452895355410874,-0.00009703063368797301
1746729006514366200,5.2803662109375,-0.10389584328234196,0.0024061660925857723,-0.00008294730940833687
1746729006524383200,5.29038330078125,-0.1037450366348028,-0.003786633266089484,0.009132387341372668
1746729006534401300,5.3004013671875,-0.1010527288109064,-0.004358569668838754,0.012092698451690375
1746729006544419300,5.31041943359375,-0.11302315258979796,-0.004839685982977971,-0.0010593911261297761
1746729006554436000,5.32043603515625,-0.10733633912503719,-0.0036598376818001268,0.005094327464327216
1746729006564454400,5.330454345703125,-0.09386486313343048,0.0001581862363964319,0.0005758453928865492
1746729006574471200,5.34047119140625,-0.09536416178047656,-0.0027021807639393955,0.007708893876895308
1746729006584489500,5.350489501953125,-0.11511574095487594,-0.0004137592995073646,0.008649480928946286
1746729006594506200,5.36050634765625,-0.10030161818265915,0.0077723875671625135,0.007733863921370356
1746729006604524000,5.37052392578125,-0.10598667808175086,-0.003310823314730078,0.003885298734437674
1746729006614542300,5.380542236328125,-0.10957681152820586,-0.0034911848503164943,-0.004826872167177498
1746729006624559000,5.39055908203125,-0.10733283199369907,-0.002239613886643201,0.0002551438048481941
1746729006634577200,5.4005771484375,-0.1134656356602907,0.0033196916077751666,0.011213467931747436
1746729006644594200,5.41059423828125,-0.10224164633452892,0.011608339867694302,0.005925079200044274
1746729006654612200,5.4206123046875,-0.10403495949208735,0.004777927592070773,0.00627825828557834
1746729006664629200,5.430629150390625,-0.10463117181956767,0.004693509844783693,0.0023788944931700823
1746729006674647300,5.440647216796875,-0.1070265425235033,0.004459673689445481,0.007283380207512527
1746729006684665000,5.4506650390625,-0.11839432423412799,-0.0006926584392786026,0.00641456148372963
1746729006694682000,5.46068212890625,-0.10806874505281448,0.0048538058398757125,0.01535449499292299
1746729006704700200,5.4707001953125,-0.10148176787793636,-0.005928714195545763,0.0009577573825605213
1746729006714717200,5.48071728515625,-0.10536883844435214,0.007664826406305655,0.009918167424201966
1746729006724735200,5.4907353515625,-0.10297229869663714,0.002936190449213609,0.003089800975192338
1746729006734752300,5.500752197265625,-0.09997720853388309,0.000854507070640102,0.005379574146494269
1746729006744770300,5.510770263671875,-0.10640987192988395,-0.0010896492670755833,0.005147427624743432
1746729006754787300,5.520787353515625,-0.1073094511181116,0.0028883509858045726,0.004988035811949521
1746729006764805400,5.530805419921875,-0.11044833366572857,-0.0027809633548837153,0.018674853320978582
1746729006774824000,5.540823974609375,-0.10416004717648028,-0.006600832170294597,0.010266268475819379
1746729006784840700,5.5508408203125,-0.11238894633948802,0.0027039982616901396,0.006584401625301688
1746729006794859000,5.56085888671875,-0.10430617764890193,0.0005441442135255784,0.009210402747336775
1746729006804875800,5.570875732421875,-0.11657412306964397,-0.0007533939168788492,0.006050605275854468
1746729006814894000,5.58089404296875,-0.11088555603921413,0.0006763192258309572,0.010303714409377425
1746729006824910800,5.590910888671875,-0.12166004803180694,-0.003700471086287871,0.008021284294314682
1746729006834929000,5.600928955078125,-0.11552198366820811,0.007817761078849435,0.0014862382360734045
1746729006844947000,5.610947021484375,-0.10758476092815399,0.004721576028643175,0.01189843625491485
1746729006854963700,5.620963623046875,-0.10623743797242641,0.005782903383532539,0.013406977654341607
1746729006864982000,5.63098193359375,-0.11207330451905727,0.005757540613412856,0.011895550178084522
1746729006874998800,5.640998779296875,-0.10384323631227016,-0.0010347316089086235,0.008588453190401196
1746729006885016800,5.651016845703125,-0.10429273364543915,0.005283155434159562,0.00018733926564455032
1746729006895033900,5.661033935546875,-0.09247136294841765,0.004009865829022601,0.005696622472722083
1746729006905052000,5.671052001953125,-0.11431377692222594,0.0013469119637738913,0.00944463162831962
1746729006915069700,5.681069580078125,-0.09306406814455985,0.00005488112554885447,0.008825056691560893
1746729006925087000,5.6910869140625,-0.11102233416140078,-0.004271028382703662,0.007267780779581516
1746729006935104800,5.701104736328125,-0.11790507941246033,-0.0006003405133262277,0.005755914911907166
1746729006945122000,5.7111220703125,-0.11506021137535571,-0.006126273461105301,0.008924955135770142
1746729006955139800,5.721139892578125,-0.10353870040774345,-0.006365799571713432,0.003466981990821659
1746729006965156900,5.731156982421875,-0.11251344950199127,0.004476697889482602,0.002229129025246948
1746729006975175000,5.7411748046875,-0.11310907730758189,0.0035175066016614434,0.002775127269141376
1746729006985192000,5.75119189453125,-0.09964052392542362,-0.0012226919290609657,0.011986699060257523
1746729006995210000,5.7612099609375,-0.10576982046067714,-0.00018775025759823618,0.014695903220027685
1746729007005227800,5.771227783203125,-0.1036760630518198,0.006736450381856412,0.01063608816890046
1746729007015245000,5.7812451171875,-0.10816694473028182,-0.005887167475605383,0.01178253652397543
1746729007025262800,5.791262939453125,-0.10203297201991081,-0.0002470426967833191,0.007442680688761174
1746729007035280000,5.80127978515625,-0.10128770661056041,0.007777949658269062,0.013067936692014335
1746729007045298000,5.8112978515625,-0.10518120691776275,-0.0030859559171367433,0.012368939843494445
1746729007055314700,5.821314697265625,-0.10443243437707424,0.0026935316666029394,0.005560447138734162
1746729007065333000,5.8313330078125,-0.10143909777998923,-0.0010782236907631159,0.0031661906796507534
1746729007075349800,5.841349853515625,-0.11356032820641994,-0.001643712086416781,0.0037518633468076584
1746729007085367800,5.851367919921875,-0.11370879676640033,0.0009576203852426261,0.01462256398918107
1746729007095385900,5.8613857421875,-0.11026596283614634,-0.008505323217902332,0.014341299362387507
1746729007105403000,5.87140283203125,-0.1116097786605358,0.0060785618618596346,0.014146032518614083
1746729007115421000,5.8814208984375,-0.11265724188685416,0.0031793150227051228,0.013059424591995775
1746729007125438000,5.89143798828125,-0.1146031152576208,0.0011890179883223026,0.008523753923736513
1746729007135455700,5.901455810546875,-0.10502455505132674,-0.002899822227889672,0.0031841281951405106
1746729007145473000,5.91147314453125,-0.10711772793829441,-0.005905059325322508,0.011793350178934634
1746729007155490800,5.92149072265625,-0.10831073711514472,0.0028516539709176865,0.0030302162750624117
1746729007165508900,5.9315087890625,-0.1156447332650423,-0.0024432649662718174,0.012341741309314966
1746729007175526000,5.94152587890625,-0.10875789636075496,0.002200012528616935,0.011897449874226003
1746729007185544000,5.9515439453125,-0.11055062499642372,-0.006042248439462855,0.015993085157405586
1746729007195561000,5.96156103515625,-0.10486439605355262,0.0017847645249217748,0.007718136629275977
1746729007205578800,5.971578857421875,-0.10755436578989028,-0.007360646694805473,0.001794244739320129
1746729007215596000,5.981595947265625,-0.10620587379038333,-0.00023298677196726203,-0.003994860056135803
1746729007225613800,5.99161376953125,-0.11009586696624755,0.0016585625956766306,0.011128493062034249
1746729007235631900,6.0016318359375,-0.10770341887176037,-0.0017346509060356765,0.012049078505672514
1746729007245649000,6.01164892578125,-0.11533259857594966,0.0013085618479177356,0.013590316598303615
1746729007255667000,6.0216669921875,-0.11024258196055889,-0.00606975750089623,0.01166884701643139
1746729007265684000,6.03168408203125,-0.11143792922496795,-0.0052092499477323145,0.005424801527708768
1746729007275702000,6.041701904296875,-0.10680150159597396,-0.0027355989763513206,0.0222722019595094
1746729007285719000,6.051718994140625,-0.10754910509288311,0.0002705971023067832,0.011539978206064552
1746729007295736800,6.06173681640625,-0.10589958432018756,-0.0019663773026783017,0.0036082901576533913
1746729007305753900,6.07175390625,-0.11891980941295623,-0.0019455080445855855,0.0075201298391446465
1746729007315772000,6.08177197265625,-0.10799684886038302,-0.0005480897362809628,0.00316407178780064
1746729007325790000,6.0917900390625,-0.12056348496675491,0.0015743366446346043,0.008253978805337101
1746729007335806700,6.101806640625,-0.10454875423312186,-0.006846404429199174,0.01363766287136823
1746729007345825000,6.111824951171875,-0.10604396122694015,-0.005102474238164722,0.010592449956573545
1746729007355841800,6.121841796875,-0.11996376550793647,-0.007501534736528992,0.005479399525467306
1746729007365860000,6.131860107421875,-0.10619710596203803,0.0022291929573286322,0.011326919977273791
1746729007375876900,6.141876953125,-0.11801847665905951,-0.0007427446587011218,0.011041198371071368
1746729007385895000,6.15189501953125,-0.10395254190564154,-0.002929130520764738,0.008364544774033129
1746729007395913000,6.161912841796875,-0.120859837564826,0.003618555823341012,0.004838453007116913
1746729007405929700,6.1719296875,-0.11338087998628615,-0.001624121469957754,0.011363872720487415
1746729007415948000,6.181947998046875,-0.10859423023164272,0.0028354517547879367,0.007686134055815637
1746729007425964800,6.19196484375,-0.1079939262509346,-0.00019322101715952156,0.015966215416789054
1746729007435982800,6.20198291015625,-0.1020113447099924,0.0013657810610253362,-0.0011838212233968078
1746729007445999900,6.211999755859375,-0.11293898143768309,-0.0010081449960824102,0.00012948986487463116
1746729007456018000,6.222017822265625,-0.10501111104786395,-0.0042838604648131875,0.012823606542125344
1746729007466035000,6.232034912109375,-0.1092003794312477,0.001668225473165512,0.00914415084440261
1746729007476053000,6.242052978515625,-0.10950374629199504,-0.0033843452086672185,0.0014390015608631073
1746729007486070800,6.25207080078125,-0.10262275460660457,0.004553069327631965,0.002909329841751605
1746729007496087800,6.262087890625,-0.10471592749357223,-0.0042964094191323965,0.0013413316063582896
1746729007506105900,6.27210595703125,-0.10666238538622856,0.0008897427808027714,0.0070860675371252
1746729007516123000,6.282122802734375,-0.10756021100878715,-0.003304777166433632,0.00941465661516413
1746729007526141000,6.292140869140625,-0.11533902831673622,0.0001750551728066057,-0.006774170310050249
1746729007536158000,6.302157958984375,-0.10696282963752746,0.006056477894214913,0.007592336558829993
1746729007546176000,6.312176025390625,-0.1006780502796173,-0.002953945301612839,0.007729461740888655
1746729007556193800,6.32219384765625,-0.10441957489550113,-0.0003097052699886262,0.01336695617120713
1746729007566211000,6.332211181640625,-0.10815642333626746,-0.004948699315404519,0.015484240586124359
1746729007576228900,6.342228759765625,-0.11863105559945106,-0.0008715860696043819,0.008481449151970445
1746729007586246000,6.352245849609375,-0.1087561427950859,-0.004691591882333159,0.003675418843422085
1746729007596264000,6.362263916015625,-0.11129822849333286,0.0024190803730860353,0.009550978079624474
1746729007606280700,6.37228076171875,-0.10680910038053988,0.006120574372680858,0.004442201964836567
1746729007616299000,6.382299072265625,-0.11159808822274207,0.0009627897507045417,0.009253072845283896
1746729007626315800,6.392315673828125,-0.10681085394620894,-0.0015927856167778371,0.01263577408613637
1746729007636333800,6.402333740234375,-0.11100362946093081,-0.002063261805893853,0.009119655723962932
1746729007646352000,6.412351806640625,-0.11160334891974925,-0.0007843553107231855,0.006111505150236189
1746729007656369000,6.422368896484375,-0.10441782132983207,0.0008652111277449876,0.013220697834622114
1746729007666387000,6.432386962890625,-0.10441723680794239,-0.008140919485455379,0.008279332442302256
1746729007676404000,6.442404052734375,-0.10232406392097472,-0.008369038286060095,0.005772573785763234
1746729007686421800,6.452421875,-0.11250059002041816,-0.0048424167961813504,0.011304580281302332
1746729007696438800,6.462438720703125,-0.10262509269416331,0.0030133108060341326,0.013631927250325679
1746729007706456800,6.472456787109375,-0.10262392365038395,-0.001949480966804549,0.009256689574476331
1746729007716475100,6.48247509765625,-0.09588906243741512,0.00013902487820014356,0.0066132258609868586
1746729007726492000,6.492491943359375,-0.11548983496427535,-0.00023242051638662815,0.006045435910392552
1746729007736509700,6.502509765625,-0.10352058022916316,-0.0027105923992581664,0.0042214901525527235
1746729007746527000,6.51252685546875,-0.10920680917203426,0.0027873108972795305,0.008391524112503976
1746729007756544800,6.522544677734375,-0.10292378337979316,-0.000793479332095012,0.014000724030099809
1746729007766562000,6.53256201171875,-0.11070727686285972,-0.00252992946957238,0.006600804770831018
1746729007776579800,6.542579833984375,-0.10995733527839183,-0.0007820994215551764,0.015462321015261113
1746729007786597000,6.55259716796875,-0.11055647021532058,0.004459043501783162,0.014776713371276855
1746729007796615000,6.562614990234375,-0.11085516090095042,-0.0002788352076895535,0.003383066567033529
1746729007806633000,6.572633056640625,-0.09962883348762988,-0.0010575553620699792,0.010174114946648478
1746729007816650000,6.58264990234375,-0.10201894349455833,-0.0032224417783785608,0.019162892566248774
1746729007826667800,6.592667724609375,-0.09723112469613551,-0.0016977346954401582,0.009716945763677359
1746729007836685000,6.60268505859375,-0.10082125814259052,-0.0038512229348998516,0.004809464374650269
1746729007846702800,6.612702880859375,-0.10381342569589615,-0.0003219984959810972,0.009422565926983952
1746729007856720000,6.622719970703125,-0.10725450606048106,-0.004407477711327374,0.0068062459487468
1746729007866738000,6.632738037109375,-0.10186813684701919,-0.0012883501769509165,0.004840937225148082
1746729007876755000,6.6427548828125,-0.10590542953908443,-0.003824115732265636,0.0070670705757103856
1746729007886773000,6.65277294921875,-0.10365911191701889,-0.008381203647889196,0.0029178054091520606
1746729007896791000,6.662791015625,-0.1087473749667406,-0.00382748586628586,0.007867153178527951
1746729007906807800,6.672807861328125,-0.11413374418020247,0.0002830821245443076,0.01158513252204284
1746729007916826000,6.682826171875,-0.11547697548270225,-0.0033026765408925712,0.003975168974976987
1746729007926843000,6.6928427734375,-0.10709668515026569,0.002695540960598737,0.005489719990082085
1746729007936860700,6.702860595703125,-0.10245499682426452,-0.0023754695602227,0.011839965799637139
1746729007946878000,6.7128779296875,-0.10529811129570006,-0.0034605431168805807,0.004868446286581457
1746729007956895700,6.722895751953125,-0.11173311277925968,0.001541356823639944,0.01279779624743387
1746729007966914000,6.7329140625,-0.09841595056653023,0.002646395456092432,0.00017095438642427324
1746729007976930800,6.742930908203125,-0.11278057600557803,0.0041681159975007175,0.007687175235431641
1746729007986948900,6.752948974609375,-0.10170797784924507,-0.0005533504332881421,0.01008055491168052
1746729007996966000,6.7629658203125,-0.11292962908744811,-0.00047366366004571316,0.0048667657861486075
1746729008006984000,6.77298388671875,-0.11128010831475257,-0.0007262045158538966,0.006612623072788119
1746729008017001000,6.7830009765625,-0.10933540398776531,0.0013588215972762554,0.010840652563981711
1746729008027018800,6.793018798828125,-0.10604337670505046,0.0004452321500051766,0.008365640752576292
1746729008037036000,6.8030361328125,-0.10679273376762867,-0.003400784886814654,0.004603822267334908
1746729008047053800,6.8130537109375,-0.10963760180473327,-0.003364918988989666,-0.0003982055373489857
1746729008057071900,6.82307177734375,-0.11278232957124709,-0.0059902351244352755,-0.0013625570574775337
1746729008067089000,6.8330888671875,-0.09886427885591983,-0.0030833438349422066,0.017371095512341707
1746729008077107000,6.84310693359375,-0.11322890429496764,-0.0011478913934901355,0.005414298400003462
1746729008087124000,6.8531240234375,-0.11786650096774101,-0.002093328150594607,0.0103143454012461
1746729008097142000,6.86314208984375,-0.10843874740898608,0.00024149887198582291,0.006128492817655205
1746729008107158800,6.87315869140625,-0.11322890429496764,-0.005525339292734861,0.006986187359225004
1746729008117177000,6.883177001953125,-0.1032008467555046,-0.0018685338182374833,0.007781465922761708
1746729008127195000,6.89319482421875,-0.12070435474216937,-0.0007757153465412557,0.004018971584085375
1746729008137212000,6.9032119140625,-0.1144201599061489,-0.008634749150695278,0.007324972593225538
1746729008147230000,6.91322998046875,-0.11816402260959148,0.0007494849267415702,0.01083044169722125
1746729008157246700,6.923246826171875,-0.11337445024549961,-0.006745930596254766,0.004150616873428225
1746729008167265000,6.93326513671875,-0.10978490132093428,-0.008996148075303063,0.005279767033830284
1746729008177281800,6.94328173828125,-0.10544424176812171,-0.0026741876453161236,0.009977934787422418
1746729008187299800,6.9532998046875,-0.1091828437745571,-0.01129099014736712,0.008555391171015798
1746729008197316900,6.96331689453125,-0.1057411788880825,-0.006123789243074134,0.00971128320787102
1746729008207335000,6.9733349609375,-0.10304536393284797,-0.0057937627042643726,0.004372369865328073
1746729008217353000,6.98335302734375,-0.10035305610895157,-0.0010051036556251347,0.007075929735600948
1746729008227369700,6.99336962890625,-0.11052724412083625,0.004558695350820198,0.003786697198171168
1746729008237387800,7.0033876953125,-0.1105254905551672,-0.007324625533353537,0.007717661705240607
1746729008247404800,7.01340478515625,-0.11082476576268672,-0.00567874888931401,0.0071144899140112095
1746729008257422800,7.0234228515625,-0.09825345348119735,-0.002398421177547425,0.007046393113862723
1746729008267439900,7.03343994140625,-0.10767886895239352,-0.00434753681817092,0.006209229903668165
1746729008277458000,7.0434580078125,-0.11501403414607048,0.005826441131159663,0.004677234563417732
1746729008287475700,7.053475830078125,-0.10573884080052375,-0.007167909734835848,0.014517295250110328
1746729008297493000,7.063492919921875,-0.109179336643219,-0.004338093136390671,0.015247253492474555
1746729008307510800,7.0735107421875,-0.1030436103671789,-0.00258144046110101,0.01129822360575199
1746729008317528000,7.083528076171875,-0.10872808574438095,-0.004673700032616034,-0.0012004435646347702
1746729008327545900,7.0935458984375,-0.10932429807186127,-0.00200494661424309,0.00860717615718022
1746729008337563000,7.10356298828125,-0.1171042844235897,-0.0057984114799182855,0.01052234386242926
1746729008347581000,7.113580810546875,-0.10932429807186127,-0.000973329411027953,0.006883932561147958
1746729008357598000,7.123597900390625,-0.11276537843644618,-0.007536688248300925,0.01186327360998839
1746729008367616000,7.133615966796875,-0.11142097809016704,0.0005528298434801399,0.011318773203436284
1746729008377633800,7.1436337890625,-0.11291793864965438,-0.004017528545670211,0.011234930844884364
1746729008387651000,7.153651123046875,-0.1099281091839075,-0.00783477614573203,0.01428366915732622
1746729008397668900,7.1636689453125,-0.10843114862442016,-0.0035298180939629673,0.010483126096893102
1746729008407686000,7.173685791015625,-0.11381517975032329,-0.001940320412814617,0.015606716188322751
1746729008417704000,7.183703857421875,-0.10333820939958095,-0.0029737368474714457,0.009950115198735147
1746729008427720700,7.193720703125,-0.1153092177003622,-0.013199244054639712,0.01022907827058807
1746729008437739000,7.203739013671875,-0.11021861656308174,-0.0077633366110268975,0.006110719698946923
1746729008447755800,7.213755859375,-0.11156301690936088,-0.0027281828548759222,0.0008197736839763819
1746729008457773800,7.22377392578125,-0.10527823755145073,0.0009213343623094261,0.008101363793201744
1746729008467792000,7.2337919921875,-0.1094663368910551,0.0015626644731499253,0.009988090855255722
1746729008477809000,7.243808837890625,-0.10587737248837947,-0.00815861953892745,0.009445764139480888
1746729008487827000,7.253826904296875,-0.10857084935605525,-0.005093706409819424,0.010680804093461484
1746729008497844000,7.263843994140625,-0.10198854835629463,-0.005266295630903914,0.015291311829909681
1746729008507861800,7.27386181640625,-0.11919745731055736,0.004471957782283425,0.025754874709807335
1746729008517879000,7.283879150390625,-0.10812310558855533,-0.006795130899688228,0.011424717795941978
1746729008527896800,7.293896728515625,-0.11321253768205643,-0.00448056121384725,0.0034499029918573796
1746729008537915000,7.303914794921875,-0.10887187812924384,0.002320259641110897,0.012140958040207624
1746729008547932000,7.313931884765625,-0.09974690690934658,-0.0026719500224571674,0.00008508446756750345
1746729008557949700,7.32394970703125,-0.09794891757667064,-0.007296504550566896,0.004528382410947233
1746729008567967000,7.333967041015625,-0.11186463020443915,-0.005057877044612542,0.006050733140017837
1746729008577984800,7.34398486328125,-0.10423135884702205,-0.003908661343716085,0.008797876423690468
1746729008588002000,7.354001953125,-0.12218670225441455,-0.005627310963021591,0.015159703073184936
1746729008598019800,7.364019775390625,-0.10782266133725643,-0.006161591369658708,0.00983448946243152
1746729008608037000,7.374037109375,-0.1129085862994194,-0.008019868655363097,0.003597001578658819
1746729008618055000,7.384054931640625,-0.0985433763384819,-0.0038532687615137544,0.005897807600628584
1746729008628073000,7.394072998046875,-0.10288345136940479,-0.006803204608289525,0.003951952496170997
1746729008638090000,7.404090087890625,-0.11650105783343315,-0.008053770924964919,0.006457669973094016
1746729008648108000,7.41410791015625,-0.11111878027319907,0.00417103860694915,0.007721808157395571
1746729008658124800,7.424124755859375,-0.10213877048194407,-0.006512286237161606,0.013913027480337768
1746729008668142800,7.434142822265625,-0.11815174764990806,-0.0006991612453013658,0.012245660523697733
1746729008678160000,7.444159912109375,-0.09974515334367752,-0.004039758643787354,0.008238196714315563
1746729008688178000,7.454177978515625,-0.10348726248145103,-0.0034917967716697603,0.002015979464910924
1746729008698195000,7.46419482421875,-0.11066986746191977,-0.009057340210629627,0.006047865329496562
1746729008708212700,7.474212646484375,-0.11470891371965408,-0.006924967824434861,0.0028266382606700062
1746729008718231000,7.48423095703125,-0.10154138911068439,-0.0004489402107428759,0.011198124232143163
1746729008728247800,7.494247802734375,-0.11440671590268611,-0.008744273939775303,0.008767645682208239
1746729008738266000,7.50426611328125,-0.1015367129355669,-0.006496714208694175,0.003294420169200748
1746729008748283000,7.514282958984375,-0.09854220729470252,-0.002728082390176132,0.005629457254335284
1746729008758300700,7.52430078125,-0.11230477518737315,-0.0003234506675507873,0.005301175148040056
1746729008768316700,7.534316650390625,-0.09823708686828612,-0.00427233442380093,0.013632182978652417
1746729008778335000,7.5443349609375,-0.10452303526997565,-0.010138038986269384,0.01635280358158052
1746729008788353000,7.55435302734375,-0.10631810199320316,0.00327475648750551,0.00609227072680369
1746729008798369800,7.564369873046875,-0.10856149700582027,-0.0052060898762661964,0.0045137145647779105
1746729008808387800,7.574387939453125,-0.11993103228211402,-0.010876527594961225,0.013260554920975118
1746729008818404900,7.58440478515625,-0.09987842433452605,-0.007619407228846103,0.014338047959376125
1746729008828423000,7.5944228515625,-0.11020224995017051,0.00029735724506899715,0.005415887568891048
1746729008838440000,7.60443994140625,-0.1104991870701313,-0.0021318061306141315,0.010296298287902027
1746729008848457700,7.614457763671875,-0.11214461618959903,0.006911669951444491,0.014690843452420084
1746729008858475000,7.62447509765625,-0.11782967608869076,0.003414438952831551,0.010385711870715022
1746729008868492800,7.634492919921875,-0.10390928728580474,0.0003826517751906067,0.012410112104099242
1746729008878510800,7.6445107421875,-0.09941665204167366,-0.007284220457728952,0.011715243441425263
1746729008888528000,7.65452783203125,-0.10540040262639522,-0.007391224496159702,0.01308828536029905
1746729008898545700,7.664545654296875,-0.10120821163356304,-0.0037045627395156768,0.0033653482472524045
1746729008908563000,7.67456298828125,-0.11093640944361687,-0.008823330525355413,0.013148070989828555
1746729008918580700,7.684580810546875,-0.10614917516708373,0.006967071666801348,0.016226455521862953
1746729008928598000,7.694597900390625,-0.11018880594670771,-0.006735847593657672,0.006177629189006984
1746729008938615800,7.70461572265625,-0.11691957550644874,-0.0079090012925677,0.020226777204405515
1746729008948632800,7.7146328125,-0.0986649568915367,-0.006544142680149525,0.00844961097529158
1746729008958651000,7.72465087890625,-0.0986696330666542,-0.0049405525415670126,0.011572072111070156
1746729008968669000,7.7346689453125,-0.09448153372704982,0.0006001121844630688,0.010517649421002716
1746729008978686000,7.74468603515625,-0.1101940666437149,0.0017907558742910623,0.01288899992853403
1746729008988704000,7.7547041015625,-0.10480828195214272,0.0012061791856773196,0.013894962100684641
1746729008998720800,7.764720703125,-0.10870528939068316,-0.00818130629477091,0.00867874355604872
1746729009008738800,7.77473876953125,-0.10302022949159145,-0.010034569478640332,0.01234913916448131
1746729009018755800,7.784755859375,-0.11948270399272441,-0.0026181557422969488,0.0076515741990879176
1746729009028774000,7.79477392578125,-0.10556757588684558,-0.0016633940344210714,0.004844225160777569
1746729009038792000,7.8047919921875,-0.10092705660462378,-0.003542111319955438,0.010869860392156988
1746729009048808700,7.81480859375,-0.09778408240377902,-0.007393178991228342,0.009655004709679633
1746729009058827000,7.824826904296875,-0.10691256075501442,0.001607170335156843,0.013308248253911734
1746729009068843800,7.83484375,-0.11289923394918441,-0.00726729672239162,0.003194704388082027
1746729009078861800,7.84486181640625,-0.10481821882426738,-0.01000802853158675,0.009561810000892727
1746729009088878800,7.85487890625,-0.10870587391257286,-0.0029832535944879055,0.019729312543664126
1746729009098896600,7.864896728515625,-0.10346855778098106,-0.010932943090470507,0.014764730672538279
1746729009108914000,7.874913818359375,-0.09793079739809035,-0.0044191772822756315,0.011198288628924637
1746729009118931700,7.884931640625,-0.10002163219749927,-0.006079064185358584,0.0035203561458736657
1746729009128949800,7.89494970703125,-0.11199264049828052,-0.0022443813933059574,0.0061773369280621404
1746729009138966800,7.904966796875,-0.11259411352276802,-0.0033438579346518962,0.013135120176710188
1746729009148984800,7.91498486328125,-0.1021200657814741,-0.0008650649972725659,0.017350217121094465
1746729009159001900,7.925001953125,-0.10990297474265098,-0.0071749331306666135,0.01103215654809028
1746729009169020000,7.93502001953125,-0.10361819538474082,-0.0034490170758683233,0.01732846194701269
1746729009179037000,7.945036865234375,-0.10032616810202598,-0.006139571334095671,0.01036855980651453
1746729009189055000,7.955054931640625,-0.10825345396995543,-0.0009894585619214921,0.005373345335107297
1746729009199072000,7.965072021484375,-0.10825462301373481,0.0019604864180088042,0.010111899898014962
1746729009209089800,7.97508984375,-0.11004852069318294,-0.011060971650620921,0.010936751615907996
1746729009219107800,7.98510791015625,-0.11977379589378834,0.0008546166684944182,0.008402538696862756
1746729009229124900,7.995124755859375,-0.10645780272483825,-0.002277507344773039,0.007207337562926113
1746729009239143000,8.005142822265626,-0.1034627125620842,-0.006366977748647332,0.006154960699472576
1746729009249160000,8.015159912109375,-0.10540917045474052,0.0010349234051536768,0.02396612812951207
1746729009259178000,8.025177978515625,-0.10226678077578544,-0.0051747266236227005,0.00872322201859206
1746729009269194800,8.03519482421875,-0.11109481487572193,0.003683867011358961,0.009141520495899022
1746729009279213000,8.045213134765625,-0.11079378610253333,-0.0004388206755276769,0.0033584618487395345
1746729009289229800,8.055229736328124,-0.11363280892074107,-0.0004985697724390775,0.013822134326491504
1746729009299247600,8.06524755859375,-0.09986498033106327,-0.012653099680272862,0.005032240279857069
1746729009309266000,8.075265869140624,-0.11048866567611694,-0.003993828009674325,0.0058800344819203015
1746729009319282700,8.08528271484375,-0.1113876603424549,-0.001514231354696676,0.012978029918856918
1746729009329301000,8.095301025390626,-0.11348434036076069,-0.0004950261084828526,0.01034344363156706
1746729009339317800,8.10531787109375,-0.10779694237411022,-0.0006195932030677795,0.008455985917150974
1746729009349335800,8.115335693359375,-0.10495382790267467,-0.013634237938420847,0.00889753740588203
1746729009359352800,8.125352783203125,-0.11333411823511123,-0.003344889981113374,0.00414592243200168
1746729009369371000,8.135370849609375,-0.10016600910425186,-0.0025194080755580215,0.019297095138859004
1746729009379388000,8.145387939453125,-0.1025602107644081,-0.00007896525403484702,0.001365023009199649
1746729009389406000,8.155406005859374,-0.11108838513493537,-0.0010723145397845656,0.006982424499560147
1746729009399423700,8.165423828125,-0.10944587862491607,-0.0018135704942978917,0.019555819140281528
1746729009409440800,8.175440673828126,-0.10405775584578514,-0.0038647034709807485,0.010430153800640255
1746729009419458800,8.185458740234376,-0.09717384155094623,-0.006579506254475564,0.01588436408592388
1746729009429475800,8.195475830078125,-0.10615209777653217,-0.003724135089665651,0.005936386045347899
1746729009439494000,8.205493896484375,-0.10630115085840225,0.00063306460599415,0.0077076335015706715
1746729009449511000,8.215510986328125,-0.11033961259424686,-0.0037204361620824782,0.010013024367112665
1746729009459529000,8.225529052734375,-0.10809563305974006,-0.011612422387767583,0.015845511646568774
1746729009469546800,8.235546630859375,-0.11408464434146881,-0.0038771793600637463,0.013795081922784447
1746729009479564000,8.24556396484375,-0.10645312654972076,-0.01022239280147478,0.009576660510152577
1746729009489581800,8.255581787109374,-0.09807049812972544,-0.00829377195960842,-0.002724821854010224
1746729009499598800,8.265598876953124,-0.11049275732934474,-0.004344851670740172,0.015618534490279853
1746729009509617000,8.275616943359376,-0.09911854587793349,-0.006525300982361659,0.007565174557268619
1746729009519633700,8.285633544921875,-0.110490419241786,-0.005253472681948915,0.007706683653499931
1746729009529652000,8.29565185546875,-0.09553191956281662,-0.006703132634144276,0.016025032931938767
1746729009539668700,8.305668701171875,-0.10660685580670833,-0.000496021622326225,0.011496632254682481
1746729009549686800,8.315686767578125,-0.10107084898948669,0.00024352643229067324,0.004887406715378165
1746729009559704800,8.325704833984375,-0.11514029087424278,-0.0027351514517795295,0.014301716270670294
1746729009569721900,8.335721923828125,-0.10810907706320286,-0.004910741925192997,0.015894940278865396
1746729009579740000,8.345739990234375,-0.10825696110129356,-0.0035546237416565415,0.009170600459910928
1746729009589757000,8.3557568359375,-0.10541676923930644,-0.003960364131489769,0.006078443130850791
1746729009599774700,8.365774658203126,-0.12157529235780239,-0.005466229516640306,0.010526435515657066
1746729009609791700,8.375791748046876,-0.1097539216607809,-0.0019191132280044257,0.014010021581407635
1746729009619809800,8.385809814453125,-0.11259703613221644,-0.004041183415893465,0.014508911014255135
1746729009629826800,8.395826904296875,-0.11185001715719699,-0.0048048064658418295,0.01790633490020409
1746729009639844900,8.405844970703125,-0.1124509056597948,0.00014541808636859058,0.008667747237998992
1746729009649862700,8.415862548828125,-0.10586685109436511,0.0034768914634827524,0.003169825675152242
1746729009659880000,8.4258798828125,-0.11619535288512706,0.0033156730197835714,0.00891509132888168
1746729009669897700,8.435897705078125,-0.108416535577178,0.0032946210986003277,0.017015377409849316
1746729009679915000,8.4459150390625,-0.1048258176088333,-0.0038269652764778583,0.019646182571165263
1746729009689932800,8.455932861328124,-0.1096142209291458,-0.007480537614272907,0.008103062559943646
1746729009699949800,8.46594970703125,-0.11230945136249065,-0.0008104487332049756,0.0020609328514896333
1746729009709968000,8.4759677734375,-0.1194920563429594,-0.0006066971888765692,0.0201331623705104
1746729009719985000,8.48598486328125,-0.10782032324969767,-0.0018933759985491632,0.004599675815179944
1746729009730003000,8.4960029296875,-0.11095803675353526,-0.002518494760105386,0.016541202293150127
1746729009740020700,8.506020751953125,-0.10556991397440432,-0.0032647191506810485,0.01725979889128357
1746729009750038000,8.5160380859375,-0.10676759932637214,-0.005547130999434739,0.0075852857635356485
1746729009760055800,8.526055908203125,-0.10871113460958004,-0.006063419091654941,0.008747552742250263
1746729009770073900,8.536073974609375,-0.11634732857644557,-0.0010841145754326134,0.007738028639834374
1746729009780092000,8.546091796875,-0.10482932474017143,0.004216083325073123,0.014375786153879015
1746729009790109000,8.55610888671875,-0.1057283194065094,-0.002652112810825929,0.018149861332494764
1746729009800127000,8.566126953125,-0.11216273636817932,0.002066394477896392,0.01743208671826869
1746729009810144000,8.57614404296875,-0.10213701691627503,-0.006098883130680769,0.007985208333935588
1746729009820162000,8.586162109375,-0.11425707829892634,-0.002735169718088582,0.009172609753906727
1746729009830179800,8.596179931640625,-0.10752221708595752,-0.0054453602585475885,0.00771214527990669
1746729009840197000,8.606197021484375,-0.12188742704689502,0.0008757233886048197,0.01925840709628537
1746729009850215000,8.61621484375,-0.10661737720072269,-0.007514567748038097,0.01161368276309222
1746729009860232000,8.62623193359375,-0.10587269631326197,-0.007546597720962017,0.01287738255597651
1746729009870250000,8.63625,-0.10991291161477565,-0.0024371731522027404,0.008107537805661558
1746729009880267000,8.64626708984375,-0.11574877816140651,-0.0010427048528101294,0.005119096579402685
1746729009890285000,8.65628515625,-0.09898878201842308,0.0017307875816710292,0.004285294370073825
1746729009900301800,8.6663017578125,-0.10916472359597683,-0.007929897950123995,0.018224460938666014
1746729009910320000,8.676320068359376,-0.10063654922544955,0.009475419492227957,0.004417140588816255
1746729009920338000,8.686337890625,-0.10871639530658721,-0.005312719455361366,-0.000627575580123812
1746729009930355200,8.696355224609375,-0.11574819363951683,-0.0007399133807979523,0.00896422770023346
1746729009940373000,8.706373046875,-0.10796411563456058,-0.006379919428611174,0.006658818568382412
1746729009950389800,8.7163896484375,-0.11334756223857402,-0.003761818485241383,0.005115625980682671
1746729009960408000,8.726407958984375,-0.10840659870505333,0.0006196936677675694,0.003104450555052608
1746729009970424800,8.7364248046875,-0.12217618086040019,-0.010711153565952553,0.01392276342306286
1746729009980443000,8.74644287109375,-0.11888824523091315,0.00010613638875074685,0.000605656009260565
1746729009990461000,8.7564609375,-0.09793605809509753,-0.005117635274678468,0.008810297513846307
1746729010000478000,8.76647802734375,-0.10631401033997535,-0.00634181590792723,0.019937785928882658
1746729010010496000,8.77649609375,-0.10122983894348143,-0.0074765646920539434,0.010990947754867374
1746729010020513000,8.786512939453125,-0.0998854385972023,0.0018422759989742189,0.01159174492591992
1746729010030530800,8.79653076171875,-0.10048574257791042,-0.00541971436063759,0.009008468700759113
1746729010040548000,8.806548095703125,-0.1139542959600687,-0.0013768230448476968,0.004618745841830968
1746729010050566000,8.81656591796875,-0.09988894572854042,-0.0028531426751054823,-0.0014613595231436193
1746729010060583000,8.8265830078125,-0.10318038848936557,0.0016957162682898342,0.0155071282713674
1746729010070601000,8.83660107421875,-0.10078326421976089,-0.003208230589935556,0.011065766556747257
1746729010080619000,8.846618896484374,-0.10063538018167019,-0.0033968484972137954,0.012181363115832209
1746729010090636000,8.856635986328126,-0.10243103142678738,-0.006096809904603287,0.0026073329541832207
1746729010100653800,8.86665380859375,-0.10138123011291027,-0.005975950870756059,0.012865363324619829
1746729010110671000,8.876671142578125,-0.10766308686137199,-0.007383863173611462,0.009290975436568259
1746729010120689000,8.88668896484375,-0.11274959634542464,-0.003300210589170456,0.011617208160739391
1746729010130706200,8.8967060546875,-0.1067652612388134,-0.0016429814340546726,0.0070835102538578205
1746729010140724000,8.906723876953125,-0.11005670399963854,-0.0000225040927529335,0.0032065226900391277
1746729010150740700,8.91674072265625,-0.10377367820739745,-0.002312596924463287,0.008339940055739134
1746729010160759000,8.926759033203124,-0.10451952813863753,-0.005694649711344391,0.020060718188807367
1746729010170777000,8.936777099609374,-0.10840893679261207,-0.011933169641578568,0.009433982370141893
1746729010180794000,8.946794189453126,-0.11708850233256816,-0.005835126761114224,0.01357921068239957
1746729010190812000,8.95681201171875,-0.0988309611082077,0.005122704175440594,0.011739354969374834
1746729010200829000,8.966828857421875,-0.09763561384379864,-0.005326327855605632,0.010546455390378831
1746729010210847000,8.976846923828125,-0.10616846438944338,-0.006888846198283135,0.012087182026356459
1746729010220864000,8.986864013671875,-0.1006347956597805,-0.0008848382768221199,0.007999839647486805
1746729010230882000,8.996882080078125,-0.09974047716856002,0.002864221191545948,0.0041049511007964605
1746729010240899000,9.006899169921875,-0.10931962189674377,-0.005173584979306907,0.005505703010503202
1746729010250916900,9.016916748046874,-0.10064297896623611,-0.0030900293040554967,0.01056912387991324
1746729010260935200,9.02693505859375,-0.10348200178444385,-0.005343991376459598,-0.000557542551215738
1746729010270952000,9.036951904296876,-0.1103682541668415,-0.010046323848515748,0.02090160772604868
1746729010280970000,9.046969970703126,-0.10109130725562572,-0.006399245183588936,0.004368369543645531
1746729010290987000,9.056987060546875,-0.10468494783341883,0.0031764106795657424,0.010260733784176409
1746729010301004800,9.0670048828125,-0.11725626011490821,0.006669878818513825,0.008044665169902146
1746729010311022000,9.07702197265625,-0.09780337162613868,0.0038837552313227205,0.010091752159129828
1746729010321040000,9.087039794921875,-0.10438859523534774,-0.009481684836233035,0.02280983423385769
1746729010331057200,9.09705712890625,-0.10783026012182235,-0.002324999748310074,0.003474434644915163
1746729010341075000,9.107074951171874,-0.10632979243099688,-0.006058678984455764,0.0029880211011506616
1746729010351093000,9.117093017578124,-0.11246434966325759,-0.001641072604758665,0.009561919598747044
1746729010361110000,9.127110107421874,-0.1221890403419733,0.00021383454692550002,0.00615647680312395
1746729010371128000,9.137128173828126,-0.1088736316949129,-0.004190583557635546,0.007143716008495539
1746729010381145000,9.14714501953125,-0.10722995614111423,-0.01291815295778215,0.01464294919008389
1746729010391163000,9.157162841796875,-0.11007423965632915,-0.0031191366675309834,0.0014026150732301176
1746729010401180000,9.167179931640625,-0.11336451337337493,-0.000006539338640868663,0.0014468195411376655
1746729010411198000,9.177197998046875,-0.10573474914729594,0.0009386508232913911,0.008210541522409767
1746729010421215000,9.187215087890625,-0.110969727191329,-0.004635980104422196,0.01600691275335848
1746729010431233000,9.19723291015625,-0.10857669457495212,-0.0015687288877554238,0.012018774698954075
1746729010441251000,9.2072509765625,-0.10049626397192478,-0.004402545807883143,0.00454449329553172
1746729010451267800,9.217267822265624,-0.11186930637955665,-0.0006807762052398175,0.004810450755339116
1746729010461286100,9.2272861328125,-0.11410919426083564,-0.0010693919303361326,0.007970102096349
1746729010471303000,9.237302978515626,-0.10363456199765204,-0.006928045697510242,0.007591770303249359
1746729010481321200,9.2473212890625,-0.09600129064023494,-0.0026561496651265767,0.017196834923978895
1746729010491338000,9.257337890625,-0.1015367129355669,-0.0018800872587133198,0.007247870502714067
1746729010501355800,9.267355712890625,-0.1048304937839508,-0.008702097032172606,0.0064480253619141874
1746729010511373000,9.277373046875,-0.10962123519182204,0.0002507872901391238,0.006343085416406393
1746729010521390800,9.287390869140625,-0.10737842470109463,0.0011698931627441196,0.014203078201785683
1746729010531409200,9.2974091796875,-0.10483692352473735,-0.007528541474463418,0.016176734628621486
1746729010541426000,9.307426025390624,-0.10663374381363391,-0.010324848528951406,0.012709917034581302
1746729010551444000,9.31744384765625,-0.11187047542333602,-0.0020823135662358253,0.005695142901688814
1746729010561461000,9.3274609375,-0.10618366195857525,-0.0026089586556889113,0.008535919285565614
1746729010571479000,9.33747900390625,-0.10393675981462001,-0.0016406981454230845,0.008452095193322748
1746729010581496000,9.34749609375,-0.10288871206641197,-0.003890038841636851,0.011021616887766867
1746729010591513900,9.357513916015625,-0.11440963851213455,-0.00499039216581732,0.012920618909504264
1746729010601531100,9.36753125,-0.10722644900977611,-0.0027262009603437037,0.013243110595829784
1746729010611549000,9.377548828125,-0.11605565215349196,0.005795114411134272,0.009319343014527111
1746729010621567000,9.38756689453125,-0.09974690690934658,0.004259685004781931,0.01034837553501129
1746729010631584000,9.397583984375,-0.10289221919775009,-0.004262525415839627,0.014341609889641404
1746729010641602000,9.40760205078125,-0.10738426991999149,0.003968291709618643,0.010105579755082725
1746729010651619000,9.417619140625,-0.1031961705803871,-0.0029385650693904606,0.01254288990460336
1746729010661637000,9.42763720703125,-0.11202771181166171,-0.0033301947354804724,0.009145740013290196
1746729010671654000,9.43765380859375,-0.10529928033947944,-0.00241030341158621,0.007425784352887421
1746729010681672200,9.447672119140625,-0.11337561928927897,-0.00857386754262261,0.01912493517603725
1746729010691690000,9.45768994140625,-0.10320026223361492,-0.008974950023647397,0.011516451200004666
1746729010701707000,9.46770703125,-0.10544599533379077,-0.007734612840041517,-0.0029443280898965893
1746729010711725000,9.47772509765625,-0.10604746835827827,-0.007712254877761006,0.0044223464868962765
1746729010721741800,9.487741943359374,-0.10724807631969452,0.00037585670822300014,0.004413048935588449
1746729010731760000,9.497760009765624,-0.09976794969737529,-0.010996281517110764,0.0031357042098417876
1746729010741777000,9.50777685546875,-0.10710194584727287,-0.003562058129440993,0.01028714686706662
1746729010751795000,9.517794921875,-0.10336509740650653,-0.008873654206795617,0.006485087702982127
1746729010761812000,9.52781201171875,-0.11428688891530037,-0.004838809200143441,0.011344346036110073
1746729010771830000,9.537830078125,-0.10201660540699958,-0.0072585562935099,0.006328435836546123
1746729010781848000,9.54784814453125,-0.10859773736298084,0.006571405146410688,0.0015334018460474907
1746729010791864800,9.55786474609375,-0.10380874952077865,-0.008700443931203335,0.009053056761156766
1746729010801883000,9.5678828125,-0.10919394969046116,-0.005052844676468521,0.012516604685876518
1746729010811900000,9.57789990234375,-0.10770049626231193,-0.002108005129918456,0.009456066337786614
1746729010821918000,9.58791796875,-0.09722761756479739,0.0021445377480238674,0.005730597807560116
1746729010831935000,9.59793505859375,-0.10874912853240966,0.00039836993413046,0.011469689448829739
1746729010841953000,9.607953125,-0.10980068341195583,-0.0021543193565215914,0.010300755267310887
1746729010851970000,9.617969970703125,-0.10052724363207817,-0.008970630041556432,0.0043265762285329395
1746729010861988000,9.627988037109375,-0.10142623829841613,-0.011228994294442235,-0.0003731258950196206
1746729010872006000,9.638005859375,-0.11264964310228824,-0.0015268990400247274,0.0016775047581642866
1746729010882023200,9.648023193359375,-0.12252981660366058,0.0016706548922695219,0.0027322927744127807
1746729010892041000,9.658041015625,-0.10113047022223472,-0.0022919833946973083,0.012094652946759014
1746729010902058000,9.66805810546875,-0.10202654227912425,-0.005241435184283182,0.015785616419184953
1746729010912076000,9.678075927734374,-0.09873334595263003,-0.005210629054065793,0.0029778285006992517
1746729010922092800,9.6880927734375,-0.11130173562467098,-0.003256353181134909,0.015598825142811983
1746729010932111000,9.698111083984376,-0.11085282281339168,0.0004410674315411597,0.011991503099538385
1746729010942127900,9.7081279296875,-0.10067863480150699,-0.0055568212763872,0.002298285271320492
1746729010952146200,9.718146240234375,-0.10576689785122871,-0.00340254758563824,0.0024335290235467256
1746729010962164000,9.7281640625,-0.10472235723435878,-0.0028338991185184567,0.015545889379177242
1746729010972181000,9.738180908203125,-0.10083119501471519,-0.011200617583328857,0.005847721381206065
1746729010982199000,9.748198974609375,-0.09873451499640941,0.0069352426232770084,0.003241539204493165
1746729010992215800,9.7582158203125,-0.10666589251756667,-0.0038312487259507177,0.0020364011984318493
1746729011002233900,9.76823388671875,-0.1006780502796173,0.0002678206233307719,0.014208247567247598
1746729011012251000,9.7782509765625,-0.10995616623461246,-0.005701179916830733,0.008789492187835276
1746729011022269000,9.78826904296875,-0.1153437044918537,0.0034035978984087705,0.008993928718753158
1746729011032286000,9.798285888671876,-0.1017237599402666,0.0018028755703475324,0.003825750566925853
1746729011042304000,9.808303955078125,-0.10291969172656536,-0.0014634601486846804,-0.001425667155254632
1746729011052321800,9.81832177734375,-0.10097264931201934,0.0071462915580719705,0.010134330925531685
1746729011062339000,9.828339111328125,-0.1117407115638256,0.001628806778229773,0.004572879139799624
1746729011072356900,9.83835693359375,-0.0975239701628685,-0.0016273089408874511,0.003895290405489504
1746729011082374100,9.8483740234375,-0.11219079341888427,-0.007656743564549833,0.005786163919698446
1746729011092392000,9.858391845703125,-0.11249299123585224,-0.0005164616221562027,0.00990165468081832
1746729011102409000,9.868408935546874,-0.10560849241912364,-0.005024541030591354,0.014585318985022603
1746729011112427000,9.878427001953124,-0.09947393518686294,-0.00850875728400424,0.01042215315727517
1746729011122444000,9.888444091796876,-0.10366437261402606,-0.0014190730176866053,0.015064572135638445
1746729011132462000,9.898462158203126,-0.11264496692717074,0.0023325620002578942,0.01079157099155709
1746729011142480000,9.90847998046875,-0.09932488210499286,0.004515787790855393,0.008899254438932984
1746729011152497200,9.9184970703125,-0.10680676229298114,0.007120481263380498,0.009680486210808158
1746729011162515000,9.928514892578125,-0.10306348411142825,-0.008445957713481039,0.0127804432538338
1746729011172532000,9.938531982421875,-0.10351356596648692,-0.009120048449607565,0.0030446831918321546
1746729011182550000,9.948550048828125,-0.10605798975229262,0.01113089508167468,0.005296864299103617
1746729011192566800,9.95856689453125,-0.11608312468230723,0.0007168886982370168,0.004956307233124971
1746729011202585000,9.968585205078124,-0.11159575013518333,0.0024563071109354497,0.0013366188986226916
1746729011212601900,9.978601806640626,-0.11010405027270316,-0.004631587057095021,0.010023235233873128
1746729011222620000,9.988619873046876,-0.10726210484504699,-0.003029284693300724,0.014576131031569092
1746729011232638000,9.998637939453126,-0.10756021100878715,-0.006797916511818766,0.011397884587943554
1746729011242655000,10.008655029296875,-0.10037702150642872,0.00018310148194432258,0.009592387802246957
1746729011252673000,10.018673095703125,-0.10427110633552074,0.0067868379953783,0.0048185244639404115
1746729011262690000,10.02868994140625,-0.10501754078865051,-0.011435540584055706,0.0064735251293517645
1746729011272707800,10.038707763671875,-0.11115092897713184,0.003910195713676512,0.0062409036835655565
1746729011282725000,10.04872509765625,-0.12087620417773723,-0.0014300419362727552,0.01207483400143683
1746729011292743000,10.058742919921874,-0.1101028812289238,-0.002612283123936504,0.005016549520380794
1746729011302760000,10.068760009765626,-0.11518939071297644,0.0026647622298449276,0.0008168510745279491
1746729011312778000,10.078778076171876,-0.10695990702807903,0.0010220730567350983,0.006489964807499199
1746729011322795800,10.088795654296876,-0.11159808822274207,-0.004239948257850483,0.0110569439294748
1746729011332813000,10.09881298828125,-0.11099953780770301,-0.0008926379907876253,0.008090623203478753
1746729011342830800,10.108830810546875,-0.11069733999073504,-0.00008754128613509237,0.015211250597331673
1746729011352848100,10.11884814453125,-0.09647942954599857,-0.006737847754498943,-0.002520403589401394
1746729011362866000,10.128865966796875,-0.1081505781173706,-0.0005897460540756583,0.005434062546398491
1746729011372883200,10.13888330078125,-0.10575871454477309,0.00047401071991771455,0.0078112034738995135
1746729011382901000,10.14890087890625,-0.12146890937387943,-0.0011336710718926042,0.009856957022566348
1746729011392917800,10.158917724609376,-0.10935177060067652,0.003908670476870611,0.006084069154039025
1746729011402936000,10.16893603515625,-0.11967734978199004,0.004273795728525147,0.008556541948486119
1746729011412954000,10.1789541015625,-0.10531447790861129,-0.0017622695653233677,0.010235836804937571
1746729011422971100,10.18897119140625,-0.11354513063728809,0.0031149536827579137,0.01742187585150823
1746729011432989000,10.198989013671875,-0.11084931568205356,-0.005818248691549524,0.014713731137663125
1746729011443006000,10.209005859375,-0.10860650519132614,0.002763144570402801,0.010551149831805377
1746729011453024000,10.21902392578125,-0.1041156235128641,0.007297463531792164,0.012954649043269454
1746729011463041000,10.229041015625,-0.10067103601694107,-0.005702641221554949,0.00867969340411946
1746729011473058800,10.239058837890624,-0.11054536429941654,-0.0028696371521800754,0.005698467369936407
1746729011483076000,10.249076171875,-0.10710194584727287,-0.003815877626882866,0.012269278861302881
1746729011493094000,10.259093994140626,-0.10754793604910373,0.002277014154428616,0.005111716990545392
1746729011503112200,10.2691123046875,-0.11098784736990928,0.0025090784777887162,0.006940466787666082
1746729011513129000,10.27912890625,-0.10171148498058319,-0.0012938118033576757,0.011134941069129854
1746729011523146800,10.289146728515625,-0.1081505781173706,-0.003907757161417976,0.008871836709044872
1746729011533164000,10.2991640625,-0.11024667361378669,-0.008806781249353662,0.008390391601342707
1746729011543181800,10.309181884765625,-0.10650631804168224,-0.002465011007199064,0.008683547595329582
1746729011553199000,10.31919921875,-0.11324001021087168,-0.0025320209619589147,0.010676438445597887
1746729011563217000,10.329216796875,-0.1117448032170534,-0.008067470656754448,0.004342467917408794
1746729011573234200,10.339234130859374,-0.10545943933725356,0.006514998784055933,0.006037581397499889
1746729011583252000,10.349251953125,-0.10471125131845474,0.004095799679961055,0.00820462323827669
1746729011593270000,10.35927001953125,-0.10201485184133052,-0.006083329368522391,0.011923077505826949
1746729011603287000,10.369287109375,-0.11368483136892318,-0.008105163185484706,0.017040219590160995
1746729011613305000,10.37930517578125,-0.10770224982798099,-0.002602081390330568,0.011359762800950557
1746729011623322000,10.389322021484375,-0.10261866295337677,-0.003390318291727453,0.009136131934728472
1746729011633340000,10.39933984375,-0.10336860453784465,0.003938417161162943,0.009060619013104588
1746729011643357000,10.40935693359375,-0.12626140434741973,0.00022462993557564913,0.004810797815211117
1746729011653375000,10.419375,-0.10770575695931911,0.003749497859785333,0.006680665074009448
1746729011663392000,10.42939208984375,-0.11054887143075466,-0.003791291174897924,0.009279358064010739
1746729011673410000,10.43941015625,-0.1033621747970581,-0.0061746152480132875,0.00241107972972095
1746729011683427000,10.449427001953126,-0.10455810658335685,0.003644265653332695,0.013368636671639978
1746729011693444900,10.45944482421875,-0.10186521423757075,-0.000438720210827887,0.01264023106554523
1746729011703463200,10.469463134765626,-0.10425649328827857,-0.00587482858384028,0.01625851289425045
1746729011713480000,10.47947998046875,-0.09318214156627655,-0.006825681301578879,0.006867291953600942
1746729011723498000,10.489498046875,-0.11068740311861038,-0.0033434286763891576,0.003772175482474267
1746729011733515000,10.499514892578125,-0.10709551610648631,-0.01059444098426029,0.006469396943505853
1746729011743532800,10.50953271484375,-0.10634382095634937,-0.0015238485664129256,0.006955445161089301
1746729011753550000,10.519550048828124,-0.09751461781263351,-0.002757664677686989,0.009660192341450602
1746729011763567900,10.52956787109375,-0.1011053357809782,-0.005119598902901634,0.015699289842601865
1746729011773584600,10.539584716796876,-0.10813654959201813,-0.006032759091909975,0.00034883170397952194
1746729011783602400,10.5496025390625,-0.10559271032810211,0.001036558239813894,0.014132351053133606
1746729011793620500,10.559620361328125,-0.11681494608819484,0.0012005622956436127,0.006312745077069849
1746729011803637500,10.569637451171875,-0.10753683013319969,-0.004916879405034705,0.007833269175235181
1746729011813655600,10.579655517578125,-0.1034971993535757,-0.0016299392893910406,0.015898100350331516
1746729011823672600,10.589672607421875,-0.10529460416436194,-0.0025693024987354872,0.008306622308027
1746729011833690400,10.5996904296875,-0.09212707955539226,-0.006371279464429244,0.008477868955396116
1746729011843707600,10.609707763671874,-0.10978782393038272,0.009961038451548665,0.008854556780681014
1746729011853725400,10.619725341796874,-0.10200783757865428,0.0001318644850514829,0.004041493943147361
1746729011863742500,10.629742431640626,-0.11293605882823467,0.002581595724727958,0.007685129408817738
1746729011873760500,10.639760498046876,-0.10635083521902561,-0.0059172886192332946,0.007360610162187367
1746729011883778600,10.649778564453126,-0.10889642804861067,-0.003742355732945725,0.000686173899564892
1746729011893795600,10.659795654296875,-0.10904723469614983,-0.0014626655642408877,0.007154858457017689
1746729011903813600,10.669813720703125,-0.09812310509979724,-0.008051405437942593,0.00470348324952647
1746729011913830400,10.679830322265625,-0.10949088681042193,0.0009126030665822327,0.012610913639515638
1746729011923848700,10.6898486328125,-0.09721826521456241,-0.007236189198074862,0.004604808648023754
1746729011933865500,10.699865478515624,-0.09961012878715991,0.0009870017433539033,0.002462663786485791
1746729011943883500,10.709883544921874,-0.1032008467555046,-0.009242158725624904,0.00815230852914974
1746729011953900500,10.719900634765626,-0.10948562611341475,-0.010687069437466562,0.012516696017421782
1746729011963918300,10.72991845703125,-0.0975152023345232,-0.007176750628417357,0.002053133137524128
1746729011973936600,10.7399365234375,-0.11277648435235023,-0.0002892378706950694,0.0060196804146282375
1746729011983953400,10.749953369140625,-0.10304945558607578,-0.0010757303395774215,0.01379840639103204
1746729011993971700,10.7599716796875,-0.10244915160536766,-0.009187816456193104,0.011698529768642038
1746729012003988500,10.769988525390625,-0.10514613560438156,-0.0018208039526827632,0.010951182000059633
1746729012014006500,10.780006591796875,-0.1012573114722967,0.0006593772241845727,0.01392396899946034
1746729012024023600,10.7900234375,-0.11337561928927897,-0.0034916506411973385,0.010452621360775082
1746729012034041300,10.800041259765624,-0.1025999582529068,0.00043138628774322564,0.008685575155634433
1746729012044058600,10.81005859375,-0.10873217739760875,-0.0017781155884265898,0.009185085642989725
1746729012054076400,10.820076416015626,-0.104542909014225,-0.002078925165906548,0.0034130963791161773
1746729012064094500,10.830094482421876,-0.10768997486829757,-0.0005082783157005906,0.009530848607048392
1746729012074111500,10.840111572265625,-0.10364917504489421,-0.001640999539522454,0.007488583923410624
1746729012084129500,10.850129638671875,-0.11098317119479179,-0.0035859139290638268,0.00561889932770282
1746729012094146600,10.860146484375,-0.10948913324475287,-0.007267040994064882,0.012960914387274532
1746729012104164600,10.87016455078125,-0.10604746835827827,-0.006304689634777605,0.011410981531534343
1746729012114181600,10.880181640625,-0.1103857898235321,-0.005074946910422295,0.011113606020156293
1746729012124199700,10.89019970703125,-0.11397650779187679,-0.0012356062095612286,0.012010372196789831
1746729012134216400,10.900216552734374,-0.10709025540947914,-0.005528444565273821,-0.0004966061442159116
1746729012144234500,10.910234375,-0.11277589983046055,-0.008783656102092936,0.016098226032312958
1746729012154252500,10.92025244140625,-0.10125380434095858,-0.0023832418747246264,0.011732066712062806
1746729012164269600,10.93026953125,-0.10903145260512828,-0.0015396032579708843,0.007218352147284895
1746729012174287600,10.94028759765625,-0.10768237608373164,-0.006311457302281632,0.00905435366909951
1746729012184304400,10.950304443359375,-0.1085778636187315,-0.013602618957450612,0.007622603832930326
1746729012194322700,10.96032275390625,-0.10483867709040641,-0.01692894123541191,0.003621332302317023
1746729012204339500,10.97033935546875,-0.10334230105280875,-0.0036328857427928595,-0.003261942671705037
1746729012214357500,10.980357421875,-0.10379004482030868,-0.0022765026977751403,0.014748217929154634
1746729012224374500,10.99037451171875,-0.11471125180721282,-0.005188782548438757,0.006454199374374002
1746729012234392300,11.000392333984376,-0.10797755963802337,-0.0027745153477881103,0.00526718154689297
1746729012244410600,11.01041064453125,-0.10049451040625572,-0.0024458496490027755,0.0009916231195442379
1746729012254427400,11.020427490234376,-0.10648059907853603,-0.008785190472053363,0.00937942090500146
1746729012264445400,11.030445556640625,-0.11530863317847251,-0.001224874752992764,0.006016885669343173
1746729012274462500,11.04046240234375,-0.10812602819800377,-0.00787626806674525,0.006338902431633323
1746729012284480500,11.05048046875,-0.11725450654923915,-0.005356576863396912,0.00854163664029911
1746729012294497500,11.06049755859375,-0.11426058543026446,-0.004579427611595019,0.006675568773783743
1746729012304515600,11.070515625,-0.10632862338721752,-0.007834337754314765,0.0032916619565337897
1746729012314532600,11.08053271484375,-0.11515958009660243,-0.006468310098117217,0.004558412223029881
1746729012324550700,11.090550537109374,-0.10917407594621181,-0.009861596665065735,0.00525138118956238
1746729012334568400,11.100568359375,-0.10124211390316486,-0.0015001206309534609,0.002748915115650743
1746729012344585500,11.11058544921875,-0.10962240423560142,0.00355272404551506,0.008238032317534089
1746729012354603500,11.120603515625,-0.1214437749326229,-0.011778390071820468,0.010456018894258887
1746729012364620500,11.13062060546875,-0.1012403603374958,-0.0008505250152666122,0.012812500626221298
1746729012374638600,11.140638671875,-0.11380407383441925,-0.009720991751132533,0.010640271153673529
1746729012384655400,11.1506552734375,-0.1238315468519926,-0.009895900793466717,0.0019417451849207282
1746729012394673700,11.160673583984375,-0.10946925950050353,0.00043972485782578583,0.006997676867619157
1746729012404690400,11.1706904296875,-0.11455343089699745,-0.010175329656200483,0.005422006782423705
1746729012414708700,11.180708740234374,-0.11170680929422377,0.0008594115746207535,0.019336258105468004
1746729012424726500,11.1907265625,-0.10601941130757331,-0.004959010646864772,0.016025160796102136
1746729012434743300,11.200743408203126,-0.11754092227518557,-0.00752467815009877,0.0036138431156054135
1746729012444761600,11.21076171875,-0.11125906552672385,-0.0015440876368433237,0.011190415849722921
1746729012454778400,11.2207783203125,-0.10946516784727572,-0.00485273726079613,0.004001362862158566
1746729012464796400,11.23079638671875,-0.1153004498720169,-0.0008498034960590302,-0.002112041984219104
1746729012474813400,11.2408134765625,-0.10661971528828143,-0.008203116267779842,-0.0041561880976893
1746729012484831500,11.25083154296875,-0.09973404742777348,-0.0061801225401926785,0.009073021836951375
1746729012494848500,11.2608486328125,-0.10931026954650878,0.00394811657126993,0.01356814129911363
1746729012504866600,11.270866455078124,-0.1067652612388134,-0.005880591604346409,0.01783792757280171
1746729012514883600,11.280883544921876,-0.10826163727641105,-0.010424171584425494,0.006966459745448082
1746729012524901600,11.290901611328126,-0.11215104593038558,-0.0008140745955519378,0.0071796093057841055
1746729012534919400,11.30091943359375,-0.11185118620097637,-0.005734662061324343,0.0015395393258891999
1746729012544936400,11.3109365234375,-0.09927870487570763,-0.003930727045051753,0.009592369535937905
1746729012554954500,11.32095458984375,-0.11423720455467701,-0.009735431268438696,0.016866141664888708
1746729012564971500,11.330971435546875,-0.10825403849184513,-0.006475141697702929,0.015950634255167098
1746729012574989600,11.340989501953125,-0.10421440771222114,-0.005380195201002061,0.012348609441518783
1746729012585006600,11.351006591796875,-0.08954641541242599,-0.006250265166955068,0.003765252551343292
1746729012595024600,11.361024658203124,-0.11797639108300208,-0.0056830780045595015,0.004833100978564471
1746729012605042400,11.37104248046875,-0.10780278759300709,-0.004968152934545651,0.010502871976979076
1746729012615059700,11.381059814453126,-0.10451309839785099,-0.0014878000054974107,0.01610173316365108
1746729012625077500,11.391077392578126,-0.10496434929668903,-0.008316915373178198,0.004293879535328597
1746729012635094500,11.401094482421875,-0.10945698454082012,0.00599671053099446,0.008598262198362499
1746729012645112600,11.411112548828125,-0.11289572681784629,0.0018646796270273625,0.01616648722924292
1746729012655129300,11.42112939453125,-0.09478840771913528,-0.009631532502546905,0.019281587042473257
1746729012665147600,11.431147705078125,-0.1088560960382223,-0.014145228801015763,0.012389416375942527
1746729012675164400,11.441164306640625,-0.11170388668477535,-0.009139127609413116,0.012589980449341237
1746729012685182500,11.451182373046874,-0.10706687453389167,0.0048122499867808075,0.003851031138654798
1746729012695199500,11.461199462890624,-0.10647066220641135,-0.00033178010447882115,0.009027593526337295
1746729012705217500,11.471217529296876,-0.10931553024351597,-0.008499012208124622,0.012279964652098714
1746729012715235600,11.481235595703126,-0.11305354772806167,-0.009559608910651878,0.010908055244386195
1746729012725252600,11.491252685546876,-0.10168167436420916,-0.003881124882819131,0.005768463866226375
1746729012735270400,11.5012705078125,-0.10527473042011261,-0.0027386494499631224,0.004247190849389881
1746729012745287400,11.511287353515625,-0.10662380694150925,-0.00741436790972948,0.003989361897110939
1746729012755305500,11.521305419921875,-0.11949264086484908,-0.00074347531106323,0.009860098827723414
1746729012765322500,11.531322509765625,-0.09480302076637745,-0.0023171726348809895,0.009573810965940356
1746729012775340300,11.54134033203125,-0.11979366963803767,-0.009425506802741438,0.014335673339199275
1746729012785357600,11.551357666015624,-0.10603285531103611,0.004222540465323254,0.005281630197353661
1746729012795375400,11.561375244140624,-0.12174480370581149,-0.006087357089668512,0.005434975861851126
1746729012805393400,11.571393310546876,-0.10289631085097789,-0.004962188984639943,0.01104938167752698
1746729012815410400,11.581410400390626,-0.1160626664161682,-0.004737047592410818,0.017505590345896778
1746729012825428500,11.591428466796875,-0.10005144281387328,-0.0018208404853008687,0.0097638171127066
1746729012835445500,11.601445556640625,-0.11366963379979132,0.00039306357135064895,0.010086856788303702
1746729012845463300,11.61146337890625,-0.09705869073867797,-0.0014574413998518138,0.00023724282197654247
1746729012855480300,11.621480224609375,-0.10873159287571907,-0.004880273721693083,-0.0038601825594902035
1746729012865498400,11.631498291015625,-0.10798282033503055,-0.0012969444753602147,0.01442010021964088
1746729012875515400,11.641515380859374,-0.1138192714035511,-0.000878965658461675,0.013328980514686554
1746729012885533400,11.651533447265624,-0.11022972247898578,-0.008857187129184603,0.010680329169426113
1746729012895551500,11.661551513671874,-0.11696809082329272,-0.004549781392002478,0.008139741308521478
1746729012905568300,11.671568359375,-0.11502397101819514,-0.001836668242095038,0.006092690851911902
1746729012915586600,11.681586669921876,-0.1223544600367546,0.003564003491355106,0.013413389128819108
1746729012925603300,11.691603271484375,-0.09586860417127609,-0.002455494260182604,0.014305771391279995
1746729012935621400,11.701621337890625,-0.10948737967908381,-0.009505367105919867,0.011457779815327375
1746729012945638400,11.711638427734375,-0.11083645620048045,-0.0006467917372472584,0.004039776910096406
1746729012955656200,11.72165625,-0.10694938563406467,-0.006188862969074398,0.010691489884257315
1746729012965673500,11.731673583984374,-0.10814473289847373,-0.007553922510892153,0.0037857473501004277
1746729012975691300,11.741691162109374,-0.10859423023164272,0.0003815283971838653,0.012005476825963705
1746729012985709300,11.751709228515624,-0.10350304457247257,-0.005079349090903997,0.010019070515409111
1746729012995726300,11.761726318359376,-0.11412556087374687,-0.0034520218837074935,0.003720226099528372
1746729013005744400,11.771744384765626,-0.09736731829643248,-0.005742717503616586,0.002022829330805689
1746729013015761400,11.781761474609375,-0.11173545086681842,-0.003020005408301949,0.004135894228331744
1746729013025779500,11.791779541015625,-0.12205927648246287,-0.0003989179234020412,0.01005936599317938
1746729013035796500,11.80179638671875,-0.10709551610648631,-0.005163702906109392,0.0118812293917872
1746729013045814500,11.811814453125,-0.11756897932589054,-0.0020221900099888445,0.007814199148584156
1746729013055831600,11.82183154296875,-0.10694412493705749,-0.0019127108866814522,0.0058607817921787495
1746729013065849300,11.831849365234374,-0.11861644255220889,-0.005603756557498127,0.009247538153640926
1746729013075866400,11.841866455078126,-0.10320318484306334,-0.006090982952015474,0.0068477652692236005
1746729013085884400,11.851884521484376,-0.11278057600557803,-0.0025304043936077505,0.015415942856576293
1746729013095902500,11.86190234375,-0.10245675038993358,-0.0021494605183135715,0.006647073331661522
1746729013105919500,11.87191943359375,-0.11368073971569538,-0.0021343999464996156,0.008101564722601325
1746729013115937500,11.8819375,-0.10888999830782413,-0.008680551920644939,0.005604194948915391
