time,seconds_elapsed,z,y,x
1746576092027109600,0.029109619140625,0.0011664147023111582,-0.00030509382486343384,-0.0008955949451774359
1746576092037125600,0.039125732421875,0.0008556237444281578,-0.0007285368628799915,-0.0008343423251062632
1746576092047140600,0.049140625,0.001462910557165742,-0.0016315735410898924,0.003108818084001541
1746576092057156600,0.059156494140625,0.001254384871572256,-0.00008321180939674377,-0.0003780587576329708
1746576092067172900,0.0691728515625,0.0004374450072646141,-0.000044838059693574905,-0.0006321771070361137
1746576092077187800,0.079187744140625,-0.00044805603101849556,-0.0012893332168459892,0.0012416231911629438
1746576092087203800,0.089203857421875,-0.0006967238150537014,0.0006840992718935013,-0.002084085950627923
1746576092097219600,0.099219482421875,0.002045267028734088,0.00010885670781135559,-0.0010867321398109198
1746576092107234800,0.10923486328125,0.0017755290027707815,-0.000037227291613817215,-0.001810294110327959
1746576092117250600,0.11925048828125,-0.0016066855750977993,0.0009614578448235989,0.00003554276190698147
1746576092127265800,0.129265869140625,-0.0006669326685369015,0.0006563114002346992,-0.0003816962707787752
1746576092137281500,0.139281494140625,0.0008468078449368477,0.0007252874784171581,-0.0015564162749797106
1746576092147297500,0.149297607421875,0.0006836862303316593,0.0013559479266405106,0.0006129206158220768
1746576092157312500,0.1593125,-0.000901427585631609,0.0001292959786951542,0.00019800011068582535
1746576092167328500,0.16932861328125,0.0021279293578118086,-0.0006598029285669327,-0.0014233880210667849
1746576092177343500,0.179343505859375,-0.0016380464658141136,-0.0005825716070830822,-0.0024407159071415663
1746576092187359500,0.189359375,0.0008790758438408375,-0.0008147037588059902,-0.0004140082746744156
1746576092197375700,0.199375732421875,0.0010878676548600197,0.00009583123028278351,-0.00018550874665379524
1746576092207390700,0.209390625,-0.001709097996354103,-0.000265294685959816,0.0012275406625121832
1746576092217406700,0.21940673828125,-0.0001777801662683487,0.0005810577422380447,0.0017460582312196493
1746576092227422700,0.229422607421875,0.0015105281490832567,0.0018218657933175564,0.0007198704406619072
1746576092237437700,0.239437744140625,0.002446096623316407,-0.00018855417147278786,0.0007627473678439856
1746576092247453700,0.24945361328125,0.0009006734471768141,-0.001026321668177843,0.0007656100206077099
1746576092257468700,0.25946875,0.0006681792438030243,-0.00005160504952073097,-0.0006951335817575455
1746576092267484700,0.269484619140625,0.0016180537641048431,-0.0012629451230168343,-0.00013983366079628468
1746576092277500700,0.279500732421875,-0.00005494384095072746,0.00016850372776389122,0.0015065327752381563
1746576092287515600,0.289515625,0.0003148745745420456,-0.0010136142373085022,-0.000338513869792223
1746576092297531600,0.29953173828125,-0.0007570479065179825,0.0010996037162840366,-0.00013877637684345245
1746576092307547600,0.309547607421875,0.0004437030293047428,0.0019217683002352715,0.0005096578970551491
1746576092317562600,0.319562744140625,0.0007185414433479309,0.00023625371977686882,0.00010885205119848251
1746576092327579000,0.329578857421875,-0.000234880018979311,-0.00035291630774736404,0.002824355149641633
1746576092337593300,0.33959326171875,0.0007544844411313534,0.0007088859565556049,0.0013170060701668262
1746576092347609300,0.349609375,0.0016397617291659117,0.001082694623619318,0.0031128053087741137
1746576092357625300,0.359625244140625,0.0014602646697312593,-0.0005018864758312702,-0.0004837936721742153
1746576092367640300,0.369640380859375,0.0019118848722428083,-0.0015984480269253254,0.0019892542622983456
1746576092377656300,0.37965625,-0.0008745808154344559,0.0008719004690647125,-0.0008885576389729977
1746576092387672000,0.389672119140625,0.0007641552947461605,0.000500985886901617,-0.0008851219899952412
1746576092397687300,0.399687255859375,-0.0007120347581803799,-0.002041534287855029,-0.0003471630625426769
1746576092407703300,0.409703369140625,0.0006197718903422356,-0.00009297719225287437,0.0027727812994271517
1746576092417718500,0.419718505859375,0.0006794268265366554,0.0002436465583741665,-0.0011047811713069677
1746576092427734300,0.429734375,-0.0005093193612992764,0.0019530304707586765,0.0004228560719639063
1746576092437750300,0.439750244140625,0.0005420967936515808,0.00018415926024317741,-0.0013265744782984257
1746576092447765200,0.44976513671875,0.0020853388123214245,-0.0003214445896446705,-0.0003340470138937235
1746576092457781200,0.45978125,0.0004725283943116665,-0.0014005573466420174,-0.0006589523982256651
1746576092467796200,0.469796142578125,-0.0005104043520987034,0.00203383294865489,0.0018012034706771374
1746576092477812200,0.479812255859375,0.0002685706131160259,0.0019483454525470734,0.0021436859387904406
1746576092487828200,0.489828125,0.00014311913400888443,0.000033818650990724564,-0.0004332794342190027
1746576092497843200,0.49984326171875,-0.0007272018119692802,0.0009337007068097591,-0.0006098470184952021
1746576092507859200,0.509859130859375,-0.0010773129761219025,0.0008904300630092621,0.0007187433075159788
1746576092517875200,0.519875244140625,-0.0013204598799347878,-0.0014307810924947262,-0.0025223237462341785
1746576092527890200,0.52989013671875,-0.0009522321633994579,0.001373165287077427,0.001225435407832265
1746576092537906400,0.539906494140625,0.0017641920130699873,0.0004873978905379772,-0.000657153083011508
1746576092547921200,0.549921142578125,0.00039656180888414383,0.0007696920074522495,0.0018735358025878668
1746576092557937400,0.5599375,0.00009296135976910591,0.0010818145237863064,0.0022740752901881933
1746576092567953400,0.569953369140625,-0.0003297659568488598,0.00008252961561083794,0.0007413113489747047
1746576092577968400,0.579968505859375,-0.00008076010271906853,0.0004591005854308605,0.0005959027912467718
1746576092587984400,0.589984375,-0.0009365170262753963,0.0010495702736079693,-0.00031993212178349495
1746576092598000400,0.60000048828125,0.0021458256524056196,0.00024769222363829613,-0.00015934370458126068
1746576092608015400,0.610015380859375,-0.0008667479269206524,-0.0016443924978375435,0.00014169840142130852
1746576092618031400,0.62003125,-0.001508836168795824,-0.0007037641480565071,-0.0027358471415936947
1746576092628046300,0.63004638671875,0.0017915714997798204,-0.00032721739262342453,-0.0005833918694406748
1746576092638062300,0.640062255859375,-0.0014753281138837337,0.00016307085752487183,-0.0004124168772250414
1746576092648078000,0.650078125,0.00010567577555775642,0.0015702215023338795,0.0006494566332548857
1746576092658093300,0.66009326171875,0.00045907730236649513,-0.0003882674500346184,-0.0007135493215173483
1746576092668109000,0.670109130859375,-0.0003172815777361393,-0.0007011308334767818,-0.0008496807422488928
1746576092678124300,0.680124267578125,-0.0006275400519371033,-0.00031523872166872025,-0.0003154508303850889
1746576092688140300,0.690140380859375,-0.000021096784621477127,-0.0017615058459341526,-0.0017178342677652836
1746576092698156300,0.70015625,-0.0002112463116645813,0.00004092184826731682,0.0019868891686201096
1746576092708171300,0.710171142578125,-0.000016947276890277863,0.0008163140155375004,0.0021442752331495285
1746576092718187300,0.720187255859375,0.0021572571713477373,0.0022123432718217373,-0.0005545725580304861
1746576092728203300,0.730203369140625,0.0009040264412760735,0.0008113267831504345,-0.0017047971487045288
1746576092738218200,0.74021826171875,-0.0006480640731751919,0.0005266349762678146,0.0018230921123176813
1746576092748234200,0.750234130859375,0.0007041427306830883,0.0001582852564752102,0.0035789399407804012
1746576092758249200,0.760249267578125,0.00036645401269197464,-0.0007525156252086163,0.001233227550983429
1746576092768265200,0.77026513671875,-0.0009753704071044922,0.0003714999184012413,-0.0031253029592335224
1746576092778281200,0.78028125,0.002592732897028327,-0.0005877707153558731,-0.0003260546363890171
1746576092788296200,0.790296142578125,0.0009287504944950342,-0.0008750073611736298,0.000926480395719409
1746576092798312200,0.800312255859375,0.0001226118765771389,0.002211064100265503,0.001205579610541463
1746576092808328400,0.810328369140625,0.0006744652055203915,-0.0005902904085814953,0.0004830665420740843
1746576092818343400,0.820343505859375,0.000828396063297987,-0.0008566067554056644,-0.00017207092605531216
1746576092828359400,0.830359375,0.0014408126007765532,-0.000027760397642850876,0.0008520171977579594
1746576092838374400,0.84037451171875,-0.0012433873489499092,0.0000769016332924366,0.0009809143375605345
1746576092848390400,0.850390380859375,-0.0002587549388408661,0.0028650867752730846,-0.0001872482243925333
1746576092858406400,0.860406494140625,0.0017276972066611052,-0.0019088955596089363,-0.002447739476338029
1746576092868421400,0.87042138671875,-0.0006756042130291462,-0.0016826754435896873,-0.0010692060459405184
1746576092878437400,0.880437255859375,-0.001836742740124464,0.0016761035658419132,0.0017015468329191208
1746576092888453000,0.890453125,0.002548482036218047,-0.0008859792724251747,-0.0015742506366223097
1746576092898468400,0.90046826171875,0.0003990447148680687,0.001843228004872799,0.001843916717916727
1746576092908484000,0.910484130859375,-0.00008524535223841667,0.0001478218473494053,0.00020510004833340645
1746576092918499300,0.920499267578125,-0.001104703638702631,0.0005678022280335426,0.0020045978017151356
1746576092928515000,0.93051513671875,0.0014837493654340506,0.0000424371100962162,-0.0015334298368543386
1746576092938531300,0.94053125,0.0008051758632063866,0.0012155594304203987,-0.0008015932980924845
1746576092948546300,0.95054638671875,-0.0013036159798502922,-0.0006776042282581329,0.00008564046584069729
1746576092958562300,0.960562255859375,0.0009030792862176895,0.0012268219143152237,0.0008102867286652327
1746576092968577300,0.970577392578125,0.0015464469324797392,-0.002880726708099246,0.0011639357544481754
1746576092978593300,0.98059326171875,-0.0018485509790480137,-0.0005304869264364243,0.0018667438998818398
1746576092988609300,0.990609375,-0.0002794540487229824,0.0005168258212506771,0.0004561576060950756
1746576092998624300,1.000624267578125,0.0005282824859023094,0.0020252401009202003,-0.0003310730680823326
1746576093008640300,1.01064013671875,0.0006230738945305347,0.0004342854954302311,0.001212661387398839
1746576093018656300,1.02065625,-0.003249695058912039,-0.0015814611688256264,-0.0018078957218676805
1746576093028671200,1.030671142578125,0.001046402147039771,0.0008199801668524742,0.0017733052372932434
1746576093038687200,1.040687255859375,-0.0001757224090397358,0.0008340948261320591,0.0021781057585030794
1746576093048702200,1.0507021484375,-0.0008713863790035248,-0.00033020367845892906,0.0002984281163662672
1746576093058718200,1.06071826171875,0.00037843501195311546,0.0002999003045260906,0.0011386554688215256
1746576093068734500,1.070734375,0.00011842604726552963,-0.0029147041495889425,-0.0013914576265960932
1746576093078749200,1.080749267578125,0.0006033875979483128,0.0019735279493033886,-0.001743527827784419
1746576093088765400,1.090765380859375,-0.0003305557183921337,0.0002720579504966736,0.0015722643584012985
1746576093098781400,1.100781494140625,0.00010194163769483566,0.0019509145058691502,-0.0021005012094974518
1746576093108796400,1.11079638671875,-0.0008886721916496754,0.0010304851457476616,-0.00010541314259171486
1746576093118812400,1.1208125,0.0008714110590517521,-0.00012852251529693604,-0.0017461865209043026
1746576093128827400,1.130827392578125,-0.0008756378665566444,0.0002954644151031971,0.002503313822671771
1746576093138843400,1.140843505859375,0.001786990324035287,0.0009511345997452736,-0.00023787794634699821
1746576093148859100,1.150859130859375,0.002003295114263892,-0.001426513772457838,0.0004230241756886244
1746576093158874400,1.160874267578125,0.0002029980532824993,0.00025474000722169876,0.0009513953700661659
1746576093168890000,1.17089013671875,-0.0003103506751358509,-0.000048323534429073334,0.0010462980717420578
1746576093178906000,1.180906005859375,0.0018678486812859774,-0.0003556525334715843,-0.001645891461521387
1746576093188921000,1.190921142578125,-0.0007780976593494415,0.0018388275057077408,-0.0010778685100376606
1746576093198937000,1.20093701171875,-0.0014074025675654411,-0.0003167353570461273,0.00007927510887384415
1746576093208952000,1.2109521484375,-0.001679624430835247,0.0005467655137181282,0.0005013721529394388
1746576093218968300,1.22096826171875,0.00010708998888731003,-0.00028573861345648766,0.0014025857672095299
1746576093228984300,1.230984375,-0.0014026379212737083,-0.002767199883237481,0.0021782584954053164
1746576093238999300,1.240999267578125,-0.001740859355777502,-0.00020443974062800407,-0.0003339014947414398
1746576093249015300,1.251015380859375,0.0018657415639609098,0.0016292105428874493,0.0013104344252496958
1746576093259030300,1.2610302734375,0.00010033184662461281,-0.0010126451961696148,-0.0012019916903227568
1746576093269046300,1.27104638671875,0.0008794658351689577,-0.0005591721273958683,0.0006620117928832769
1746576093279062300,1.281062255859375,0.0018062458839267492,0.0008477759547531605,-0.0005446665454655886
1746576093289077200,1.2910771484375,-0.002953931223601103,0.0001440439373254776,0.002664389554411173
1746576093299093200,1.30109326171875,0.00028180982917547226,0.00029824068769812584,0.0036867770832031965
1746576093309109200,1.311109130859375,0.002875723410397768,-0.0009485888294875622,0.001420706044882536
1746576093319124200,1.321124267578125,0.0009979286696761847,0.0006634225137531757,0.0029307182412594557
1746576093329140200,1.33114013671875,0.00037120888009667397,0.0004727519117295742,0.0010134873446077108
1746576093339156700,1.34115673828125,-0.0005486467853188515,-0.001540863886475563,-0.00042888056486845016
1746576093349171700,1.351171630859375,0.0019252575002610683,-0.0005515068769454956,0.0013752819504588842
1746576093359187700,1.361187744140625,-0.0009102099575102329,0.0015433356165885925,0.0017116391099989414
1746576093369202700,1.37120263671875,0.00005384255200624466,0.0008627874776721001,0.0016466120723634958
1746576093379219000,1.381218994140625,-0.00238241720944643,-0.002068021334707737,-0.0010445122607052326
1746576093389234700,1.391234619140625,0.0003542443737387657,-0.0010162107646465302,-0.0006405764725059271
1746576093399250000,1.40125,0.000931617571040988,0.000795271247625351,0.0005743575748056173
1746576093409265700,1.411265625,0.0004916591569781303,0.002350275870412588,0.0005163282621651888
1746576093419281700,1.42128173828125,-0.000519277062267065,-0.0004785335622727871,0.0004745165351778269
1746576093429296600,1.431296630859375,0.00017025042325258255,0.001970093697309494,-0.002653500996530056
1746576093439312600,1.441312744140625,-0.0009719794616103172,0.0018909978680312634,-0.0016646692529320717
1746576093449327600,1.45132763671875,0.0006632762961089611,-0.00035031838342547417,-0.0005917949602007866
1746576093459343600,1.461343505859375,0.0005362434312701225,0.0003652726300060749,0.0003251314628869295
1746576093469359600,1.471359619140625,0.0010237745009362698,-0.0016708523035049438,-0.00007619988173246384
1746576093479374600,1.48137451171875,0.0009321616962552071,0.00005487585440278053,0.00011315103620290756
1746576093489390600,1.491390625,0.0005463608540594578,-0.0009952373802661896,0.0028453818522393703
1746576093499405600,1.501405517578125,-0.0001836116425693035,-0.000585110392421484,0.0020743967033922672
1746576093509421800,1.511421875,-0.00012849783524870872,-0.003246511798352003,0.00017265742644667625
1746576093519437800,1.521437744140625,0.0010491518769413233,0.0012414474040269852,-0.000438538147136569
1746576093529452800,1.531452880859375,0.0008832542225718498,-0.00006415043026208878,0.0017420733347535133
1746576093539468800,1.54146875,-0.0008613825775682926,0.0014565144665539265,0.0019700396806001663
1746576093549484800,1.55148486328125,-0.0008277250453829765,0.0012643523514270782,0.000188090605661273
1746576093559499800,1.561499755859375,-0.002094058319926262,-0.002077382057905197,0.0013396416325122118
1746576093569515800,1.571515869140625,0.001205267384648323,0.00025177840143442154,0.0007694950327277184
1746576093579530800,1.58153076171875,0.0008958082180470228,-0.00016021262854337692,0.00010423734784126282
1746576093589546800,1.591546630859375,-0.0011933185160160065,0.0026494082994759083,-0.0004493256565183401
1746576093599562800,1.601562744140625,0.00047994544729590416,-0.001983160153031349,-0.0003593110013753176
1746576093609577700,1.61157763671875,0.00006582634523510933,-0.0007667304016649723,-0.0014398123603314161
1746576093619593700,1.62159375,0.0006056493148207664,0.0014721890911459923,-0.0031319845002144575
1746576093629609700,1.631609619140625,-0.0006689177826046944,-0.002220905851572752,0.00011795060709118843
1746576093639624700,1.641624755859375,-0.0005362927913665771,-0.00023418758064508438,0.0022388920187950134
1746576093649640700,1.651640625,0.0008404124528169632,0.0015140236355364323,0.0014655108097940683
1746576093659656000,1.661656005859375,-0.0002461574040353298,0.00017072539776563644,-0.0002170742955058813
1746576093669671700,1.671671630859375,-0.00017709750682115555,-0.0011315573938190937,-0.00021708616986870766
1746576093679687700,1.681687744140625,0.00002050912007689476,-0.0019054720178246498,-0.001690080389380455
1746576093689702700,1.69170263671875,0.000823992071673274,-0.00008595874533057213,-0.00006421422585844994
1746576093699718700,1.70171875,-0.0006727045401930809,-0.0023312699049711227,0.002065781969577074
1746576093709734700,1.711734619140625,0.00039348332211375237,-0.00002973293885588646,0.0003034460823982954
1746576093719749600,1.72174951171875,-0.0013828449882566929,0.0006387205794453621,0.0021628651302307844
1746576093729765600,1.731765625,-0.0009931344538927078,-0.0018700058571994305,-0.00004841946065425873
1746576093739781600,1.74178173828125,-0.0019050007686018944,-0.0002686469815671444,0.00423074746504426
1746576093749796600,1.751796630859375,0.0007950656581670046,-0.0006266152486205101,0.0029226781334728003
1746576093759812600,1.7618125,0.00009278999641537666,0.0005307947285473347,-0.0016491704154759645
1746576093769827600,1.77182763671875,0.00032303575426340103,-0.0007542413659393787,0.0007904022932052612
1746576093779843800,1.78184375,-0.002367289736866951,-0.0009944583289325237,0.0008846782147884369
1746576093789859800,1.79185986328125,-0.0010621813125908375,-0.000740446150302887,-0.0012742248363792896
1746576093799874800,1.801874755859375,-0.0011844201944768429,0.0006614415906369686,0.0007359292358160019
1746576093809890800,1.811890869140625,0.00007609464228153229,-0.0011625955812633038,-0.000929119298234582
1746576093819906800,1.82190673828125,0.0008649227675050497,-0.0007351585663855076,0.00013721035793423653
1746576093829921800,1.831921875,-0.0019055972807109356,0.001157029066234827,0.0006669508293271065
1746576093839937800,1.841937744140625,-0.0004025092348456383,0.00027339253574609756,-0.0019717093091458082
1746576093849952800,1.851952880859375,-0.0012499173171818256,0.00014819949865341187,-0.0015605892986059189
1746576093859968800,1.86196875,0.0007916619069874287,0.000341012142598629,0.0009121554903686047
1746576093869984500,1.871984619140625,0.0007104505784809589,-0.00034247245639562607,0.0009281961247324944
1746576093879999700,1.881999755859375,-0.0009865155443549156,-0.0015656622126698494,0.000760683324187994
1746576093890015500,1.892015380859375,0.0009733482729643583,-0.0005310336127877235,0.003414984093979001
1746576093900030700,1.90203076171875,0.00034084776416420937,0.00035899505019187927,-0.0006825556047260761
1746576093910046700,1.912046630859375,-0.00041254470124840736,-0.0017572194337844849,0.00037356792017817497
1746576093920062700,1.922062744140625,0.00035124970600008965,-0.0010056756436824799,-0.0017945114523172379
1746576093930077700,1.93207763671875,0.001636505825445056,0.0016639302484691143,-0.0012167154345661402
1746576093940093700,1.94209375,0.0012705875560641289,-0.00006526010110974312,-0.0006478645373135805
1746576093950109700,1.952109619140625,-0.00033533526584506035,0.002305313479155302,0.0016245050355792046
1746576093960124700,1.962124755859375,0.0020098446402698755,0.00007518241181969643,-0.0003651424776762724
1746576093970140700,1.972140625,-0.0005972906947135925,-0.000056162942200899124,0.002055743243545294
1746576093980155600,1.98215576171875,0.0010970125440508127,0.00019417423754930496,-0.002055644989013672
1746576093990171600,1.992171630859375,-0.00015496788546442986,0.0009228913113474846,0.003165612928569317
1746576094000187600,2.002187744140625,0.0004879194311797619,0.0010802838951349258,0.0027112779207527637
1746576094010202600,2.01220263671875,0.000654083676636219,0.0005336683243513107,-0.001167032402008772
1746576094020218600,2.022218505859375,0.0003017471171915531,-0.00014037778601050377,0.0015659031923860312
1746576094030235000,2.03223486328125,0.00039103254675865173,-0.0012582549825310707,0.0006738957017660141
1746576094040249900,2.042249755859375,0.001805970212444663,0.00010262010619044304,0.002226784825325012
1746576094050265900,2.052265869140625,0.0004995935596525669,-0.00048347096890211105,-0.0011452306061983109
1746576094060280800,2.06228076171875,0.0017427571583539248,0.0017392029985785484,-0.00025813188403844833
1746576094070296800,2.072296875,0.0004885033704340458,0.0006194477900862694,-0.0006952523253858089
1746576094080312800,2.082312744140625,0.0016192817129194736,0.0008735135197639465,0.00032047717832028866
1746576094090327800,2.092327880859375,0.001727929338812828,-0.0017766826786100864,-0.002786871511489153
1746576094100343800,2.10234375,-0.00031871022656559944,0.0009682378731667995,-0.004011658951640129
1746576094110359600,2.112359619140625,0.0011495552025735378,-0.002584765199571848,0.0015066813211888075
1746576094120374800,2.122374755859375,-0.0006166528910398483,-0.0007538418285548687,-0.0009783143177628517
1746576094130390500,2.132390625,0.0007124436087906361,-0.0018842020072042942,-0.000557667575776577
1746576094140406500,2.142406494140625,-0.00029183411970734596,0.0014703157357871532,-0.0019872523844242096
1746576094150421500,2.15242138671875,0.000860865693539381,0.0012026173062622547,0.0005788463167846203
1746576094160437800,2.162437744140625,0.0011303776409476995,0.0007690549828112125,0.000509337754920125
1746576094170452500,2.172452392578125,0.0006588571704924107,-0.00033507635816931725,-0.000054939184337854385
1746576094180468700,2.18246875,-0.000540364533662796,0.002729955594986677,0.0006590543780475855
1746576094190484700,2.192484619140625,-0.0006646676920354366,-0.0018894346430897713,0.0020311162807047367
1746576094200499700,2.202499755859375,0.000024025794118642807,0.002017955295741558,0.00016450672410428524
1746576094210515700,2.212515625,0.0009697841014713049,0.0011054780334234238,-0.00009821378625929356
1746576094220531700,2.22253173828125,-0.0016411789692938328,0.001891909632831812,0.00004959176294505596
1746576094230546700,2.232546630859375,0.0000795130617916584,-0.0010846429504454136,0.0006537530571222305
1746576094240562700,2.242562744140625,0.0030140504240989685,0.0007255077362060547,0.000005273381248116493
1746576094250577700,2.25257763671875,-0.00033141160383820534,-0.0011044922284781933,-0.000027055852115154266
1746576094260593700,2.26259375,0.00015621306374669075,-0.0015921168960630894,-0.00001986534334719181
1746576094270609700,2.272609619140625,0.00030700210481882095,0.0015367008745670319,0.001557671930640936
1746576094280624600,2.282624755859375,0.0010971622541546822,0.0004812902770936489,-0.0008857783395797014
1746576094290641000,2.292640869140625,0.002011744538322091,-0.0008721374906599522,-0.00016359193250536919
1746576094300657000,2.302656982421875,-0.0007174629718065262,-0.003005063161253929,0.002879602136090398
1746576094310672000,2.312671875,0.000026157591491937637,0.0007905536331236362,-0.0006948495283722878
1746576094320687900,2.32268798828125,-0.0003466848284006119,-0.0000062640756368637085,0.0019065261585637927
1746576094330702800,2.332702880859375,0.0007175840437412262,-0.0011896071955561638,-0.0026311553083360195
1746576094340718800,2.34271875,0.0005711098201572895,-0.0027944280300289392,0.0009470679797232151
1746576094350734600,2.352734619140625,0.0006383536383509636,-0.00013362569734454155,-0.0001547390129417181
1746576094360749800,2.362749755859375,0.002636789809912443,-0.0021459104027599096,0.001564597710967064
1746576094370765600,2.372765625,0.0018282139208167791,0.0018036370165646076,-0.0021282422821968794
1746576094380781600,2.382781494140625,-0.0003188266418874264,-0.000959126278758049,-0.001993486424908042
1746576094390796500,2.392796630859375,0.0006101159378886223,-0.0018138699233531952,-0.0003382659051567316
1746576094400812500,2.4028125,0.0003493926487863064,0.0006074761040508747,0.0015832048375159502
1746576094410827500,2.41282763671875,-0.0002155001275241375,0.000037569086998701096,-0.000793615123257041
1746576094420843500,2.422843505859375,0.002574161160737276,-0.00020504510030150414,0.0003600663039833307
1746576094430859800,2.43285986328125,-0.000264002475887537,-0.00033709220588207245,0.0011963981669396162
1746576094440874800,2.442874755859375,0.0016907574608922005,0.0004959446378052235,0.000172146363183856
1746576094450890800,2.452890869140625,-0.00016874447464942932,-0.0010404898785054684,-0.0020026357378810644
1746576094460906800,2.46290673828125,0.0009375326335430145,-0.00008414871990680695,0.0014112705830484629
1746576094470921700,2.472921630859375,-0.0029462208040058613,0.0006870711222290993,0.004075672943145037
1746576094480937700,2.482937744140625,0.0011688957456499338,-0.002159315627068281,-0.00003172014839947224
1746576094490953700,2.49295361328125,0.0005895071662962437,0.0017198831774294376,0.00020509283058345318
1746576094500968700,2.50296875,0.0009594203438609838,0.0009504961781203747,0.00024317600764334202
1746576094510984700,2.512984619140625,0.0003093755804002285,0.000818394124507904,-0.0007890937849879265
1746576094520999700,2.522999755859375,0.0005906056612730026,-0.0020279923919588327,-0.0008628633804619312
1746576094531015700,2.533015625,-0.0007733316160738468,-0.000974372960627079,-0.003794118296355009
1746576094541031700,2.54303173828125,0.0008181736338883638,0.0013521648943424225,0.0003601466305553913
1746576094551046700,2.553046630859375,-0.0004674093797802925,-0.001969611272215843,-0.00023699342273175716
1746576094561063000,2.56306298828125,-0.001948659773916006,0.0023628189228475094,0.0026618572883307934
1746576094571078700,2.57307861328125,0.00048670126125216484,-0.0009338455274701118,0.0001601031981408596
1746576094581094000,2.583093994140625,0.0007349075749516487,-0.0008124052546918392,0.0005702299531549215
1746576094591109600,2.593109619140625,0.0013671691995114088,0.0020146560855209827,-0.0012393572833389044
1746576094601124900,2.603124755859375,-0.0005841287784278393,0.0016167801804840565,0.0010653422214090824
1746576094611140600,2.613140625,0.0016157357022166252,-0.0021438440307974815,-0.00008724397048354149
1746576094621156600,2.623156494140625,-0.0010703285224735737,-0.0004277029074728489,-0.00003983965143561363
1746576094631171600,2.633171630859375,-0.0020531155169010162,0.00029368139803409576,0.0029353678692132235
1746576094641187600,2.6431875,-0.0006938381120562553,-0.0002141832374036312,0.0017326842062175274
1746576094651203600,2.65320361328125,-0.0010355920530855656,-0.0007802322506904602,-0.0003770811017602682
1746576094661218600,2.663218505859375,0.0006057140417397022,0.0008171317167580128,-0.00022181891836225986
1746576094671234600,2.673234619140625,0.0002807783894240856,-0.00017556734383106232,0.0014942954294383526
1746576094681249500,2.68324951171875,0.0015332628972828388,0.0011821123771369457,0.0005302310455590487
1746576094691265800,2.693265869140625,-0.0006185593083500862,0.0006042374297976494,-0.0008261541370302439
1746576094701281800,2.70328173828125,0.002238746266812086,0.0005648224614560604,0.0007296646945178509
1746576094711296800,2.713296875,-0.00039614737033843994,-0.002893676282837987,-0.001498054014518857
1746576094721312800,2.723312744140625,-0.0028755501843988895,-0.001992995385080576,0.0007983897812664509
1746576094731328800,2.733328857421875,0.0004008794203400612,-0.00018601864576339722,-0.0004162644036114216
1746576094741343700,2.74334375,0.00007384316995739937,-0.001852092333137989,-0.0022639655508100986
1746576094751359700,2.75335986328125,-0.00008812500163912773,0.00043917493894696236,-0.0033164010383188725
1746576094761375700,2.763375732421875,-0.00045670662075281143,-0.000052444636821746826,0.0007193530909717083
1746576094771390700,2.773390625,0.00022742431610822678,0.0007989760488271713,-0.00007476913742721081
1746576094781406700,2.78340673828125,-0.0005462239496409893,-0.0019025346264243126,0.0003185798414051533
1746576094791421700,2.793421630859375,0.0007386635988950729,-0.00006273342296481133,0.0004422434139996767
1746576094801437700,2.803437744140625,-0.0005303327925503254,-0.0007426384836435318,-0.0031644757837057114
1746576094811453700,2.81345361328125,0.0006193369626998901,-0.0008007124997675419,-0.0000537096057087183
1746576094821469000,2.823468994140625,-0.0002160966396331787,0.00033299531787633896,0.00013803807087242603
1746576094831484700,2.833484619140625,0.0006566955707967281,-0.002114439383149147,0.00018143351189792156
1746576094841500700,2.843500732421875,-0.0005049752071499825,-0.00020921416580677032,-0.001192225143313408
1746576094851515600,2.853515625,-0.0023016054183244705,0.0011278246529400349,0.0008328263647854328
1746576094861531600,2.86353173828125,-0.00040170643478631973,0.0005429945886135101,-0.0006742565892636776
1746576094871546600,2.873546630859375,-0.0018210471607744694,-0.0015739812515676022,0.0030374021735042334
1746576094881562600,2.883562744140625,0.0011302679777145386,-0.001088486984372139,0.0020328578539192677
1746576094891578600,2.89357861328125,-0.002286279574036598,-0.0007217261008918285,0.000584570923820138
1746576094901593600,2.903593505859375,-0.0010947813279926777,0.0008998727425932884,-0.0001733647659420967
1746576094911609600,2.913609619140625,-0.003380168229341507,0.0014102905988693237,-0.00004406832158565521
1746576094921625600,2.92362548828125,0.0019357672426849604,-0.0017290436662733555,0.0006701915990561247
1746576094931640600,2.933640625,-0.0011472292244434357,-0.0019493834115564823,-0.0007710386998951435
1746576094941656800,2.94365673828125,0.0009050027001649141,0.0015907566994428635,-0.00014146743342280388
1746576094951672800,2.9536728515625,-0.0008841864764690399,-0.0018331357277929783,0.0020385710522532463
1746576094961687800,2.963687744140625,0.0005888079758733511,-0.0018653599545359612,0.0007533293683081865
1746576094971703800,2.973703857421875,0.0005407840944826603,-0.0007215160876512527,0.0019578225910663605
1746576094981718800,2.98371875,-0.001497599296271801,-0.00009913509711623192,-0.0008499482646584511
1746576094991734800,2.99373486328125,-0.0008089323528110981,-0.0009151310659945011,0.00026586372405290604
1746576095001750800,3.003750732421875,0.0006368979811668396,-0.0010895682498812675,-0.00003161141648888588
1746576095011765800,3.013765869140625,-0.00019346503540873528,-0.0017456826753914356,0.0017043815460056067
1746576095021781800,3.02378173828125,0.0004169316962361336,0.0006836531683802605,0.0011781409848481417
1746576095031797800,3.0337978515625,0.0015720119699835777,-0.002963821403682232,-0.0006864671595394611
1746576095041812700,3.043812744140625,0.0021611033007502556,0.00024422211572527885,0.00011008419096469879
1746576095051828700,3.053828857421875,-0.00094200624153018,0.001256120391190052,-0.000055110082030296326
1746576095061843700,3.06384375,-0.0014155162498354912,-0.0026233061216771603,0.0003249230794608593
1746576095071859700,3.073859619140625,-0.0001327507197856903,0.0010096244513988495,-0.0007408468518406153
1746576095081875700,3.083875732421875,0.00014288630336523056,0.0009925803169608116,-0.0020351430866867304
1746576095091890700,3.093890625,0.0005904100835323334,-0.000550480093806982,0.0010312844533473253
1746576095101906700,3.10390673828125,0.0006588534452021122,0.0008950838819146156,0.001697607571259141
1746576095111922700,3.113922607421875,0.00012115202844142914,-0.0003292015753686428,-0.00025033392012119293
1746576095121937700,3.123937744140625,-0.001428807619959116,-0.001250654924660921,0.000957143260166049
1746576095131953700,3.13395361328125,0.0017955442890524864,-0.0005403058603405952,0.0004528739955276251
1746576095141968600,3.14396875,-0.002076958306133747,0.0008179061114788055,0.0017500997055321932
1746576095151984600,3.153984619140625,-0.0014998377300798893,-0.0010428400710225105,0.0007672712672501802
1746576095162000600,3.164000732421875,-0.0009323181584477425,-0.003026362508535385,-0.0010495372116565704
1746576095172015600,3.174015625,-0.0000015390105545520782,-0.00031957728788256645,-0.0007740941364318132
1746576095182031600,3.184031494140625,-0.001361881848424673,0.00027803611010313034,-0.0010422745253890753
1746576095192047600,3.194047607421875,0.0003653010353446007,-0.0009402194991707802,-0.0010036954190582037
1746576095202062600,3.2040625,-0.0001995554193854332,-0.0004741661250591278,0.0025553531013429165
1746576095212078800,3.214078857421875,0.0002909526228904724,-0.0017034928314387798,-0.0014564944431185722
1746576095222094800,3.2240947265625,-0.001696564257144928,0.0009644618257880211,-0.0009502274915575981
1746576095232109800,3.23410986328125,-0.00035319477319717407,0.00035632215440273285,-0.0011414194013923407
1746576095242125800,3.244125732421875,-0.0002077864482998848,-0.0002785753458738327,-0.0010543342214077711
1746576095252140800,3.254140869140625,0.00012184539809823036,-0.0010220743715763092,-0.0019144418183714151
1746576095262156800,3.26415673828125,-0.0013016141019761562,-0.0015214174054563046,0.00005576480180025101
1746576095272172800,3.2741728515625,0.0013972728047519922,0.0009530065581202507,0.000357605516910553
1746576095282187800,3.284187744140625,0.0010294902604073286,-0.0005247811786830425,-0.0009116572327911854
1746576095292203800,3.294203857421875,0.00018791761249303818,0.002660212107002735,-0.003136120270937681
1746576095302219500,3.304219482421875,0.0010025787632912397,0.0009155753068625927,-0.0017475481145083904
1746576095312234800,3.31423486328125,0.0006396004464477301,-0.0014766599051654339,-0.0029858958441764116
1746576095322250500,3.32425048828125,0.0012523937039077282,0.00013428600504994392,-0.0015989213716238737
1746576095332266200,3.334266357421875,0.00045891525223851204,-0.0008452548645436764,-0.0010542417876422405
1746576095342281200,3.34428125,0.0003768894821405411,-0.0018143793568015099,-0.00023212400265038013
1746576095352297200,3.354297119140625,-0.0025076274760067463,-0.0011721421033143997,0.000023465603590011597
1746576095362312200,3.364312255859375,-0.0032431925646960735,0.0004366738721728325,0.002062381710857153
1746576095372328200,3.374328125,-0.0008809939026832581,-0.001693258062005043,-0.00044884602539241314
1746576095382344200,3.38434423828125,-0.0007875170558691025,0.0002907966263592243,-0.0011814816389232874
1746576095392359200,3.394359130859375,0.0003740135580301285,0.0008918722160160542,-0.0006340588442981243
1746576095402375200,3.404375244140625,-0.000567413866519928,-0.0010815304704010487,-0.0005491040647029877
1746576095412391200,3.41439111328125,-0.0015884344466030598,-0.0009993594139814377,0.0022247927263379097
1746576095422406100,3.42440625,-0.000525833573192358,-0.001181253232061863,0.00011929753236472607
1746576095432422400,3.43442236328125,0.0013891947455704212,0.000983179546892643,-0.0007649271283298731
1746576095442437400,3.444437255859375,-0.0000385260209441185,-0.0010650577023625374,0.0030383330304175615
1746576095452453400,3.454453369140625,0.0008820975199341774,-0.000860714353621006,0.001685028662905097
1746576095462469400,3.464469482421875,0.0004472034052014351,-0.00028600404039025307,-0.0001932987943291664
1746576095472484400,3.474484375,0.0008192614186555147,0.0008834423497319221,-0.0008446280844509602
1746576095482500400,3.484500244140625,0.000013122335076332092,0.001162008848041296,0.0007106577977538109
1746576095492516400,3.494516357421875,0.000522893387824297,-0.0002065044827759266,-0.00026899343356490135
1746576095502531300,3.50453125,0.001659264089539647,-0.00042195431888103485,0.0008551268838346004
1746576095512547300,3.51454736328125,-0.0011579487472772598,-0.0025695518124848604,0.000615718774497509
1746576095522563300,3.524563232421875,-0.001643975730985403,0.000660063698887825,0.0031012468971312046
1746576095532578300,3.534578369140625,0.0017448137514293194,-0.0009880880825221539,-0.00028023216873407364
1746576095542594300,3.54459423828125,0.0005935293156653643,0.003155524842441082,0.0002734388690441847
1746576095552609300,3.554609375,0.0012474390678107738,-0.0019505792297422886,-0.002085689688101411
1746576095562625500,3.56462548828125,-0.0011001373641192913,-0.0007039536722004414,0.000858434708788991
1746576095572641300,3.574641357421875,0.00022887904196977615,-0.00183014920912683,0.0006166929379105568
1746576095582656300,3.58465625,0.0001662946306169033,-0.003034164197742939,-0.0021189062390476465
1746576095592672300,3.59467236328125,-0.00024681538343429565,0.000002008862793445587,-0.00038283620961010456
1746576095602688300,3.604688232421875,0.0018120745662599802,-0.0005894792266190052,0.000115174800157547
1746576095612703200,3.614703125,-0.0006963685154914856,-0.00008489703759551048,-0.0003679008223116398
1746576095622719200,3.62471923828125,0.002855223137885332,0.0021031564101576805,0.00007365131750702858
1746576095632735200,3.6347353515625,-0.0004915148019790649,0.00028683245182037354,-0.0011487407609820366
1746576095642750200,3.644750244140625,0.0015852181240916252,0.0007608751766383648,-0.001362592913210392
1746576095652766200,3.65476611328125,-0.0019633988849818707,-0.0006113266572356224,0.0006753990892320871
1746576095662781200,3.66478125,0.0017455853521823883,0.0011471589095890522,0.0012128250673413277
1746576095672797200,3.674797119140625,-0.001069017220288515,0.0008674715645611286,-0.0007656652014702559
1746576095682813400,3.6848134765625,0.0010777569841593504,-0.0001397361047565937,-0.00045593944378197193
1746576095692828200,3.694828125,-0.0010761148296296597,0.000330568291246891,-0.0011945886071771383
1746576095702844400,3.704844482421875,-0.000504068098962307,0.0010853083804249763,-0.0002249313984066248
1746576095712860400,3.7148603515625,-0.0015862714499235153,-0.0002983692102134228,-0.0006808741018176079
1746576095722875400,3.72487548828125,0.0015282954555004835,0.0008209575898945332,-0.0025858329609036446
1746576095732891400,3.734891357421875,-0.0017633084207773209,-0.000757239293307066,-0.0007886309176683426
1746576095742907400,3.744907470703125,-0.001444794237613678,-0.0028238522354513407,0.0030617674347013235
1746576095752922400,3.75492236328125,-0.0019851652905344963,-0.00013054581359028816,-0.0003873810637742281
1746576095762938400,3.7649384765625,0.0007709402125328779,0.0005174013786017895,0.00018386682495474815
1746576095772953300,3.774953369140625,-0.0006305328570306301,0.001478839199990034,-0.0013795848935842514
1746576095782969300,3.78496923828125,-0.0010869987308979034,0.0014026728458702564,-0.0005750437267124653
1746576095792985000,3.794985107421875,0.0011010561138391495,-0.0005587814375758171,0.001579741481691599
1746576095803000300,3.805000244140625,-0.0008678189478814602,-0.00041257403790950775,-0.0009707678109407425
1746576095813016000,3.81501611328125,-0.00015785032883286476,0.0005883919075131416,0.001132147153839469
1746576095823032300,3.8250322265625,0.00023549888283014297,-0.002322709420695901,-0.00027986103668808937
1746576095833047300,3.83504736328125,0.00005212193354964256,0.0010054991580545902,0.0008793126326054335
1746576095843063300,3.845063232421875,0.00001430511474609375,0.0020369417034089565,0.0025102326180785894
1746576095853079300,3.855079345703125,-0.0024254037998616695,-0.0010011130943894386,0.0007454634178429842
1746576095863094300,3.86509423828125,-0.0002509327605366707,0.000981610268354416,-0.0028644511476159096
1746576095873110300,3.8751103515625,0.0005664946511387825,-0.0005769841372966766,0.0007204720750451088
1746576095883125200,3.885125244140625,-0.0005395160987973213,-0.0000858972780406475,-0.001298470189794898
1746576095893141200,3.895141357421875,0.0018400626722723246,-0.0001776604913175106,-0.0015747812576591969
1746576095903157200,3.9051572265625,-0.0014345603995025158,-0.0009997785091400146,-0.0022219293750822544
1746576095913172200,3.915172119140625,-0.00032254355028271675,-0.0005757911130785942,-0.0004500846844166517
1746576095923188200,3.925188232421875,-0.0005678203888237476,0.0014324989169836044,-0.0005598065908998251
1746576095933204500,3.93520458984375,0.00046016136184334755,-0.00027750851586461067,0.0014568660408258438
1746576095943219200,3.94521923828125,0.00021861260756850243,-0.00006339000537991524,0.00002621603198349476
1746576095953235500,3.9552353515625,0.0005611935630440712,-0.0015909653156995773,-0.0019720839336514473
1746576095963250400,3.96525048828125,0.002068276284262538,0.000977387186139822,-0.0009544901549816132
1746576095973266400,3.975266357421875,0.0004236060194671154,-0.002750564133748412,-0.0028655638452619314
1746576095983282400,3.985282470703125,-0.00100757647305727,-0.000823501031845808,-0.001151287229731679
1746576095993297400,3.99529736328125,0.001012271735817194,0.00009723333641886711,-0.0006637959741055965
1746576096003313400,4.0053134765625,-0.0022969720885157585,0.00009270571172237396,0.0002699082251638174
1746576096013329200,4.0153291015625,-0.0006557423621416092,-0.0006891475059092045,-0.0001318568829447031
1746576096023344400,4.025344482421875,0.0011432226747274399,0.00021739257499575615,-0.000708963954821229
1746576096033360100,4.035360107421875,-0.0007886653766036034,0.001129563432186842,-0.001892792759463191
1746576096043376000,4.045376220703125,-0.0005393936298787594,0.0005255583673715591,-0.0019090382847934961
1746576096053391000,4.05539111328125,-0.00237339548766613,-0.0006569931283593178,0.0007016777526587248
1746576096063407000,4.065406982421875,-0.0012886901386082172,-0.002109214663505554,-0.001557481475174427
1746576096073423400,4.07542333984375,-0.0009371195919811726,-0.0019052359275519848,-0.0016670948825776577
1746576096083438300,4.085438232421875,0.0003097723238170147,-0.000024245120584964752,-0.00018637720495462418
1746576096093454300,4.095454345703125,0.0012246386613696814,-0.00018949154764413834,-0.0024091436062008142
1746576096103469300,4.10546923828125,-0.0010944418609142303,0.0010954835452139378,0.0019509837729856372
1746576096113485300,4.1154853515625,-0.00239458866417408,-0.0009401654824614525,0.0002671857364475727
1746576096123501300,4.125501220703125,0.00010319054126739502,0.0019248630851507187,-0.002179992850869894
1746576096133516300,4.135516357421875,-0.0005094865337014198,0.0021833484061062336,-0.002372956369072199
1746576096143532300,4.1455322265625,-0.00213454756885767,-0.00027128681540489197,0.0001285509206354618
1746576096153548300,4.15554833984375,0.0012022163718938828,-0.00007026316598057747,0.000049688853323459625
1746576096163563300,4.165563232421875,0.0024919852148741484,-0.0008998378179967403,-0.0017418197821825743
1746576096173579300,4.175579345703125,-0.0005019013769924641,-0.00007359916344285011,0.0009573453571647406
1746576096183594200,4.18559423828125,0.0005026431754231453,-0.002461921889334917,0.0015200714115053415
1746576096193610200,4.1956103515625,-0.0010637212544679642,-0.00018381979316473007,-0.000866434071213007
1746576096203626500,4.20562646484375,0.00046999333426356316,0.0006734519265592098,0.0014188243076205254
1746576096213641500,4.215641357421875,0.0012140108738094568,0.0004684426821768284,0.00019458215683698654
1746576096223657500,4.225657470703125,0.0007913673762232065,-0.0005717882886528969,-0.0010211507324129343
1746576096233673200,4.235673095703125,0.0015730832237750292,0.0016631404869258404,0.0018354033818468451
1746576096243688400,4.2456884765625,0.0006012958474457264,0.0025347936898469925,0.0014758766628801823
1746576096253704200,4.2557041015625,0.00025055091828107834,0.000906024593859911,0.0007187945302575827
1746576096263720200,4.26572021484375,-0.0006546573713421822,-0.0008061216212809086,-0.00017922348342835903
1746576096273735200,4.275735107421875,-0.00015436066314578056,0.0008705463260412216,0.0009657172486186028
1746576096283751200,4.285751220703125,0.00037640752270817757,0.00018318463116884232,0.00016410578973591328
1746576096293766100,4.29576611328125,-0.002193475142121315,-0.00018837535753846169,0.001309236278757453
1746576096303782100,4.3057822265625,0.0005138944834470749,-0.002377494005486369,-0.002185629913583398
1746576096313798100,4.315798095703125,0.0022055087611079216,0.0019277851097285748,0.0008285546209663153
1746576096323813000,4.325813232421875,-0.0009085256606340408,0.0006393478251993656,-0.0037504846695810556
1746576096333830000,4.335829833984375,0.0014127816539257765,-0.00005040271207690239,0.0014480231329798698
1746576096343846000,4.345845947265625,-0.00037792790681123734,0.0021317917853593826,0.00304325670003891
1746576096353860900,4.35586083984375,-0.0004596281796693802,-0.00040088361129164696,-0.001239595003426075
1746576096363876900,4.365876953125,-0.0006958507001399994,-0.0005023498088121414,-0.000007350463420152664
1746576096373893000,4.37589306640625,0.0016312573570758104,-0.000925031490623951,-0.0008304859511554241
1746576096383908000,4.385908203125,-0.0019584172405302525,-0.0001985211856663227,0.0004385104402899742
1746576096393924000,4.395924072265625,0.0018323545809835196,-0.0008521056734025478,0.001158474013209343
1746576096403939000,4.40593896484375,-0.00018658768385648727,0.0009673661552369595,-0.0032530524767935276
1746576096413955000,4.415955078125,0.001170516712591052,0.0002709571272134781,0.0026888076681643724
1746576096423970800,4.425970703125,0.0015236518811434507,-0.0005317195318639278,0.0008459002710878849
1746576096433986000,4.435986083984375,0.001154016936197877,-0.0012538833543658257,0.0002038071397691965
1746576096444001800,4.446001708984375,-0.0005304324440658092,0.000671848189085722,0.00025041261687874794
1746576096454017800,4.456017822265625,-0.0020854827016592026,-0.0003591100685298443,0.0016006340738385916
1746576096464032800,4.46603271484375,-0.0005650841630995274,0.001122139859944582,-0.0023514970671385527
1746576096474048800,4.476048828125,0.0025230753235518932,-0.0008652554824948311,-0.0004474229644984007
1746576096484064800,4.486064697265625,-0.0001073288731276989,-0.0008756420575082302,0.0004950698930770159
1746576096494079700,4.496079833984375,-0.002292617689818144,0.00003910483792424202,-0.0007523717358708382
1746576096504096000,4.506095947265625,-0.0010041804052889347,0.002340075559914112,-0.002442946657538414
1746576096514112000,4.516112060546875,0.0006052160169929266,0.001341294962912798,-0.0005103838630020618
1746576096524127000,4.526126953125,0.0003096051514148712,0.002200963906943798,-0.0007998691871762276
1746576096534143000,4.53614306640625,0.0006754766218364239,0.0016407961957156658,0.000938402721658349
1746576096544158000,4.546157958984375,-0.002020707819610834,0.0006793946959078312,0.0014369464479386806
1746576096554174000,4.556174072265625,0.0007034570444375277,-0.00029531214386224747,-0.0007711416110396385
1746576096564190000,4.56618994140625,0.0018339690286666155,-0.0008814739994704723,-0.0019344105385243893
1746576096574205000,4.576204833984375,0.000258070882409811,-0.002505587413907051,0.0006569987162947655
1746576096584221000,4.586220947265625,0.000802953727543354,-0.00018810434266924858,0.0003704424016177654
1746576096594237000,4.59623681640625,0.002505986485630274,0.000157815869897604,0.0003012667875736952
1746576096604252000,4.606251953125,-0.000979558564722538,0.0021549202501773834,-0.00045933201909065247
1746576096614268000,4.616267822265625,0.0008399432990700006,-0.0008343197405338287,0.0007755744736641645
1746576096624284000,4.626283935546875,-0.0009907134808599949,0.0019404278136789799,0.0005425477866083384
1746576096634299000,4.636298828125,0.0006622732616961002,-0.00041661784052848816,-0.0003417045809328556
1746576096644315000,4.64631494140625,0.0003706570714712143,-0.00014710566028952599,0.0007342125754803419
1746576096654330000,4.656330078125,0.0027177641168236732,-0.00046071363613009453,-0.00003170245327055454
1746576096664345900,4.666345947265625,-0.0008205119520425797,0.00032704975455999374,0.0013731149956583977
1746576096674361900,4.67636181640625,-0.0012819799594581127,-0.0007754643447697163,-0.0005871749017387629
1746576096684376800,4.686376953125,0.000943357590585947,0.0008562547154724598,0.0002623733598738909
1746576096694392800,4.696392822265625,0.0012362503912299871,0.00030916277319192886,-0.00034032133407890797
1746576096704408800,4.706408935546875,-0.000441540963947773,-0.0005038999952375889,-0.0010220909025520086
1746576096714423800,4.716423828125,-0.00006077298894524574,-0.0009998325258493423,-0.001626322977244854
1746576096724439800,4.726439697265625,-0.0005372124724090099,-0.0002509518526494503,-0.0036463304422795773
1746576096734455800,4.736455810546875,-0.00036073802039027214,0.0007786559872329235,0.00028638821095228195
1746576096744470800,4.746470703125,-0.0023165633901953697,-0.001417652703821659,-0.002120310440659523
1746576096754487000,4.756487060546875,0.00016411067917943,0.000995543785393238,-0.0007994468323886395
1746576096764501800,4.766501708984375,-0.00024255411699414253,-0.000560008455067873,0.0004604947753250599
1746576096774518000,4.77651806640625,-0.0001566247083246708,0.0009085922501981258,-0.0010290073696523905
1746576096784534000,4.786533935546875,-0.0002106870524585247,-0.0013561598025262356,-0.0010577694047242403
1746576096794549000,4.796549072265625,0.0017398633062839508,-0.0006942693144083023,-0.00025911396369338036
1746576096804565000,4.80656494140625,-0.0003006504848599434,0.0010748687200248241,0.0016240072436630726
1746576096814581000,4.8165810546875,0.0005338522605597973,0.0016579730436205864,0.0014350214041769505
1746576096824596000,4.826595947265625,0.0005602175369858742,-0.0016355584375560284,0.000021681655198335648
1746576096834612000,4.836612060546875,-0.000273633748292923,-0.002156591974198818,-0.0005123219452798367
1746576096844628000,4.8466279296875,-0.001311201136559248,-0.0015035849064588547,-0.0006036683917045593
1746576096854643000,4.856642822265625,0.002025407738983631,0.000021570827811956406,0.0029689068906009197
1746576096864659000,4.866658935546875,0.0012387100141495466,0.0021513006649911404,-0.0006372793577611446
1746576096874674000,4.876673828125,-0.0013124644756317139,-0.0004700068384408951,-0.0012286670971661806
1746576096884690000,4.88668994140625,-0.0010828999802470207,-0.002383488230407238,-0.0000677953939884901
1746576096894706000,4.896705810546875,-0.0011480310931801796,0.001939995214343071,-0.00021182280033826828
1746576096904721000,4.906720947265625,-0.0008545508608222008,0.000030508730560541153,0.0017341491766273975
1746576096914737000,4.91673681640625,-0.00009823078289628029,0.0005223513580858707,-0.00013408134691417217
1746576096924753000,4.9267529296875,0.00015343818813562393,-0.00032559875398874283,-0.0010462140198796988
1746576096934767900,4.936767822265625,-0.0019014682620763779,-0.0009050769731402397,0.005350565072149038
1746576096944784000,4.946783935546875,-0.0030753896571695805,0.0000017294660210609436,0.0009891060180962086
1746576096954799900,4.9567998046875,9.629875421524048e-7,0.0018204804509878159,-0.0001553678885102272
1746576096964814800,4.96681494140625,0.001001778757199645,-0.00039313919842243195,-0.0007569757290184498
1746576096974830800,4.976830810546875,-0.002119609620422125,-0.0005710730329155922,0.0019460790790617466
1746576096984845800,4.986845703125,-0.001509745605289936,-0.0015689595602452755,0.0014731017872691154
1746576096994861800,4.99686181640625,-0.0007174154743552208,0.0009858454577624798,0.0005636026617139578
1746576097004877800,5.0068779296875,0.002228307072073221,-0.0015169931575655937,0.0012586875818669796
1746576097014892800,5.016892822265625,0.00020972313359379768,0.0011057378724217415,0.0016714923549443483
1746576097024909000,5.026908935546875,-0.0006214496679604053,-0.0005835047923028469,0.0003423087764531374
1746576097034925000,5.036925048828125,-0.0022068708203732967,-0.0014754789881408215,0.0006652020383626223
1746576097044940000,5.04693994140625,0.0005034282803535461,0.0002244166098535061,-0.00032576010562479496
1746576097054956000,5.0569560546875,0.0006169916596263647,-0.0017647398635745049,-0.0005950243212282658
1746576097064972000,5.066971923828125,-0.0002493346109986305,-0.0014659333974123001,-0.00017371214926242828
1746576097074987000,5.076987060546875,-0.001119083259254694,-0.000318876001983881,-0.0003138009924441576
1746576097085003000,5.0870029296875,-0.0007630186155438423,-0.0030976184643805027,-0.0018829351756721735
1746576097095018800,5.097018798828125,0.00003361143171787262,0.00004987558349967003,-0.001192326657474041
1746576097105034000,5.107033935546875,-0.00033896462991833687,-0.0009496090933680534,-0.00041628116741776466
1746576097115049700,5.1170498046875,-0.0021417317911982536,-0.001944283489137888,-0.0003128643147647381
1746576097125065000,5.12706494140625,0.000368297565728426,0.0008911839686334133,0.0008365558460354805
1746576097135080700,5.137080810546875,-0.000784390140324831,0.000769052654504776,-0.0002519981935620308
1746576097145097000,5.147096923828125,0.0003711553290486336,0.00006837490946054459,0.0008862367831170559
1746576097155112000,5.15711181640625,0.001662474125623703,0.0009265542030334473,0.00006499188020825386
1746576097165128000,5.1671279296875,0.0009495459962636232,0.0008085761219263077,-0.00025032623670995235
1746576097175144000,5.17714404296875,-0.002194490283727646,-0.0024655188899487257,0.0026115605141967535
1746576097185159000,5.187158935546875,-0.0015052640810608864,-0.002778972964733839,-0.0002920837141573429
1746576097195175000,5.1971748046875,0.0007292169611901045,0.00005173170939087868,0.0004705903120338917
1746576097205191000,5.20719091796875,-0.00006680190563201904,0.0017295232973992825,0.000055936165153980255
1746576097215206000,5.217205810546875,0.0009599376935511827,-0.0008633253164589405,0.001190617447718978
1746576097225222000,5.227221923828125,-0.000531432218849659,0.0014991648495197296,0.0014113935176283121
1746576097235236900,5.23723681640625,0.00042536528781056404,-0.0019474816508591175,-0.002779742470011115
1746576097245252900,5.2472529296875,0.0010402891784906387,-0.0006116400472819805,0.0015127405058592558
1746576097255268900,5.257268798828125,0.0008126802276819944,0.002084127627313137,0.0003251249436289072
1746576097265283800,5.267283935546875,0.0028420090675354004,0.0005293739959597588,-0.00036490033380687237
1746576097275300000,5.277300048828125,-0.001437752041965723,-0.0006946627981960773,0.0004654547665268183
1746576097285316000,5.287316162109375,-0.0015679802745580673,0.00189126655459404,-0.0013966273982077837
1746576097295331000,5.2973310546875,-0.00035562552511692047,0.0011632023379206657,0.00027974555268883705
1746576097305347000,5.30734716796875,0.0028188624419271946,-0.0005598627030849457,0.0005902701523154974
1746576097315362800,5.31736279296875,-0.0004231501370668411,-0.0011728373356163502,0.0010437194723635912
1746576097325378000,5.3273779296875,-0.0006921291351318359,-0.0016058674082159996,-0.001598668983206153
1746576097335393800,5.337393798828125,0.0012474630493670702,0.0022627972066402435,0.0018574533751234412
1746576097345409800,5.347409912109375,0.0006149625405669212,0.00001349160447716713,0.0016454658471047878
1746576097355424800,5.3574248046875,0.0004912172444164753,0.0009148083627223969,-0.001327733276411891
1746576097365440800,5.367440673828125,-0.0005261106416583061,-0.0014095986261963844,0.00024006981402635574
1746576097375455700,5.377455810546875,-0.0015817871317267418,-0.00037150830030441284,0.0018900897121056914
1746576097385471700,5.3874716796875,-0.00016312114894390106,0.00034754490479826927,-0.0009096916764974594
1746576097395488000,5.397488037109375,0.0005235909484326839,0.000055233482271432877,0.0018401759443804622
1746576097405503000,5.4075029296875,-0.0010338257998228073,-0.0007724766619503498,-0.0005904911085963249
1746576097415519000,5.41751904296875,-0.0010868641547858715,-0.0031935791485011578,0.0008646941278129816
1746576097425535000,5.427534912109375,0.0018982731271535158,-0.0011501354165375233,-0.004378537181764841
1746576097435550000,5.437550048828125,0.0011830779258161783,-0.00009085657075047493,0.002711252309381962
1746576097445566000,5.44756591796875,-0.0004497058689594269,0.0009605595842003822,-0.002620129846036434
1746576097455582000,5.45758203125,-0.0014368738047778606,-0.00027008866891264915,-0.001113301608711481
1746576097465597000,5.467596923828125,0.00042627379298210144,0.0031518074683845043,0.000049967085942626
1746576097475613000,5.477613037109375,-0.001167268492281437,-0.0012494949623942375,0.0035151562187820673
1746576097485629000,5.48762890625,-0.0013323845341801643,-0.00047185178846120834,-0.0004918361082673073
1746576097495644000,5.497643798828125,-0.00008330075070261955,0.00046871788799762726,0.00033587124198675156
1746576097505660000,5.507659912109375,0.00044640200212597847,-0.000500938855111599,-0.0009158146567642689
1746576097515675000,5.5176748046875,-0.003133172169327736,-0.0027419649995863438,-0.0013254168443381786
1746576097525691100,5.527691162109375,0.00017980020493268967,-0.0006417962722480297,0.0008226889185607433
1746576097535707000,5.537706787109375,-0.00049225939437747,-0.001974712358787656,-0.001214226009324193
1746576097545722000,5.54772216796875,0.0011133602820336819,-0.0006796172820031643,-0.000980667071416974
1746576097555737900,5.55773779296875,-0.0003547142259776592,-0.0015406645834445953,-0.00030524865724146366
1746576097565753900,5.56775390625,-0.0022796466946601868,-0.001647191122174263,-0.0008647788781672716
1746576097575768800,5.577768798828125,0.0005045733414590359,-0.0009861607104539871,-0.0009082946926355362
1746576097585784800,5.587784912109375,-0.0006291340105235577,0.0017731403931975365,-0.0002803211100399494
1746576097595800800,5.59780078125,-0.0008246833458542824,-0.0007097297348082066,0.0005431654863059521
1746576097605815800,5.60781591796875,-0.001188737340271473,-0.00015739025548100471,0.0007551531307399273
1746576097615831800,5.617831787109375,-0.0007265605963766575,0.0005792677402496338,0.0008890954777598381
1746576097625846800,5.6278466796875,-0.000014697667211294174,0.0012157629244029522,0.0009886976331472397
1746576097635862800,5.63786279296875,0.002076439093798399,0.0005922829732298851,0.0002824803814291954
1746576097645879000,5.647879150390625,-0.0003086882643401623,0.00143437460064888,0.0005525248125195503
1746576097655893800,5.657893798828125,-0.0011336724273860455,-0.0012723659165203571,-0.00023094401694834232
1746576097665910000,5.667909912109375,0.0003166850656270981,0.002150328829884529,-0.002122054575011134
1746576097675926000,5.677926025390625,0.00005219457671046257,0.0005329297855496407,-0.001138819381594658
1746576097685941000,5.68794091796875,-0.001696437131613493,-0.0011113057844340801,-0.0012738420628011227
1746576097695957000,5.69795703125,0.00019910838454961777,-0.001067363191395998,-0.0007595247589051723
1746576097705973000,5.707972900390625,-0.0024640527553856373,0.0010554427281022072,-0.002419473137706518
1746576097715988000,5.717988037109375,-0.00014788005501031876,0.0013077668845653534,-0.0010000085458159447
1746576097726004000,5.72800390625,-0.0005569416098296642,-0.0007575144991278648,0.002695393515750766
1746576097736020000,5.73802001953125,0.0005593677051365376,0.00045157643035054207,-0.0012157312594354153
1746576097746035000,5.748034912109375,0.0006392623763531446,-0.0038494286127388477,-0.0006679194048047066
1746576097756051000,5.758051025390625,0.000514498446136713,0.00013845087960362434,-0.0011392564047127962
1746576097766066000,5.76806591796875,-0.001001638825982809,0.0011629690416157246,-0.0005299251060932875
1746576097776082000,5.77808203125,-0.0005044862627983093,0.001960963476449251,-0.0018706291448324919
1746576097786098000,5.788097900390625,0.000453985296189785,-0.0005967365577816963,0.00040664011612534523
1746576097796113000,5.79811279296875,0.000985366990789771,-0.0007161763496696949,-0.0005575900431722403
1746576097806129000,5.80812890625,-0.0003691166639328003,-0.00017022807151079178,0.0003731846809387207
1746576097816145000,5.818144775390625,0.0016651162877678871,0.0010587670840322971,0.0012035765685141087
1746576097826159900,5.828159912109375,-0.00014316989108920097,-0.0010496573522686958,-0.0009692967869341373
1746576097836176000,5.83817578125,-0.0006265281699597836,-0.000476812943816185,0.00012476975098252296
1746576097846191900,5.84819189453125,-0.000022256746888160706,0.0017197621054947376,-0.0007348987273871899
1746576097856206800,5.858206787109375,-0.0005105887539684772,0.00012163864448666573,-0.0010413127020001411
1746576097866222800,5.868222900390625,0.0018489719368517399,0.0008683893829584122,0.0003328784368932247
1746576097876238800,5.87823876953125,0.00040274159982800484,0.0010837954469025135,0.0002913896460086107
1746576097886253800,5.88825390625,-0.00017756130546331406,0.0008435784839093685,0.0010533200111240149
1746576097896270000,5.89827001953125,0.00020137103274464607,-0.0018913468811661005,0.0010228939354419708
1746576097906284800,5.908284912109375,0.000790728721767664,0.0007057678885757923,-0.0010357298888266087
1746576097916301000,5.918301025390625,-0.002927724737673998,0.0005792062729597092,0.0009807581081986427
1746576097926317000,5.928317138671875,-0.0006392700597643852,0.00005349796265363693,0.0005133734084665775
1746576097936332000,5.93833203125,0.0012511753011494875,-0.0018933552782982588,-0.002072395058348775
1746576097946348000,5.94834814453125,0.0005363826639950275,0.0009474386461079121,-0.00025824992917478085
1746576097956364000,5.958364013671875,-0.00011085812002420425,-0.001845256658270955,0.0010215654037892818
1746576097966379000,5.96837890625,-0.0008560102432966232,-0.00022632116451859474,0.002637571655213833
1746576097976395000,5.97839501953125,0.0014796836767345667,-0.0012850873172283173,-0.0015640389174222946
1746576097986410800,5.98841064453125,-0.0002780025824904442,0.0002845795825123787,-0.0007999781519174576
1746576097996426000,5.998426025390625,-0.0003356798551976681,-0.0005487804301083088,-0.0013834077399224043
1746576098006441700,6.008441650390625,0.00033463770523667336,0.0012698918581008911,-0.0013482540380209684
1746576098016458000,6.0184580078125,-0.0012112115509808064,-0.001882786164060235,-0.0004777375143021345
1746576098026472700,6.02847265625,0.0007787025533616543,0.0020491047762334347,0.0011345401871949434
1746576098036489000,6.038489013671875,-0.0010882876813411713,0.00014525419101119041,0.0008634242694824934
1746576098046504000,6.04850390625,-0.00045765144750475883,0.0015527349896728992,0.0021254962775856256
1746576098056520000,6.05852001953125,-0.00019561592489480972,-0.0006292769685387611,0.0007179246749728918
1746576098066536000,6.068535888671875,-0.0007953597232699394,0.00004397006705403328,0.0007871666457504034
1746576098076551000,6.078551025390625,-0.0018009212799370289,0.000392034649848938,-0.0026054580230265856
1746576098086567000,6.08856689453125,-0.0009961137548089027,-0.0014258390292525291,-0.0015351336915045977
1746576098096583000,6.0985830078125,0.0007745672482997179,-0.0007950817234814167,-0.00206354190595448
1746576098106598000,6.108597900390625,0.00018228031694889069,0.0010036174207925797,0.0012406418099999428
1746576098116614000,6.11861376953125,0.00017186161130666733,0.0006766133010387421,0.00009847292676568031
1746576098126630000,6.1286298828125,0.00002671964466571808,0.002180766314268112,0.0004076659679412842
1746576098136644900,6.138644775390625,0.0014872020110487938,-0.00031065987423062325,-0.003439186606556177
1746576098146660900,6.148660888671875,-0.003988789394497871,-0.0019080238416790962,0.0019001850159838796
1746576098156677000,6.158677001953125,-0.000362954568117857,-0.0008890270255506039,-0.0016848843079060316
1746576098166692000,6.168692138671875,-0.0006007752381265163,-0.000801675021648407,0.0022043960634618998
1746576098176708000,6.1787080078125,0.00033802352845668793,-0.0002560783177614212,-0.0020743804052472115
1746576098186723000,6.18872314453125,-0.0004808986559510231,-0.0010449066758155823,-0.001424835529178381
1746576098196739000,6.198739013671875,-0.00024685729295015335,0.0010155504569411278,-0.0024749014992266893
1746576098206754800,6.2087548828125,-0.001962732058018446,-0.0004997882060706615,0.0004838705062866211
1746576098216770000,6.21877001953125,0.001835104776546359,-0.00049971928820014,0.0014025913551449776
1746576098226785800,6.228785888671875,-0.0006216610781848431,0.0017298790626227856,-0.00008904538117349148
1746576098236801800,6.2388017578125,0.0004965509288012981,0.0010501719079911709,-0.0016192325856536627
1746576098246816800,6.248816650390625,0.0004422222264111042,0.0011819982901215553,-0.0011830066796392202
1746576098256832800,6.258832763671875,-0.0019347304478287697,0.0018498850986361504,-0.0013257968239486217
1746576098266848800,6.268848876953125,0.00020085833966732025,0.0005020592361688614,-0.0007569459266960621
1746576098276863700,6.27886376953125,-0.0015492653474211693,-0.000386157538741827,0.0016451622359454632
1746576098286880000,6.2888798828125,0.0024808961898088455,-0.0008234484121203423,0.0019327836344018579
1746576098296896000,6.29889599609375,0.0003796936944127083,0.00031457608565688133,0.0017522640991955996
1746576098306911000,6.308910888671875,-0.0023231487721204758,-0.0007629389874637127,0.00048513198271393776
1746576098316927000,6.318927001953125,-0.0023245778866112232,-0.0005295886658132076,-0.0002510144840925932
1746576098326942000,6.32894189453125,-0.0009706267155706882,-0.0014361287467181683,0.0016534121241420507
1746576098336957700,6.338957763671875,-0.0011280421167612076,-0.00047439662739634514,0.0016560505609959364
1746576098346973700,6.3489736328125,-0.0005738381296396255,0.0013051275163888931,0.00040942500345408916
1746576098356988700,6.35898876953125,0.0008485701400786638,0.0012467317283153534,-0.0018619077745825052
1746576098367004700,6.369004638671875,0.0012488432694226503,0.00021662097424268723,0.0004792769905179739
1746576098377020700,6.379020751953125,-0.0031175408512353897,-0.0008731051348149776,-0.0009775380603969097
1746576098387035600,6.38903564453125,0.0008220730815082788,0.005021268967539072,0.0030033551156520844
1746576098397052000,6.399052001953125,-0.0005383417010307312,0.0031196423806250095,-0.0021058935672044754
1746576098407067600,6.409067626953125,-0.0001585748977959156,-0.0006407415494322777,-0.0017959019169211388
1746576098417083000,6.419082763671875,-0.0019106934778392315,0.0029422668740153313,0.0029853598680347204
1746576098427098600,6.4290986328125,0.0029511735774576664,0.0006748517043888569,-0.0007976603228598833
1746576098437114600,6.439114501953125,0.0008177992422133684,0.00020662276074290276,-0.001219291938468814
1746576098447129600,6.449129638671875,0.0005474882200360298,-0.0007750182412564754,-0.001160169718787074
1746576098457145600,6.4591455078125,-0.0005965428426861763,0.0006723739206790924,-0.00008887494914233685
1746576098467161600,6.46916162109375,-0.0009321011602878571,-0.0016339239664375782,0.001881065429188311
1746576098477176600,6.479176513671875,0.0001512821763753891,0.003260068129748106,0.00006457488052546978
1746576098487192600,6.489192626953125,0.0011251999530941248,0.0017708279192447662,-0.0008835105691105127
1746576098497207600,6.49920751953125,0.00032097985967993736,0.0010289447382092476,0.0007361709140241146
1746576098507223600,6.5092236328125,-0.0008287066593766212,-0.0011961264535784721,0.0003782419953495264
1746576098517239800,6.51923974609375,0.00030209124088287354,0.00004509277641773224,0.0015660794451832771
1746576098527254800,6.5292548828125,-0.001191942486912012,-0.0018148587550967932,0.002092320006340742
1746576098537270800,6.539270751953125,-0.0010809465311467648,-0.0020644678734242916,-0.00034264568239450455
1746576098547286800,6.549286865234375,-0.0006348672322928905,-0.00044206995517015457,0.00022833608090877533
1746576098557301800,6.5593017578125,0.0015672827139496803,0.0007944577373564243,-0.00016191089525818825
1746576098567317800,6.56931787109375,-0.001549414824694395,0.0006676912307739258,-0.0007302295416593552
1746576098577333800,6.579333740234375,-0.0005136635154485703,0.0000774790532886982,0.0004948168061673641
1746576098587348700,6.5893486328125,0.00036997348070144653,-0.0009654145687818527,0.00209404481574893
1746576098597364700,6.59936474609375,0.0008432317990809679,0.0009585274383425713,-0.0009469399228692055
1746576098607380700,6.609380615234375,0.000804882263764739,0.0003582509234547615,0.000034434953704476357
1746576098617395700,6.619395751953125,0.0006075743585824966,0.0009115599095821381,0.00016646506264805794
1746576098627411700,6.62941162109375,-0.0007181474938988686,0.0005738711915910244,-0.0008452697657048702
1746576098637426700,6.6394267578125,0.0005499455146491528,0.0015877615660429,0.0008110697381198406
1746576098647443000,6.64944287109375,0.0006396942771971226,-0.00045328494161367416,0.0008962908759713173
1746576098657458700,6.659458740234375,-0.0009374320507049561,-0.00005515292286872864,0.002019213978201151
1746576098667474000,6.669473876953125,-0.00042424118146300316,-0.00035049719735980034,-0.000612255185842514
1746576098677489700,6.67948974609375,-0.0011555496603250504,-0.0007580975070595741,-0.0016839879099279642
1746576098687505700,6.689505615234375,-0.000047674402594566345,0.000588397029787302,0.0002766312099993229
1746576098697520600,6.699520751953125,0.001382770948112011,0.0016313339583575726,0.000360055360943079
1746576098707536600,6.70953662109375,0.001870129257440567,0.0021748850122094154,-0.0019957770127803087
1746576098717552600,6.719552734375,0.0004291953518986702,-0.0005160276778042316,0.0014701168984174728
1746576098727567600,6.729567626953125,-0.0008808132261037827,0.0004230029881000519,0.0014725136570632458
1746576098737583600,6.73958349609375,0.0004835706204175949,0.0030366331338882446,0.0013857658486813307
1746576098747599600,6.749599609375,0.0003717178478837013,0.0016166353598237038,0.0018230569548904896
1746576098757614600,6.759614501953125,-0.001239460427314043,-0.00045236432924866676,-0.0014820194337517023
1746576098767630800,6.769630859375,0.00012807268649339676,0.00037534628063440323,0.0005270692054182291
1746576098777646800,6.779646728515625,0.00002084486186504364,-0.00009266985580325127,0.0010071203578263521
1746576098787661800,6.789661865234375,0.0016014310531318188,-0.0015560770407319069,0.0020702541805803776
1746576098797677800,6.799677734375,-0.0012298142537474632,0.0008990424685180187,-0.001227586530148983
1746576098807692800,6.80969287109375,-0.000007156748324632645,0.00004043895751237869,0.0018997637089341879
1746576098817708800,6.819708740234375,0.0010010125115513802,-0.00004019215703010559,0.0014513391070067883
1746576098827724800,6.829724853515625,-0.0007473528385162354,-0.000466830562800169,-0.0013492412399500608
1746576098837739800,6.83973974609375,0.00033897534012794495,-0.00029881345108151436,-0.001295602647587657
1746576098847755800,6.849755859375,-0.00015370966866612434,-0.00179231446236372,0.00383044988848269
1746576098857771500,6.859771484375,0.001555024879053235,0.0002401513047516346,0.000829179072752595
1746576098867786800,6.869786865234375,-0.0021220017224550247,0.0008665267378091812,0.0018781982362270355
1746576098877802500,6.879802490234375,0.0014686568174511194,0.00004578009247779846,-0.0005093719810247421
1746576098887818800,6.88981884765625,-0.002211831510066986,-0.001709243282675743,-0.0007818136364221573
1746576098897833700,6.899833740234375,0.000555016566067934,-0.0019149857107549906,-0.0015292989555746317
1746576098907849700,6.909849609375,-0.0009549958631396294,-0.0008822116069495678,-0.0013716400135308504
1746576098917865700,6.91986572265625,0.00010826950892806053,-0.00044422829523682594,-0.0006707643624395132
1746576098927880700,6.929880615234375,-0.0011354265734553337,-0.00038617150858044624,0.0008118175901472569
1746576098937896700,6.939896728515625,0.00038261478766798973,-0.0007055420428514481,-0.00027364538982510567
1746576098947912700,6.94991259765625,-0.001983603462576866,-0.0010160664096474648,0.002531995065510273
1746576098957927700,6.959927734375,0.0014714214485138655,0.0011844872497022152,0.0011723609641194344
1746576098967943700,6.969943603515625,0.00028445059433579445,-0.0016829385422170162,-0.0017661710735410452
1746576098977958700,6.979958740234375,-0.0006816964596509933,-0.00014000246301293373,-0.0013141778763383627
1746576098987974700,6.989974609375,-0.0019293869845569134,0.0005348427221179008,-0.002943233819678426
1746576098997990700,6.99999072265625,-0.00028888043016195297,-0.00012977654114365578,-0.0018692046869546175
1746576099008005600,7.010005615234375,-0.000769580714404583,-0.00011965632438659668,-0.0005131231155246496
1746576099018022000,7.02002197265625,-0.0007558632642030716,-0.0018647073302417994,-0.0013572622556239367
1746576099028038000,7.030037841796875,-0.00032656174153089523,0.00015822984278202057,-0.00003340514376759529
1746576099038052900,7.040052978515625,-0.0007818136364221573,0.0005867122672498226,0.00021106936037540436
1746576099048068900,7.05006884765625,-0.0008726273663341999,0.0008439738303422928,0.0011386482510715723
1746576099058084600,7.060084716796875,-0.00008155405521392822,-0.0007457551546394825,-0.0009185262024402618
1746576099068099800,7.070099853515625,-0.0010546729899942875,0.0006444146856665611,0.0006783052813261747
1746576099078115600,7.080115478515625,-0.0011859769001603127,-0.00050749396905303,0.0018261264776811004
1746576099088131600,7.090131591796875,0.0006260378286242485,-0.0005735405720770359,0.0007406219374388456
1746576099098146600,7.100146484375,0.0009922012686729431,0.00028916681185364723,-0.0002750675193965435
1746576099108162600,7.11016259765625,-0.0005950429476797581,0.0011070235632359982,0.002203269861638546
1746576099118178600,7.120178466796875,0.00015186239033937454,-0.0018828902393579483,-0.0002598285209387541
1746576099128193500,7.130193603515625,-0.0027989200316369534,0.0007986468262970448,-0.0018614537548273802
1746576099138209800,7.140209716796875,-0.0014067776501178741,-0.00398642010986805,0.00200917711481452
1746576099148224800,7.150224853515625,0.0008915301878005266,-0.001549361739307642,0.0015428576152771711
1746576099158240800,7.16024072265625,0.00022879056632518768,-0.0004065306857228279,-0.0006531174294650555
1746576099168256800,7.1702568359375,-0.00013100262731313705,-0.0022419814486056566,0.0017245527124032378
1746576099178271700,7.180271728515625,-0.000867960974574089,0.002207597717642784,0.00042409799061715603
1746576099188287700,7.190287841796875,0.0003562942147254944,-0.0006678174249827862,0.0018291816813871264
1746576099198303700,7.2003037109375,0.001415034057572484,0.00010421033948659897,-0.0005779159255325794
1746576099208318700,7.210318603515625,0.0012706909328699112,-0.001797286793589592,0.0024130800738930702
1746576099218334700,7.220334716796875,0.00009736744686961174,0.0001209694892168045,0.0004725561011582613
1746576099228350700,7.230350830078125,-0.0001809326931834221,-0.0009493548423051834,-0.0003021575976163149
1746576099238365700,7.24036572265625,0.0018081890884786844,-0.000745715107768774,-0.00010429602116346359
1746576099248381700,7.250381591796875,0.0026497479993849993,0.000833539292216301,0.00001954101026058197
1746576099258397700,7.260397705078125,0.000014475081115961075,-0.0016465485095977783,-0.0007080435752868652
1746576099268413000,7.270412841796875,0.0016552484594285488,-0.0016646580770611763,-0.002367192879319191
1746576099278428700,7.2804287109375,0.00022109737619757652,0.0019544605165719986,-0.00008394196629524231
1746576099288444000,7.29044384765625,0.0006448063068091869,0.0004843957722187042,0.00114856893196702
1746576099298459600,7.300459716796875,-0.000578870065510273,0.0007699732668697834,0.0013150598388165236
1746576099308475600,7.3104755859375,0.0007148934528231621,0.0005665076896548271,0.0004404778592288494
1746576099318490600,7.32049072265625,-0.000015222933143377304,-0.0011594314128160477,0.0007715937681496143
1746576099328506600,7.330506591796875,0.0004934407770633698,0.001074960920959711,0.0019897236488759518
1746576099338522600,7.340522705078125,0.002817025873810053,-0.00007469858974218369,0.0013261414133012295
1746576099348537600,7.35053759765625,0.00044335052371025085,0.0010254536755383015,-0.0003684281837195158
1746576099358553600,7.3605537109375,0.0036823975387960672,-0.0008140536956489086,-0.00226585497148335
1746576099368569600,7.370569580078125,0.0006155013106763363,-0.00046091852709650993,-0.001942014554515481
1746576099378584600,7.38058447265625,0.0022679877001792192,0.000608774833381176,0.0009134190622717142
1746576099388600600,7.3906005859375,0.0012727645225822926,0.0010806871578097343,0.00033205095678567886
1746576099398616600,7.400616455078125,0.002615879522636533,0.003074384294450283,-0.000012388918548822403
1746576099408631600,7.410631591796875,0.0010006723459810019,0.0002746032550930977,0.00029680412262678146
1746576099418647800,7.420647705078125,0.0014082153793424368,0.0008727931417524815,-0.0012941248714923859
1746576099428663800,7.430663818359375,0.00044308602809906006,0.0011771926656365395,-0.002759928349405527
1746576099438678800,7.4406787109375,0.0004447866231203079,0.00035768095403909683,0.002529793418943882
1746576099448694800,7.45069482421875,-0.002245805226266384,0.00013184500858187675,-0.0013509646523743868
1746576099458710800,7.460710693359375,-0.0021322090178728104,-0.0019112848676741123,0.00032734149135649204
1746576099468725800,7.470725830078125,-0.0014797346666455269,-0.0015674708411097527,0.0012597143650054932
1746576099478741800,7.48074169921875,0.001248735236003995,0.00033226143568754196,-0.0031049514655023813
1746576099488756700,7.4907568359375,-0.00048258574679493904,-0.0004696166142821312,-0.002676981268450618
1746576099498772700,7.500772705078125,0.0014032782055437565,-0.002458553295582533,-0.0009034345857799053
1746576099508788500,7.51078857421875,0.000711388885974884,0.0003066067583858967,0.0008755573071539402
1746576099518803700,7.5208037109375,-0.000390427652746439,-0.0009760572575032711,-0.00035301409661769867
1746576099528819500,7.5308193359375,-0.000916668213903904,-0.0004711220972239971,0.0014326353557407856
1746576099538835700,7.540835693359375,-0.00045339856296777725,0.0008806842379271984,-0.00035575940273702145
1746576099548850700,7.5508505859375,0.0010001545306295156,-0.000026654452085494995,0.0006937922444194555
1746576099558866700,7.56086669921875,-0.000004244036972522736,-0.0002415175549685955,-0.0009420504793524742
1746576099568882700,7.570882568359375,-0.00045431824401021004,-0.0015190360136330128,0.00046649551950395107
1746576099578897700,7.580897705078125,-0.000656752847135067,0.001196194440126419,-0.00005204346962273121
1746576099588913700,7.59091357421875,-0.0007640779949724674,0.00005636131390929222,0.0003186685498803854
1746576099598929700,7.6009296875,-0.0006454274989664555,0.0008005728013813496,-0.00009356089867651463
1746576099608944600,7.610944580078125,-0.0007644710130989552,-0.0015254318714141846,0.0003650353755801916
1746576099618960600,7.620960693359375,0.0002650483511388302,-0.0014069769531488419,0.0023628156632184982
1746576099628976600,7.6309765625,-0.0005935546942055225,-0.001719365594908595,0.000842683482915163
1746576099638991600,7.64099169921875,-0.0020042103715240955,-0.0016024117358028889,0.0006434118840843439
1746576099649007600,7.651007568359375,0.0018603026401251554,-0.0006071883253753185,-0.0026759521570056677
1746576099659024000,7.66102392578125,-0.00004338845610618591,0.0015394175425171852,0.000266039976850152
1746576099669038800,7.671038818359375,0.001209629001095891,0.0006504543125629425,-0.0017659517470747232
1746576099679054800,7.681054931640625,-0.0003281058743596077,-0.001788599882274866,0.0038631465286016464
1746576099689069800,7.69106982421875,0.0015936312265694141,-0.0007454394362866879,0.000791722908616066
1746576099699085800,7.7010859375,-0.002998500131070614,-0.0011158892884850502,-0.001856709597632289
1746576099709101600,7.7111015625,-0.00017395149916410446,0.0004907958209514618,-0.00025535072200000286
1746576099719116800,7.72111669921875,0.00039709825068712234,0.002739854156970978,-0.0023581914138048887
1746576099729132500,7.731132568359375,-0.0005240892060101032,0.00031797541305422783,-0.00035043456591665745
1746576099739148500,7.7411484375,0.001962555106729269,-0.00021199975162744522,-0.0012900144793093204
1746576099749163500,7.75116357421875,-0.0012649297714233398,0.0024508945643901825,-0.00005990033969283104
1746576099759179500,7.761179443359375,-0.0019917734898626804,-0.0008226186037063599,-0.000857392093166709
1746576099769195500,7.771195556640625,0.0012705987319350243,-0.00032753683626651764,0.0017415868351235986
1746576099779210500,7.78121044921875,-0.0001993807964026928,-0.000685238279402256,0.0005369251593947411
1746576099789226800,7.791226806640625,0.0005702730268239975,-0.0006005498580634594,0.00004450674168765545
1746576099799242800,7.80124267578125,-0.00024386821314692497,0.0005792705342173576,0.001380223548039794
1746576099809257700,7.8112578125,-0.00034320447593927383,-0.000619418453425169,0.0002334662713110447
1746576099819273700,7.821273681640625,0.0008642661850899458,-0.00047800177708268166,0.0007359546143561602
1746576099829289700,7.831289794921875,-0.0004097898490726948,-0.00012193713337182999,0.00009546428918838501
1746576099839304700,7.8413046875,0.0026554723735898733,-0.0014674030244350433,-0.0006652676966041327
1746576099849320700,7.85132080078125,-0.0017256936989724636,-0.0014213304966688156,0.0005613840185105801
1746576099859335700,7.861335693359375,0.00006898771971464157,-0.0011525051668286324,-0.00006751040928065777
1746576099869351700,7.8713515625,0.000784579198807478,-0.00023904070258140564,0.00106166978366673
1746576099879367700,7.88136767578125,0.0015203866641968489,0.0019225776195526123,0.0020273879636079073
1746576099889382700,7.891382568359375,-0.0017201476730406284,0.001033614855259657,-0.00031779147684574127
1746576099899398700,7.901398681640625,-0.0007173540070652962,0.00033764075487852097,-0.0024809776805341244
1746576099909414700,7.91141455078125,-0.0006031044758856297,0.0008811918087303638,0.0012703507672995329
1746576099919430000,7.921429931640625,0.00009567942470312119,-0.0006481334567070007,-0.0024054436944425106
1746576099929445600,7.931445556640625,-0.00011550914496183395,0.0011172760277986526,-0.0011726664379239082
1746576099939461600,7.941461669921875,0.0019464062061160803,0.0020315046422183514,0.004142570775002241
1746576099949476600,7.9514765625,-0.000034452881664037704,0.000561439897865057,0.0017276162980124354
1746576099959492600,7.96149267578125,-0.0019742576405406,-0.001219363883137703,0.0014476047363132238
1746576099969508600,7.971508544921875,-0.0010299007408320904,-0.00027261022478342056,0.0013160444796085358
1746576099979523600,7.981523681640625,0.000003084540367126465,-0.001865997677668929,0.0017457990907132626
1746576099989539600,7.99153955078125,-0.002568463794887066,-0.0004675718955695629,-0.001305384561419487
1746576099999555600,8.0015556640625,-0.0010899617336690426,0.000018691644072532654,-0.00002882559783756733
1746576100009570600,8.011570556640624,-0.0007629254832863808,0.0016722483560442924,-0.000679702265188098
1746576100019586600,8.021586669921875,0.001640036003664136,-0.00008768308907747269,0.00047599454410374165
1746576100029602800,8.031602783203125,-0.0008710585534572601,-0.0008328352123498917,0.000899170758202672
1746576100039617800,8.04161767578125,0.0017507802695035934,0.0010452261194586754,-0.0014309503603726625
1746576100049633800,8.0516337890625,0.0015342652332037687,-0.00015452830120921135,0.0005096951499581337
1746576100059648800,8.061648681640625,-0.0003832760266959667,-0.0006255093030631542,0.0008483512792736292
1746576100069664800,8.071664794921874,-0.000549989752471447,-0.0012114043347537518,-0.002040645806118846
1746576100079680800,8.0816806640625,0.0005967859178781509,0.0003067394718527794,-0.0005892387125641108
1746576100089695700,8.09169580078125,0.0017201071605086327,-0.0004802243784070015,-0.0014422491658478975
1746576100099711700,8.101711669921874,-0.0007998938672244549,0.0006380756385624409,0.0012207834515720606
1746576100109727700,8.111727783203126,0.00018973695114254951,0.0009304904378950596,-0.002749190665781498
1746576100119742700,8.12174267578125,0.0018953848630189896,-0.0008586058393120766,-0.00035615358501672745
1746576100129758700,8.1317587890625,-0.000078550074249506,0.0017936360090970993,0.0006864739116281271
1746576100139774500,8.1417744140625,0.0018612456042319536,0.00010120496153831482,0.0007908479310572147
1746576100149789700,8.151789794921875,0.0011342025827616453,0.0005214517004787922,-0.0002238163724541664
1746576100159805700,8.1618056640625,0.0017457280773669481,-0.0012058890424668789,-0.002885920461267233
1746576100169821700,8.17182177734375,0.001879418734461069,0.0004535266198217869,-0.00042329542338848114
1746576100179836700,8.181836669921875,-0.0014586211182177067,-0.0003195195458829403,0.0006779066752642393
1746576100189852700,8.191852783203124,-0.00005433661863207817,-0.0033251631539314985,0.0020422441884875298
1746576100199868700,8.20186865234375,0.0007682410068809986,-0.00336434505879879,-0.0016028275713324547
1746576100209883600,8.211883544921875,0.0006374800577759743,-0.0016250344924628735,0.0012933602556586266
1746576100219899600,8.221899658203125,-0.000138724222779274,0.0004933131858706474,-0.0026148890610784292
1746576100229915600,8.23191552734375,0.0019103118684142828,-0.0008294791914522648,0.001990515273064375
1746576100239930600,8.2419306640625,0.0008699425961822271,0.0003423551097512245,0.00044117262586951256
1746576100249946600,8.251946533203125,0.00019722804427146912,0.0008616712875664234,-0.001051262952387333
1746576100259961600,8.261961669921876,0.0013175152707844973,-0.00043535279110074043,-0.0016988448332995176
1746576100269977600,8.2719775390625,-0.00010621082037687302,-0.001731513300910592,-0.0014264031779021025
1746576100279993900,8.281993896484375,0.0006624050438404083,0.0017763194628059864,-0.001415799604728818
1746576100290008800,8.2920087890625,0.000002207700163125992,-0.00030440837144851685,0.00019567902199923992
1746576100300024800,8.30202490234375,0.0006025326438248158,0.0020451443269848824,-0.003245948813855648
1746576100310040800,8.312040771484375,0.0005953419022262096,-0.001732283504679799,-0.0006640143692493439
1746576100320055800,8.322055908203126,0.001716001657769084,0.0007575429044663906,-0.0005336038302630186
1746576100330071800,8.33207177734375,-0.0018126866780221462,-0.0008741756901144981,-0.0013240303378552198
1746576100340088000,8.342088134765625,-0.0005229515954852104,-0.0003148140385746956,0.00024108984507620335
1746576100350103000,8.35210302734375,-0.0017245695926249027,-0.0007020379416644573,-0.000008714618161320686
1746576100360119000,8.362119140625,0.0015276572667062283,0.0004232274368405342,0.001215382944792509
1746576100370135000,8.372135009765625,0.0026432552840560675,-0.00014109676703810692,-0.0003936991561204195
1746576100380150000,8.38214990234375,0.0006801537238061428,0.00020687608048319817,0.000022210413590073586
1746576100390166300,8.392166259765625,-0.00314121600240469,-0.0007486664690077305,-0.0011354659218341112
1746576100400182300,8.402182373046875,-0.0020810579881072044,-0.0012435922399163246,0.00173504080157727
1746576100410197200,8.412197265625,-0.0015438986010849476,0.00016149133443832397,-0.0014916453510522842
1746576100420213200,8.422213134765625,0.000633852556347847,-0.0004677171818912029,0.0014487756416201591
1746576100430229200,8.432229248046875,0.0017585053574293852,-0.0008046072907745838,0.0002495541702955961
1746576100440244200,8.442244140625,0.0009072399698197842,-0.00044606346637010574,-0.0019108075648546219
1746576100450260200,8.45226025390625,0.0005841986276209354,-0.0012290328741073608,-0.0012663230299949646
1746576100460275200,8.462275146484375,-0.0008904770947992802,-0.000019209925085306168,-0.0006066008936613798
1746576100470291200,8.472291259765624,0.005242782644927502,0.0000934419222176075,0.00009807152673602104
1746576100480307200,8.48230712890625,0.0017819625791162252,-0.001185393426567316,-0.002186096040531993
1746576100490322200,8.492322265625,0.0004216199740767479,-0.0013816682621836662,-0.0014886141289025545
1746576100500338200,8.502338134765624,0.001219357829540968,0.00014135753735899925,0.0014155653771013021
1746576100510354200,8.512354248046876,0.00008724816143512726,-0.00025358935818076134,-0.00132695771753788
1746576100520369200,8.522369140625,-0.0005353461019694805,-0.000538769643753767,-0.00025004660710692406
1746576100530385200,8.53238525390625,0.00008703488856554031,-0.001043438445776701,0.0006586238741874695
1746576100540401200,8.542401123046876,-0.0007137414067983627,0.0017777876928448677,-0.00039486982859671116
1746576100550416100,8.552416015625,-0.00036779697984457016,-0.0012427694164216518,0.0004605376161634922
1746576100560432000,8.56243212890625,0.0007119406946003437,-0.00040731532499194145,0.000026850728318095207
1746576100570448100,8.5724482421875,0.0005574771203100681,-0.00046244263648986816,-0.0004503880627453327
1746576100580463000,8.582463134765625,-0.00014540646225214005,0.000551790464669466,0.0002550026401877403
1746576100590479000,8.59247900390625,-0.00028096139430999756,0.00039732689037919044,-0.0002978697884827852
1746576100600495000,8.6024951171875,-0.002833419945091009,0.0008133235387504101,0.002975400071591139
1746576100610510000,8.612510009765625,-0.0009276620112359524,-0.0024751476012170315,-0.00017218990251421928
1746576100620526000,8.622526123046875,-0.0021204110234975815,-0.0020766102243214846,0.0021066556219011545
1746576100630542300,8.632542236328124,-0.000660998746752739,-0.0014654146507382393,0.0004589578602463007
1746576100640557300,8.642557373046875,-0.0005104704760015011,0.0028771176002919674,-0.0007506627589464188
1746576100650573300,8.6525732421875,0.0021585493814200163,0.003013471607118845,-0.003114218357950449
1746576100660589300,8.66258935546875,0.0007680468261241913,0.0008922293782234192,-0.0011545529123395681
1746576100670604300,8.672604248046875,-0.00015101023018360138,-0.0006819651462137699,-0.0004464185331016779
1746576100680620300,8.682620361328125,-0.002094755880534649,-0.0012965868227183819,0.0004965660627931356
1746576100690635300,8.69263525390625,0.00011327071115374565,0.001389743760228157,-0.000001178821548819542
1746576100700651300,8.7026513671875,-0.0003095990978181362,0.0011501316912472248,0.0016667337622493505
1746576100710667000,8.7126669921875,0.0013298429548740387,0.0003099045716226101,-0.00036152941174805164
1746576100720682200,8.72268212890625,0.0009319891687482595,0.0012460234574973583,0.0004366303328424692
1746576100730698000,8.732697998046875,-0.0008725686930119991,-0.00011431891471147537,-0.0016872407868504524
1746576100740714000,8.7427138671875,0.0003157369792461395,0.0016557816416025162,0.0019787088967859745
1746576100750729000,8.75272900390625,-0.00020144879817962646,-0.0003080330789089203,-0.002202720148488879
1746576100760745200,8.7627451171875,-0.00008263764902949333,-0.00003269826993346214,-0.0013905423693358898
1746576100770761200,8.77276123046875,-0.00013057468459010124,0.0004360182210803032,0.0011184217873960733
1746576100780776200,8.782776123046874,-0.001006352249532938,0.0018044747412204742,0.0017239090520888567
1746576100790792200,8.792792236328125,-0.00035414425656199455,0.001334160566329956,0.002081837970763445
1746576100800808200,8.80280810546875,-0.0018444233573973179,-0.000988826621323824,0.0016619982197880745
1746576100810823200,8.8128232421875,0.0007593492045998573,0.000051670242100954056,0.0018276468617841601
1746576100820839200,8.822839111328125,0.0009167008101940155,-0.0003055189736187458,-0.00037836935371160507
1746576100830855200,8.832855224609375,-0.0006907833740115166,0.00011020060628652573,-0.0012220586650073528
1746576100840870100,8.8428701171875,-0.0009821094572544098,0.0007670270279049873,-0.0005849821027368307
1746576100850886100,8.85288623046875,-0.0015664068050682545,0.0011462611146271229,0.0016747100744396448
1746576100860902100,8.862902099609375,0.0006387713365256786,-0.0012567774392664433,0.0008152674417942762
1746576100870917000,8.872917236328124,-0.0011474108323454857,-0.0017071180045604706,0.00044322386384010315
1746576100880933400,8.882933349609376,-0.001492997631430626,0.0007536686025559902,0.0003953324630856514
1746576100890949400,8.892949462890625,0.0011813484597951174,0.001138229388743639,-0.0007620772812515497
1746576100900964400,8.90296435546875,-0.0006258627399802208,0.0007318374700844288,-0.002749210922047496
1746576100910980400,8.91298046875,0.00024126237258315086,0.0012591434642672539,-0.00057793571613729
1746576100920995300,8.922995361328125,0.000141853466629982,-0.0011460734531283379,-0.0005644890479743481
1746576100931011000,8.933010986328124,0.0008212258107960224,-0.0026267908979207277,-0.0006595635786652565
1746576100941027000,8.943027099609376,-0.000725998543202877,-0.0013701622374355793,0.000609974842518568
1746576100951042000,8.9530419921875,0.0002295440062880516,0.00018831947818398476,-0.0017418626230210066
1746576100961058000,8.96305810546875,-0.0008429293520748615,0.0020647412165999413,0.00043271854519844055
1746576100971074000,8.973073974609376,0.00059544388204813,0.000258052721619606,-0.0014930132310837507
1746576100981089000,8.983089111328125,0.0007429057732224464,-0.0014500850811600685,0.0015433328226208687
1746576100991105000,8.99310498046875,0.00014902092516422272,0.0025377324782311916,0.0013899346813559532
1746576101001121300,9.003121337890626,0.00012835906818509102,-0.0010774186812341213,-0.0001368515659123659
1746576101011136000,9.013135986328125,-0.0007952251471579075,-0.0014049876481294632,-0.003084970638155937
1746576101021152300,9.02315234375,0.0007937557529658079,0.0006689885631203651,0.0022966323886066675
1746576101031168300,9.033168212890626,-0.0021719401702284813,0.0019342564046382904,-0.00011991988867521286
1746576101041183200,9.043183349609375,0.0005935593508183956,-0.0015684140380471945,-0.0006475984118878841
1746576101051199200,9.05319921875,0.0007408321835100651,0.0007634498178958893,0.0014323301147669554
1746576101061215200,9.06321533203125,-0.002416898962110281,-0.0012432821094989777,0.0019108938286080956
1746576101071230200,9.073230224609375,-0.0009955698624253273,-0.0009892163798213005,0.00048104277811944485
1746576101081246200,9.08324609375,-0.0004223678261041641,-0.0000640680082142353,0.00009444053284823895
1746576101091262200,9.09326220703125,-0.0005917446687817574,0.0004840102046728134,-0.00047121476382017136
1746576101101277200,9.103277099609375,0.0001265043392777443,0.0004903199151158333,0.0014059275854378939
1746576101111293200,9.113293212890625,-0.002205092925578356,0.0012487880885601044,0.0007097774650901556
1746576101121309200,9.12330908203125,-0.0015587075613439083,-0.0006596441380679607,0.0015959655866026878
1746576101131324200,9.13332421875,0.00012574205175042152,0.0002490263432264328,0.0005224454216659069
1746576101141340200,9.143340087890625,0.0017788456752896309,-0.000543257687240839,-0.001167328329756856
1746576101151355400,9.15335546875,-0.0011082873679697514,0.002953206654638052,-0.0012211243156343699
1746576101161371100,9.16337109375,-0.000009648501873016357,-0.004476836416870356,-0.00045261112973093987
1746576101171387100,9.17338720703125,-0.0013518817722797394,0.0014231307432055473,0.0006986735388636589
1746576101181402000,9.183402099609374,-0.0007196171209216118,0.0008647269569337368,-0.0014115064404904842
1746576101191418000,9.193418212890625,-0.0007851305417716503,0.0023220088332891464,0.001499861478805542
1746576101201434000,9.20343408203125,-0.00019751908257603645,0.0010517537593841553,0.0017765325028449297
1746576101211449000,9.213448974609374,0.0020991910714656115,0.001346831675618887,0.0007128659635782242
1746576101221465000,9.223465087890625,-0.0000178460031747818,-0.0006178664043545723,0.0019566621631383896
1746576101231481000,9.233481201171875,0.0020692734979093075,0.0003688349388539791,0.0002343959640711546
1746576101241496000,9.24349609375,0.00174042209982872,-0.000026240944862365723,-0.00010912539437413216
1746576101251512000,9.253511962890625,-0.00002392195165157318,-0.002588468138128519,0.0008626622147858143
1746576101261528300,9.2635283203125,0.0009386185556650162,0.001592877320945263,0.0007304989267140627
1746576101271543300,9.273543212890624,0.0011703136842697859,0.000011758878827095032,-0.002269551856443286
1746576101281559300,9.283559326171876,0.0003377925604581833,-0.0015429803170263767,0.0006507588550448418
1746576101291575300,9.2935751953125,-0.0004616882652044296,-0.00027052173390984535,0.0007724652532488108
1746576101301590300,9.30359033203125,0.0022347134072333574,0.0002105548046529293,-0.00005124625749886036
1746576101311606300,9.313606201171876,0.0006751664914190769,-0.0009785466827452183,0.00007552024908363819
1746576101321622000,9.3236220703125,0.000683364924043417,0.00037202704697847366,-0.001955805579200387
1746576101331637200,9.33363720703125,-0.0021201446652412415,0.0005371430888772011,0.0014812699519097805
1746576101341652500,9.343652587890626,0.001460463972762227,0.0002500554546713829,0.0018439097329974174
1746576101351668500,9.35366845703125,-0.0006852447986602783,0.001059922855347395,0.0007299093995243311
1746576101361683500,9.363683349609374,-0.000588695053011179,0.00036987336352467537,-0.0005508346948772669
1746576101371699500,9.373699462890626,-0.001966881100088358,-0.00083547318354249,-0.000029920600354671478
1746576101381715200,9.383715087890625,-0.0005403291434049606,-0.0013775783590972424,0.0006757886148989201
1746576101391730400,9.39373046875,0.0024346881546080112,-0.0006278986111283302,-0.001035292400047183
1746576101401746200,9.40374609375,0.0012331244070082903,0.0012585865333676338,0.0008737067691981792
1746576101411761400,9.413761474609375,0.0008799892384558916,-0.0015609022229909897,-0.000552948797121644
1746576101421777200,9.423777099609374,0.0004436792805790901,0.0011822902597486973,0.000034049153327941895
1746576101431793400,9.43379345703125,-0.0008548782207071781,0.0010640458203852177,0.0010356639977544546
1746576101441808100,9.44380810546875,0.001393618294969201,-0.00004913797602057457,0.003952037077397108
1746576101451824400,9.453824462890625,-0.00048284512013196945,0.0018483642488718033,0.0015613173600286245
1746576101461840400,9.46384033203125,-0.0000452948734164238,-0.0019967027474194765,-0.0008272849954664707
1746576101471855400,9.47385546875,-0.0017832736484706402,-0.002539454959332943,-0.0009188978001475334
1746576101481871400,9.483871337890625,-0.0005372115410864353,0.0005147680640220642,0.0007473363075405359
1746576101491887400,9.493887451171876,0.000972001813352108,0.0009323516860604286,0.0011790348216891289
1746576101501902300,9.50390234375,0.0012541655451059341,0.00021992623805999756,-0.0011574162635952234
1746576101511918300,9.51391845703125,0.0006435029208660126,0.00013443874195218086,-0.004121248610317707
1746576101521934300,9.523934326171876,0.000668803695589304,0.0005698786117136478,0.0031464206986129284
1746576101531949300,9.53394921875,0.0005095466040074825,-0.0006863344460725784,-0.0007250166963785887
1746576101541965300,9.54396533203125,0.0010571538005024195,0.0006698290817439556,-0.0004263354931026697
1746576101551981600,9.553981689453124,0.0015540996100753546,0.000357174314558506,0.0020642527379095554
1746576101561996300,9.563996337890625,0.0015769898891448975,-0.001112841535359621,-0.0005350538995116949
1746576101572012500,9.574012451171875,0.0005077305249869823,-0.00021295947954058647,0.0008766876999288797
1746576101582028300,9.5840283203125,0.0010433269198983908,0.000661154743283987,0.0009883902966976166
1746576101592043500,9.59404345703125,-0.00006295042112469673,0.0005780644714832306,0.0010437839664518833
1746576101602059300,9.604059326171875,-0.0016815736889839172,-0.00021872948855161667,0.0015786888543516397
1746576101612075300,9.6140751953125,0.0008731968700885773,0.001695816870778799,-0.001836016308516264
1746576101622090200,9.62409033203125,-0.00011939322575926781,0.0006144358776509762,0.0008298039902001619
1746576101632106200,9.634106201171875,-0.0006906413473188877,0.0017161853611469269,-0.0013334816321730614
1746576101642122200,9.644122314453124,0.0006093811243772507,-0.0013449541293084621,0.0022460338659584522
1746576101652137200,9.65413720703125,0.0004948652349412441,0.002088659442961216,-0.0017399194184690714
1746576101662153200,9.6641533203125,0.001792906317859888,-0.00047919200733304024,0.0027236402966082096
1746576101672168200,9.674168212890624,-0.0017887786962091923,0.0012124478816986084,0.0008841950912028551
1746576101682184200,9.68418408203125,0.0015928959473967552,0.0013772291131317616,-0.0012029057834297419
1746576101692200400,9.694200439453125,0.0009534710552543402,0.00105312280356884,0.001156388781964779
1746576101702215400,9.70421533203125,0.0003337631933391094,0.001634872518479824,0.000921082217246294
1746576101712231400,9.7142314453125,-0.0021293945610523224,0.00006946641951799393,-0.00034551694989204407
1746576101722247400,9.724247314453125,0.0007297499105334282,0.00020206766203045845,-0.0007817321456968784
1746576101732262400,9.734262451171874,0.000761441420763731,-0.0005036699585616589,-0.00012819236144423485
1746576101742278400,9.7442783203125,-0.001969324890524149,-0.0008718562312424183,0.0002633209805935621
1746576101752294400,9.75429443359375,0.0016560361254960299,-0.0008351048454642296,0.00207719998434186
1746576101762309400,9.764309326171874,-0.0008818549104034901,-0.0026774948928505182,0.0014878192450851202
1746576101772325400,9.774325439453126,-0.0007652086205780506,-0.0002084784209728241,0.0014968737959861755
1746576101782341000,9.784341064453125,-0.00022440124303102493,0.0015590554103255272,0.0023666361812502146
1746576101792356400,9.7943564453125,0.0008198241703212261,0.0018000714480876923,0.0024103119503706694
1746576101802372400,9.804372314453126,0.00026540178805589676,0.0011566635221242905,-0.0005004280246794224
1746576101812388400,9.814388427734375,-0.00028667133301496506,-0.0018239461351186037,-0.001701513770967722
1746576101822403300,9.8244033203125,-0.00005969032645225525,-0.00016913004219532013,0.0005197320133447647
1746576101832419300,9.83441943359375,0.0015525873750448227,-0.00036087771877646446,0.0003383709117770195
1746576101842435300,9.844435302734375,0.000816958025097847,0.0006486591883003712,-0.0020126341842114925
1746576101852450300,9.8544501953125,-0.0002917158417403698,0.0019168565049767494,-0.00013776891864836216
1746576101862466300,9.86446630859375,-0.0004860912449657917,0.0016753044910728931,0.001624216791242361
1746576101872482300,9.874482421875,-0.0019241981208324432,0.00044625578448176384,0.0011413856409490108
1746576101882497300,9.884497314453125,-0.000029268208891153336,0.002273090649396181,0.00040547805838286877
1746576101892513300,9.89451318359375,0.001596591668203473,0.002544466871768236,-0.0007543284446001053
1746576101902529300,9.904529296875,0.0009456002153456211,-0.00001976173371076584,-0.0015526481438428164
1746576101912544300,9.914544189453125,0.0016816980205476284,-0.0017920956015586853,-0.0011140259448438883
1746576101922560500,9.924560546875,-0.0009431391954421997,-0.0005656168796122074,-0.00021741027012467384
1746576101932576500,9.934576416015625,-0.0017298371531069279,0.0015212362632155418,-0.00012606382369995117
1746576101942591500,9.944591552734375,-0.0013372101821005344,0.001502904575318098,0.001902986317873001
1746576101952607500,9.954607421875,-0.0007228190079331398,0.003840627148747444,0.0019999253563582897
1746576101962622500,9.96462255859375,-0.00032772449776530266,0.0002673761919140816,-0.0001671365462243557
1746576101972638500,9.974638427734375,0.0018147884402424097,-0.0005835038609802723,-0.001393522135913372
1746576101982654200,9.984654296875,0.00020814267918467522,-0.0013604243285953999,-0.00033774995245039463
1746576101992669400,9.99466943359375,-0.001839029137045145,-0.0003609401173889637,-0.00211594277061522
1746576102002685200,10.004685302734375,-0.002047506161034107,0.0004126382991671562,-0.001185538014397025
1746576102012701200,10.014701171875,0.0008713183924555779,0.000480548944324255,0.0006973170675337315
1746576102022716200,10.024716064453125,-0.0009399941191077232,0.0014061201363801956,0.00033109867945313454
1746576102032732200,10.034732177734375,-0.0006627589464187622,0.00025962945073843,0.00041765160858631134
1746576102042748400,10.04474853515625,-0.0017716106958687305,0.0016226554289460182,-0.0028392686508595943
1746576102052763100,10.05476318359375,-0.00010420568287372589,0.0010119928047060966,-0.00130795082077384
1746576102062779400,10.064779296875,0.001019817776978016,0.0016268226318061352,-0.0034415596164762974
1746576102072795400,10.07479541015625,0.0006048972718417645,0.00013811560347676277,-0.0006801276467740536
1746576102082810400,10.084810302734375,0.0008249401580542326,0.0031296173110604286,-0.00013021612539887428
1746576102092826400,10.094826416015625,-0.0009340778924524784,-0.000719715841114521,0.00027698115445673466
1746576102102842400,10.10484228515625,-0.0005707521922886372,0.00003749411553144455,0.0007860199548304081
1746576102112857300,10.114857421875,0.0009757452644407749,-0.0005582547746598721,0.0018685950199142098
1746576102122873300,10.124873291015625,0.0015662014484405518,0.0008257958106696606,0.0006797020323574543
1746576102132889300,10.134889404296874,-0.0023025725968182087,0.0004036850295960903,0.0015396368689835072
1746576102142904300,10.144904296875,-0.0010857158340513706,0.0004906598478555679,-0.00044769328087568283
1746576102152920300,10.15492041015625,-0.0003107362426817417,0.0016952077858150005,-0.0006690020672976971
1746576102162936600,10.1649365234375,0.0022037357557564974,-0.0009499411098659039,0.0018589494284242392
1746576102172951300,10.174951416015626,-0.0019822209142148495,0.0028951307758688927,-0.0010201940312981606
1746576102182967600,10.184967529296875,0.000530696939677,0.00002589728683233261,0.0014314628206193447
1746576102192983300,10.1949833984375,0.0017978290561586618,0.0019183396361768246,0.003184888046234846
1746576102202998300,10.204998291015626,0.0007881438359618187,0.0011803563684225082,-0.00013662106357514858
1746576102213014300,10.21501416015625,0.0017716491129249334,0.0003289435990154743,-0.0019566253758966923
1746576102223030300,10.2250302734375,-0.00100691057741642,-0.001257887575775385,-0.0018702764064073563
1746576102233045200,10.235045166015626,0.0002756682224571705,0.0009128549136221409,-0.001917148008942604
1746576102243061200,10.245061279296875,-0.000803203321993351,-0.0027989151421934366,-0.0004505214747041464
1746576102253076200,10.255076171875,0.0005616666749119759,-0.0003006039187312126,-0.00024945312179625034
1746576102263092200,10.26509228515625,0.000767693854868412,0.000746049452573061,0.0001478167250752449
1746576102273108200,10.275108154296875,-0.00029730424284935,0.00020622648298740387,0.001974745187908411
1746576102283123200,10.285123291015625,0.0018031231593340635,-0.0004063863307237625,-0.0004981618840247393
1746576102293139200,10.29513916015625,0.0005282680504024029,-0.0009741722606122494,-0.0008691402617841959
1746576102303155500,10.305155517578125,-0.0016527725383639336,-0.002610294846817851,-0.00021602027118206024
1746576102313170400,10.31517041015625,0.0004902728833258152,-0.0006278376094996929,-0.0009025833569467068
1746576102323186400,10.3251865234375,-0.0010379054583609104,-0.0003681182861328125,-0.0016211187466979027
1746576102333202400,10.335202392578125,0.000034549739211797714,-0.0008544111624360085,0.0020116993691772223
1746576102343218200,10.34521826171875,-0.0006322003901004791,0.0020377705805003643,0.0001569087617099285
1746576102353234200,10.355234130859374,0.0007294737733900547,0.0012603937648236752,0.00009725382551550865
1746576102363250000,10.36525,-0.0006052148528397083,-0.0006591305136680603,0.0003318639937788248
1746576102373265200,10.37526513671875,-0.002027076669037342,-0.0004969439469277859,0.0003161514177918434
1746576102383281000,10.385281005859374,-0.0007477952167391777,0.00041519058868288994,0.0015128490049391985
1746576102393297000,10.395296875,-0.00043487362563610077,0.0013438351452350616,-0.00016281194984912872
1746576102403311900,10.405311767578125,0.0005279183387756348,0.000713796354830265,-0.0010539116337895393
1746576102413328000,10.415327880859374,-0.0006649116985499859,0.0012075467966496944,0.0004566335119307041
1746576102423344000,10.42534423828125,-0.0010374179109930992,-0.0015659891068935394,0.0028010401874780655
1746576102433359000,10.435359130859375,-0.000551923643797636,-0.0009846207685768604,0.0009900906588882208
1746576102443375000,10.445375,0.0005160882137715816,0.0008847876451909542,-0.0018458380363881588
1746576102453391000,10.45539111328125,0.002022105734795332,0.0008616182021796703,-0.0016234638169407845
1746576102463406000,10.465406005859375,0.0026358184404671192,0.0009095221757888794,-0.001097922446206212
1746576102473422000,10.475422119140624,-0.0003306767903268337,0.0011119227856397629,-0.0003269372973591089
1746576102483438000,10.48543798828125,0.0009224803652614355,-0.00026162201538681984,0.0006486878264695406
1746576102493453000,10.495453125,-0.000615761149674654,0.0007285415194928646,0.0010952998418360949
1746576102503469000,10.505468994140625,0.00016660336405038834,-0.002293342724442482,-0.0009138442110270262
1746576102513485000,10.515485107421876,0.0006936429999768734,0.0016135144978761673,0.0017655622214078903
1746576102523500000,10.5255,-0.0012061563320457935,-0.002254500286653638,0.0021283261012285948
1746576102533516000,10.53551611328125,0.002561683999374509,0.001115996390581131,0.0018212636932730675
1746576102543532000,10.545531982421876,-0.0007549431174993515,0.0012088059447705746,-0.000578621868044138
1746576102553547300,10.55554736328125,0.001596361631527543,-0.00018189707770943642,0.0016493787989020348
1746576102563563000,10.56556298828125,0.00041209952905774117,0.0002661249600350857,0.0002567879855632782
1746576102573579000,10.5755791015625,0.0002983827143907547,0.0010091466829180717,-0.0020633582025766373
1746576102583594000,10.585593994140625,0.00011747842654585838,0.0006710784509778023,0.0011030815076082945
1746576102593610000,10.59560986328125,0.0008671581745147705,0.0008646901696920395,0.004225371405482292
1746576102603625000,10.605625,-0.0006099441088736057,0.0011783293448388577,0.00040032598190009594
1746576102613641000,10.615640869140625,-0.0001404285430908203,-0.0018044111784547567,0.00003174459561705589
1746576102623657000,10.625656982421875,0.00024093501269817352,-0.0010249819606542587,-0.0010320267174392939
1746576102633672000,10.635671875,0.00146945146843791,-0.00003934605047106743,-0.0021667995024472475
1746576102643688000,10.64568798828125,0.00016753748059272766,-0.0016091982834041119,-0.0004213545471429825
1746576102653704000,10.655703857421875,0.0041766599752008915,-0.0005063829012215137,0.0011115611996501684
1746576102663719000,10.665718994140626,0.0006314422935247421,0.00010775402188301086,-0.0011475782375782728
1746576102673735200,10.675735107421875,0.0016719393897801638,0.001964243594557047,-0.000309215160086751
1746576102683751200,10.685751220703125,-0.0020269397646188736,-0.0013421005569398403,-0.0007530658040195704
1746576102693766100,10.69576611328125,-0.0003619315102696419,-0.00024700863286852837,0.00004801293835043907
1746576102703782100,10.7057822265625,-0.00041400501504540443,-0.000565722119063139,0.0001909085549414158
1746576102713798100,10.715798095703125,-0.0008864495903253555,-0.0035162384156137705,0.0017038504593074322
1746576102723813000,10.725813232421874,0.0009520004969090223,0.0008526444435119629,-0.000982395140454173
1746576102733829000,10.7358291015625,0.0003975303843617439,-0.0006579002365469933,-0.002899870974943042
1746576102743844900,10.745844970703125,0.001972244121134281,-0.00024091126397252083,-0.0007262537255883217
1746576102753860000,10.755860107421874,-0.0005106208845973015,0.0018965420313179493,0.0007848239038139582
1746576102763875800,10.765875732421875,-0.0000023175962269306183,-0.00036328891292214394,0.0006088549271225929
1746576102773891800,10.775891845703125,0.0010501635260879993,-0.0007885955274105072,0.0018831775523722172
1746576102783906800,10.78590673828125,0.0006924411281943321,0.0006585447117686272,0.0010880313348025084
1746576102793923000,10.795923095703126,-0.0005555157549679279,-0.0016794446855783463,0.00004646903835237026
1746576102803939000,10.80593896484375,0.00043476978316903114,-0.0008374014869332314,-0.001515055075287819
1746576102813954000,10.8159541015625,0.0004294430837035179,0.0008742120116949081,-0.0003930656239390373
1746576102823970000,10.825969970703126,0.0006060642190277576,0.0017792917788028717,-0.0007210937328636646
1746576102833986000,10.835986083984375,-0.0013247276656329632,0.00030416669324040413,0.0014131637290120125
1746576102844001000,10.8460009765625,0.0002735150046646595,-0.000734647735953331,0.0009914624970406294
1746576102854017000,10.85601708984375,-0.0008583283051848412,-0.0018795405048877,0.0005874610505998135
1746576102864033000,10.866032958984375,-0.00104915676638484,0.0007349196821451187,-0.0002529677003622055
1746576102874048000,10.876048095703124,-0.003961323294788599,-0.0001215529628098011,0.0027987484354525805
1746576102884064000,10.88606396484375,0.0006115064024925232,0.001604569610208273,-0.0012480271980166435
1746576102894080300,10.896080322265625,-0.000025787856429815292,0.0004484914243221283,-0.000028299400582909584
1746576102904095000,10.906094970703125,0.0021955356933176517,-0.0013812324032187462,0.0007945247925817966
1746576102914111200,10.916111328125,-0.0009973281994462013,-0.00003234110772609711,0.0019149166764691472
1746576102924127000,10.926126953125,0.002300003543496132,0.0019490327686071396,0.000875864177942276
1746576102934142200,10.93614208984375,0.0007287384942173958,-0.00039108702912926674,0.0020191592629998922
1746576102944158000,10.946157958984376,0.0008686527144163847,0.00026095565408468246,0.0004988727159798145
1746576102954174000,10.956174072265625,0.0006774375215172768,-0.0006935209967195988,-0.0030748231802135706
1746576102964189000,10.96618896484375,0.0002481434494256973,-0.0015177703462541103,-0.0004936645273119211
1746576102974205000,10.976204833984376,-0.0006171176210045815,-0.00035822996869683266,0.0017926590517163277
1746576102984220000,10.986219970703125,-0.0004269755445420742,-0.0008913311176002026,-0.0012710436712950468
1746576102994236000,10.99623583984375,-0.0002621258608996868,-0.0009440616704523563,-0.00003400514833629131
1746576103004252000,11.006251953125,0.0005813399329781532,0.00038372213020920753,0.0017808995908126235
1746576103014267000,11.016266845703125,0.0007019811309874058,0.0007975772023200989,0.0014954088255763054
1746576103024283000,11.026282958984375,0.00034937774762511253,-0.000715233851224184,0.002313278615474701
1746576103034299100,11.036299072265624,0.0027566091157495975,-0.0011735637672245502,-0.0001195189543068409
1746576103044314000,11.046314208984375,-0.001703975722193718,-0.0024895956739783287,0.00009031430818140507
1746576103054330000,11.056330078125,0.0017163220327347517,-0.00043203728273510933,-0.0016820193268358707
1746576103064346000,11.06634619140625,0.00025582127273082733,-0.000034384895116090775,-0.0014240613672882318
1746576103074361000,11.076361083984375,0.00006780214607715607,0.00041888514533638954,-0.0015540237072855234
1746576103084377000,11.086377197265625,0.00005853734910488129,0.000026423949748277664,0.00002465350553393364
1746576103094393000,11.09639306640625,0.0009885129984468222,-0.0011451002210378647,-0.0009830868802964687
1746576103104408000,11.106407958984375,-0.0016103158704936504,0.001725426409393549,0.0008632773533463478
1746576103114424000,11.116424072265625,0.0013593749608844519,0.001970437355339527,0.00035035237669944763
1746576103124440000,11.126440185546874,-0.001979493536055088,0.0003856699913740158,0.001975211314857006
1746576103134455000,11.136455078125,-0.0012987894006073475,-0.0003261929377913475,-0.00012202817015349865
1746576103144471000,11.146470947265625,-0.00019907206296920776,-0.0005071493797004223,-0.0011730324476957321
1746576103154487000,11.156487060546874,0.0015777889639139175,-0.0012094252742826939,-0.001420972403138876
1746576103164502000,11.166501953125,-0.0002338886260986328,-0.0018790650647133589,0.003212729934602976
1746576103174518000,11.17651806640625,0.001304619712755084,0.00011058291420340538,0.00003557885065674782
1746576103184534000,11.186533935546874,-0.0016904030926525593,-0.00024903565645217896,0.0013842983171343803
1746576103194549000,11.196549072265626,0.00037700869143009186,0.0003459146246314049,-0.0003054775297641754
1746576103204565000,11.20656494140625,-0.001829163171350956,0.00214943615719676,-0.000047457171604037285
1746576103214581000,11.2165810546875,-0.0001524370163679123,-0.0010644667781889439,-0.0016647949814796448
1746576103224596000,11.226595947265626,-0.0032055815681815147,-0.0017383582890033722,-0.0027629383839666843
1746576103234612000,11.236612060546875,0.00036598416045308113,-0.000157239381223917,0.00026587466709315777
1746576103244628000,11.2466279296875,-0.0004349667578935623,-0.0006253737956285477,0.00048734829761087894
1746576103254643000,11.256642822265626,0.0007855601143091917,0.0017216699197888374,0.0013635281939059496
1746576103264659000,11.266658935546875,0.000836679944768548,0.0007944260723888874,0.0016161156818270683
1746576103274675200,11.27667529296875,0.00043720612302422523,-0.0012514139525592327,-0.0029325634241104126
1746576103284690200,11.286690185546876,0.0018847358878701925,0.000008881092071533203,0.0025679627433419228
1746576103294706200,11.2967060546875,0.0011033646296709776,0.00021101487800478935,-0.00042942469008266926
1746576103304722200,11.30672216796875,-0.0006837509572505951,0.0006678733043372631,0.0016502307262271643
1746576103314737200,11.316737060546876,0.0009194721933454275,0.0006308555603027344,0.0009285141713917255
1746576103324753200,11.326753173828125,0.0017878215294331312,0.002097761258482933,0.002670074813067913
1746576103334768000,11.33676806640625,-0.003022379707545042,0.001023708377033472,0.0007840241305530071
1746576103344783400,11.346783447265626,-0.0008990569040179253,-0.0024900620337575674,0.0004733707755804062
1746576103354799400,11.35679931640625,-0.00023326696828007698,0.0029417211189866066,0.00385851482860744
1746576103364815400,11.3668154296875,-0.0006318800151348114,0.0018709180876612663,-0.001967907650396228
1746576103374830300,11.376830322265626,0.00016120914369821548,-0.0005269921384751797,-0.0003396507818251848
1746576103384846300,11.386846435546875,-0.00024294061586260796,0.0019051292911171913,-0.00009059207513928413
1746576103394861300,11.396861328125,-0.0016261865384876728,-0.0013354052789509296,0.0004942382220178843
1746576103404877300,11.406877197265626,0.001784793334081769,0.0010302909649908543,0.002341790124773979
1746576103414893300,11.416893310546875,-0.00043361959978938103,0.00024066399782896042,0.0012576172593981028
1746576103424908300,11.426908203125,0.00012815184891223907,-0.0018683532252907753,0.002142765559256077
1746576103434924300,11.43692431640625,-0.0010814559645950794,-0.000873129814863205,-0.00042745121754705906
1746576103444940300,11.446940185546875,-0.0015723523683845997,0.0002943770959973335,0.0008461230900138617
1746576103454955300,11.456955322265625,0.0009009251371026039,0.000435524620115757,0.000033592572435736656
1746576103464971300,11.46697119140625,-0.0006297361105680466,-0.0001117214560508728,-0.0010320949368178844
1746576103474987300,11.4769873046875,-0.002136286348104477,-0.0014931033365428448,0.0007636744994670153
1746576103485002200,11.487002197265625,-0.0017182491719722748,-0.002634582109749317,0.0012823552824556828
1746576103495018200,11.497018310546874,-0.0007912027649581432,-0.0004276204854249954,-0.0009805327281355858
1746576103505034200,11.5070341796875,0.0009094863198697567,-0.00003418046981096268,-0.0006826699245721102
1746576103515049200,11.51704931640625,0.000818406231701374,0.00011895131319761276,-0.00032527348957955837
