time,seconds_elapsed,z,y,x
1746576142031242500,0.019242431640625,0.005853545386344194,0.0014236774295568466,-0.014293565414845943
1746576142041320400,0.029320556640625,0.00039619067683815956,0.002037479542195797,-0.0003029822837561369
1746576142051398400,0.0393984375,0.003931270446628332,0.0017863428220152855,0.008343236520886421
1746576142061477400,0.049477294921875,0.002095120260491967,0.0022789775393903255,0.010845500975847244
1746576142071555300,0.059555419921875,0.003802472958341241,0.01026020385324955,0.0136159872636199
1746576142081633300,0.06963330078125,-0.003170580603182316,0.018423907458782196,0.014618176966905594
1746576142091712500,0.07971240234375,-0.0006898464635014534,0.021080411970615387,0.01652686484158039
1746576142101790500,0.08979052734375,0.0010467120446264744,0.017620865255594254,0.00859108753502369
1746576142111868400,0.099868408203125,0.006130686495453119,0.0057157352566719055,0.009965011849999428
1746576142121947600,0.10994775390625,0.002838538959622383,-0.0008501317352056503,0.015097602270543575
1746576142132025900,0.12002587890625,-0.006728867534548044,-0.005381500348448753,0.02327457256615162
1746576142142103800,0.130103759765625,-0.005504418630152941,-0.005108417943120003,0.02495008148252964
1746576142152182800,0.140182861328125,-0.0036428687162697315,-0.0003261798992753029,0.016373371705412865
1746576142162260700,0.1502607421875,-0.0017745955847203732,0.0044196778908371925,0.008949627168476582
1746576142172339000,0.1603388671875,0.0028936597518622875,0.016320012509822845,0.0016882524359971285
1746576142182418000,0.17041796875,-0.0032357866875827312,0.023978466168045998,0.005359174683690071
1746576142192495900,0.180495849609375,-0.010328583419322968,0.02849385514855385,0.013315368443727493
1746576142202574800,0.190574951171875,-0.012200215831398964,0.018311738967895508,0.02742394059896469
1746576142212652800,0.20065283203125,-0.015174701809883118,0.012295390479266644,0.04725756496191025
1746576142222730800,0.210730712890625,-0.022112444043159485,0.014908697456121445,0.056074704974889755
1746576142232809700,0.220809814453125,-0.02106182649731636,0.011920364573597908,0.06037970632314682
1746576142242888000,0.230887939453125,-0.008130733855068684,0.005940929055213928,0.053035933524370193
1746576142252966000,0.2409658203125,0.005907054059207439,0.006406982429325581,0.040466081351041794
1746576142263044900,0.251044921875,0.010405868291854858,0.007124436553567648,0.02722030133008957
1746576142273122800,0.261122802734375,0.00861063227057457,0.009303700178861618,0.007540073711425066
1746576142283201000,0.271200927734375,0.008016522973775864,0.01190427877008915,-0.010668747127056122
1746576142293280000,0.281280029296875,0.00967700406908989,0.007810201961547136,-0.027534544467926025
1746576142303358000,0.29135791015625,0.011846659705042839,0.00276191346347332,-0.041338782757520676
1746576142313436000,0.301435791015625,0.01353403925895691,-0.003268282627686858,-0.0515727773308754
1746576142323515000,0.311514892578125,0.013622838072478771,-0.014949280768632889,-0.0514727458357811
1746576142333592800,0.3215927734375,0.0065473513677716255,-0.017829222604632378,-0.03656730055809021
1746576142343670800,0.3316708984375,-0.0018530157394707203,-0.012323401868343353,-0.014256922528147697
1746576142353750000,0.34175,-0.005502079147845507,-0.0012225471436977386,0.006241427268832922
1746576142363828000,0.351827880859375,-0.011608865112066269,0.00953273382037878,0.0274213757365942
1746576142373906000,0.361906005859375,-0.004535508342087269,0.011619587428867817,0.040538240224123
1746576142383985000,0.37198486328125,-0.002145963255316019,0.013238416984677315,0.045083899050951004
1746576142394063000,0.38206298828125,-0.0017832410521805286,0.009154725819826126,0.038706161081790924
1746576142404141800,0.392141845703125,-0.00020651426166296005,0.005784391891211271,0.01924474537372589
1746576142414219800,0.4022197265625,-0.005144014954566956,0.010934678837656975,0.0009533551055938005
1746576142424297700,0.412297607421875,-0.000013325363397598267,0.003926141187548637,-0.012405232526361942
1746576142434377000,0.422376953125,0.0014253142289817333,-0.0025131162256002426,-0.025914382189512253
1746576142444455000,0.432454833984375,0.007081444375216961,-0.01624506711959839,-0.035073697566986084
1746576142454532900,0.442532958984375,0.010801347903907299,-0.021508272737264633,-0.04064449667930603
1746576142464611800,0.45261181640625,0.013574937358498573,-0.016751227900385857,-0.04724210500717163
1746576142474690000,0.46268994140625,0.012321386486291885,-0.007324437145143747,-0.03949204087257385
1746576142484768000,0.47276806640625,0.0037354847881942987,0.00446601677685976,-0.026696251705288887
1746576142494846700,0.4828466796875,-0.002635063137859106,0.0068391598761081696,-0.011780684813857079
1746576142504924700,0.492924560546875,-0.008377140387892723,0.006504453253000975,-0.005425525829195976
1746576142515003000,0.5030029296875,-0.0003069629892706871,0.005885800812393427,0.003175951773300767
1746576142525081900,0.513081787109375,-0.00023604370653629303,0.010325237177312374,0.008118465542793274
1746576142535159800,0.523159912109375,-0.005201773717999458,0.008995520882308483,0.017457906156778336
1746576142545237800,0.53323779296875,-0.009530195966362953,0.008282273076474667,0.02431095391511917
1746576142555317000,0.54331689453125,-0.006100310478359461,-0.003439097199589014,0.025643333792686462
1746576142565395000,0.55339501953125,-0.00442266371101141,-0.002593330107629299,0.016676435247063637
1746576142575473000,0.563472900390625,-0.003515857271850109,-0.0019682860001921654,-0.0007776570273563266
1746576142585552000,0.5735517578125,-0.0004884181544184685,-0.0017064986750483513,-0.014850609004497528
1746576142595629800,0.5836298828125,0.005394504871219397,0.0010139206424355507,-0.016229594126343727
1746576142605708800,0.593708740234375,0.007209036499261856,0.0034434725530445576,-0.013320926576852798
1746576142615786800,0.603786865234375,0.007207971531897783,0.007887754589319229,-0.009933385998010635
1746576142625865000,0.613864990234375,0.008988477289676666,0.008364192210137844,-0.004771933890879154
1746576142635944000,0.62394384765625,0.007889656350016594,0.008832110092043877,0.0024742609821259975
1746576142646022000,0.63402197265625,0.003394204657524824,0.012155254371464252,0.007360952906310558
1746576142656099800,0.644099853515625,-0.006396374199539423,0.014842650853097439,0.012292594648897648
1746576142666178800,0.6541787109375,-0.011025099083781242,-0.00011270307004451752,0.01201685331761837
1746576142676256800,0.6642568359375,-0.0076213134452700615,-0.01691778190433979,0.013193437829613686
1746576142686335000,0.6743349609375,0.00035093771293759346,-0.015534322708845139,0.003461134620010853
1746576142696414000,0.6844140625,-0.0008695889264345169,-0.008128338493406773,-0.009972648695111275
1746576142706492000,0.694491943359375,0.003652682527899742,0.005937413312494755,-0.014424665831029415
1746576142716569900,0.70456982421875,0.007534772157669067,0.006623176857829094,-0.01888146623969078
1746576142726648800,0.71464892578125,0.008811311796307564,0.0010799174197018147,-0.022248677909374237
1746576142736726800,0.724726806640625,0.009910398162901402,-0.0069492473267018795,-0.023144032806158066
1746576142746805000,0.734804931640625,0.0074270437471568584,-0.01154639944434166,-0.022396473214030266
1746576142756884000,0.744884033203125,0.0033454829826951027,-0.00483816210180521,-0.020146900787949562
1746576142766962000,0.7549619140625,0.0015015322715044022,-0.0004338272847235203,-0.003239284735172987
1746576142777041000,0.765041015625,0.000514298677444458,0.0032751569524407387,0.016256386414170265
1746576142787118800,0.775118896484375,-0.0036413916386663914,0.0063243163749575615,0.03315771743655205
1746576142797196800,0.78519677734375,-0.00789659097790718,0.009669512510299683,0.04028460383415222
1746576142807275800,0.79527587890625,-0.007927540689706802,0.009383277967572212,0.03217319771647453
1746576142817354000,0.80535400390625,-0.007535790093243122,0.004000496119260788,0.02108246274292469
1746576142827432000,0.815431884765625,-0.005352185107767582,0.0017316960729658604,0.004159357864409685
1746576142837511000,0.825510986328125,-0.0009904596954584122,-0.0006371862255036831,-0.0076166074723005295
1746576142847588900,0.8355888671875,-0.00032828329131007195,0.0011656680144369602,-0.015122830867767334
1746576142857667000,0.8456669921875,-0.0014468110166490078,-0.00330471433699131,-0.019639551639556885
1746576142867745800,0.855745849609375,-0.000050176866352558136,-0.010408003814518452,-0.021206138655543327
1746576142877823700,0.86582373046875,-0.00005789985880255699,-0.006050540134310722,-0.024210451170802116
1746576142887901700,0.875901611328125,0.0011566528119146824,-0.003192329313606024,-0.023384766653180122
1746576142897981000,0.88598095703125,0.0022549405694007874,0.0036429399624466896,-0.01681181974709034
1746576142908059000,0.896058837890625,-0.001828023698180914,0.004599120933562517,-0.004322543740272522
1746576142918136800,0.90613671875,-0.0009694206528365612,0.0014430093578994274,0.00974081177264452
1746576142928216000,0.916216064453125,-0.003537104930728674,0.003273561131209135,0.02214837819337845
1746576142938294000,0.9262939453125,-0.003932850901037455,0.003253320697695017,0.027793746441602707
1746576142948372000,0.9363720703125,-0.00565681466832757,-0.0005014184862375259,0.0324908047914505
1746576142958450700,0.94645068359375,-0.003701255191117525,-0.0011858507059514523,0.03303408995270729
1746576142968529000,0.95652880859375,-0.004314487800002098,-0.0008072559721767902,0.031290944665670395
1746576142978606800,0.96660693359375,0.00003685103729367256,-0.0012994077987968922,0.02372783236205578
1746576142988685800,0.976685791015625,0.0008208490908145905,-0.002310024108737707,0.007029070984572172
1746576142998763800,0.986763671875,0.004445677623152733,-0.004368647933006287,-0.009283322840929031
1746576143008843000,0.996843017578125,0.005001981742680073,-0.003716861829161644,-0.023688502609729767
1746576143018921000,1.0069208984375,0.0019723696168512106,-0.005961108021438122,-0.024810759350657463
1746576143028999000,1.0169990234375,0.0024426050949841738,-0.007948573678731918,-0.018135232850909233
1746576143039078000,1.027077880859375,0.0012798691168427467,-0.003784188535064459,-0.016332272440195084
1746576143049155800,1.03715576171875,0.0020703114569187164,-0.003308336716145277,-0.005157710984349251
1746576143059233800,1.04723388671875,0.0029957599472254515,0.0015569920651614666,0.004996389616280794
1746576143069312800,1.057312744140625,0.00025022774934768677,0.004363484680652618,0.015702877193689346
1746576143079390700,1.067390625,0.000041169580072164536,0.005659112706780434,0.019380168989300728
1746576143089469000,1.077468994140625,-0.005010632332414389,0.006318885367363691,0.022911641746759415
1746576143099548000,1.0875478515625,-0.007476453203707933,0.003444801550358534,0.02570050209760666
1746576143109625900,1.0976259765625,-0.0058996896259486675,-0.002229488454759121,0.01995350979268551
1746576143119703300,1.107703369140625,-0.002292704302817583,0.0001495135948061943,0.011051629669964314
1746576143129782500,1.117782470703125,0.003014668356627226,0.0014022630639374256,-0.007230183109641075
1746576143139860500,1.127860595703125,0.0038242691662162542,0.00035883625969290733,-0.022255204617977142
1746576143149938400,1.1379384765625,0.006826053373515606,-0.0018295887857675552,-0.03327706456184387
1746576143160017200,1.14801708984375,0.005717912223190069,-0.003154511097818613,-0.039417512714862823
1746576143170095400,1.158095458984375,0.006711214315146208,-0.012295491993427277,-0.036464281380176544
1746576143180173300,1.16817333984375,0.00609362730756402,-0.01639835722744465,-0.024069929495453835
1746576143190252300,1.178252197265625,0.004854473285377026,-0.013632187619805336,-0.01195101160556078
1746576143200330200,1.188330322265625,0.0024557639844715595,-0.0018945708870887756,0.00274484371766448
1746576143210408400,1.198408447265625,-0.00324309803545475,0.00793430395424366,0.013905028812587261
1746576143220487400,1.2084873046875,-0.006783504970371723,0.011147940531373024,0.023907329887151718
1746576143230565400,1.2185654296875,-0.006090616807341576,0.013549743220210075,0.025774920359253883
1746576143240643300,1.228643310546875,-0.005658386275172234,0.0185700673609972,0.023494722321629524
1746576143250722300,1.238722412109375,-0.003501784522086382,0.01292650680989027,0.02076197974383831
1746576143260800300,1.24880029296875,-0.000848743598908186,0.004019031301140785,0.008932750672101974
1746576143270879200,1.258879150390625,0.0009521283209323883,-0.002301447559148073,-0.0080355703830719
1746576143280957200,1.268957275390625,0.004355115815997124,-0.004675122909247875,-0.029602913185954094
1746576143291035400,1.279035400390625,0.009234047494828701,-0.005414681509137154,-0.042357053607702255
1746576143301114400,1.2891142578125,0.00956001877784729,-0.009223268367350101,-0.03761103376746178
1746576143311192300,1.2991923828125,0.011838691309094429,-0.008330418728291988,-0.0236604455858469
1746576143321270300,1.309270263671875,0.007989092729985714,-0.008784487843513489,-0.009130771271884441
1746576143331349200,1.319349365234375,0.003696854691952467,-0.0004280214197933674,-0.003273686394095421
1746576143341427200,1.32942724609375,-0.0012979037128388882,0.0041169291362166405,0.00420953007414937
1746576143351505200,1.339505126953125,-0.0065813856199383736,0.008657671511173248,0.016202067956328392
1746576143361584400,1.34958447265625,-0.008585147559642792,0.006356701720505953,0.024883175268769264
1746576143371662300,1.359662353515625,-0.009764323011040688,0.003931786864995956,0.02871588058769703
1746576143381740300,1.369740234375,-0.007188247516751289,0.002940557897090912,0.026422899216413498
1746576143391819300,1.3798193359375,-0.005069148726761341,0.004485989920794964,0.01396410446614027
1746576143401897500,1.3898974609375,-0.001611300278455019,0.004960298538208008,0.0032922851387411356
1746576143411975400,1.399975341796875,0.0033954058308154345,0.0039717876352369785,-0.011795264668762684
1746576143422054400,1.410054443359375,0.010365431196987629,-0.0019223205745220184,-0.021320058032870293
1746576143432132400,1.42013232421875,0.013776502572000027,-0.008728135377168655,-0.02753385715186596
1746576143442210600,1.43021044921875,0.010589230805635452,-0.009310303255915642,-0.026593226939439774
1746576143452289300,1.440289306640625,0.0033355792984366417,-0.004416744224727154,-0.01535442192107439
1746576143462367200,1.4503671875,-0.0005166833288967609,-0.0019064485095441341,0.0006650245049968362
1746576143472445200,1.460445068359375,-0.0007506031543016434,0.003548611421138048,0.016287770122289658
1746576143482524400,1.4705244140625,-0.0027533001266419888,0.003012250643223524,0.026685018092393875
1746576143492602400,1.480602294921875,-0.005476836580783129,0.007879391312599182,0.03217241168022156
1746576143502681300,1.490681396484375,-0.0064635383896529675,0.008716423064470291,0.02796967700123787
1746576143512759600,1.500759521484375,-0.005105346906930208,0.0051038432866334915,0.018798813223838806
1746576143522837500,1.51083740234375,-0.0007071360014379025,0.0007037688046693802,0.005393791012465954
1746576143532916200,1.520916259765625,0.0011270036920905113,-0.0016893460415303707,-0.00490731094032526
1746576143542994200,1.530994140625,0.0036580718588083982,-0.0050017861649394035,-0.01704147271811962
1746576143553072400,1.541072265625,0.003961990587413311,-0.009709031321108341,-0.0254550501704216
1746576143563151400,1.5511513671875,0.006657908670604229,-0.00924617424607277,-0.03455746918916702
1746576143573229300,1.561229248046875,0.005744924768805504,-0.004271280951797962,-0.03720293194055557
1746576143583307300,1.571307373046875,0.005526279099285603,-0.006600215099751949,-0.030125316232442856
1746576143593386500,1.581386474609375,0.004811523482203484,-0.003936043009161949,-0.019674329087138176
1746576143603464400,1.59146435546875,0.005116189364343882,-0.003314727684482932,-0.015154680237174034
1746576143613542400,1.60154248046875,0.003243230050429702,0.009588822722434998,-0.009368686005473137
1746576143623621000,1.61162109375,0.0011587738990783691,0.009416516870260239,-0.0020617712289094925
1746576143633699300,1.62169921875,0.0011116932146251202,0.00402915570884943,0.008816391229629517
1746576143643777300,1.63177734375,-0.003969352226704359,0.003499985672533512,0.02298627234995365
1746576143653856300,1.641856201171875,-0.0074646989814937115,0.004417866934090853,0.024147024378180504
1746576143663934200,1.651934326171875,-0.01150151900947094,0.0019019790925085545,0.017906971275806427
1746576143674012400,1.662012451171875,-0.009647420607507229,0.001779529731720686,0.0058889915235340595
1746576143684091400,1.67209130859375,-0.00035218894481658936,-0.0013203895650804043,-0.0014232498360797763
1746576143694169300,1.68216943359375,0.004914221819490194,-0.004874488338828087,-0.006825335323810577
1746576143704247300,1.692247314453125,0.0025884832721203566,-0.0020238403230905533,-0.013994565233588219
1746576143714326300,1.702326171875,0.00021533062681555748,0.0006053424440324306,-0.015554248355329037
1746576143724404200,1.712404296875,0.0007990952581167221,-0.0015211920253932476,-0.014777405187487602
1746576143734482200,1.722482177734375,0.003998418338596821,-0.0023778285831212997,-0.015928072854876518
1746576143744561400,1.7325615234375,0.005670616868883371,-0.006752603221684694,-0.007312479894608259
1746576143754639400,1.742639404296875,0.009108209982514381,-0.008799455128610134,-0.00036822466063313186
1746576143764717300,1.75271728515625,0.0070186941884458065,-0.008214890956878662,0.007166124414652586
1746576143774796300,1.76279638671875,-0.0013241078704595566,0.0007740845903754234,0.0076119564473629
1746576143784874500,1.77287451171875,-0.005303669720888138,0.0076586222276091576,0.011421875096857548
1746576143794952400,1.782952392578125,-0.006443893536925316,0.006281227804720402,0.014393400400876999
1746576143805031400,1.793031494140625,-0.005132020451128483,0.0025077946484088898,0.0108529943972826
1746576143815109400,1.803109375,-0.002793347928673029,0.001985388807952404,0.007428273092955351
1746576143825188400,1.813188232421875,-0.000609289389103651,0.0005832342430949211,0.007777147460728884
1746576143835266300,1.823266357421875,-0.0010106214322149754,0.000028285663574934006,0.0006793584325350821
1746576143845344300,1.83334423828125,0.0010051252320408821,-0.0004137991927564144,-0.011599145829677582
1746576143855423500,1.843423583984375,0.0021908157505095005,-0.00034812698140740395,-0.019387681037187576
1746576143865501400,1.85350146484375,0.00102914497256279,0.00030940771102905273,-0.024923592805862427
1746576143875579400,1.863579345703125,0.00013649556785821915,-0.0003244238905608654,-0.02335924096405506
1746576143885658400,1.873658447265625,0.00028643151745200157,-0.0013878243044018745,-0.023007437586784363
1746576143895736300,1.883736328125,0.0032429369166493416,-0.0039941538125276566,-0.01836278662085533
1746576143905814500,1.893814453125,0.004477844573557377,-0.0040359655395150185,-0.011542431078851223
1746576143915893200,1.903893310546875,-0.003081955946981907,0.00009795324876904488,-0.006016475614160299
1746576143925971200,1.91397119140625,-0.000879521481692791,-0.0015105963684618473,-0.004651072900742292
1746576143936049200,1.924049072265625,-0.0020141219720244408,-0.00012191757559776306,-0.004514876287430525
1746576143946128400,1.93412841796875,-0.0028660669922828674,0.0010109911672770977,-0.0018700907239690423
1746576143956206300,1.944206298828125,-0.003215526230633259,0.001971437130123377,0.006746952421963215
1746576143966284300,1.9542841796875,-0.003319389186799526,0.0003895191475749016,0.013448530808091164
1746576143976363500,1.964363525390625,-0.0004899371415376663,-0.0021797949448227882,0.028677113354206085
1746576143986441500,1.97444140625,-0.0005559832789003849,-0.0004119887016713619,0.03008619323372841
1746576143996519400,1.98451953125,-0.00042495084926486015,0.0038640396669507027,0.022449644282460213
1746576144006598100,1.99459814453125,-0.0017224429175257683,0.00664784200489521,0.005410740152001381
1746576144016676400,2.00467626953125,-0.001999970991164446,0.007985756732523441,-0.0044859047047793865
1746576144026754300,2.01475439453125,-0.0001368233934044838,0.00819081999361515,-0.008061731234192848
1746576144036833300,2.024833251953125,0.0008874707855284214,-0.001911614090204239,-0.004974850919097662
1746576144046911200,2.0349111328125,0.00394717650488019,-0.00579902995377779,-0.007980761118233204
1746576144056989400,2.044989501953125,0.003678708802908659,-0.00949816219508648,-0.005696572829037905
1746576144067068400,2.055068359375,-0.0017120619304478168,-0.00812050886452198,-0.004835040308535099
1746576144077146400,2.065146484375,-0.006261064670979977,-0.004768334329128265,0.00026842759689316154
1746576144087225300,2.075225341796875,-0.004518824629485607,-0.004440765827894211,0.002944638254120946
1746576144097303300,2.08530322265625,-0.006023756228387356,0.00430931756272912,0.005034958012402058
1746576144107381200,2.09538134765625,-0.0036335689947009087,0.007231071125715971,0.0053564016707241535
1746576144117460200,2.105460205078125,-0.0009419484995305538,0.010280443355441093,0.00828993134200573
1746576144127538200,2.1155380859375,0.00013023987412452698,0.014125250279903412,0.009630300104618073
1746576144137616100,2.1256162109375,-0.0024209381081163883,0.01557944156229496,0.016829989850521088
1746576144147695400,2.1356953125,-0.004031617660075426,0.012346098199486732,0.025917228311300278
1746576144157773300,2.145773193359375,-0.006038481369614601,0.004910710733383894,0.031450364738702774
1746576144167851300,2.155851318359375,-0.00006847316399216652,0.0005729543045163155,0.026222582906484604
1746576144177930200,2.16593017578125,0.00014041783288121223,0.0007393509149551392,0.016357125714421272
1746576144188008200,2.17600830078125,0.00021711690351366997,0.010139510035514832,0.005767865106463432
1746576144198086100,2.186086181640625,-0.002055457793176174,0.005334952380508184,-0.000998652190901339
1746576144208165000,2.1961650390625,-0.005010235123336315,0.004672624636441469,-0.007622200530022383
1746576144218243300,2.206243408203125,-0.0021388311870396137,0.0024220417253673077,-0.010667994618415833
1746576144228321300,2.2163212890625,0.0018282136879861355,-0.0007969210855662823,-0.01913338527083397
1746576144238400300,2.226400146484375,0.0028477662708610296,0.004002787638455629,-0.02344035729765892
1746576144248478200,2.236478271484375,0.0024016869720071554,0.0017931624315679073,-0.027439095079898834
1746576144258556400,2.246556396484375,0.007716838736087084,0.0009406302124261856,-0.025258827954530716
1746576144268635400,2.256635498046875,0.005244093481451273,-0.0000868174247443676,-0.012487106025218964
1746576144278713300,2.26671337890625,0.00048297271132469177,-0.0013129892759025097,-0.004565048031508923
1746576144288791300,2.276791259765625,-0.001395887229591608,0.001073735300451517,0.0016936470055952668
1746576144298870300,2.286870361328125,0.0016523669473826885,0.001084920484572649,0.0033256320748478174
1746576144308948200,2.2969482421875,0.0008512879721820354,0.005933472421020269,0.0008390385191887617
1746576144319026200,2.307026123046875,0.0009997622109949589,0.000006767921149730682,0.002990506822243333
1746576144329105200,2.317105224609375,0.0005369046702980995,0.0009306189604103565,0.0022730513010174036
1746576144339183400,2.327183349609375,0.001572242472320795,0.007833050563931465,-0.003770684590563178
1746576144349261300,2.33726123046875,0.0018958165310323238,0.007004806771874428,-0.01266111433506012
1746576144359340300,2.34734033203125,-0.001158787403255701,-0.0018382170237600803,-0.0182484183460474
1746576144369418200,2.357418212890625,0.003416789462789893,-0.012883943505585194,-0.014147947542369366
1746576144379496400,2.367496337890625,0.0018552634865045547,-0.013555486686527729,-0.008630838245153427
1746576144389575200,2.3775751953125,0.0016494011506438255,-0.008316515944898129,-0.001289835199713707
1746576144399653000,2.387653076171875,-0.0024100765585899353,0.0013728621415793896,-0.0030491244979202747
1746576144409732400,2.397732421875,0.0010147490538656712,0.008822521194815636,0.0023512335028499365
1746576144419810300,2.407810302734375,0.0028620529919862747,0.00822986289858818,-0.00040896597784012556
1746576144429888300,2.41788818359375,-0.0011465372517704964,0.0025038006715476513,-0.006326775997877121
1746576144439967200,2.42796728515625,-0.0064628697000443935,-0.0019152862951159477,-0.010236929170787334
1746576144450045400,2.43804541015625,-0.007053291890770197,-0.005437849089503288,-0.0155965406447649
1746576144460123400,2.448123291015625,-0.00499429227784276,-0.0068273842334747314,-0.011932468973100185
1746576144470202000,2.4582021484375,0.0032436633482575417,-0.004596986807882786,-0.008362768217921257
1746576144480280000,2.468280029296875,0.009382348507642746,-0.0013328003697097301,-0.010036074556410313
1746576144490358300,2.478358154296875,0.007890712469816208,0.008001845329999924,-0.010352457873523235
1746576144500437200,2.488437255859375,0.004407213069498539,0.007522206753492355,-0.00015310384333133698
1746576144510515200,2.49851513671875,0.0013365885242819786,0.0007977243512868881,0.004120470490306616
1746576144520593200,2.50859326171875,-0.003518765326589346,-0.003401864320039749,0.006878669839352369
1746576144530672400,2.51867236328125,-0.006319079082459211,-0.009137780405580997,0.008738888427615166
1746576144540750300,2.528750244140625,-0.004078812897205353,-0.004816590808331966,0.005025313701480627
1746576144550828300,2.538828369140625,0.00008131098002195358,-0.004469580948352814,0.003813575254753232
1746576144560907300,2.5489072265625,0.008328530937433243,0.003300510812550783,0.001994688529521227
1746576144570985200,2.558985107421875,0.00834264513105154,0.005796159151941538,-0.0033191165421158075
1746576144581063200,2.569063232421875,0.007829094305634499,0.011152148246765137,-0.007210418116301298
1746576144591142100,2.57914208984375,0.005317200440913439,0.012274671345949173,-0.010339366272091866
1746576144601220400,2.589220458984375,0.0043266769498586655,0.01120179146528244,-0.01394384540617466
1746576144611298300,2.59929833984375,0.006848424207419157,0.00519742863252759,-0.021127723157405853
1746576144621377300,2.609377197265625,0.004226269666105509,0.005411224905401468,-0.02579125203192234
1746576144631455200,2.619455322265625,-0.000126667320728302,0.004567536059767008,-0.027798475697636604
1746576144641533200,2.629533203125,-0.0003325659781694412,-0.0030325395055115223,-0.019588425755500793
1746576144651612200,2.639612060546875,0.0005465438589453697,-0.0030112345702946186,-0.009119005873799324
1746576144661690000,2.649690185546875,-0.0006173457950353622,0.0020289612002670765,-0.001040929346345365
1746576144671768000,2.65976806640625,-0.0013369321823120117,0.0031051444821059704,0.01258007436990738
1746576144681847300,2.669847412109375,-0.0034804162569344044,0.01013684831559658,0.02344459667801857
1746576144691925200,2.67992529296875,-0.006420545745640993,0.022088048979640007,0.03210918977856636
1746576144702004200,2.690004150390625,-0.0065476782619953156,0.020864376798272133,0.02139054238796234
1746576144712082200,2.700082275390625,-0.0029548071324825287,0.01344587467610836,0.012258031405508518
1746576144722160400,2.710160400390625,-0.0014002993702888489,0.008566166274249554,0.002805412048473954
1746576144732239400,2.7202392578125,-0.00023916130885481834,0.005335219204425812,-0.01052104588598013
1746576144742317300,2.7303173828125,0.0018534986302256584,0.004196030553430319,-0.024016493931412697
1746576144752395300,2.740395263671875,0.007464512716978788,0.0009650834836065769,-0.03365261107683182
1746576144762474200,2.75047412109375,0.013345545157790184,0.00331845972687006,-0.03431741148233414
1746576144772552200,2.76055224609375,0.008944937959313393,-0.0010416675359010696,-0.026056814938783646
1746576144782630100,2.770630126953125,0.005918087903410196,-0.0014792759902775288,-0.01238338928669691
1746576144792709400,2.78070947265625,-0.00042795855551958084,-0.004256686195731163,0.00034279213286936283
1746576144802787300,2.790787353515625,-0.0033850385807454586,-0.0030796765349805355,0.010891996324062347
1746576144812865300,2.800865234375,-0.004963494371622801,-0.0017081485129892826,0.018044982105493546
1746576144822944300,2.8109443359375,-0.004714655689895153,-0.0008123102597892284,0.02266259305179119
1746576144833022500,2.8210224609375,-0.006087249144911766,0.00782911479473114,0.020691055804491043
1746576144843100400,2.831100341796875,-0.004882152657955885,0.00773158622905612,0.016673346981406212
1746576144853179100,2.84117919921875,-0.002151879947632551,-0.0005716173909604549,0.00402945838868618
1746576144863257000,2.851257080078125,-0.0001721070148050785,0.015422526746988297,-0.0008510557236149907
1746576144873335300,2.861335205078125,0.00008115964010357857,-0.008815433830022812,-0.019800245761871338
1746576144883414300,2.871414306640625,0.008783153258264065,-0.028227854520082474,-0.04403245449066162
1746576144893492200,2.8814921875,0.012720370665192604,-0.029263557866215706,-0.056577008217573166
1746576144903570200,2.891570068359375,0.010292538441717625,-0.026085499674081802,-0.05979905650019646
1746576144913649400,2.9016494140625,0.009019814431667328,-0.02125053107738495,-0.054004818201065063
1746576144923727400,2.911727294921875,0.007654223591089249,-0.014664584770798683,-0.051656220108270645
1746576144933805300,2.921805419921875,0.007606020662933588,-0.010634155943989754,-0.053038403391838074
1746576144943884000,2.931884033203125,0.011863401159644127,-0.005585978273302317,-0.043108128011226654
1746576144953962200,2.941962158203125,0.008984524756669998,-0.013990648090839386,-0.026493996381759644
1746576144964040200,2.952040283203125,0.0014313035644590855,-0.01318802498281002,-0.010333726182579994
1746576144974119200,2.962119140625,-0.002467297948896885,-0.013436231762170792,0.010144650936126709
1746576144984197000,2.972197021484375,-0.0036455593071877956,-0.010652909055352211,0.022736389189958572
1746576144994276400,2.9822763671875,-0.0030966815538704395,-0.0036224299110472202,0.03183295205235481
1746576145004354300,2.992354248046875,-0.005628371145576239,0.0030116657726466656,0.03376232087612152
1746576145014432300,3.002432373046875,-0.00455485051497817,-0.0017407452687621117,0.026919594034552574
1746576145024511200,3.01251123046875,0.0008471054024994373,-0.01454335916787386,0.005110169295221567
1746576145034589200,3.022589111328125,0.00660858815535903,-0.011576065793633461,-0.018254542723298073
1746576145044667100,3.032667236328125,0.011916326358914375,0.002522123511880636,-0.04146244749426842
1746576145054746000,3.04274609375,0.012980524450540543,0.0139944888651371,-0.054744161665439606
1746576145064824300,3.05282421875,0.017825420945882797,0.022009164094924927,-0.0603552907705307
1746576145074902300,3.06290234375,0.015309532172977924,0.021291175857186317,-0.05219456925988197
1746576145084981200,3.072981201171875,0.015345375053584576,0.021127555519342422,-0.04188236966729164
1746576145095059200,3.08305908203125,0.009223300963640213,0.016643591225147247,-0.029251528903841972
1746576145105137400,3.093137451171875,0.0008960133418440819,0.012999692931771278,-0.010791456326842308
1746576145115216100,3.103216064453125,-0.005153889302164316,0.013665217906236649,0.01137563120573759
1746576145125294000,3.113294189453125,-0.005458231549710035,0.007653876207768917,0.021157369017601013
1746576145135372000,3.1233720703125,-0.005795387085527182,-0.0017958180978894234,0.029758846387267113
1746576145145451000,3.133450927734375,-0.004472292494028807,0.002851875964552164,0.02886955998837948
1746576145155529000,3.143529052734375,-0.006153014022856951,0.003986648749560118,0.024834871292114258
1746576145165607000,3.15360693359375,-0.009139581583440304,0.0008763950318098068,0.013584389351308346
1746576145175686000,3.163685791015625,-0.008154477924108505,0.005019208416342735,0.005113140679895878
1746576145185764000,3.17376416015625,-0.004247938748449087,0.00977199524641037,-0.0024027128238230944
1746576145195842000,3.183842041015625,-0.00023854989558458328,0.01283862441778183,-0.008696294389665127
1746576145205921000,3.193921142578125,0.00290696625597775,0.010456640273332596,-0.018789729103446007
1746576145215999000,3.2039990234375,0.010399237275123596,0.006999857258051634,-0.022132528945803642
1746576145226077200,3.2140771484375,0.010204439982771873,-0.004008801653981209,-0.018813658505678177
1746576145236156000,3.224156005859375,0.005863753613084555,-0.013231594115495682,-0.013936080038547516
1746576145246233900,3.23423388671875,0.0037794336676597595,-0.01396300457417965,0.0018172176787629724
1746576145256311800,3.244311767578125,-0.002775405067950487,-0.017625916749238968,0.012585708871483803
1746576145266391000,3.25439111328125,-0.008278070949018002,-0.0041806818917393684,0.02186601608991623
1746576145276469000,3.264468994140625,-0.009947073645889759,0.0100946594029665,0.028928719460964203
1746576145286547000,3.274546875,-0.0042685032822191715,0.014687176793813705,0.03530849888920784
1746576145296626000,3.2846259765625,-0.0031121582724153996,0.016855522990226746,0.03609146922826767
1746576145306704100,3.2947041015625,-0.0007996628992259502,0.009043032303452492,0.02551754005253315
1746576145316782800,3.304782958984375,0.000748965423554182,0.003022956196218729,0.0196806900203228
1746576145326860800,3.31486083984375,-0.0054916562512516975,0.0005004643462598324,0.0077569750137627125
1746576145336938800,3.324938720703125,-0.004618938080966473,0.0007689106278121471,0.006788383238017559
1746576145347018000,3.33501806640625,-0.003486636094748974,-0.004544519353657961,0.0045192185789346695
1746576145357096000,3.345095947265625,-0.0018581128679215908,-0.007750432472676039,0.006629507057368755
1746576145367174000,3.355173828125,-0.0003655673936009407,-0.005902361590415239,0.012073902413249016
1746576145377253000,3.365253173828125,-0.0040881335735321045,-0.0029893959872424603,0.01974300667643547
1746576145387331000,3.3753310546875,-0.006778286769986153,-0.0003144103102385998,0.0232560932636261
1746576145397409000,3.385408935546875,-0.0031177718192338943,0.0012701703235507011,0.018734578043222427
1746576145407487700,3.39548779296875,-0.0033776024356484413,0.004933507647365332,0.008402468636631966
1746576145417566000,3.40556591796875,-0.002305147238075733,0.006574814673513174,0.0039011933840811253
1746576145427644000,3.415643798828125,-0.0028848606161773205,0.005581668112426996,0.0018465124303475022
1746576145437723000,3.425722900390625,-0.003617230337113142,0.005464489106088877,0.00629558926448226
1746576145447800800,3.43580078125,0.0019088294357061386,0.0023725596256554127,-0.0013559387298300862
1746576145457879000,3.445879150390625,0.0061674900352954865,0.000018324702978134155,-0.009528115391731262
1746576145467958000,3.4559580078125,0.00509085226804018,-0.0028369021601974964,-0.01570509932935238
1746576145478036000,3.466035888671875,0.0010297982953488827,-0.0037066906224936247,-0.013625968247652054
1746576145488114000,3.476114013671875,-0.001669968944042921,-0.008380752988159657,-0.005729925353080034
1746576145498193200,3.486193115234375,-0.0007839351892471313,-0.009484367445111275,-0.0034459982998669147
1746576145508271000,3.49627099609375,-0.002662977669388056,-0.004627291113138199,0.001631072605960071
1746576145518349000,3.50634912109375,-0.002776161301881075,0.0009011654183268547,0.004105681553483009
1746576145528428000,3.516427978515625,-0.004201620817184448,0.006064073648303747,0.0089580612257123
1746576145538506000,3.526506103515625,-0.0039579421281814575,0.006213210988789797,0.007895992137491703
1746576145548585000,3.5365849609375,-0.00443959329277277,0.006850132718682289,0.007199471350759268
1746576145558663000,3.546662841796875,-0.0023066671565175056,0.0031757690012454987,0.0008483646088279784
1746576145568740900,3.556740966796875,0.0021282013040035963,0.00023121992126107216,-0.011713922955095768
1746576145578820000,3.566820068359375,0.003964184783399105,0.001875721849501133,-0.025314686819911003
1746576145588898000,3.57689794921875,0.00046722404658794403,-0.0012745857238769531,-0.028535570949316025
1746576145598976000,3.58697607421875,-0.0002741999924182892,-0.00400832062587142,-0.01802753657102585
1746576145609055000,3.597054931640625,0.0029191600624471903,-0.008280775509774685,-0.005546574480831623
1746576145619133000,3.6071328125,0.0037356852553784847,-0.0037336943205446005,0.009772460907697678
1746576145629211000,3.6172109375,0.0037127244286239147,0.0011247633956372738,0.009995419532060623
1746576145639289900,3.627289794921875,-0.0012037372216582298,0.009412253275513649,0.012733682058751583
1746576145649368000,3.6373681640625,-0.00429861806333065,0.014456014148890972,0.016547324135899544
1746576145659446000,3.647446044921875,-0.004754018038511276,0.017268311232328415,0.017588086426258087
1746576145669525000,3.65752490234375,-0.006528936792165041,0.007172216661274433,0.013040958903729916
1746576145679603000,3.66760302734375,-0.0002782312221825123,-0.0002255123108625412,0.006780931726098061
1746576145689681200,3.67768115234375,-0.0011024796403944492,-0.00849143136292696,0.0029869924765080214
1746576145699759900,3.687759765625,0.00040433695539832115,-0.010066958144307137,-0.0017393195303156972
1746576145709837800,3.697837890625,-0.004698782227933407,-0.0055207847617566586,-0.0072596450336277485
1746576145719915800,3.707915771484375,-0.005996273830533028,-0.0028349868953227997,-0.007252187933772802
1746576145729995000,3.7179951171875,0.0004263259470462799,-0.0006856005638837814,-0.00833533238619566
1746576145740073000,3.728072998046875,0.0017760158516466618,0.0046788048930466175,-0.009019497781991959
1746576145750152000,3.73815185546875,0.0025684942957013845,0.006499659735709429,-0.00960188452154398
1746576145760230100,3.748230224609375,0.004800489638000727,-0.00021736463531851768,-0.004106185398995876
1746576145770308000,3.75830810546875,0.000942951999604702,-0.0030449493788182735,-0.00034032948315143585
1746576145780386800,3.76838671875,-0.003369238693267107,-0.0033661266788840294,0.006163642276078463
1746576145790464800,3.77846484375,-0.003353539854288101,-0.007141371723264456,0.005620154552161694
1746576145800543000,3.78854296875,-0.006037740036845207,-0.0026755169965326786,0.006489942781627178
1746576145810622000,3.7986220703125,-0.004268561024218798,0.0034857080318033695,0.005634812172502279
1746576145820700000,3.808699951171875,-0.0024240552447736263,0.00399943208321929,0.0025924164801836014
1746576145830777900,3.81877783203125,-0.0016957293264567852,0.00038626790046691895,0.0011742046335712075
1746576145840857000,3.828857177734375,0.0006925933994352818,0.008528882637619972,0.004292766097933054
1746576145850935000,3.83893505859375,-0.003158251754939556,0.007251364178955555,-0.008370543830096722
1746576145861013000,3.849012939453125,0.00731755793094635,-0.022672712802886963,-0.026573514565825462
1746576145871092000,3.859092041015625,0.009664444252848625,-0.02997845783829689,-0.039583493024110794
1746576145881170000,3.869169921875,0.005646266974508762,-0.03894824907183647,-0.04695752263069153
1746576145891247900,3.879247802734375,0.002762121381238103,-0.027911895886063576,-0.04582066833972931
1746576145901326800,3.889326904296875,0.004717946983873844,-0.027478866279125214,-0.042841389775276184
1746576145911404800,3.89940478515625,0.008261872455477715,-0.020941659808158875,-0.03092220239341259
1746576145921483000,3.90948291015625,0.006678090896457434,-0.012644581496715546,-0.008396918885409832
1746576145931562000,3.91956201171875,0.0008605667389929295,0.004081242252141237,0.01610027253627777
1746576145941640000,3.929639892578125,-0.0036716004833579063,0.012333579361438751,0.03834539279341698
1746576145951719200,3.93971923828125,-0.010731453076004982,0.016090022400021553,0.05798305571079254
1746576145961797000,3.949797119140625,-0.01282842643558979,0.011707523837685585,0.06557545810937881
1746576145971875000,3.959875,-0.009671573527157307,-0.00973060168325901,0.06056610867381096
1746576145981953800,3.969953857421875,0.00029077939689159393,-0.021674346178770065,0.037497807294130325
1746576145992032000,3.980031982421875,-0.007130342070013285,-0.016191698610782623,0.015471077524125576
1746576146002110000,3.99010986328125,-0.01520770974457264,0.000590211246162653,0.0008569809724576771
1746576146012189000,4.00018896484375,-0.008975681848824024,0.0136842280626297,-0.01062651164829731
1746576146022267000,4.010266845703125,0.010289625264704227,0.023879874497652054,-0.021062640473246574
1746576146032345000,4.020344970703125,0.01835363358259201,0.016922634094953537,-0.031320612877607346
1746576146042424000,4.030424072265625,0.012923181988298893,0.0005756178870797157,-0.02973843179643154
1746576146052502000,4.040501953125,0.0013931053690612316,-0.007377700414508581,-0.02774723246693611
1746576146062580000,4.050580078125,-0.003787808585911989,-0.009585460647940636,-0.022171905264258385
1746576146072659000,4.060658935546875,-0.0015141163021326065,-0.008479342795908451,-0.024150529876351357
1746576146082737000,4.07073681640625,0.00568707101047039,-0.00650061434134841,-0.024268507957458496
1746576146092816000,4.08081591796875,0.01041971705853939,-0.0014354954473674297,-0.016541825607419014
1746576146102894000,4.09089404296875,0.008952847681939602,0.0069646467454731464,-0.010372347198426723
1746576146112972000,4.100971923828125,0.0026084785349667072,0.01505501102656126,0.002234477549791336
1746576146123051500,4.111051513671875,0.0017565330490469933,0.00939339678734541,0.014724170789122581
1746576146133129500,4.12112939453125,-0.001916786190122366,0.008356096222996712,0.019316786900162697
1746576146143207400,4.13120751953125,-0.007863891310989857,0.007764874026179314,0.025386396795511246
1746576146153286400,4.141286376953125,-0.01091200951486826,0.0034824046306312084,0.025126639753580093
1746576146163364400,4.1513642578125,-0.008107700385153294,-0.0014774664305150509,0.017669523134827614
1746576146173442300,4.1614423828125,-0.002818453125655651,-0.005764570087194443,0.001205912558361888
1746576146183521300,4.171521240234375,0.00041062943637371063,-0.010340679436922073,-0.006833372171968222
1746576146193599500,4.181599609375,0.0013516596518456936,-0.01244628056883812,-0.014599515125155449
1746576146203677400,4.191677490234375,0.0024150600656867027,-0.011230546981096268,-0.01881822943687439
1746576146213756400,4.20175634765625,0.004255067557096481,-0.009387747384607792,-0.031023355200886726
1746576146223834400,4.21183447265625,0.009206682443618774,-0.010805614292621613,-0.03759603574872017
1746576146233913300,4.221913330078125,0.011861508712172508,-0.005836367141455412,-0.0362127423286438
1746576146243991300,4.2319912109375,0.003983079455792904,0.003735566046088934,-0.022434348240494728
1746576146254069200,4.2420693359375,-0.001453835517168045,0.004575897939503193,-0.005281344521790743
1746576146264148500,4.2521484375,-0.008248092606663704,-0.0012670769356191158,0.008523151278495789
1746576146274226400,4.262226318359375,-0.008935051038861275,0.00005401065573096275,0.01778419502079487
1746576146284304400,4.272304443359375,-0.006995470263063908,0.0037390263751149178,0.022172285243868828
1746576146294383400,4.28238330078125,-0.005557349417358637,0.00506682600826025,0.021627604961395264
1746576146304461600,4.292461669921875,-0.006657501216977835,0.009761180728673935,0.020602021366357803
1746576146314539500,4.30253955078125,-0.005854593589901924,0.008870936930179596,0.021307816728949547
1746576146324618200,4.3126181640625,-0.0019016638398170471,0.008451223373413086,0.013301024213433266
1746576146334696200,4.3226962890625,0.003197051351889968,0.006162131205201149,0.002952669281512499
1746576146344774400,4.3327744140625,0.002549637109041214,0.003448103554546833,-0.00645920867100358
1746576146354853400,4.342853271484375,0.000003064516931772232,0.0024172468110919,-0.020672978833317757
1746576146364931300,4.352931396484375,0.0029192259535193443,-0.0022131912410259247,-0.027882689610123634
1746576146375010600,4.363010498046875,0.004953370429575443,-0.002448881044983864,-0.03205718845129013
1746576146385088500,4.373088623046875,0.006418108940124512,-0.008251376450061798,-0.028851276263594627
1746576146395166500,4.38316650390625,0.004331601317971945,-0.007853287272155285,-0.023905565962195396
1746576146405245200,4.3932451171875,-0.000773145817220211,-0.0038833131548017263,-0.014917929656803608
1746576146415323400,4.403323486328125,-0.0016759647987782955,-0.0015387185849249363,-0.0005542390281334519
1746576146425401300,4.4134013671875,-0.0033212658017873764,0.0036509837955236435,0.010526641272008419
1746576146435480300,4.423480224609375,-0.0011529126204550266,0.009669778868556023,0.017988353967666626
1746576146445558300,4.433558349609375,-0.0030040759593248367,0.012232540175318718,0.02095405012369156
1746576146455636200,4.44363623046875,0.0016556140035390854,0.008920100517570972,0.017356108874082565
1746576146465715500,4.453715576171875,0.0023344536311924458,0.0034259995445609093,0.015688704326748848
1746576146475793400,4.46379345703125,-0.00006566615775227547,-0.004798853304237127,0.01012913603335619
1746576146485871400,4.473871337890625,0.0004491228610277176,-0.005680892150849104,-0.00012989324750378728
1746576146495950300,4.483950439453125,0.0013374597765505314,0.0008908300660550594,-0.017139127478003502
1746576146506028300,4.4940283203125,0.005133263301104307,0.003944676835089922,-0.020540783181786537
1746576146516106200,4.504106201171875,0.004615544341504574,0.00040826480835676193,-0.019785510376095772
1746576146526185200,4.514185302734375,0.0071567329578101635,-0.006338587496429682,-0.010662319138646126
1746576146536263400,4.524263427734375,0.006724271457642317,-0.005368716083467007,-0.0006784523138776422
1746576146546342400,4.53434228515625,0.00020778272300958633,0.0028508645482361317,0.003827083623036742
1746576146556420400,4.54442041015625,-0.0037999371998012066,0.0044710272923111916,0.013756830245256424
1746576146566498300,4.554498291015625,-0.0021069650538265705,0.0036771390587091446,0.02180596813559532
1746576146576577500,4.56457763671875,-0.0022994903847575188,0.00032821251079440117,0.020159607753157616
1746576146586655500,4.574655517578125,-0.00018920144066214561,-0.00658348947763443,0.013070273213088512
1746576146596733400,4.5847333984375,-0.002635026816278696,-0.001801252830773592,0.007917595095932484
1746576146606812400,4.5948125,-0.0034733894281089306,0.003938658628612757,0.0028983349911868572
1746576146616890400,4.604890380859375,-0.004788041580468416,0.006404852960258722,0.0023157396353781223
1746576146626968300,4.61496826171875,-0.0012281937524676323,0.001660431269556284,-0.001151163363829255
1746576146637047300,4.62504736328125,0.004849067889153957,0.00003094738349318504,-0.011270261369645596
1746576146647125500,4.63512548828125,0.01034583244472742,-0.0003261822275817394,-0.01578165590763092
1746576146657203500,4.645203369140625,0.008248225785791874,0.0009439354762434959,-0.02150687947869301
1746576146667282400,4.655282470703125,0.004271061159670353,-0.00202575558796525,-0.022996384650468826
1746576146677360400,4.6653603515625,0.001203934196382761,-0.007303660269826651,-0.020795606076717377
1746576146687439400,4.675439453125,0.0037248823791742325,-0.004574186634272337,-0.013606136664748192
1746576146697517300,4.685517333984375,0.000788884237408638,0.0028122481890022755,-0.003736293874680996
1746576146707595300,4.69559521484375,-0.003804269712418318,0.0025890753604471684,0.0049581280909478664
1746576146717674500,4.705674560546875,-0.0036049801856279373,0.0027391258627176285,0.01586226001381874
1746576146727752400,4.71575244140625,-0.0032606329768896103,0.004264052025973797,0.0206703320145607
1746576146737830400,4.725830322265625,-0.0033628325909376144,0.003590530715882778,0.018163250759243965
1746576146747909400,4.735909423828125,-0.0030621616169810295,0.0074915289878845215,0.010780701413750648
1746576146757987300,4.7459873046875,-0.0003289235755801201,0.00826193019747734,0.000511494348756969
1746576146768065500,4.7560654296875,0.005256257951259613,0.0052709332667291164,-0.011420265771448612
1746576146778144300,4.766144287109375,0.006547956261783838,0.006154034286737442,-0.014633619226515293
1746576146788222200,4.77622216796875,0.007055820897221565,0.004954546689987183,-0.017454706132411957
1746576146798300200,4.786300048828125,0.0038700599689036608,-0.0009592627175152302,-0.014998229220509529
1746576146808379400,4.79637939453125,0.003957411739975214,-0.0017012194730341434,-0.011846378445625305
1746576146818457300,4.806457275390625,0.002053655218333006,-0.00598449120298028,-0.014356238767504692
1746576146828536300,4.816536376953125,0.0009697489440441132,-0.0038491685409098864,-0.010539396665990353
1746576146838614500,4.826614501953125,-0.0013413205742835999,-0.002673650626093149,-0.0032993212807923555
1746576146848692500,4.8366923828125,-0.007029832806438208,0.0010326709598302841,0.006883275229483843
1746576146858771200,4.846771240234375,-0.006873828824609518,0.006788081023842096,0.009303341619670391
1746576146868849200,4.85684912109375,-0.0002566729672253132,0.0007943711243569851,0.0068021006882190704
1746576146878927400,4.86692724609375,0.002762286690995097,0.0014524380676448345,-0.004476918838918209
1746576146889006300,4.87700634765625,0.0014312388375401497,0.0015677534975111485,-0.008116661570966244
1746576146899084300,4.887084228515625,0.00022565294057130814,-0.0007884441874921322,-0.010893933475017548
1746576146909162200,4.897162353515625,0.00016440032050013542,0.001817458774894476,-0.009182852692902088
1746576146919241500,4.907241455078125,0.0009614569135010242,-0.001781438011676073,-0.002947731874883175
1746576146929319400,4.9173193359375,-0.00008143670856952667,-0.0025862455368041992,0.0005138448905199766
1746576146939397400,4.9273974609375,0.0019940801430493593,-0.000986591912806034,0.0004636732046492398
1746576146949476600,4.9374765625,-0.00038358988240361214,0.0010896087624132633,0.006186007522046566
1746576146959554600,4.947554443359375,-0.0011886856518685818,-0.00008644210174679756,0.012084370478987694
1746576146969633300,4.95763330078125,-0.0020238528959453106,0.0018720468506217003,0.014391733333468437
1746576146979711200,4.967711181640625,-0.00541895255446434,0.00038366392254829407,0.020987624302506447
1746576146989789400,4.97778955078125,-0.003545951098203659,-0.0018691038712859154,0.01589299738407135
1746576146999868400,4.987868408203125,-0.0017734221182763577,-0.0005012014880776405,0.010567856952548027
1746576147009946400,4.9979462890625,0.00008360017091035843,-0.0022058910690248013,0.005994676612317562
1746576147020024300,5.0080244140625,-0.0004176069051027298,0.001274061854928732,0.00006488224607892334
1746576147030103600,5.018103515625,-0.0009537013247609138,0.003836821299046278,-0.0030795119237154722
1746576147040181500,5.028181396484375,0.0033385588321834803,-0.00008921371772885323,-0.009960043244063854
1746576147050259500,5.038259521484375,0.006163107696920633,-0.0025912532582879066,-0.012832795269787312
1746576147060338400,5.04833837890625,0.00469215027987957,-0.005191723816096783,-0.016142994165420532
1746576147070416400,5.05841650390625,0.0012529436498880386,-0.0034558752086013556,-0.010159138590097427
1746576147080494300,5.068494384765625,-0.006179010029882193,-0.0011404152028262615,-0.0033333576284348965
1746576147090573300,5.0785732421875,-0.004510540049523115,0.0001275157555937767,0.0017871021991595626
1746576147100651300,5.0886513671875,-0.003144670743495226,-0.0003784792497754097,0.0019013339187949896
1746576147110730500,5.09873046875,0.00046950485557317734,-0.002646427135914564,0.00499752489849925
1746576147120808200,5.10880810546875,0.00004852563142776489,0.003218380268663168,0.004538147710263729
1746576147130886100,5.11888623046875,-0.0033275638706982136,0.009107427671551704,0.007215689867734909
1746576147140964900,5.12896484375,-0.002780306152999401,0.006907658651471138,0.0074204811826348305
1746576147151043000,5.13904296875,-0.0007248786278069019,0.002690543420612812,0.0026446343399584293
1746576147161121000,5.14912109375,0.0037022316828370094,-0.00039883190765976906,-0.007695186883211136
1746576147171200000,5.159199951171875,0.004634604323655367,0.0006326101720333099,-0.015415690839290619
1746576147181278000,5.16927783203125,0.004539312329143286,0.001340110320597887,-0.01704912818968296
1746576147191356200,5.179356201171875,0.0035251807421445847,-0.0007222411222755909,-0.015943117439746857
1746576147201435100,5.18943505859375,0.002245237585157156,0.0018025366589426994,-0.012592734768986702
1746576147211513000,5.19951318359375,-0.000673054251819849,0.0013314234092831612,-0.009205993264913559
1746576147221591000,5.209591064453125,-0.0029017096385359764,0.0043973117135465145,-0.006576618645340204
1746576147231670000,5.219669921875,-0.0008894256316125393,0.005520899314433336,-0.0052218688651919365
1746576147241748000,5.229748046875,-0.0008173119276762009,0.0015528425574302673,-0.0024366830475628376
1746576147251827000,5.239826904296875,-0.00010411767289042473,-0.0014336258172988892,-0.0033221840858459473
1746576147261905200,5.2499052734375,0.0020484658889472485,-0.001374135259538889,-0.0034536225721240044
1746576147271983000,5.259983154296875,0.001626887358725071,-0.0028639077208936214,-0.006821722257882357
1746576147282062000,5.27006201171875,0.0033077020198106766,-0.003558032913133502,-0.002582346089184284
1746576147292140000,5.28014013671875,0.004822507966309786,-0.008678759448230267,0.002606024267151952
1746576147302218200,5.29021826171875,-0.0008270284160971642,-0.006626899354159832,-0.00017442590615246445
1746576147312297200,5.300297119140625,-0.002221459522843361,-0.003043615724891424,0.004929522518068552
1746576147322375200,5.310375244140625,-0.0030384105630218983,0.0030988105572760105,0.004494453780353069
1746576147332453000,5.320453125,0.0029720773454755545,-0.0006125709041953087,0.01141494419425726
1746576147342532000,5.330531982421875,0.0003836303949356079,-0.005481422413140535,0.013224800117313862
1746576147352610000,5.340610107421875,-0.0005916194058954716,-0.0041165524162352085,0.014312967658042908
1746576147362689000,5.35068896484375,-0.003590021748095751,0.000751070212572813,0.0038727219216525555
1746576147372767000,5.36076708984375,-0.0051303948275744915,0.0013513462617993355,-0.0057639265432953835
1746576147382845200,5.37084521484375,0.0036026432644575834,0.000802469439804554,-0.01128066424280405
1746576147392924200,5.380924072265625,0.0020976909436285496,-0.0025475211441516876,-0.011009820736944675
1746576147403002000,5.391002197265625,0.0027551676612347364,-0.0004963004030287266,-0.00925208255648613
1746576147413080000,5.401080078125,-0.0011956319212913513,0.0022326409816741943,-0.006583062466233969
1746576147423159000,5.411158935546875,0.0002756929025053978,0.003909204620867968,-0.007871117442846298
1746576147433237000,5.421237060546875,0.0001087128184735775,0.0033326302655041218,-0.00041985936695709825
1746576147443315000,5.43131494140625,-0.0029086563736200333,0.0008952571079134941,0.005896023474633694
1746576147453394200,5.441394287109375,-0.0034154560416936874,-0.005156776402145624,0.010633254423737526
1746576147463472000,5.45147216796875,-0.0049913194961845875,-0.00452896673232317,0.01350585650652647
1746576147473550000,5.461550048828125,-0.0025971378199756145,-0.006555365864187479,0.013640346005558968
1746576147483629000,5.471629150390625,-0.0030784066766500473,-0.005644513294100761,0.008757231757044792
1746576147493707300,5.481707275390625,-0.0009305677376687527,-0.004043420776724815,0.0031917577143758535
1746576147503786000,5.491785888671875,0.00041506998240947723,-0.00416267616674304,-0.003624018281698227
1746576147513864000,5.501864013671875,0.002800463465973735,-0.0015727519057691097,-0.009045681916177273
1746576147523942000,5.51194189453125,0.001276026014238596,-0.0004257247783243656,-0.012077435851097107
1746576147534021000,5.522021240234375,0.0017575258389115334,0.0032057613134384155,-0.008661665953695774
1746576147544099000,5.53209912109375,0.0019748967606574297,0.002238980960100889,-0.008349595591425896
1746576147554177000,5.542177001953125,0.0036316493060439825,0.005922931712120771,-0.010039371438324451
1746576147564256300,5.55225634765625,0.0016092672012746334,0.0007020682096481323,0.0009879859862849116
1746576147574334200,5.562334228515625,-0.0014104912988841534,-0.002405041828751564,0.009412896819412708
1746576147584412200,5.572412109375,-0.0009830105118453503,-0.0022753491066396236,0.011037169024348259
1746576147594491000,5.582490966796875,-0.006717062555253506,-0.0030742972157895565,0.010303468443453312
1746576147604569000,5.592569091796875,-0.005207395181059837,-0.002249194774776697,0.015202666632831097
1746576147614647000,5.60264697265625,-0.002142363227903843,-0.0006161443889141083,0.015296143479645252
1746576147624726000,5.61272607421875,-0.003506328444927931,-0.00006316090002655983,0.012935343198478222
1746576147634804000,5.622803955078125,-0.00004262104630470276,0.004430923145264387,0.007552029099315405
1746576147644883200,5.63288330078125,0.0007941313087940216,0.0008231881074607372,0.0007980504888109863
1746576147654961200,5.642961181640625,0.0009944010525941849,-0.0033172282855957747,-0.0042563630267977715
1746576147665039000,5.6530390625,0.0015349071472883224,-0.001142649445682764,-0.0031196216586977243
1746576147675118000,5.6631181640625,0.0019663393031805754,0.0007204976864159107,-0.009629984386265278
1746576147685196300,5.6731962890625,0.0047393380664289,-0.0011922921985387802,-0.015561748296022415
1746576147695274200,5.683274169921875,0.007480530068278313,0.00171374948695302,-0.0213107131421566
1746576147705353000,5.69335302734375,0.004764393903315067,-0.0012932270765304565,-0.024813031777739525
1746576147715431000,5.703430908203125,0.0009877649135887623,-0.0007866942323744297,-0.015662143006920815
1746576147725509000,5.713509033203125,-0.0021767406724393368,-0.0010116221383213997,-0.010973815806210041
1746576147735588000,5.723588134765625,-0.0016403794288635254,-0.005487597081810236,-0.006494911853224039
1746576147745666000,5.733666015625,-0.0016628438606858253,-0.0016986127011477947,-0.0009359858231619
1746576147755745300,5.743745361328125,-0.00205060001462698,-0.001320709940046072,-0.00005740892083849758
1746576147765823200,5.7538232421875,-0.0004811277613043785,-0.0005447682924568653,0.006688794586807489
1746576147775901200,5.763901123046875,-0.00022067036479711533,0.002041161060333252,0.00984011311084032
1746576147785980000,5.77397998046875,0.00048172008246183395,0.003367841709405184,0.009703388437628746
1746576147796058000,5.78405810546875,0.002446866827085614,0.00602221442386508,0.004475869704037905
1746576147806136000,5.794135986328125,0.005938883405178785,0.003724648617208004,-0.008403489366173744
1746576147816215000,5.804215087890625,0.0072425007820129395,0.000252685509622097,-0.016962356865406036
1746576147826293000,5.81429296875,0.008849847130477428,0.005267527420073748,-0.015487666241824627
1746576147836371200,5.82437109375,0.001840141136199236,0.006807100493460894,-0.0070848604664206505
1746576147846450200,5.8344501953125,-0.0001531420275568962,-0.0025886367075145245,0.004021210130304098
1746576147856528100,5.844528076171875,0.002893780590966344,-0.003357757581397891,0.0060273692943155766
1746576147866607000,5.854607177734375,-0.00014252495020627975,-0.0015632673166692257,0.004721945617347956
1746576147876685000,5.86468505859375,-0.002176114823669195,-0.0014498168602585793,0.00742425536736846
1746576147886763000,5.874762939453125,-0.003999696113169193,0.0011194413527846336,0.011814846657216549
1746576147896842000,5.884842041015625,-0.0036175325512886047,0.0024345098063349724,0.012354936450719833
1746576147906920200,5.894920166015625,0.0012055584229528904,0.001261768862605095,-0.00018047171761281788
1746576147916998100,5.904998046875,0.004846898373216391,0.0026383567601442337,-0.010179842822253704
1746576147927077000,5.9150771484375,0.006991551257669926,-0.005334570072591305,-0.01928085833787918
1746576147937155000,5.925155029296875,0.003573383903130889,-0.004114309325814247,-0.018835576251149178
1746576147947233300,5.9352333984375,-0.0041757808066904545,0.002682818565517664,-0.012232043780386448
1746576147957312000,5.94531201171875,-0.0037880246527493,0.0015863948501646519,-0.006435141433030367
1746576147967390000,5.955389892578125,0.00019796472042798996,-0.0026467512361705303,-0.0025392610114067793
1746576147977469200,5.96546923828125,0.003705081529915333,-0.0034603471867740154,0.0012064753100275993
1746576147987547100,5.975547119140625,0.00043176859617233276,-0.0015149060636758804,0.006269937381148338
1746576147997625000,5.985625,-0.001467064954340458,-0.001864845398813486,0.01735507883131504
1746576148007704000,5.9957041015625,-0.0054030087776482105,0.0017541777342557907,0.017102664336562157
1746576148017782000,6.005781982421875,-0.005291955079883337,0.0024985317140817642,0.01558332983404398
1746576148027860200,6.015860107421875,0.0028605845291167498,0.0023460970260202885,0.010819617658853531
1746576148037939000,6.02593896484375,0.004821736365556717,0.00009972043335437775,0.0027819310780614614
1746576148048017200,6.03601708984375,0.0037970803678035736,0.0008098306134343147,-0.005821579601615667
1746576148058095000,6.04609521484375,0.0029906751587986946,-0.0002903216518461704,-0.011962030082941055
1746576148068174000,6.056174072265625,0.0022641962859779596,-0.00118989497423172,-0.019715214148163795
1746576148078252000,6.066251953125,0.003523605177178979,-0.00047776568681001663,-0.016360430046916008
1746576148088331000,6.0763310546875,0.004727993160486221,-0.00037458864971995354,-0.01753852143883705
1746576148098409200,6.0864091796875,0.0015593641437590122,0.0011729742400348186,-0.010196185670793056
1746576148108487200,6.096487060546875,-0.000536011066287756,0.0007178396917879581,-0.0009382386924698949
1746576148118566100,6.106566162109375,-0.0007714345119893551,-0.005478536710143089,0.009506146423518658
1746576148128644400,6.116644287109375,-0.00012417137622833252,-0.003563032718375325,0.019207937642931938
1746576148138722300,6.126722412109375,-0.003813448827713728,0.001374734565615654,0.019433241337537766
1746576148148801500,6.136801513671875,-0.005060953553766012,0.006648914888501167,0.02197207883000374
1746576148158879500,6.14687939453125,-0.003085686359554529,-0.00006997399032115936,0.015867847949266434
1746576148168957400,6.15695751953125,-0.0029510464519262314,0.0013503977097570896,0.01153125986456871
1746576148179036400,6.167036376953125,-0.0003262348473072052,-0.0001729307696223259,0.0044757467694580555
1746576148189114600,6.177114501953125,0.00396319106221199,0.00011937413364648819,-0.003756447695195675
1746576148199193600,6.187193603515625,0.005967219825834036,0.0002823593094944954,-0.015582747757434845
1746576148209271600,6.197271484375,0.0081780469045043,0.002225290983915329,-0.01627899520099163
1746576148219349500,6.207349609375,0.0038434863090515137,0.0049963099882006645,-0.01318307127803564
1746576148229428500,6.217428466796875,-0.0009059240110218525,0.0030965753830969334,-0.0023699540179222822
1746576148239506400,6.22750634765625,-0.0005631754174828529,-0.00039083417505025864,0.0074962591752409935
1746576148249584400,6.23758447265625,-0.0027532661333680153,0.0034900857135653496,0.00948366615921259
1746576148259663400,6.247663330078125,-0.00040409155189991,0.005073601379990578,0.009319614619016647
1746576148269741600,6.257741455078125,-0.00016771862283349037,0.001132497563958168,0.005294084548950195
1746576148279820500,6.267820556640625,0.001044285949319601,-0.0012009642086923122,-0.0017137575196102262
1746576148289898500,6.2778984375,-0.00044933008030056953,0.000757632777094841,-0.00979208666831255
1746576148299976400,6.2879765625,0.0006814482621848583,-0.0017729033716022968,-0.01304114330559969
1746576148310055400,6.298055419921875,0.001208186149597168,-0.0050064632669091225,-0.008460713550448418
1746576148320133400,6.30813330078125,-0.0013319370336830616,-0.0018575415015220642,-0.003450242569670081
1746576148330211300,6.31821142578125,-0.0006400034762918949,-0.0013520787470042706,0.0004944441607221961
1746576148340290600,6.32829052734375,-0.00011030072346329689,0.007020366843789816,0.0037307175807654858
1746576148350368500,6.338368408203125,0.002770084422081709,0.0053367288783192635,0.006401842460036278
1746576148360446500,6.348446533203125,-0.00041532237082719803,0.000229585450142622,0.01132016908377409
1746576148370525400,6.358525390625,-0.0029828534461557865,0.001100168563425541,0.009733996354043484
1746576148380603600,6.368603759765625,-0.0035341274924576283,0.00133585836738348,0.007109983824193478
1746576148390682400,6.378682373046875,-0.0026305527426302433,0.0013857102021574974,-0.00022856457508169115
1746576148400760300,6.38876025390625,0.0010057277977466583,0.001443766988813877,-0.00913097895681858
1746576148410838300,6.39883837890625,0.0035874543245881796,0.001616552472114563,-0.012365439906716347
1746576148420917500,6.40891748046875,0.0064167967066168785,0.002871166914701462,-0.012059975415468216
1746576148430995500,6.418995361328125,0.005185302346944809,0.0010888129472732544,-0.011913645081222057
1746576148441073400,6.429073486328125,0.002909098519012332,0.004646264016628265,-0.008363119326531887
1746576148451152600,6.439152587890625,0.003240373684093356,0.005423109978437424,-0.0058389813639223576
1746576148461230600,6.449230712890625,0.00152583047747612,0.003965827636420727,-0.005747634917497635
1746576148471309300,6.459309326171875,0.0038436856120824814,0.00008385255932807922,-0.0012084519257768989
1746576148481387300,6.46938720703125,0.0017062327824532986,-0.0015641115605831146,0.003592428518459201
1746576148491465500,6.479465576171875,-0.0032324492931365967,-0.0027461806312203407,0.00535953976213932
1746576148501544400,6.48954443359375,-0.0034478995949029922,-0.002413818147033453,0.009945237077772617
1746576148511622400,6.499622314453125,-0.002018153667449951,-0.0007236250676214695,0.0062697166576981544
1746576148521700400,6.509700439453125,-0.0007824469357728958,0.0009906520135700703,0.0037373171653598547
1746576148531779600,6.519779541015625,-0.00032215937972068787,0.0032837954349815845,-0.00292975059710443
1746576148541857500,6.529857421875,0.0009822570718824863,-0.0003942963667213917,-0.012692633084952831
1746576148551935500,6.539935546875,0.0031897861044853926,-0.00279811630025506,-0.012447679415345192
1746576148562014500,6.550014404296875,0.001613993663340807,-0.0007078009657561779,-0.008471313863992691
1746576148572092400,6.560092529296875,0.0007405350916087627,-0.0006458032876253128,-0.005118446424603462
1746576148582171400,6.57017138671875,-0.0016382001340389252,0.0017427857965230942,-0.00149494968354702
1746576148592249300,6.580249267578125,-0.00044930772855877876,0.004468744155019522,-0.0032050171867012978
1746576148602327300,6.590327392578125,-0.002003262285143137,0.001419690903276205,-0.0033512248191982508
1746576148612406500,6.600406494140625,-0.000680435448884964,0.0025216559879481792,0.0006242835661396384
1746576148622484500,6.610484375,-0.00014167791232466698,-0.0056462595239281654,0.0020314978901296854
1746576148632562400,6.6205625,-0.003505946137011051,-0.011171313002705574,0.0047793081030249596
1746576148642641700,6.6306416015625,-0.001326148398220539,-0.006582953035831451,0.00403229147195816
1746576148652719600,6.6407197265625,0.001094064675271511,-0.003374632680788636,-0.003399012377485633
1746576148662798300,6.65079833984375,-0.0006242068484425545,-0.0012728660367429256,-0.001810170360840857
1746576148672876300,6.660876220703125,0.0010959738865494728,0.0011223736219108105,-0.0030123083852231503
1746576148682954500,6.67095458984375,-0.0032622888684272766,-0.002438538707792759,-0.001651965780183673
1746576148693033500,6.681033447265625,-0.004446979146450758,-0.0027590752579271793,0.004219875670969486
1746576148703111400,6.691111328125,-0.0033851764164865017,-0.0010392055846750736,0.0057927388697862625
1746576148713189400,6.701189453125,-0.0026438552886247635,-0.001925711054354906,0.0051211281679570675
1746576148723268600,6.7112685546875,-0.0011194623075425625,-0.0001603015698492527,0.004966132342815399
1746576148733346600,6.7213466796875,-0.0017705471254885197,0.0016559204086661339,0.004372462164610624
1746576148743424500,6.731424560546875,-0.000826722476631403,0.006140950135886669,0.00546009698882699
1746576148753503500,6.74150341796875,-0.0014780163764953613,0.0019812509417533875,0.007930873893201351
1746576148763581400,6.75158154296875,0.0015691723674535751,0.0034768814221024513,0.004122287500649691
1746576148773660400,6.761660400390625,-0.0016227769665420055,0.0025798212736845016,0.0020600976422429085
1746576148783738400,6.77173828125,0.00048378342762589455,0.00047832075506448746,0.0026419982314109802
1746576148793816600,6.781816650390625,0.0002990495413541794,0.0007334398105740547,0.0021131194662302732
1746576148803895600,6.7918955078125,-0.00033558160066604614,0.00016964878886938095,-0.006193280220031738
1746576148813973500,6.801973388671875,0.0017015887424349785,-0.00048808660358190536,-0.004482438322156668
1746576148824051500,6.812051513671875,0.0013604378327727318,-0.004860997200012207,-0.006500315386801958
1746576148834130400,6.82213037109375,-0.0005251024849712849,-0.0018718610517680645,-0.005127462558448315
1746576148844208400,6.83220849609375,-0.002906234934926033,-0.0026377863250672817,-0.004762609489262104
1746576148854287400,6.842287353515625,-0.0019366252236068249,-0.004175664857029915,-0.00217575766146183
1746576148864365600,6.852365478515625,-0.0004607015289366245,-0.005777556449174881,0.0003156295861117542
1746576148874443500,6.862443603515625,0.0013662618584930897,-0.0024656993336975574,0.0047476040199398994
1746576148884522500,6.8725224609375,-0.0020870589651167393,0.00020545115694403648,0.008289608173072338
1746576148894600400,6.882600341796875,-0.0041963751427829266,-0.0017896844074130058,0.014422711916267872
1746576148904678400,6.892678466796875,-0.005073087755590677,0.00008890917524695396,0.0154357785359025
1746576148914757400,6.90275732421875,-0.0027637104503810406,0.002458963543176651,0.013158880174160004
1746576148924835300,6.91283544921875,-0.0022409320808947086,0.0014144722372293472,0.008140153251588345
1746576148934914300,6.922914306640625,0.003233866300433874,0.0023989309556782246,-0.0008185525075532496
1746576148944992500,6.932992431640625,0.0029552995692938566,0.001337661873549223,-0.00837926659733057
1746576148955070500,6.943070556640625,0.0025371608790010214,0.0017786850221455097,-0.015505358576774597
1746576148965149400,6.9531494140625,0.001130745280534029,-0.001003253273665905,-0.020068686455488205
1746576148975227400,6.963227294921875,0.005571428220719099,-0.004531297832727432,-0.01667465642094612
1746576148985305600,6.9733056640625,0.0018416712991893291,-0.0017158035188913345,-0.00796558614820242
1746576148995384600,6.983384521484375,-0.0032230475917458534,-0.005176905542612076,-0.0034113603178411722
1746576149005462500,6.993462646484375,-0.001429408323019743,-0.0023315842263400555,0.004393565468490124
1746576149015540500,7.00354052734375,-0.002819671295583248,-0.000838245265185833,0.013344028033316135
1746576149025619500,7.013619384765625,-0.0030750688165426254,0.002410545479506254,0.020520182326436043
1746576149035697400,7.023697509765625,-0.004623142071068287,0.00199908297508955,0.02141740545630455
1746576149045776400,7.0337763671875,-0.00140737509354949,-0.002263039816170931,0.014974953606724739
1746576149055854600,7.0438544921875,0.0005172011442482471,0.00008774735033512115,0.00785070564597845
1746576149065932500,7.0539326171875,-0.003006693907082081,0.0023136171512305737,-0.0018543855985626578
1746576149076011500,7.064011474609375,0.0004565608687698841,0.002691195346415043,-0.008345087058842182
1746576149086089500,7.07408935546875,0.0022206390276551247,0.0014909086748957634,-0.011118502356112003
1746576149096167700,7.084167724609375,0.001321764662861824,-0.0015572914853692055,-0.011983445845544338
1746576149106246400,7.094246337890625,0.0006913947872817516,-0.005305424332618713,-0.010214574635028839
1746576149116324400,7.104324462890625,0.000803003553301096,-0.006397856865078211,-0.0030258968472480774
1746576149126403600,7.114403564453125,0.001044019591063261,-0.005618349649012089,0.0029022996313869953
1746576149136481500,7.1244814453125,-0.002590893767774105,-0.0028641587123274803,0.004186151083558798
1746576149146559500,7.1345595703125,-0.00244069192558527,0.0009630704298615456,0.006065011024475098
1746576149156638500,7.144638427734375,-0.005122228525578976,0.005323730409145355,0.003451118478551507
1746576149166716700,7.154716552734375,0.000558826606720686,0.00607234425842762,0.002909964183345437
1746576149176794600,7.164794677734375,-0.002152017317712307,0.004565308336168528,0.0018650046549737453
1746576149186873300,7.174873291015625,0.0010445751249790192,0.002553023863583803,0.002233319915831089
1746576149196951300,7.184951416015625,-0.0012451759539544582,0.00561108160763979,-0.0022421807516366243
1746576149207030500,7.195030517578125,-0.00005713989958167076,0.004485629498958588,-0.004267248325049877
1746576149217108500,7.2051083984375,0.0027196581941097975,0.001447020098567009,-0.003556671552360058
1746576149227186400,7.2151865234375,0.0007004495710134506,-0.0039464132860302925,0.004967840854078531
1746576149237265400,7.225265380859375,-0.0021924851462244987,-0.00295364111661911,0.01194527093321085
1746576149247343600,7.235343505859375,-0.0023054033517837524,-0.006079925689846277,0.00930128525942564
1746576149257421600,7.245421630859375,-0.0027460982091724873,-0.004615507088601589,0.006919035222381353
1746576149267500300,7.255500244140625,-0.00462868670001626,-0.0004884065128862858,0.0027583783958107233
1746576149277578200,7.265578125,-0.004637753590941429,-0.0004393570125102997,-0.002078656107187271
1746576149287657500,7.275657470703125,-0.003435869701206684,-0.0018428429029881954,-0.009845766238868237
1746576149297735400,7.2857353515625,0.001729077659547329,-0.005830707959830761,-0.013795563951134682
1746576149307813400,7.2958134765625,0.0030907518230378628,-0.004755057394504547,-0.021508611738681793
1746576149317892600,7.305892578125,0.0027293963357806206,-0.008289388380944729,-0.02434094250202179
1746576149327970600,7.315970458984375,0.0026753342244774103,-0.004624878987669945,-0.021590162068605423
1746576149338048500,7.326048583984375,0.0052577778697013855,-0.00001281173899769783,-0.01918160729110241
1746576149348127500,7.33612744140625,0.005737146828323603,0.0005717519670724869,-0.011579613201320171
1746576149358205400,7.346205322265625,0.004149844869971275,0.0026722410693764687,0.0045464118011295795
1746576149368284400,7.356284423828125,-0.002445739693939686,0.0008580964058637619,0.011977962218225002
1746576149378362400,7.3663623046875,-0.005035837646573782,0.0028662821277976036,0.017276743426918983
1746576149388440300,7.3764404296875,-0.007457982283085585,0.0018090074881911278,0.015124908648431301
1746576149398519600,7.38651953125,-0.006450936663895845,0.003277677111327648,0.00569541659206152
1746576149408597500,7.396597412109375,-0.004091642331331968,-0.00217141630128026,-0.001081529539078474
1746576149418675500,7.406675537109375,0.00009896839037537575,-0.0051649631932377815,-0.008935626596212387
1746576149428754700,7.416754638671875,0.003908353857696056,-0.0032877009361982346,-0.022114546969532967
1746576149438832600,7.42683251953125,0.011296460404992104,-0.002443962264806032,-0.03166405111551285
1746576149448911400,7.436911376953125,0.012686630710959435,-0.0007318160496652126,-0.03667079284787178
1746576149458989300,7.4469892578125,0.008799988776445389,0.0014235740527510643,-0.03303917869925499
1746576149469067500,7.457067626953125,0.007856164127588272,-0.0038470877334475517,-0.023309316486120224
1746576149479146500,7.467146484375,0.003932067193090916,-0.003654110012575984,-0.008829561062157154
1746576149489224400,7.477224365234375,-0.00016680406406521797,0.001561691053211689,0.008202685043215752
1746576149499302400,7.487302490234375,-0.0029150936752557755,0.0069635421968996525,0.012928886339068413
1746576149509381600,7.497381591796875,-0.004940960556268692,0.004095050971955061,0.0206264890730381
1746576149519459600,7.50745947265625,-0.002501562237739563,0.00207376666367054,0.023161068558692932
1746576149529537500,7.51753759765625,-0.004529026336967945,0.0026452811434865,0.018906936049461365
1746576149539616300,7.5276162109375,-0.0019672391936182976,-0.00005606748163700104,0.013374374248087406
1746576149549694500,7.537694580078125,-0.0018266243860125542,-0.003050792496651411,-0.0001430316042387858
1746576149559773400,7.5477734375,-0.0002893093042075634,-0.004102320410311222,-0.015047776512801647
1746576149569851400,7.557851318359375,0.0013051251880824566,-0.0035510456655174494,-0.028174497187137604
1746576149579929300,7.567929443359375,0.006191933527588844,-0.0038216060493141413,-0.03566679358482361
1746576149590008600,7.578008544921875,0.005736000370234251,-0.0035148097667843103,-0.036796506494283676
1746576149600086500,7.58808642578125,0.004571456927806139,-0.006976884789764881,-0.03137529268860817
1746576149610165200,7.598165283203125,0.0017655505798757076,-0.009054949507117271,-0.025529654696583748
1746576149620243500,7.608243408203125,-0.0032825744710862637,-0.010594195686280727,-0.018903138116002083
1746576149630321400,7.6183212890625,-0.005175815429538488,-0.008072182536125183,-0.004599032457917929
1746576149640400400,7.628400390625,-0.005529611371457577,-0.0034421223681420088,0.01084107905626297
1746576149650478300,7.638478271484375,-0.002834226004779339,-0.0014703180640935898,0.024404557421803474
1746576149660556500,7.648556640625,-0.004379437305033207,0.0032900897786021233,0.032790303230285645
1746576149670635500,7.658635498046875,-0.006211426109075546,0.0097407978028059,0.034779950976371765
1746576149680713500,7.66871337890625,-0.006732421461492777,0.010805855505168438,0.03597496077418327
1746576149690791400,7.67879150390625,-0.006167831365019083,0.0114756403490901,0.03503246605396271
1746576149700870400,7.688870361328125,-0.005129476543515921,0.00867324136197567,0.026166336610913277
1746576149710948400,7.6989482421875,-0.002526236232370138,0.006548305042088032,0.01835901290178299
1746576149721027300,7.70902734375,0.0009171036072075367,0.008293809369206429,0.01184948068112135
1746576149731105500,7.71910546875,0.00524047901853919,0.0018465635366737843,-0.005452810786664486
1746576149741183500,7.72918359375,0.010778580792248249,-0.008818119764328003,-0.013582960702478886
1746576149751262500,7.739262451171875,0.007060009054839611,-0.010483394376933575,-0.01508285291492939
1746576149761340400,7.74934033203125,0.002875221660360694,-0.006223199889063835,-0.01409326121211052
1746576149771419600,7.759419677734375,0.0008890358731150627,-0.0020721307955682278,-0.010463372804224491
1746576149781497600,7.76949755859375,0.0033293827436864376,-0.0048792059533298016,-0.01015801727771759
1746576149791575600,7.779575439453125,0.0033355080522596836,-0.002667450811713934,-0.010696242563426495
1746576149801654500,7.789654541015625,0.00528589216992259,-0.004304387606680393,-0.010270832106471062
1746576149811732500,7.799732421875,0.0005601127631962299,-0.0018116692081093788,-0.006457718089222908
1746576149821810400,7.809810546875,-0.00427966145798564,0.0011050701141357422,0.0023052121978253126
1746576149831889400,7.819889404296875,-0.00862833671271801,0.006207420490682125,-0.000968611566349864
1746576149841967400,7.82996728515625,0.00036903657019138336,0.0013826796784996986,-0.008266101591289043
1746576149852046600,7.840046630859375,0.004363778047263622,-0.003389704739674926,-0.018040435388684273
1746576149862124500,7.85012451171875,0.005706659518182278,-0.0047464268282055855,-0.018293006345629692
1746576149872202500,7.860202392578125,0.004582539200782776,-0.0005085389129817486,-0.011812470853328705
1746576149882281500,7.870281494140625,-0.0009147576056420803,0.003066754899919033,-0.00657962542027235
1746576149892359400,7.880359375,0.002444287296384573,0.0018206620588898659,-0.004051486495882273
1746576149902437400,7.890437255859375,0.00397847592830658,0.0018894257955253124,-0.001342733739875257
1746576149912516400,7.900516357421875,0.004155309870839119,-0.0007385811768472195,0.0015987276565283537
1746576149922594600,7.910594482421875,0.005122547037899494,-0.0011420459486544132,-0.003338779788464308
1746576149932673500,7.920673583984375,0.002419172553345561,-0.00037665339186787605,-0.007884263060986996
1746576149942751500,7.93075146484375,0.00003709085285663605,-0.0008614580146968365,-0.010545664466917515
1746576149952829400,7.940829345703125,-0.002026858739554882,0.0016421796754002571,-0.005773278884589672
1746576149962908400,7.950908447265625,-0.006367001682519913,-0.002674049697816372,0.00482949847355485
1746576149972986400,7.960986328125,-0.007234392687678337,0.0021768976002931595,0.01787126436829567
1746576149983064300,7.971064208984375,-0.007548622786998749,0.00852080900222063,0.020609000697731972
1746576149993143600,7.9811435546875,-0.005775489844381809,0.01218585204333067,0.01819591037929058
1746576150003221500,7.991221435546875,-0.0017955931834876537,0.006373490206897259,0.017857976257801056
1746576150013300500,8.001300537109374,-0.0003138105385005474,-0.004327357280999422,0.015334097668528557
1746576150023378400,8.01137841796875,-0.0016766763292253017,-0.006790448445826769,0.011831540614366531
1746576150033456600,8.02145654296875,-0.004007208626717329,-0.001778912264853716,0.013423577882349491
1746576150043535400,8.031535400390625,-0.004169603809714317,0.0013278778642416,0.014531134627759457
1746576150053613300,8.04161328125,-0.005822095088660717,-0.0027864398434758186,0.01830376870930195
1746576150063691300,8.051691162109375,-0.005119645968079567,-0.00011172331869602203,0.021022435277700424
1746576150073770500,8.0617705078125,-0.002662080340087414,-0.000921058002859354,0.01785913296043873
1746576150083848400,8.071848388671874,-0.0002687904052436352,-0.0014072475023567677,0.00580284558236599
1746576150093927400,8.081927490234374,0.0010334951803088188,0.0007294067181646824,-0.008435212075710297
1746576150104005600,8.092005615234376,0.001920189242810011,0.00018543563783168793,-0.021187130361795425
1746576150114083600,8.10208349609375,0.007989799603819847,-0.001976252533495426,-0.02198607847094536
1746576150124162600,8.11216259765625,0.006019928026944399,-0.0022759558632969856,-0.015495538711547852
1746576150134240500,8.122240478515625,0.004440673626959324,-0.0010045627132058144,-0.005524930544197559
1746576150144318500,8.132318359375,-0.0015417467802762985,-0.0003646691329777241,0.0011020413367077708
1746576150154397400,8.1423974609375,-0.0035247369669377804,-0.0005340464413166046,0.010326698422431946
1746576150164475600,8.1524755859375,-0.00445272121578455,-0.0016881474293768406,0.014547106809914112
1746576150174554600,8.1625546875,-0.0045355455949902534,0.0006618257611989975,0.017853153869509697
1746576150184632600,8.172632568359376,-0.005276320967823267,0.004210912622511387,0.013700916431844234
1746576150194710500,8.18271044921875,-0.004380433354526758,0.004345402121543884,0.008689380250871181
1746576150204789800,8.192789794921875,0.0006212024018168449,0.0016228635795414448,0.0028895342256873846
1746576150214867700,8.20286767578125,-0.00008293753489851952,0.0006689191795885563,0.0003086646902374923
1746576150224945700,8.212945556640625,-0.0011132322251796722,-0.0036726263351738453,-0.010015657171607018
1746576150235024600,8.223024658203125,0.0018396805971860886,-0.0034172290470451117,-0.014923595823347569
1746576150245102600,8.2331025390625,0.003210617695003748,-0.006474750116467476,-0.015809310600161552
1746576150255181600,8.243181640625,0.0014787642285227776,0.0011328360997140408,-0.01218741200864315
1746576150265259500,8.253259521484376,-0.0021055033430457115,-0.0006209150888025761,-0.004578273743391037
1746576150275337700,8.263337646484375,0.0015560770407319069,-0.002773548476397991,-0.0009238839847967029
1746576150285416700,8.273416748046875,-0.0008840044029057026,-0.0006474428810179234,0.00783429853618145
1746576150295494700,8.28349462890625,-0.0024731121957302094,0.0037100212648510933,0.009632730856537819
1746576150305572600,8.293572509765625,-0.004549394361674786,0.002855471335351467,0.016456859186291695
1746576150315651600,8.303651611328124,-0.0028399107977747917,0.0012312093749642372,0.019451050087809563
1746576150325729500,8.3137294921875,-0.0033490266650915146,0.002130233682692051,0.017440851777791977
1746576150335808500,8.32380859375,-0.004176204092800617,0.0000034337863326072693,0.01002741139382124
1746576150345886500,8.333886474609375,-0.0036285417154431343,0.0005130539648234844,0.0004401940095704049
1746576150355964700,8.343964599609375,0.0006255917251110077,0.002738657873123884,-0.006271771155297756
1746576150366043600,8.354043701171875,0.0019373022951185703,-0.0030647837556898594,-0.006596586667001247
1746576150376121600,8.36412158203125,0.0006286250427365303,-0.0034184518735855818,-0.00817157980054617
1746576150386200600,8.37420068359375,0.00021035876125097275,-0.005040958523750305,-0.00999381858855486
1746576150396278500,8.384278564453124,0.0003166189417243004,-0.0025770016945898533,-0.010860145092010498
1746576150406356500,8.3943564453125,-0.0005838889628648758,-0.005449117626994848,-0.002169074257835746
1746576150416435500,8.404435546875,-0.0051884944550693035,-0.00210418738424778,0.008839634247124195
1746576150426513700,8.414513671875,-0.005141576286405325,0.001638609915971756,0.012958493083715439
1746576150436591600,8.424591552734375,-0.0018310006707906723,0.004620551131665707,0.013850386254489422
1746576150446670600,8.434670654296875,-0.0018720249645411968,0.005407741758972406,0.010976496152579784
1746576150456748500,8.44474853515625,0.00045531149953603745,0.0051558068953454494,0.005742585752159357
1746576150466827500,8.45482763671875,-0.0003001582808792591,0.0008896752260625362,0.005710382014513016
1746576150476905500,8.464905517578124,0.0005608415231108665,0.0016121906228363514,-0.00004870377597399056
1746576150486983400,8.4749833984375,0.0005078567191958427,0.0005183853209018707,-0.00016301886353176087
1746576150497062700,8.485062744140626,0.0021664733067154884,-0.0017620795406401157,-0.007066199090331793
1746576150507140600,8.495140625,0.0013711601495742798,-0.0013510501012206078,-0.014147166162729263
1746576150517218600,8.505218505859375,0.0014933994971215725,-0.000765953678637743,-0.012439814396202564
1746576150527297500,8.515297607421875,-0.0009147459641098976,-0.0020729252137243748,-0.003304801881313324
1746576150537375700,8.525375732421875,0.0006144414655864239,-0.0024910415522754192,0.0008286904194392264
1746576150547454700,8.535454833984375,-0.0021304916590452194,0.0033660107292234898,0.007184783928096294
1746576150557532700,8.54553271484375,-0.0008867951110005379,0.004160431679338217,0.013404330238699913
1746576150567610600,8.555610595703126,-0.0032765534706413746,0.004361647181212902,0.014500130899250507
1746576150577689600,8.565689697265626,-0.0005731787532567978,-0.0005926312878727913,0.016506025567650795
1746576150587767600,8.575767578125,0.0008427193388342857,0.002350310795009136,0.012234224006533623
1746576150597845500,8.585845458984375,-0.0020241732709109783,0.0035511301830410957,0.006284455768764019
1746576150607924700,8.5959248046875,-0.005324442870914936,-0.00017324229702353477,0.0031896415166556835
1746576150618002700,8.606002685546875,-0.0001696282997727394,-0.00198099622502923,-0.002410453511402011
1746576150628081700,8.61608154296875,0.0024388565216213465,-0.0023002498783171177,-0.014749633148312569
1746576150638159600,8.62615966796875,0.006951050367206335,0.0005179070867598057,-0.019050370901823044
1746576150648237800,8.63623779296875,0.00544542632997036,0.0015891436487436295,-0.020573070272803307
1746576150658316500,8.646316650390625,0.004494411405175924,-0.002164314966648817,-0.01705077290534973
1746576150668394500,8.65639453125,0.0049283793196082115,0.000417239498347044,-0.009391353465616703
1746576150678472400,8.666472412109375,0.002594651421532035,-0.0005308459512889385,-0.0010684416629374027
1746576150688551700,8.6765517578125,-0.0005269893445074558,0.004313068464398384,0.008066363632678986
1746576150698629600,8.686629638671874,-0.002153914887458086,0.0005169990472495556,0.015771953389048576
1746576150708708600,8.69670849609375,-0.00333833834156394,-0.00011432729661464691,0.015919065102934837
1746576150718786600,8.70678662109375,-0.002568951342254877,-0.0010094158351421356,0.012955231592059135
1746576150728864800,8.71686474609375,-0.0005576158873736858,-0.00387828191742301,0.008252784609794617
1746576150738943500,8.726943603515625,-0.0030324910767376423,-0.00470519345253706,0.005161387380212545
1746576150749021400,8.737021484375,-0.0026353802531957626,-0.004326008725911379,-0.0018529052613303065
1746576150759100700,8.7471005859375,0.0019742853473871946,-0.0032343789935112,-0.008674059994518757
1746576150769178600,8.7571787109375,0.0008242982439696789,-0.005224243737757206,-0.01031637191772461
1746576150779256600,8.767256591796874,0.00017501972615718842,-0.004441007971763611,-0.01585707813501358
1746576150789335600,8.77733544921875,0.0030567680951207876,-0.002220675814896822,-0.01675690896809101
1746576150799413800,8.787413818359376,0.004045600071549416,0.0010981555096805096,-0.016601113602519035
1746576150809491700,8.79749169921875,0.00022759893909096718,-0.002128160558640957,-0.007900455966591835
1746576150819570400,8.8075703125,-0.0031357072293758392,-0.0032578734681010246,0.002173749264329672
1746576150829648400,8.8176484375,-0.002959209494292736,-0.00004129158332943916,0.007608174812048674
1746576150839727600,8.8277275390625,-0.002172245644032955,-0.0032850217539817095,0.0073815397918224335
1746576150849805600,8.8378056640625,0.0002548336051404476,-0.00317541416734457,0.007166259456425905
1746576150859883500,8.847883544921874,0.0009690932929515839,0.000988437794148922,0.0027472765650600195
1746576150869962800,8.857962646484374,0.0005406485870480537,-0.0019490830600261688,-0.0027980091981589794
1746576150880040700,8.868040771484376,-0.001125158742070198,-0.0006752931512892246,-0.0070769102312624454
1746576150890118700,8.87811865234375,-0.003123179078102112,-0.0006487327627837658,-0.009314789436757565
1746576150900197600,8.88819775390625,-0.0005348525010049343,-0.00039972737431526184,-0.011258098296821117
1746576150910275600,8.898275634765625,0.0028742605354636908,0.0010774419642984867,-0.01179832499474287
1746576150920354600,8.9083544921875,0.0015629199333488941,0.004552867729216814,-0.007750585675239563
1746576150930432500,8.9184326171875,0.0011132042855024338,-0.0030441684648394585,-0.0018925416516140103
1746576150940510500,8.928510498046874,0.0008189249783754349,-0.004832214675843716,0.001161038875579834
1746576150950589700,8.938589599609376,-0.003552271518856287,-0.0015236125327646732,0.004714124836027622
1746576150960667600,8.948667724609376,-0.005810631904751062,0.004000316374003887,0.010974683798849583
1746576150970745600,8.95874560546875,-0.0031698415987193584,0.0013041319325566292,0.013055412098765373
1746576150980824600,8.968824462890625,0.0023093458730727434,-0.0005624778568744659,0.014091115444898605
1746576150990902800,8.97890283203125,0.00468447944149375,-0.0005639605224132538,0.009737209416925907
1746576151000981500,8.9889814453125,0.004745732061564922,-0.0007493165321648121,-0.0015764316776767373
1746576151011059500,8.9990595703125,0.003976068459451199,0.002411099150776863,-0.010473454371094704
1746576151021137400,9.009137451171876,0.0007760142907500267,0.0027314769104123116,-0.017412852495908737
1746576151031216600,9.019216552734376,0.0050803301855921745,-0.002904679626226425,-0.02040049061179161
1746576151041294600,9.029294677734375,0.008000751957297325,-0.004729211330413818,-0.016921071335673332
1746576151051373600,9.03937353515625,0.004864440765231848,-0.0019785352051258087,-0.015322752296924591
1746576151061451800,9.04945166015625,0.0003165607340633869,0.0005280319601297379,-0.010029985569417477
1746576151071529700,9.05952978515625,-0.003024178557097912,-0.0001459158957004547,-0.003685419447720051
1746576151081608400,9.0696083984375,-0.0004438417963683605,0.003151876851916313,0.004643084481358528
1746576151091686400,9.079686279296874,-0.0002929558977484703,0.003937617409974337,0.013077152892947197
1746576151101764600,9.0897646484375,-0.004489565268158913,0.0018504983745515347,0.018827715888619423
1746576151111843600,9.099843505859376,-0.003599710762500763,0.0009859325364232063,0.017315728589892387
1746576151121921500,9.109921630859375,-0.0037597669288516045,0.004880805499851704,0.008472969755530357
1746576151132000500,9.12000048828125,-0.0005778791382908821,0.0054766093380749226,0.002680113073438406
1746576151142078500,9.130078369140625,0.0005073589272797108,-0.00057169608771801,-0.00570271909236908
1746576151152156700,9.14015673828125,0.0022863843478262424,-0.002491883933544159,-0.012223527766764164
1746576151162235400,9.1502353515625,0.003184136003255844,0.00004344526678323746,-0.01686248742043972
1746576151172313300,9.160313232421874,0.0031680299434810877,-0.0007404368370771408,-0.021404871717095375
1746576151182391300,9.170391357421876,0.0054764579981565475,-0.002204109914600849,-0.02191859483718872
1746576151192470500,9.180470458984376,0.004715408198535442,0.00175195699557662,-0.016398439183831215
1746576151202548500,9.190548583984375,0.0018857994582504034,-0.0005775103345513344,-0.009872364811599255
1746576151212627500,9.20062744140625,-0.003021735232323408,-0.0023601604625582695,0.0025526443496346474
1746576151222705700,9.21070556640625,-0.004437205847352743,-0.003875232767313719,0.009316806681454182
1746576151232783600,9.22078369140625,-0.0037793233059346676,-0.0017205290496349335,0.009941007010638714
1746576151242862300,9.2308623046875,-0.0026349625550210476,0.0006832401268184185,0.01449501235038042
1746576151252940500,9.2409404296875,-0.0045915874652564526,-0.00218045711517334,0.014548009261488914
1746576151263019500,9.25101953125,-0.0031039449386298656,0.00018283212557435036,0.013918437995016575
1746576151273097500,9.261097412109375,-0.0015698494389653206,0.0034653358161449432,0.0051541379652917385
1746576151283175400,9.271175537109375,-0.0007586507126688957,-0.00003299303352832794,-0.005224200896918774
1746576151293254700,9.281254638671875,0.002064068801701069,-0.004988119006156921,-0.009821142069995403
1746576151303332600,9.29133251953125,0.003076069988310337,-0.0016738148406147957,-0.01589900813996792
1746576151313410600,9.30141064453125,0.0026652023661881685,-0.006214026361703873,-0.020052526146173477
1746576151323489500,9.311489501953124,0.0009674374014139175,-0.004800420254468918,-0.01886742003262043
1746576151333567700,9.321567626953126,0.0006763297133147717,-0.0058052255772054195,-0.013541903346776962
1746576151343646500,9.331646484375,-0.0021514142863452435,-0.003506917506456375,-0.004666919354349375
1746576151353724400,9.341724365234375,-0.001589661929756403,-0.002126437146216631,-0.0008038486121222377
1746576151363802400,9.35180224609375,-0.0007294607348740101,-0.0007796767167747021,0.011246155947446823
1746576151373881600,9.361881591796875,-0.0029458696953952312,0.002187236212193966,0.019137272611260414
1746576151383959600,9.37195947265625,-0.006822633091360331,-0.0007768622599542141,0.018236592411994934
1746576151394037500,9.38203759765625,-0.004581456538289785,0.0005497732199728489,0.016545314341783524
1746576151404116500,9.392116455078124,-0.003124175127595663,0.003468065056949854,0.00740561168640852
1746576151414194700,9.402194580078126,0.00006738072261214256,0.0011383257806301117,-0.0017220992594957352
1746576151424273400,9.4122734375,0.001596834510564804,0.00157854612916708,-0.005800464190542698
1746576151434351400,9.422351318359375,0.0024339817464351654,0.0014620572328567505,-0.013149294070899487
1746576151444429300,9.43242919921875,0.005134959705173969,-0.0014319997280836105,-0.015741880983114243
1746576151454508500,9.442508544921875,0.004822500050067902,-0.00036804890260100365,-0.016467083245515823
1746576151464586500,9.45258642578125,0.002824063878506422,-0.001062068622559309,-0.012365281581878662
1746576151474665500,9.46266552734375,-0.0006247982382774353,-0.0009834086522459984,-0.009321436285972595
1746576151484743700,9.47274365234375,-0.001490325666964054,0.0022427444346249104,-0.004586336202919483
1746576151494821600,9.482821533203126,-0.004185503348708153,-0.0006605791859328747,0.001408491050824523
1746576151504900400,9.492900390625,-0.001964426599442959,0.0006132107228040695,-0.0008858221699483693
1746576151514978300,9.502978271484375,-0.00007081357762217522,0.0028475369326770306,0.0034526961389929056
1746576151525056500,9.513056396484375,-0.0009792177006602287,0.003198008518666029,0.0008353414013981819
1746576151535135500,9.523135498046875,-0.001529740635305643,0.0022312928922474384,0.0009314671624451876
1746576151545213400,9.53321337890625,0.0004915986210107803,-0.0011756885796785355,-0.003152224002406001
1746576151555292700,9.543292724609374,0.0007094927132129669,-0.0054940166883170605,-0.006080621387809515
1746576151565370600,9.55337060546875,0.0022583873942494392,0.0004946338012814522,-0.009161898866295815
1746576151575448600,9.563448486328125,0.0021868404000997543,-0.001883139368146658,-0.007331619039177895
1746576151585527300,9.57352734375,0.0021170657128095627,0.001615721732378006,-0.00841845478862524
1746576151595605500,9.58360546875,0.0026304309722036123,0.001524211373180151,-0.004718680866062641
1746576151605684500,9.5936845703125,0.005190527532249689,-0.002162934746593237,-0.006206589285284281
1746576151615762400,9.603762451171875,0.002476903609931469,-0.0039397235959768295,-0.0031934587750583887
1746576151625840400,9.61384033203125,-0.001791877206414938,0.0019298838451504707,-0.00012523087207227945
1746576151635919600,9.623919677734374,-0.002651880495250225,0.001793093979358673,0.004062442108988762
1746576151645997600,9.63399755859375,-0.00039112335070967674,0.000027950387448072433,0.008399133570492268
1746576151656075500,9.644075439453125,-0.0021926467306911945,-0.0004472224973142147,0.012122726999223232
1746576151666154500,9.654154541015625,-0.003935419488698244,-0.0021367319859564304,0.010851333849132061
1746576151676232700,9.664232666015625,-0.00247025303542614,0.0003627100959420204,0.00595994433388114
1746576151686311400,9.6743115234375,-0.0037685437127947807,0.0009571276605129242,0.005347151309251785
1746576151696389400,9.684389404296875,-0.0012102914042770863,0.0008894014172255993,0.003830879693850875
1746576151706467300,9.69446728515625,0.0012182453647255898,-0.0026427493430674076,-0.004606813658028841
1746576151716546600,9.704546630859374,0.0013013393618166447,-0.003946823067963123,-0.014987141825258732
1746576151726624500,9.71462451171875,0.002458749106153846,-0.003953481093049049,-0.0163368321955204
1746576151736703500,9.724703369140625,0.0013082637451589108,-0.0026016603223979473,-0.015387681312859058
1746576151746781700,9.73478173828125,0.0017657945863902569,-0.0054786731489002705,-0.006107363849878311
1746576151756859600,9.744859619140625,-0.0019657923839986324,-0.003714644117280841,0.0021840627305209637
1746576151766938400,9.7549384765625,-0.002967673819512129,0.000992493238300085,0.005117534659802914
1746576151777016300,9.765016357421874,-0.0024040904827415943,-0.0022997609339654446,0.010757524520158768
1746576151787094500,9.775094482421874,-0.0012677200138568878,-0.0021815169602632523,0.013430805876851082
1746576151797173500,9.785173583984376,-0.00030987290665507317,-0.001607235986739397,0.012903878465294838
1746576151807251500,9.79525146484375,-0.0022145663388073444,0.0021845726296305656,0.013958489522337914
1746576151817330700,9.80533056640625,-0.004791870713233948,0.005347197875380516,0.014501863159239292
1746576151827408600,9.81540869140625,-0.0035620229318737984,0.0032733939588069916,0.010127088986337185
1746576151837486600,9.825486572265625,-0.0008700517937541008,0.0032933559268712997,0.0033072803635150194
1746576151847565300,9.8355654296875,0.002410696353763342,0.003940504044294357,-0.003664342686533928
1746576151857643500,9.8456435546875,0.0017592632211744785,0.004397508222609758,-0.0087789511308074
1746576151867722500,9.855722412109374,0.002847697352990508,-0.0011389371939003468,-0.005157317966222763
1746576151877800400,9.865800537109376,-0.0008145077154040337,-0.0053000240586698055,-0.008729837834835052
1746576151887878400,9.87587841796875,-0.001743151806294918,-0.00685877213254571,-0.005469329655170441
1746576151897957600,9.88595751953125,-0.00040839891880750656,-0.003598524257540703,-0.007305053994059563
1746576151908035600,9.89603564453125,-0.0005530086345970631,-0.0017417683266103268,-0.007013704162091017
1746576151918113500,9.906113525390625,0.0029741518665105104,0.002887055277824402,-0.004095923155546188
1746576151928192500,9.916192626953125,0.0020881181117147207,0.004460982978343964,-0.0008095824741758406
1746576151938270500,9.9262705078125,0.001965462928637862,0.002045653760433197,0.00244283233769238
1746576151948349400,9.936349365234374,0.0008173743262887001,0.002418229356408119,0.004077480640262365
1746576151958427400,9.946427490234376,-0.0003735697828233242,0.0008918861858546734,0.005531700793653727
1746576151968505600,9.956505615234375,-0.001982651650905609,-0.003401928348466754,0.008887283504009247
1746576151978584600,9.96658447265625,-0.00815692450851202,0.0017235917039215565,0.014630923047661781
1746576151988662500,9.97666259765625,-0.003656715154647827,0.0014101373963057995,0.016110042110085487
1746576151998741500,9.986741455078125,-0.002402007579803467,0.0009359922260046005,0.014059830456972122
1746576152008819500,9.9968193359375,-0.002492820844054222,0.0021277563646435738,0.011591080576181412
1746576152018897400,10.0068974609375,-0.002604024950414896,0.0033167493529617786,0.012992864474654198
1746576152028976400,10.016976318359376,-0.0020013521425426006,0.002632050309330225,0.007536047603935003
1746576152039054300,10.027054443359376,0.002397366799414158,-0.00025294534862041473,0.0004592219484038651
1746576152049132500,10.037132568359375,0.004474099725484848,0.007096847053617239,-0.009627766907215118
1746576152059211500,10.04721142578125,0.0022755919490009546,0.009013619273900986,-0.014740118756890297
1746576152069289500,10.05728955078125,0.0016670599579811096,0.006429554428905249,-0.014132118783891201
1746576152079368700,10.06736865234375,0.0003275824710726738,0.002066128421574831,-0.0069017475470900536
1746576152089446700,10.07744677734375,-0.0019022822380065918,-0.0016761450096964836,0.0009401963325217366
1746576152099524600,10.087524658203124,-0.0009040483273565769,-0.0004974910989403725,0.006087776273488998
1746576152109603300,10.097603271484376,-0.0026247166097164154,0.0022711316123604774,0.009263861924409866
1746576152119681500,10.107681640625,-0.0011030333116650581,-0.0020237360149621964,0.011515816673636436
1746576152129760800,10.1177607421875,-0.004930794704705477,0.0047433567233383656,0.017876775935292244
1746576152139838700,10.127838623046875,-0.004502348601818085,0.0005410220474004745,0.014014852233231068
1746576152149916700,10.137916748046875,-0.0009033526293933392,-0.00027763377875089645,0.0020458069629967213
1746576152159996000,10.147995849609375,0.0019797254353761673,0.001047265250235796,-0.010894314385950565
1746576152170073900,10.158073974609374,0.004810399375855923,-0.0021144398488104343,-0.0226239413022995
1746576152180151800,10.16815185546875,0.006071940995752811,-0.003704002359881997,-0.02913389727473259
1746576152190230800,10.178230712890626,0.00816385354846716,-0.005662756972014904,-0.03160131722688675
1746576152200308700,10.188308837890625,0.007731934543699026,-0.001622301060706377,-0.030155876651406288
1746576152210387700,10.1983876953125,0.005371841136366129,-0.003150688949972391,-0.025690022855997086
1746576152220465700,10.208465576171875,0.005013448651880026,-0.000812530517578125,-0.016537657007575035
1746576152230544000,10.2185439453125,0.002058937679976225,0.004943625535815954,-0.009697592817246914
1746576152240622800,10.228622802734375,0.001892769243568182,0.0051101092249155045,-0.0011122871655970812
1746576152250700800,10.23870068359375,-0.00033150287345051765,0.0038269981741905212,0.007448177319020033
1746576152260779800,10.24877978515625,-0.002344042994081974,0.003435205202549696,0.009849484078586102
1746576152270857700,10.258857666015626,-0.005258872173726559,0.0028045685030519962,0.012493203394114971
1746576152280935700,10.268935791015625,-0.004462622106075287,-0.0005054259672760963,0.005758927669376135
1746576152291014700,10.2790146484375,-0.001712641678750515,-0.004637586884200573,0.0006227550329640508
1746576152301092900,10.2890927734375,0.0019507445394992828,-0.0041525699198246,-0.0003750796604435891
1746576152311170800,10.2991708984375,0.0018202494829893112,-0.004166418686509132,-0.0037722080014646053
1746576152321249800,10.309249755859375,0.0034812495578080416,-0.0034908095840364695,-0.0066538224928081036
1746576152331327700,10.31932763671875,0.004886599723249674,-0.0024953200481832027,-0.004205578472465277
1746576152341406700,10.32940673828125,0.0009251614101231098,-0.0004491782747209072,0.0018353440100327134
1746576152351484700,10.339484619140626,-0.004537781234830618,-0.002926450688391924,0.010187549516558647
1746576152361562600,10.349562744140625,-0.004219174385070801,0.001165392342954874,0.014802164398133755
1746576152371641600,10.3596416015625,-0.0018095462583005428,0.0053513492457568645,0.01805281825363636
1746576152381719800,10.3697197265625,0.00024028867483139038,0.01033039391040802,0.01625278778374195
1746576152391798800,10.379798828125,0.002703446662053466,-0.0034149778075516224,0.002099152421578765
1746576152401876700,10.389876708984374,0.005327400751411915,-0.009009691886603832,-0.007837583310902119
1746576152411954700,10.39995458984375,0.006060569081455469,-0.0033158534206449986,-0.017783423885703087
1746576152422033700,10.41003369140625,0.006828972604125738,-0.005381195805966854,-0.019278034567832947
1746576152432111600,10.420111572265625,0.007467332296073437,-0.006807052064687014,-0.02344508282840252
1746576152442190600,10.430190673828125,0.003832394490018487,-0.006745574995875359,-0.0251274686306715
1746576152452268800,10.440268798828125,0.005748805124312639,-0.006152222864329815,-0.027146143838763237
1746576152462346800,10.4503466796875,0.008927034214138985,-0.005061622243374586,-0.021296169608831406
1746576152472425700,10.46042578125,0.007451643701642752,-0.003249074798077345,-0.01428220234811306
1746576152482503700,10.470503662109374,0.0009672152809798717,-0.0012419954873621464,-0.009594684466719627
1746576152492582000,10.480581787109376,-0.0016615907661616802,0.002363392151892185,-0.0022025483194738626
1746576152502660900,10.490660888671876,-0.0005816551856696606,0.0046177520416677,0.0006499710725620389
1746576152512738800,10.50073876953125,0.0038213490042835474,0.0037487619556486607,-0.0005622998578473926
1746576152522817800,10.51081787109375,0.0016744011081755161,0.004729767795652151,0.0047495304606854916
1746576152532895700,10.520895751953125,0.0010493570007383823,0.001948095392435789,0.014861819334328175
1746576152542973700,10.5309736328125,-0.003120102919638157,0.0009680194780230522,0.021189682185649872
1746576152553052700,10.541052734375,-0.006650122813880444,0.003920665942132473,0.027828410267829895
1746576152563131000,10.551130859375,-0.0070738280192017555,0.005565776489675045,0.02446684241294861
1746576152573209900,10.5612099609375,-0.003115304745733738,0.001214437186717987,0.017754878848791122
1746576152583287800,10.571287841796876,0.000899062491953373,-0.00008033076301217079,0.003577583935111761
1746576152593365800,10.58136572265625,0.0030144110787659883,0.002445677760988474,-0.0026044119149446487
1746576152603444700,10.59144482421875,0.0034022361505776644,0.006424876395612955,-0.004367276560515165
1746576152613522700,10.601522705078125,-0.004463144112378359,0.013203153386712074,-0.004437584429979324
1746576152623601700,10.6116015625,-0.005032469984143972,0.004494296386837959,-0.0036541339941322803
1746576152633680000,10.621679931640625,0.004514163825660944,-0.001566525548696518,-0.0071876160800457
1746576152643757800,10.6317578125,0.005176921840757132,-0.002362399362027645,-0.010752079077064991
1746576152653836800,10.6418369140625,0.0026530439499765635,-0.005721710622310638,-0.008181063458323479
1746576152663914800,10.651914794921876,-0.0005673663690686226,-0.004782038740813732,-0.004526038188487291
1746576152673993000,10.661992919921875,-0.0003396659158170223,-0.0034912049304693937,0.003318569390103221
1746576152684071700,10.67207177734375,-0.0025508198887109756,0.0016078529879450798,0.010719908401370049
1746576152694149600,10.682149658203125,-0.004419826902449131,0.008334465324878693,0.018098726868629456
1746576152704228600,10.692228515625,-0.0036287279799580574,0.004622169770300388,0.023889675736427307
1746576152714306800,10.702306884765624,-0.0006316066719591618,0.0054426901042461395,0.024893954396247864
1746576152724384800,10.712384765625,-0.0012993533164262772,0.005524019710719585,0.021198661997914314
1746576152734463700,10.722463623046876,-0.003223220817744732,0.0060364119708538055,0.015907494351267815
1746576152744541700,10.732541748046875,0.001550598070025444,0.0038018738850951195,0.0025190734304487705
1746576152754620700,10.74262060546875,0.0027154646813869476,-0.0020131380297243595,-0.00590610271319747
1746576152764698600,10.75269873046875,0.0024150495883077383,0.0005187713541090488,-0.012207874096930027
1746576152774776600,10.762776611328125,0.004371407441794872,-0.0020639626309275627,-0.021080462262034416
1746576152784855800,10.772855712890625,0.002168581122532487,-0.001299483235925436,-0.016923097893595695
1746576152794933800,10.782933837890624,-0.0001108185388147831,-0.00029067788273096085,-0.005944748874753714
1746576152805011700,10.79301171875,-0.004758382681757212,0.0036665727384388447,0.0025648947339504957
1746576152815090700,10.803090576171876,-0.004494996275752783,0.0024580308236181736,0.007436881307512522
1746576152825169000,10.8131689453125,-0.0036701704375445843,0.0008057164959609509,0.00586575735360384
1746576152835247900,10.823247802734375,0.0014449628069996834,0.00251466641202569,0.0019242785638198256
1746576152845325800,10.833325927734375,0.0018779588863253593,0.0016688937321305275,0.0014210004592314363
1746576152855403800,10.84340380859375,0.0016814176924526691,-0.0023263804614543915,0.00008595781400799751
1746576152865482800,10.853482666015625,0.0007090149447321892,-0.0074049667455255985,-0.002635482233017683
1746576152875560700,10.863560791015624,-0.00248997425660491,-0.0019305730238556862,-0.009912570007145405
1746576152885639700,10.8736396484375,0.0025821325834840536,-0.0014369315467774868,-0.012156386859714985
1746576152895718000,10.8837177734375,0.004208524711430073,0.006256673950701952,-0.012241074815392494
1746576152905795800,10.8937958984375,0.00325968349352479,0.004842715337872505,-0.014899036847054958
1746576152915874800,10.903874755859375,0.00496170949190855,0.0007481048814952374,-0.01346625667065382
1746576152925952800,10.913952880859375,0.0011292370036244392,0.001912110485136509,-0.01014294195920229
1746576152936031700,10.92403173828125,0.0002317517064511776,-0.00214255228638649,-0.004929803311824799
1746576152946109700,10.934109619140624,-0.001798675861209631,-0.0016309120692312717,-0.00393185717985034
1746576152956187600,10.944187744140624,-0.0024522151798009872,0.0019044340588152409,0.004862699657678604
1746576152966267000,10.954266845703126,-0.0023992969654500484,0.004290230572223663,0.006428024265915155
1746576152976344800,10.9643447265625,-0.0013233800418674946,0.0031796926632523537,0.0074546728283166885
1746576152986423800,10.974423828125,0.0022868795786052942,-0.003969700075685978,0.0073919035494327545
1746576152996501800,10.984501708984375,0.00172708323225379,0.0027209590189158916,0.0029918288346379995
1746576153006579700,10.994579833984375,0.0005167685449123383,0.0025618658401072025,0.0001812836417229846
1746576153016658700,11.00465869140625,0.0013713771477341652,-0.0004986384883522987,-0.0063059101812541485
1746576153026736600,11.014736572265624,0.0014444300904870033,-0.0005967044271528721,-0.013772659003734589
1746576153036815600,11.024815673828124,0.002882803324609995,-0.00229846453294158,-0.010816549882292747
1746576153046893800,11.034893798828126,-0.0015203417278826237,0.001942737028002739,-0.013928358443081379
1746576153056971800,11.0449716796875,0.0010216454975306988,0.0003882492892444134,-0.011212999932467937
1746576153067050800,11.05505078125,0.004194811452180147,-0.0028025233186781406,-0.010408258996903896
1746576153077128700,11.065128662109375,0.0006315018981695175,-0.004549024626612663,-0.0062651801854372025
1746576153087207700,11.075207763671875,-0.001827985979616642,-0.002022694330662489,-0.0027353749610483646
1746576153097285600,11.08528564453125,-0.0022956370376050472,-0.00014862790703773499,0.0002835846389643848
1746576153107363600,11.095363525390624,0.0018227240070700645,-0.0007113697938621044,0.000602381129283458
1746576153117442800,11.10544287109375,0.00020085927098989487,0.002694547176361084,0.0015267643611878157
1746576153127520500,11.1155205078125,-0.00037573929876089096,0.0032908362336456776,0.0007589670130982995
1746576153137599500,11.125599609375,0.000512425322085619,0.0007011787965893745,0.0030996191781014204
1746576153147677400,11.135677490234375,-0.0005404306575655937,0.0027068774215877056,0.005748967174440622
1746576153157755400,11.14575537109375,-0.0006682621315121651,0.0046075754798948765,0.007607587147504091
1746576153167834600,11.155834716796875,-0.0042511713691055775,0.0018897480331361294,0.011142631992697716
1746576153177912600,11.16591259765625,-0.0034628757275640965,-0.0027723819948732853,0.0040527647361159325
1746576153187991300,11.1759912109375,-0.0009262482635676861,-0.002946772612631321,0.004222201183438301
1746576153198069500,11.186069580078126,-0.00042397622019052505,0.0033151176758110523,0.002375565469264984
1746576153208147500,11.1961474609375,0.0005710809491574764,-0.0008147861808538437,-0.0030060631688684225
1746576153218226400,11.206226318359375,0.0014403369277715683,-0.003232137765735388,-0.0034233806654810905
1746576153228304400,11.216304443359375,-0.0010896744206547737,-0.0009835921227931976,-0.0050230734050273895
1746576153238382600,11.226382568359375,-0.003070000559091568,0.008732417598366737,-0.004201488569378853
1746576153248461600,11.236461669921875,-0.0045046377927064896,0.0024859351105988026,-0.005383200943470001
1746576153258539500,11.24653955078125,-0.0013447967357933521,-0.0037786182947456837,-0.0012742097023874521
1746576153268618200,11.2566181640625,0.0005315165035426617,-0.0015720324590802193,0.003609657986089587
1746576153278696400,11.266696533203126,-0.00048767542466521263,-0.0015912074595689774,0.00167886633425951
1746576153288775400,11.276775390625,-0.004623007494956255,0.005701584741473198,0.0022661013063043356
1746576153298853400,11.286853271484375,-0.003731114324182272,0.006742081604897976,0.0029396149329841137
1746576153308931300,11.296931396484375,0.0003774692304432392,0.0047911680303514,0.006702756509184837
1746576153319010600,11.307010498046875,0.0016949349083006382,0.0006203912198543549,0.01360513735562563
1746576153329088500,11.317088623046875,-0.00458491500467062,-0.00106128491461277,0.014495003037154675
1746576153339167200,11.327167236328124,-0.008358081802725792,0.003936137072741985,0.015933111310005188
1746576153349245400,11.337245361328126,-0.006124488078057766,0.0023201312869787216,0.01871318370103836
1746576153359323400,11.347323486328126,-0.001988066826015711,-0.0046072835102677345,0.009674681350588799
1746576153369402400,11.35740234375,-0.005301846656948328,-0.005440814886242151,0.007692025974392891
1746576153379480300,11.367480224609375,-0.0070131937973201275,-0.0006796158850193024,0.009411361999809742
1746576153389559600,11.3775595703125,0.0008249469101428986,-0.010297062806785107,0.0024487695191055536
1746576153399637500,11.387637451171875,0.005408247001469135,-0.0011485721915960312,-0.009453963488340378
1746576153409715500,11.397715576171874,0.006141473073512316,0.0011171898804605007,-0.015935882925987244
1746576153419794400,11.40779443359375,0.004461284726858139,-0.0018410496413707733,-0.020322907716035843
1746576153429872600,11.41787255859375,0.003471671137958765,-0.0016295653767883778,-0.016608785837888718
1746576153439951400,11.427951416015626,-0.00031081680208444595,-0.005344941280782223,-0.018233846873044968
1746576153450029300,11.438029296875,-0.0009863022714853287,-0.0011296174488961697,-0.012205746956169605
1746576153460107500,11.448107421875,0.003907788544893265,0.0038164048455655575,0.00027435849187895656
1746576153470186500,11.4581865234375,0.007598896976560354,0.0012219990603625774,0.00909507367759943
1746576153480264400,11.468264404296875,0.009509981609880924,0.0001167873851954937,0.012834152206778526
1746576153490343700,11.47834375,0.004034280776977539,0.004730705637484789,0.019637472927570343
1746576153500421600,11.488421630859374,-0.0052098180167376995,0.010360095649957657,0.021253211423754692
1746576153510499600,11.49849951171875,-0.004676437005400658,0.006085739471018314,0.013679697178304195
1746576153520578300,11.508578369140626,0.00269652483984828,0.004740842618048191,0.0003148901159875095
1746576153530656500,11.518656494140625,0.010856600478291512,0.0033380002714693546,-0.010054291225969791
1746576153540735500,11.528735595703125,0.0069974130019545555,0.00036218389868736267,-0.019848598167300224
1746576153550813400,11.5388134765625,0.0032588166650384665,-0.009323980659246445,-0.019953010603785515
1746576153560891400,11.548891357421875,0.00306121027097106,-0.013055602088570595,-0.017712758854031563
1746576153570970600,11.558970703125,0.0008578277193009853,-0.011727060191333294,-0.015436659567058086
1746576153581048600,11.569048583984374,-0.0017363578081130981,-0.004590587690472603,-0.009598744101822376
1746576153591127300,11.579127197265626,0.001767005305737257,-0.000005679670721292496,-0.0007783634937368333
1746576153601205200,11.589205322265625,-0.00048096897080540657,0.0055049327202141285,-0.0027576249558478594
1746576153611283500,11.599283447265625,-0.0018346025608479977,0.0065270354971289635,0.0010595014318823814
1746576153621362400,11.609362548828125,0.0018701208755373955,0.006843418814241886,0.0010334023972973228
1746576153631440400,11.6194404296875,0.0038194446824491024,0.00020742835476994514,-0.0018664796371012926
1746576153641519600,11.62951953125,0.004371517803519964,-0.00185359176248312,-0.004560533445328474
1746576153651597600,11.63959765625,-0.0020854328759014606,0.0016746739856898785,0.0026727148797363043
1746576153661676300,11.64967626953125,-0.0026023522950708866,0.004518930334597826,0.014003932476043701
1746576153671754200,11.659754150390626,-0.002541249617934227,0.0029984209686517715,0.020522981882095337
1746576153681832400,11.66983251953125,-0.00013375142589211464,0.0036967024207115173,0.02203592285513878
1746576153691911400,11.679911376953125,-0.00018823659047484398,0.008237317204475403,0.01263413205742836
1746576153701989400,11.6899892578125,-0.0025107795372605324,0.010222437791526318,0.004927476402372122
1746576153712068600,11.700068603515625,0.0011897487565875053,0.004505337681621313,-0.0023404103703796864
1746576153722146600,11.710146484375,0.0013444782234728336,-0.002904375083744526,-0.014027692377567291
1746576153732224500,11.720224609375,0.008604404516518116,-0.005980747751891613,-0.02567758783698082
1746576153742303500,11.730303466796874,0.004188884049654007,-0.0026467363350093365,-0.030638789758086205
1746576153752381400,11.74038134765625,0.0002032145857810974,-0.0035894697066396475,-0.02849673293530941
1746576153762460400,11.75046044921875,-0.00013820268213748932,-0.003027009777724743,-0.017457664012908936
1746576153772538400,11.760538330078125,-0.0024017388932406902,-0.0020649656653404236,-0.007690417114645243
1746576153782616300,11.7706162109375,-0.0019833561964333057,0.00009166216477751732,0.0029502427205443382
1746576153792695600,11.780695556640625,-0.0026005608960986137,0.0021544364280998707,0.014850474894046783
1746576153802773500,11.7907734375,-0.009001202881336212,0.0059446473605930805,0.028758566826581955
