time,seconds_elapsed,z,y,x
1746576071699526100,0.026526123046875,0.025033485144376755,0.005876333452761173,-0.10038785636425018
1746576071709604000,0.03660400390625,0.026242028921842575,0.011616511270403862,-0.10983755439519882
1746576071719683000,0.04668310546875,0.022937331348657608,0.016657356172800064,-0.10863006860017776
1746576071729761000,0.056760986328125,0.011182138696312904,0.027619194239377975,-0.09804853051900864
1746576071739839000,0.0668388671875,-0.000164735596626997,0.03304107487201691,-0.079393669962883
1746576071749918200,0.076918212890625,0.0016640573740005493,0.03709360584616661,-0.057737644761800766
1746576071759996200,0.08699609375,0.004942276515066624,0.03628728911280632,-0.04049224406480789
1746576071770074000,0.09707421875,0.0041891345754265785,0.038786664605140686,-0.029397249221801758
1746576071780152000,0.107152099609375,-0.0004105609841644764,0.04441133514046669,-0.02193709835410118
1746576071790231300,0.117231201171875,0.0005505736917257309,0.027216371148824692,-0.012496193870902061
1746576071800309200,0.127309326171875,0.0017948388122022152,-0.010782917961478233,-0.01704646646976471
1746576071810387200,0.13738720703125,0.0018592874985188246,-0.045396022498607635,-0.022596493363380432
1746576071820466000,0.1474658203125,0.008145774714648724,-0.05757477134466171,-0.021362226456403732
1746576071830544000,0.1575439453125,0.007592902518808842,-0.04461662843823433,-0.017964832484722137
1746576071840622000,0.1676220703125,0.010981489904224873,-0.029047802090644836,-0.0015302011743187904
1746576071850700000,0.177699951171875,0.008770001120865345,-0.009813121519982815,0.020791882649064064
1746576071860779000,0.187779052734375,0.010450227186083794,-0.0025006760843098164,0.04062598571181297
1746576071870857000,0.19785693359375,0.0010434100404381752,0.001974500250071287,0.05209089443087578
1746576071880935200,0.20793505859375,-0.003755894023925066,0.007401654962450266,0.04985208809375763
1746576071891014100,0.21801416015625,-0.011118203401565552,0.005038366187363863,0.03389762341976166
1746576071901092000,0.228092041015625,-0.016636783257126808,0.0007936540059745312,0.007247522473335266
1746576071911170000,0.238170166015625,-0.011002866551280022,-0.00958068948239088,-0.020094087347388268
1746576071921248300,0.248248291015625,-0.0035256631672382355,-0.013683569617569447,-0.04230862483382225
1746576071931327200,0.2583271484375,0.0025498063769191504,-0.019050106406211853,-0.054786600172519684
1746576071941405200,0.2684052734375,0.010097186081111431,-0.019878894090652466,-0.055884089320898056
1746576071951483100,0.278483154296875,0.01108388788998127,-0.01702531799674034,-0.048605404794216156
1746576071961562000,0.28856201171875,0.008724231272935867,-0.013093844056129456,-0.03925760090351105
1746576071971640000,0.29864013671875,0.000779222697019577,-0.004650824703276157,-0.023238955065608025
1746576071981718000,0.308718017578125,-0.006458276882767677,0.005817555356770754,-0.013242464512586594
1746576071991797200,0.31879736328125,-0.007624208927154541,0.014542069286108017,-0.0005197451100684702
1746576072001875200,0.328875244140625,-0.0035503730177879333,0.012626813724637032,0.0003474391414783895
1746576072011953200,0.338953125,0.0054617635905742645,0.006976650562137365,-0.009408785030245781
1746576072022031000,0.349031005859375,0.005174714606255293,0.0009825234301388264,-0.012119997292757034
1746576072032110300,0.3591103515625,0.009754553437232971,0.0004208628088235855,-0.014369569718837738
1746576072042188300,0.369188232421875,0.007218461949378252,-0.0003756647929549217,-0.013566621579229832
1746576072052265500,0.379265380859375,0.0035960301756858826,0.0003090337850153446,-0.013167680241167545
1746576072062344200,0.38934423828125,-0.003161455038934946,0.006711731199175119,-0.0120113929733634
1746576072072422400,0.39942236328125,-0.005154830869287252,0.009896337985992432,-0.007607057224959135
1746576072082500400,0.409500244140625,-0.0017729620449244976,0.010381516069173813,0.004059621132910252
1746576072092578300,0.419578369140625,0.0035919758956879377,0.009136222302913666,0.006821585353463888
1746576072102657300,0.4296572265625,0.006612649653106928,0.009419923648238182,0.0077127814292907715
1746576072112735500,0.439735595703125,0.007837703451514244,0.005157267674803734,0.010636133141815662
1746576072122813400,0.4498134765625,0.003412463003769517,-0.0029772683046758175,0.006111259572207928
1746576072132892400,0.459892333984375,0.000008410308510065079,-0.015393458306789398,0.005022559314966202
1746576072142970400,0.469970458984375,-0.003910735249519348,-0.03102295473217964,0.006447671912610531
1746576072153048600,0.480048583984375,-0.015580441802740097,-0.03601504862308502,0.0068125249817967415
1746576072163127300,0.490127197265625,-0.02706838585436344,-0.027593957260251045,0.013949159532785416
1746576072173205200,0.500205322265625,-0.037703987210989,-0.014733552932739258,0.029172854498028755
1746576072183283500,0.510283447265625,-0.037356823682785034,-0.004259591922163963,0.049564726650714874
1746576072193361400,0.520361328125,-0.030574548989534378,0.004814596846699715,0.07371959835290909
1746576072203440400,0.5304404296875,-0.022993750870227814,0.013915935531258583,0.0829591229557991
1746576072213518300,0.540518310546875,-0.015017848461866379,0.012071961537003517,0.07617951184511185
1746576072223596300,0.55059619140625,-0.005063144024461508,0.006538941990584135,0.04971136897802353
1746576072233675500,0.560675537109375,-0.002386933658272028,0.014321230351924896,0.025436921045184135
1746576072243753500,0.57075341796875,-0.005207467824220657,0.025561293587088585,0.004196556750684977
1746576072253831400,0.58083154296875,-0.0013253777287900448,0.025682998821139336,-0.005557270720601082
1746576072263909400,0.590909423828125,0.004104217980057001,0.01872953586280346,-0.009735718369483948
1746576072273988600,0.600988525390625,0.004541242960840464,0.01848745346069336,-0.010202836245298386
1746576072284066600,0.611066650390625,0.006806965451687574,0.019663352519273758,-0.01544223167002201
1746576072294144500,0.62114453125,0.007989408448338509,0.02604961395263672,-0.020022867247462273
1746576072304223200,0.63122314453125,0.003042928408831358,0.029020868241786957,-0.022812580689787865
1746576072314301400,0.641301513671875,0.003469300689175725,0.023128889501094818,-0.02994159609079361
1746576072324379400,0.65137939453125,0.0027779843658208847,0.01385294646024704,-0.0382491759955883
1746576072334458400,0.661458251953125,-0.000511552207171917,0.009902413934469223,-0.04246416315436363
1746576072344536300,0.671536376953125,-0.010461409576237202,0.015216292813420296,-0.04668894037604332
1746576072354614500,0.681614501953125,-0.01292083878070116,0.02035033516585827,-0.05241260677576065
1746576072364692500,0.6916923828125,-0.00889604166150093,0.020080886781215668,-0.0488300696015358
1746576072374771500,0.701771484375,-0.0019236193038523197,0.019777020439505577,-0.04342571645975113
1746576072384849400,0.711849365234375,0.005745749920606613,0.010535677894949913,-0.04086902365088463
1746576072394927600,0.721927734375,0.009908802807331085,0.01725243590772152,-0.0313895009458065
1746576072405006300,0.73200634765625,0.009195096790790558,0.022506508976221085,-0.023053064942359924
1746576072415084300,0.742084228515625,0.003428021678701043,0.024495624005794525,-0.007822712883353233
1746576072425162200,0.752162353515625,0.0010203165002167225,0.026027599349617958,0.0031424756161868572
1746576072435240400,0.762240478515625,0.0006589256227016449,0.022174270823597908,0.0033869538456201553
1746576072445319400,0.7723193359375,0.001060662791132927,0.019155487418174744,-0.0023469356819987297
1746576072455397400,0.7823974609375,0.0004553264006972313,0.0181722491979599,-0.011352148838341236
1746576072465475300,0.792475341796875,-0.003207092173397541,0.016147779300808907,-0.021751470863819122
1746576072475554600,0.802554443359375,-0.0057485466822981834,0.021030152216553688,-0.032653916627168655
1746576072485632500,0.812632568359375,-0.007300140336155891,0.01749584451317787,-0.035982612520456314
1746576072495710500,0.82271044921875,-0.00816513504832983,0.025960702449083328,-0.03601004183292389
1746576072505788400,0.832788330078125,-0.005688909906893969,0.027477651834487915,-0.037182629108428955
1746576072515867400,0.842867431640625,-0.001364735420793295,0.030290748924016953,-0.03408537432551384
1746576072525945300,0.8529453125,0.004055443685501814,0.0336129404604435,-0.029730675742030144
1746576072536023300,0.863023193359375,0.007729540579020977,0.030409956350922585,-0.022026684135198593
1746576072546102300,0.873102294921875,0.010259696282446384,0.019975794479250908,-0.015171335078775883
1746576072556180500,0.883180419921875,0.0006755124777555466,0.01734858565032482,-0.00883966963738203
1746576072566258400,0.893258544921875,0.0006254268810153008,0.020400023087859154,-0.003799905302003026
1746576072576337400,0.90333740234375,-0.0018081697635352612,0.023704739287495613,-0.000736737682018429
1746576072586415400,0.913415283203125,-0.005034189205616713,0.013362709432840347,-0.0020985747687518597
1746576072596493600,0.92349365234375,-0.0010761995799839497,0.00856528989970684,-0.004772122483700514
1746576072606571500,0.933571533203125,0.008617572486400604,0.0018929168581962585,-0.008902255445718765
1746576072616650200,0.943650146484375,0.0073517728596925735,0.002445523627102375,-0.001882163225673139
1746576072626728200,0.953728271484375,0.007373628672212362,0.00459497282281518,0.004215678665786982
1746576072636806400,0.963806396484375,0.006403971929103136,-0.0013191085308790207,0.006847681012004614
1746576072646885400,0.973885498046875,0.007559214718639851,-0.000771320890635252,0.009008032269775867
1746576072656963300,0.98396337890625,0.006567187141627073,0.006893789395689964,0.007316925562918186
1746576072667041300,0.994041259765625,0.00026945536956191063,0.013025172054767609,0.0017729763640090823
1746576072677119500,1.004119384765625,-0.003504776395857334,0.013407602906227112,-0.0008414488984271884
1746576072687198500,1.014198486328125,-0.006027949042618275,0.01279749721288681,-0.0029013550374656916
1746576072697276400,1.0242763671875,-0.010874900966882706,0.014289665967226028,0.0030412226915359497
1746576072707354400,1.034354248046875,-0.012532513588666916,0.017491990700364113,0.013047097250819206
1746576072717433300,1.044433349609375,-0.0123175960034132,0.015363059937953949,0.021986529231071472
1746576072727511300,1.05451123046875,-0.008920865133404732,0.014084030874073505,0.021978911012411118
1746576072737589200,1.06458935546875,-0.0031125107780098915,0.010451479814946651,0.015375335700809956
1746576072747667200,1.074667236328125,0.005349207203835249,0.01094437949359417,0.005805480293929577
1746576072757746400,1.084746337890625,0.010412142612040043,0.010815748944878578,-0.003524904837831855
1746576072767824400,1.094824462890625,0.007598818279802799,0.002110610716044903,-0.008625978603959084
1746576072777902300,1.10490234375,0.010443074628710747,0.0022807875648140907,-0.015841545537114143
1746576072787981600,1.114981689453125,0.005205415189266205,-0.002864362671971321,-0.016252150759100914
1746576072798059500,1.1250595703125,-0.002831472549587488,-0.005119527690112591,-0.011002260260283947
1746576072808137500,1.135137451171875,-0.008451332338154316,-0.0015356610529124737,-0.002616712125018239
1746576072818216400,1.145216552734375,-0.010593578219413757,0.008126286789774895,0.003622541669756174
1746576072828294400,1.15529443359375,-0.008757841773331165,0.006277177482843399,0.010297431610524654
1746576072838372400,1.165372314453125,-0.0022307001054286957,0.011178192682564259,0.01213101763278246
1746576072848450300,1.1754501953125,0.0027259185444563627,0.010693281888961792,0.006440162193030119
1746576072858529300,1.185529296875,0.0036444428842514753,0.00971883162856102,-0.002341344952583313
1746576072868607500,1.195607421875,0.007418351713567972,0.0007035494782030582,-0.010042887181043625
1746576072878685400,1.205685546875,0.00910945888608694,-0.005624920129776001,-0.018216395750641823
1746576072888764400,1.215764404296875,0.0048322672955691814,0.0016260580159723759,-0.021309437230229378
1746576072898842400,1.22584228515625,0.0007432498969137669,0.0154728963971138,-0.019553348422050476
1746576072908920300,1.23592041015625,0.004877962172031403,0.012572992593050003,-0.016116492450237274
1746576072918998500,1.24599853515625,0.0070593575946986675,0.002040988765656948,-0.014991839416325092
1746576072929077500,1.256077392578125,0.009397059679031372,-0.0017941533587872982,-0.01513958815485239
1746576072939155500,1.266155517578125,0.0069083357229828835,0.007568988483399153,-0.015903117135167122
1746576072949233400,1.2762333984375,0.0021676041651517153,0.012501226738095284,-0.013594367541372776
1746576072959312400,1.2863125,-0.005545442458242178,0.014411510899662971,-0.011915776878595352
1746576072969390300,1.296390380859375,-0.005826709792017937,0.01018664799630642,-0.006974551826715469
1746576072979468300,1.30646826171875,-0.006833384744822979,0.0076633021235466,0.0019462385680526495
1746576072989546200,1.316546142578125,-0.01002364233136177,0.017852872610092163,0.0130394222214818
1746576072999625500,1.32662548828125,-0.01026172935962677,0.01566748321056366,0.01993328146636486
1746576073009703400,1.336703369140625,-0.003039977513253689,0.00729871541261673,0.018824288621544838
1746576073019781400,1.346781494140625,0.003595820628106594,-0.0012487000785768032,0.015855928882956505
1746576073029860600,1.356860595703125,0.008707016706466675,-0.001149680931121111,0.013275539502501488
1746576073039938600,1.3669384765625,0.007843885570764542,0.0005936245433986187,0.00761472387239337
1746576073050017000,1.37701708984375,0.003730499418452382,0.003275605384260416,0.0017817647894844413
1746576073060095000,1.387094970703125,-0.0018972926773130894,-0.0013436470180749893,0.002052342053502798
1746576073070174200,1.39717431640625,-0.004032918252050877,-0.00637544970959425,0.0017010672017931938
1746576073080252200,1.407252197265625,-0.008341379463672638,0.0021336167119443417,0.003954101353883743
1746576073090330000,1.417330078125,-0.008124541491270065,0.00818320270627737,0.009136293083429337
1746576073100409300,1.427409423828125,-0.006107197143137455,0.004125077277421951,0.010015402920544147
1746576073110487300,1.4374873046875,-0.0005160062573850155,-0.003275389550253749,0.007473047822713852
1746576073120565200,1.447565185546875,0.001454732846468687,-0.006081029772758484,0.0012585611548274755
1746576073130644000,1.45764404296875,-0.0018243789672851562,-0.0006538382731378078,-0.004282998852431774
1746576073140722000,1.467721923828125,-0.006003944203257561,0.0006039729341864586,-0.007022592704743147
1746576073150800100,1.477800048828125,-0.009686125442385674,-0.00009073130786418915,-0.003516167402267456
1746576073160878000,1.487878173828125,-0.010529283434152603,0.001183058600872755,0.0002663203049451113
1746576073170957000,1.49795703125,-0.010058490559458733,0.005598541349172592,-0.005454155616462231
1746576073181035000,1.508034912109375,-0.00823928602039814,0.005416647531092167,-0.009681924246251583
1746576073191113200,1.51811328125,-0.005943601951003075,-0.00007085828110575676,-0.012107585556805134
1746576073201192200,1.528192138671875,-0.005847994238138199,-0.0010591577738523483,-0.005419323220849037
1746576073211270100,1.538270263671875,-0.006043281406164169,0.00008426327258348465,0.003410763805732131
1746576073221348000,1.54834814453125,-0.0030243219807744026,0.004713369533419609,0.00760657386854291
1746576073231426300,1.55842626953125,-0.003724467009305954,0.006111529655754566,0.014070864766836166
1746576073241505000,1.568505126953125,-0.00039977673441171646,0.0011729635298252106,0.013467658311128616
1746576073251583000,1.5785830078125,0.0017700912430882454,-0.0016115992330014706,0.0062063345685601234
1746576073261661000,1.588660888671875,0.0011671516112983227,0.006496128160506487,-0.00046062294859439135
1746576073271740200,1.598740234375,-0.0006591873243451118,0.011264467611908913,-0.005577406845986843
1746576073281818000,1.608818115234375,-0.003758573904633522,0.01125061884522438,-0.005288187880069017
1746576073291896000,1.61889599609375,-0.004164857789874077,0.015623960644006729,-0.0006298921070992947
1746576073301974000,1.62897412109375,-0.0026580411940813065,0.011885946616530418,0.002737408736720681
1746576073312053200,1.63905322265625,-0.0017120321281254292,0.0062960111536085606,0.006317768711596727
1746576073322131200,1.649131103515625,0.0017692521214485168,0.0034853112883865833,0.009164421819150448
1746576073332209200,1.659209228515625,0.0027001795824617147,0.0022638197988271713,0.010737655684351921
1746576073342288100,1.6692880859375,0.002231196966022253,0.008164053782820702,0.014376599341630936
1746576073352366300,1.679366455078125,0.0014600744470953941,0.004672127775847912,0.0160860363394022
1746576073362444300,1.6894443359375,-0.0007878998294472694,0.0055661508813500404,0.015139281749725342
1746576073372522200,1.699522216796875,-0.003958713263273239,0.004624942317605019,0.0152695057913661
1746576073382601200,1.709601318359375,-0.007110031321644783,0.005108306184411049,0.013514482416212559
1746576073392679200,1.71967919921875,-0.006929391995072365,0.0011395341716706753,0.010314319282770157
1746576073402757000,1.729757080078125,-0.004149318672716618,-0.002223505172878504,0.005236203782260418
1746576073412836000,1.739836181640625,-0.0007737800478935242,-0.0030349832959473133,-0.0009252874879166484
1746576073422914300,1.749914306640625,0.0038324235938489437,-0.00018753157928586006,-0.006116853561252356
1746576073432992300,1.7599921875,0.004199063405394554,0.0003172648139297962,-0.01150884572416544
1746576073443070200,1.7700703125,0.00443182373419404,-0.005470316857099533,-0.013372260145843029
1746576073453149200,1.780149169921875,0.0033922982402145863,-0.0033911620266735554,-0.012204415164887905
1746576073463227100,1.79022705078125,0.0028072018176317215,-0.0087041687220335,-0.013185523450374603
1746576073473305300,1.800305419921875,-0.005801067687571049,-0.010990048758685589,-0.009891563095152378
1746576073483384000,1.810384033203125,-0.014215059578418732,-0.008174554444849491,-0.008216967806220055
1746576073493462000,1.8204619140625,-0.017581826075911522,-0.0031009665690362453,-0.007688595913350582
1746576073503540000,1.8305400390625,-0.013172963634133339,0.002840545494109392,-0.010655890218913555
1746576073513619200,1.840619140625,-0.01108519732952118,0.0029562036506831646,-0.006219228729605675
1746576073523697200,1.850697265625,-0.003048575483262539,0.001489866990596056,-0.0033376887440681458
1746576073533775000,1.860775146484375,0.0023185277823358774,0.001317411195486784,0.003329863538965583
1746576073543853000,1.87085302734375,0.0034192122984677553,0.008308209478855133,0.0018060028087347746
1746576073553932300,1.880932373046875,0.004548793658614159,0.013656189665198326,-0.00035265125916339457
1746576073564010200,1.89101025390625,0.0050406791269779205,0.016706572845578194,0.0017752144485712051
1746576073574088200,1.901088134765625,0.004183657933026552,0.021651163697242737,0.008052224293351173
1746576073584167200,1.911167236328125,0.003553287824615836,0.021771006286144257,0.009952655993402004
1746576073594245000,1.9212451171875,0.0006332816556096077,0.006442838814109564,0.012630362994968891
1746576073604323000,1.931322998046875,-0.0024280217476189137,0.0023154723457992077,0.01394383329898119
1746576073614401000,1.941401123046875,-0.01089139748364687,0.011390119791030884,0.015380507335066795
1746576073624480300,1.951480224609375,-0.014413694851100445,0.021690428256988525,0.01841198280453682
1746576073634558200,1.96155810546875,-0.008619984611868858,0.019172850996255875,0.017173022031784058
1746576073644636200,1.97163623046875,0.0016363807953894138,0.016119003295898438,0.007601355202496052
1746576073654715100,1.981715087890625,0.005490998737514019,0.009950479492545128,-0.004037344828248024
1746576073664793300,1.99179345703125,0.0056143030524253845,0.01255718246102333,-0.01313017588108778
1746576073674871300,2.001871337890625,-0.000503546092659235,0.027776051312685013,-0.007883750833570957
1746576073684949200,2.01194921875,-0.0026425975374877453,0.027531839907169342,0.0017515652580186725
1746576073695028000,2.022028076171875,-0.003961795009672642,0.018805375322699547,0.009266901761293411
1746576073705106200,2.032106201171875,0.000040669459849596024,0.008913330733776093,0.008578208275139332
1746576073715184000,2.04218408203125,-0.0014414163306355476,0.004173940513283014,0.0021831560879945755
1746576073725263000,2.05226318359375,-0.005364784970879555,0.004627476911991835,-0.004556239582598209
1746576073735341000,2.062341064453125,-0.006277088541537523,0.00317008001729846,-0.005949979182332754
1746576073745419300,2.072419189453125,-0.005779610481113195,0.0024952352978289127,-0.0005434959311969578
1746576073755497200,2.082497314453125,-0.0005387566052377224,-0.000508264172822237,0.006028654985129833
1746576073765576200,2.092576171875,-0.0023944475688040257,-0.0018033594824373722,0.014009615406394005
1746576073775654100,2.102654052734375,-0.002854754216969013,-0.005508069880306721,0.014133766293525696
1746576073785732400,2.112732421875,-0.0018800371326506138,-0.0011370237916707993,0.00988788902759552
1746576073795811000,2.12281103515625,-0.0016857990995049477,0.0070910523645579815,0.00853362213820219
1746576073805889000,2.132888916015625,-0.001600577961653471,0.013242155313491821,0.004741813521832228
1746576073815967000,2.142967041015625,-0.004697265103459358,0.016820406541228294,-0.0032822871580719948
1746576073826045000,2.153044921875,-0.003619750030338764,0.013760967180132866,-0.004828518256545067
1746576073836124200,2.163124267578125,-0.00023019267246127129,0.0009914771653711796,-0.009042066521942616
1746576073846202000,2.1732021484375,0.0038194097578525543,-0.0118406992405653,-0.009122227318584919
1746576073856280000,2.183280029296875,0.006774283479899168,-0.016444353386759758,-0.012055274099111557
1746576073866359300,2.193359375,0.004974253010004759,-0.0139313954859972,-0.013933868147432804
1746576073876437200,2.203437255859375,-0.0014179237186908722,-0.00989079661667347,-0.013605713844299316
1746576073886515200,2.21351513671875,-0.002680794335901737,-0.006379950791597366,-0.012207554653286934
1746576073896593200,2.22359326171875,-0.002420032862573862,0.001081895548850298,-0.009593184106051922
1746576073906672000,2.233672119140625,-0.002696735318750143,0.014445371925830841,-0.007110850885510445
1746576073916750000,2.24375,-0.0015382985584437847,0.015477944165468216,-0.0002536892134230584
1746576073926828000,2.253828125,-0.0009611914865672588,0.011584669351577759,0.007719814777374268
1746576073936907000,2.263906982421875,0.0019179724622517824,0.00938189122825861,0.009864668361842632
1746576073946985200,2.273985107421875,-0.000778744462877512,0.00871849711984396,0.006833457853645086
1746576073957063200,2.284063232421875,-0.00032216496765613556,0.0077977413311600685,0.003115313360467553
1746576073967141000,2.29414111328125,-0.002064937725663185,-0.0011811060830950737,0.004244226962327957
1746576073977220000,2.30422021484375,0.00005246512591838837,-0.0028542429208755493,0.0025673445779830217
1746576073987298300,2.31429833984375,0.0029875347390770912,-0.004917659796774387,0.005777252372354269
1746576073997376300,2.324376220703125,0.005967156030237675,-0.006901309825479984,0.014052117243409157
1746576074007455200,2.334455322265625,0.0055389199405908585,-0.004414450377225876,0.01731795072555542
1746576074017533200,2.344533203125,0.00495523028075695,0.009212641045451164,0.017342668026685715
1746576074027611100,2.354611083984375,0.002797004533931613,0.015161611139774323,0.01400040090084076
1746576074037689000,2.364689208984375,-0.002331388182938099,0.01821514032781124,0.008045253343880177
1746576074047768000,2.37476806640625,-0.008390611968934536,0.02170601300895214,0.0018571323016658425
1746576074057845800,2.384845703125,-0.009287051856517792,0.010722948238253593,0.0017583852168172598
1746576074067923700,2.394923828125,-0.0041551413014531136,-0.0010969596914947033,0.00017753276915755123
1746576074078002700,2.405002685546875,0.0010194787755608559,-0.005929738283157349,-0.007592139299958944
1746576074088080600,2.41508056640625,0.00226370757445693,-0.013866225257515907,-0.016736634075641632
1746576074098158800,2.425158935546875,0.0014386586844921112,-0.0056755817495286465,-0.025812895968556404
1746576074108236800,2.43523681640625,0.0007502315565943718,-0.00880665984004736,-0.026590539142489433
1746576074118315800,2.445315673828125,0.0012961793690919876,-0.008533153682947159,-0.024607550352811813
1746576074128393700,2.455393798828125,0.0029196422547101974,-0.0043493276461958885,-0.013966090977191925
1746576074138472000,2.465471923828125,0.003154382575303316,-0.003843785496428609,-0.0042592985555529594
1746576074148550700,2.475550537109375,0.003501925151795149,0.008168403059244156,0.004012745805084705
1746576074158628600,2.485628662109375,-0.003830062225461006,0.017161428928375244,0.01145633589476347
1746576074168706600,2.49570654296875,-0.011706095188856125,0.016206685453653336,0.015689164400100708
1746576074178785800,2.505785888671875,-0.011966896243393421,0.009613892063498497,0.010689187794923782
1746576074188863700,2.51586376953125,-0.007698646746575832,0.004832985810935497,0.012975778430700302
1746576074198941700,2.525941650390625,-0.0019902759231626987,-0.007130099460482597,0.014139952138066292
1746576074209019600,2.53601953125,0.002558403182774782,-0.015976587310433388,0.010167581029236317
1746576074219099000,2.546098876953125,0.0031103831715881824,-0.01202469877898693,0.0004992902395315468
1746576074229176800,2.5561767578125,0.0029505935963243246,-0.012603404000401497,-0.00960713904350996
1746576074239254800,2.5662548828125,0.0016876091249287128,-0.0019373423419892788,-0.010956457816064358
1746576074249333500,2.57633349609375,-0.0029449593275785446,0.002892034128308296,-0.004212268628180027
1746576074259411700,2.58641162109375,-0.005211500450968742,0.007565043866634369,0.002727612154558301
1746576074269489700,2.59648974609375,-0.007831252180039883,0.014098044484853745,0.0011467596050351858
1746576074279567600,2.606567626953125,-0.000778289046138525,0.005564376246184111,-0.01000932790338993
1746576074289646600,2.616646484375,0.006159245502203703,0.002864463720470667,-0.01723634824156761
1746576074299724800,2.626724853515625,0.008869221433997154,-0.0031728718895465136,-0.02191866561770439
1746576074309802800,2.636802734375,0.009149119257926941,-0.002965411636978388,-0.02101478911936283
1746576074319881700,2.6468818359375,0.005982240661978722,-0.006612509023398161,-0.018656186759471893
1746576074329959700,2.656959716796875,-0.002189136575907469,-0.0021991184912621975,-0.012333842925727367
1746576074340038000,2.667037841796875,-0.004961106926202774,-0.008282146416604519,-0.00045198891893960536
1746576074350115800,2.67711572265625,-0.004202372394502163,-0.006800629664212465,0.009187855757772923
1746576074360194600,2.687194580078125,-0.006965970620512962,-0.0005137305706739426,0.020656753331422806
1746576074370272500,2.6972724609375,-0.00647195428609848,0.005913275759667158,0.024160942062735558
1746576074380350700,2.707350830078125,0.000653333030641079,0.014170672744512558,0.023902880027890205
1746576074390429700,2.7174296875,0.0055820452980697155,0.01791294664144516,0.013966361060738564
1746576074400507600,2.727507568359375,0.009046818129718304,0.013777589425444603,0.0013943766243755817
1746576074410585600,2.737585693359375,0.0063423775136470795,0.006997981574386358,-0.007848923094570637
1746576074420664800,2.747664794921875,0.0036236471496522427,-0.0028127687983214855,-0.012278816662728786
1746576074430742800,2.75774267578125,0.0013530361466109753,-0.009487715549767017,-0.009153863415122032
1746576074440820700,2.76782080078125,-0.004181713331490755,-0.006834084168076515,-0.0020662916358560324
1746576074450898700,2.777898681640625,-0.002852529752999544,-0.00656457245349884,0.012420771643519402
1746576074460978000,2.78797802734375,-0.0031374883837997913,-0.006378151010721922,0.017500750720500946
1746576074471056000,2.798055908203125,-0.0019254833459854126,-0.0014094915241003036,0.02113969437777996
1746576074481133800,2.8081337890625,0.00030303141102194786,0.004101375117897987,0.0182389784604311
1746576074491212800,2.818212890625,0.0026530048344284296,0.015240578912198544,0.010919545777142048
1746576074501290800,2.828290771484375,0.003305782563984394,0.02410120889544487,0.007462766952812672
1746576074511368700,2.83836865234375,0.003052782267332077,0.01795676350593567,-0.0006907668430358171
1746576074521446700,2.84844677734375,0.00023898156359791756,0.008205750957131386,-0.005445149261504412
1746576074531526000,2.85852587890625,-0.002877715975046158,0.001630139071494341,-0.011955779045820236
1746576074541603800,2.868603759765625,-0.003334866836667061,-0.001967625692486763,-0.01681189239025116
1746576074551681800,2.878681884765625,-0.0031873276457190514,-0.004126383922994137,-0.0179557204246521
1746576074561760800,2.8887607421875,0.0003052172251045704,-0.005576511844992638,-0.010303445160388947
1746576074571838700,2.898838623046875,0.000892177689820528,-0.0010834932327270508,-0.00445940438657999
1746576074581917000,2.9089169921875,0.0005052038468420506,-0.0023507284931838512,0.0027132267132401466
1746576074591995000,2.918994873046875,0.0014285221695899963,-0.0014194208197295666,0.000620248494669795
1746576074602073600,2.929073486328125,0.0013422905467450619,0.0008040904067456722,0.002493521897122264
1746576074612151600,2.939151611328125,0.0013862326741218567,0.003602540586143732,0.001821340061724186
1746576074622229800,2.949229736328125,-0.0019916254095733166,0.005283146630972624,0.004436989314854145
1746576074632308700,2.959308837890625,0.0006451704539358616,0.011380720883607864,0.004317679442465305
1746576074642386700,2.96938671875,-0.0037244120612740517,0.009558498859405518,-0.001290509128011763
1746576074652464600,2.979464599609375,-0.0011768322438001633,0.0042441608384251595,-0.0016417800216004252
1746576074662542800,2.98954296875,0.0032175746746361256,0.001740825828164816,0.001329027465544641
1746576074672621800,2.999621826171875,0.00048570381477475166,0.0016241795383393764,-0.0011341302888467908
1746576074682699800,3.00969970703125,0.002400309545919299,-0.00043058907613158226,-0.000581636093556881
1746576074692777700,3.01977783203125,0.0017465036362409592,0.0003949906677007675,-0.001845572260208428
1746576074702856700,3.029856689453125,0.00000873347744345665,-0.0026263147592544556,-0.0005216621211729944
1746576074712934700,3.0399345703125,0.0016204784624278545,-0.0009722253307700157,-0.0026191677898168564
1746576074723012600,3.0500126953125,0.000019594095647335052,0.0033920365385711193,-0.005081414710730314
1746576074733090600,3.060090576171875,-0.0006270217709243298,0.004828279372304678,-0.004594589117914438
1746576074743169800,3.070169677734375,-0.00277881883084774,0.0029326695948839188,-0.002635564189404249
1746576074753247700,3.080247802734375,-0.002122616395354271,0.0017992276698350906,-0.0035253262612968683
1746576074763325700,3.09032568359375,0.000418876763433218,0.004286023322492838,-0.002738416660577059
1746576074773405000,3.100405029296875,0.0017621754668653011,0.009194761514663696,-0.0006960385362617671
1746576074783483000,3.11048291015625,-0.00034594396129250526,0.010541190393269062,0.0035857371985912323
1746576074793560800,3.120560791015625,-0.0006492780521512032,0.003199654631316662,0.0051064020954072475
1746576074803638800,3.130638671875,-0.0019729831255972385,-0.00539053650572896,0.003020453965291381
1746576074813717800,3.1407177734375,-0.004343463107943535,-0.004537791945040226,0.0019498631590977311
1746576074823795700,3.150795654296875,-0.003361765295267105,-0.0002235216088593006,-0.0011296028969809413
1746576074833873700,3.160873779296875,-0.00570401456207037,0.005892428103834391,0.001439282321371138
1746576074843952600,3.17095263671875,-0.0006327098235487938,0.0025223619304597378,0.0038488043937832117
1746576074854030800,3.18103076171875,-0.0011925059370696545,-0.002041230443865061,-0.0011273118434473872
1746576074864108800,3.19110888671875,0.006033484824001789,-0.0019794153049588203,-0.0022535596508532763
1746576074874186800,3.201186767578125,0.00628115888684988,0.005688357632607222,-0.008876841515302658
1746576074884265700,3.211265625,0.007053609937429428,0.00782749429345131,-0.013819297775626183
1746576074894344000,3.221343994140625,0.002668715314939618,0.011513043195009232,-0.008473267778754234
1746576074904422000,3.231421875,-0.0020057582296431065,0.008659489452838898,-0.002698952564969659
1746576074914500600,3.24150048828125,-0.00307981064543128,0.0042152064852416515,0.005588804371654987
1746576074924578600,3.25157861328125,-0.006960551254451275,0.00031928112730383873,0.007251684088259935
1746576074934656500,3.261656494140625,-0.006301951594650745,-0.004315151832997799,0.006770983804017305
1746576074944734700,3.271734619140625,-0.0015079746954143047,-0.0028994916938245296,0.0007836081204004586
1746576074954813700,3.281813720703125,-0.0006901179440319538,-0.0013998658396303654,-0.00015835196245461702
1746576074964891600,3.2918916015625,0.0009098132140934467,-0.006767086684703827,0.011141016148030758
1746576074974969600,3.301969482421875,0.0028219628147780895,-0.004323902539908886,0.016127251088619232
1746576074985048800,3.312048828125,-0.0005720462650060654,0.003936018794775009,0.013044485822319984
1746576074995126800,3.322126708984375,0.0023001728113740683,0.006382398307323456,0.01009743195027113
1746576075005204700,3.332204833984375,0.002124688820913434,0.004980525001883507,0.0046171811409294605
1746576075015282700,3.34228271484375,0.001441854052245617,0.002430281601846218,-0.0007355062989518046
1746576075025361700,3.352361572265625,0.0008935299701988697,-0.0004412168636918068,-0.0029989832546561956
1746576075035439600,3.362439697265625,0.0005555744282901287,-0.0035134393256157637,-0.008764727041125298
1746576075045517600,3.372517578125,-0.001924342941492796,0.0007817200385034084,-0.012127764523029327
1746576075055596300,3.38259619140625,0.0036861386615782976,0.004317066166549921,-0.008065644651651382
1746576075065674200,3.39267431640625,0.002175138331949711,0.00685280142351985,0.002065974986180663
1746576075075752400,3.40275244140625,0.004306999035179615,0.0008071591146290302,0.00801707524806261
1746576075085830400,3.412830322265625,0.0008810148574411869,-0.003241085447371006,0.01439512800425291
1746576075095909400,3.422909423828125,-0.002652467228472233,-0.0019606375135481358,0.018884951248764992
1746576075105987300,3.4329873046875,-0.009672334417700768,0.008381634019315243,0.013322786428034306
1746576075116065500,3.4430654296875,-0.010343451052904129,0.01384138036519289,0.011170952580869198
1746576075126144500,3.45314453125,-0.012821141630411148,0.010061187669634819,0.010989485308527946
1746576075136222500,3.463222412109375,-0.005876416806131601,0.002705537248402834,0.006517772097140551
1746576075146300400,3.473300537109375,-0.0013371724635362625,-0.012710069306194782,0.008785292506217957
1746576075156379400,3.48337939453125,0.0027137617580592632,-0.004561595618724823,0.010391178540885448
1746576075166457300,3.493457275390625,-0.00019855517894029617,-0.0031987803522497416,0.004562952555716038
1746576075176535300,3.503535400390625,0.002351954113692045,-0.003676285035908222,0.005878021474927664
1746576075186613200,3.51361328125,0.0013886294327676296,0.0050976392813026905,0.008479243144392967
1746576075196692500,3.5236923828125,-0.001610888633877039,0.003932772669941187,0.009886191226541996
1746576075206770400,3.5337705078125,0.0010215891525149345,-0.0011583417654037476,0.011860177852213383
1746576075216848400,3.543848388671875,0.0023811329156160355,0.0014235926792025566,0.005196150857955217
1746576075226927600,3.553927734375,-0.0012376843951642513,0.005964649375528097,0.0022185761481523514
1746576075237005600,3.564005615234375,0.0027336215134710073,0.0035667396150529385,0.0005956457462161779
1746576075247083500,3.57408349609375,-0.0011365795508027077,-0.0017490815371274948,0.001624798751436174
1746576075257161500,3.584161376953125,-0.0018242080695927143,-0.003101168666034937,-0.0023398492485284805
1746576075267240200,3.594240234375,-0.0021909852512180805,0.0018058507703244686,-0.004732322413474321
1746576075277318400,3.604318359375,-0.0019201422110199928,-0.00010496703907847404,-0.004247627221047878
1746576075287396400,3.614396240234375,-0.0021719420328736305,0.006061667576432228,-0.0005388045683503151
1746576075297475300,3.624475341796875,0.000032889191061258316,0.0065335799008607864,0.004156081937253475
1746576075307553300,3.63455322265625,0.0022642016410827637,0.0070969113148748875,0.005758342333137989
1746576075317631500,3.644631591796875,0.0006833490915596485,0.0035695540718734264,0.0029764040373265743
1746576075327709400,3.65470947265625,0.001722380518913269,-0.003137703984975815,0.005053565837442875
1746576075337788400,3.664788330078125,-0.0015461170114576817,-0.005536679644137621,0.003438092302531004
1746576075347866400,3.674866455078125,-0.0039782095700502396,-0.0014180773869156837,-0.0018021606374531984
1746576075357944600,3.684944580078125,-0.0009001279249787331,0.004906397312879562,-0.007395597640424967
1746576075368023300,3.695023193359375,0.001324980054050684,0.003354333806782961,-0.01491609402000904
1746576075378101200,3.705101318359375,0.004231820348650217,-0.0038287441711872816,-0.013637776486575603
1746576075388179200,3.71517919921875,0.007078511640429497,-0.009052066132426262,-0.009148540906608105
1746576075398257400,3.72525732421875,0.007695566397160292,-0.007254698779433966,-0.00745210750028491
1746576075408336400,3.73533642578125,0.003171520074829459,0.0002324255183339119,-0.004536849446594715
1746576075418414300,3.745414306640625,-0.00006555207073688507,0.00891326554119587,-0.004156550392508507
1746576075428492300,3.7554921875,-0.0003085075877606869,0.014532571658492088,-0.0026020118966698647
1746576075438571500,3.765571533203125,-0.0006784205324947834,0.0116499662399292,-0.00192690035328269
1746576075448649500,3.7756494140625,0.0008493983186781406,0.009350834414362907,0.0019554519094526768
1746576075458727400,3.7857275390625,0.0016384930349886417,0.006608043797314167,0.010428565554320812
1746576075468805400,3.795805419921875,0.0012062052264809608,0.00046098651364445686,0.0169573575258255
1746576075478884400,3.80588427734375,-0.0019083614461123943,0.0001560542732477188,0.02183413691818714
1746576075488962300,3.81596240234375,-0.002893485128879547,-0.0011474872007966042,0.02372504025697708
1746576075499040300,3.826040283203125,0.00008978787809610367,0.001445898786187172,0.02431972324848175
1746576075509119500,3.836119384765625,0.00028486503288149834,-0.003957299515604973,0.021301930770277977
1746576075519197400,3.846197509765625,0.002418323652818799,-0.008158436045050621,0.019905369728803635
1746576075529275400,3.856275390625,0.0030193603597581387,-0.007320542354136705,0.016979677602648735
1746576075539353300,3.866353271484375,-0.0009255800396203995,-0.005294941831380129,0.012933536432683468
1746576075549432600,3.8764326171875,-0.0062175290659070015,-0.0017260266467928886,0.009178214706480503
1746576075559510500,3.886510498046875,-0.00975873414427042,0.005507917609065771,0.006225301884114742
1746576075569588500,3.89658837890625,-0.010117881000041962,0.00638053473085165,0.005998827517032623
1746576075579667500,3.90666748046875,-0.0027379957027733326,-0.002703774254769087,0.0007353558903560042
1746576075589745400,3.916745361328125,0.0014063972048461437,-0.005414885468780994,-0.00849729310721159
1746576075599823400,3.9268232421875,0.0021004171576350927,-0.009857304394245148,-0.011142078787088394
1746576075609902300,3.93690234375,0.003979942295700312,-0.014707541093230247,-0.017947891727089882
1746576075619980300,3.946980224609375,0.0023487559519708157,-0.01029867772012949,-0.01480802334845066
1746576075630058200,3.957058349609375,0.0030817356891930103,-0.007542966865003109,-0.014056854881346226
1746576075640136400,3.967136474609375,0.0011341660283505917,-0.0010642949491739273,-0.002909395145252347
1746576075650215400,3.97721533203125,0.0025755618698894978,-0.00013594049960374832,0.004429162014275789
1746576075660293400,3.98729345703125,0.0017883316613733768,-0.000729292631149292,0.00829553883522749
1746576075670371300,3.997371337890625,-0.00029191887006163597,0.00823753047734499,0.013194418512284756
1746576075680450600,4.007450439453125,-0.003260544501245022,0.00432934146374464,0.012830364517867565
1746576075690528500,4.017528564453125,-0.002602327149361372,0.002159589435905218,0.012134378775954247
1746576075700606500,4.0276064453125,-0.0031690471805632114,-0.0006937212310731411,0.00896468386054039
1746576075710684400,4.037684326171875,-0.0005813860334455967,-0.004309407435357571,0.0027276647742837667
1746576075720763400,4.047763427734375,-0.0012437142431735992,0.00007282383739948273,-0.0025515195447951555
1746576075730841300,4.05784130859375,-0.005133660975843668,0.005396661814302206,-0.010726195760071278
1746576075740919300,4.067919189453125,-0.004370665643364191,0.008603107184171677,-0.015582204796373844
1746576075750998500,4.07799853515625,-0.002682982012629509,0.0024964152835309505,-0.0182504802942276
1746576075761076500,4.088076416015625,-0.0004848088137805462,-0.0035553521011024714,-0.009927835315465927
1746576075771154400,4.098154541015625,-0.0020535998046398163,-0.0030340319499373436,-0.007147072348743677
1746576075781232400,4.108232421875,-0.0012916694395244122,0.00046429596841335297,-0.0033227726817131042
1746576075791311600,4.1183115234375,0.0008475705981254578,-0.005183875095099211,-0.0010065119713544846
1746576075801389600,4.1283896484375,0.001588994637131691,-0.004340984858572483,0.0019618473015725613
1746576075811467500,4.138467529296875,0.0016164653934538364,0.0039016143418848515,0.0025295191444456577
1746576075821546200,4.148546142578125,0.0011669234372675419,0.002742340322583914,0.006454485934227705
1746576075831624400,4.15862451171875,0.0012569939717650414,0.0017207884229719639,0.004170831758528948
1746576075841702400,4.168702392578125,-0.0019534467719495296,0.004586083348840475,0.006147163920104504
1746576075851780400,4.1787802734375,-0.003476337529718876,0.005370764527469873,0.007482314016669989
1746576075861859300,4.188859375,-0.0022147977724671364,0.002379236277192831,0.009704722091555595
1746576075871937500,4.1989375,-0.0003637303598225117,-0.0068341214209795,0.010357038117945194
1746576075882015500,4.209015380859375,0.003246450796723366,-0.0014151213690638542,0.006097577512264252
1746576075892094500,4.219094482421875,0.0044263084419071674,-0.003749243216589093,-0.0019639201927930117
1746576075902172400,4.22917236328125,0.0070444620214402676,0.0013179532252252102,-0.00602284399792552
1746576075912250600,4.239250732421875,0.001349274069070816,0.0018817316740751266,-0.0036803295370191336
1746576075922328600,4.24932861328125,0.0012645851820707321,0.0007909014821052551,-0.003717880230396986
1746576075932407300,4.2594072265625,0.002445011865347624,-0.003282771445810795,-0.0010708037298172712
1746576075942485200,4.2694853515625,-0.001834421418607235,-0.0007730084471404552,-0.0007594802882522345
1746576075952563200,4.279563232421875,-0.0036559104919433594,0.0008910996839404106,-0.0026845186948776245
1746576075962642400,4.289642333984375,-0.005482572130858898,0.0025001810863614082,-0.0038464560639113188
1746576075972720400,4.299720458984375,-0.0076129864901304245,0.0024500126019120216,-0.0010800700401887298
1746576075982798300,4.30979833984375,-0.004757544957101345,-0.0017505916766822338,0.008223949000239372
1746576075992877600,4.319877685546875,-0.00025431113317608833,-0.0023328731767833233,0.011896340176463127
1746576076002955500,4.32995556640625,0.0019973914604634047,0.0004597175866365433,0.016941433772444725
1746576076013033500,4.340033447265625,0.002669174689799547,0.003999415319412947,0.013627232983708382
1746576076023111400,4.350111328125,0.001085392665117979,0.0030398783273994923,0.012812572531402111
1746576076033190400,4.3601904296875,0.0013316948898136616,0.00162962032482028,0.01233384944498539
1746576076043268400,4.370268310546875,0.00044885696843266487,0.004439522046595812,0.007391821127384901
1746576076053347000,4.38034716796875,-0.003985094837844372,0.002320938277989626,0.0017483106348663568
1746576076063426000,4.390426025390625,-0.003084946423768997,-0.0019521038047969341,-0.005335431545972824
1746576076073504300,4.400504150390625,-0.004329079762101173,-0.0017181257717311382,-0.010514055378735065
1746576076083582200,4.410582275390625,-0.005446009337902069,-0.0030417167581617832,-0.006969921290874481
1746576076093660200,4.42066015625,-0.002147647552192211,-0.0034848421346396208,-0.009891138412058353
1746576076103739100,4.4307392578125,0.0026825277600437403,-0.006517383735626936,-0.011308472603559494
1746576076113817000,4.440817138671875,0.0012066038325428963,-0.0032757839653640985,-0.015036099590361118
1746576076123895300,4.450895263671875,-0.006435869261622429,0.0027418946847319603,-0.012750308029353619
1746576076133974000,4.46097412109375,-0.006575780920684338,-0.0006503257900476456,-0.0024333808105438948
1746576076144052000,4.471052001953125,-0.005178953520953655,-0.003854640992358327,0.0033273028675466776
1746576076154130200,4.481130126953125,-0.0005068359896540642,-0.010337751358747482,0.004001718945801258
1746576076164208000,4.4912080078125,0.0029270441737025976,-0.005022082012146711,0.0008013984188437462
1746576076174287000,4.501287109375,0.00046774931252002716,0.008613391779363155,-0.007589052896946669
1746576076184365000,4.511364990234375,-0.00004970282316207886,0.013742906041443348,-0.0036611570976674557
1746576076194443300,4.521443359375,0.0013400106690824032,0.013741185888648033,-0.0009954433189705014
1746576076204522200,4.531522216796875,0.004275613464415073,0.0028730910271406174,0.005492017138749361
1746576076214600200,4.54160009765625,0.00669047050178051,-0.007210236508399248,0.0030798933003097773
1746576076224678100,4.55167822265625,0.004393760580569506,-0.010290182195603848,-0.0033774732146412134
1746576076234757000,4.561757080078125,0.0003429604694247246,-0.007727066986262798,-0.010268831625580788
1746576076244835000,4.5718349609375,-0.0050925519317388535,-0.005716647021472454,-0.014752795919775963
1746576076254913000,4.5819130859375,-0.005862073041498661,0.00044981343671679497,-0.011325410567224026
1746576076264991000,4.591990966796875,-0.0012627937830984592,0.002389926463365555,-0.004111174494028091
1746576076275070200,4.6020703125,-0.00279740197584033,0.005690229590982199,0.004623835440725088
1746576076285148200,4.612148193359375,0.00034645944833755493,0.0021868408657610416,0.007408969569951296
1746576076295226000,4.62222607421875,0.003952247556298971,0.0019736113026738167,0.010167309083044529
1746576076305305000,4.63230517578125,0.00046537071466445923,0.0017035668715834618,0.002634291537106037
1746576076315383300,4.64238330078125,0.002570997690781951,-0.000776458065956831,-0.00365353561937809
1746576076325461200,4.652461181640625,-0.0016383947804570198,-0.0013668807223439217,-0.010669101029634476
1746576076335539200,4.662539306640625,-0.0057008760049939156,-0.003250420093536377,-0.011860490776598454
1746576076345618000,4.672617919921875,-0.005498475395143032,-0.0076707350090146065,-0.008124874904751778
1746576076355696000,4.682696044921875,-0.00032680807635188103,-0.0052765896543860435,-0.005600516218692064
1746576076365774000,4.692774169921875,-0.001692477148026228,-0.001349491998553276,0.004238532390445471
1746576076375853000,4.70285302734375,-0.00015020184218883514,0.000028362497687339783,0.012048729695379734
1746576076385931000,4.712930908203125,0.003278884571045637,0.008272177539765835,0.014258621260523796
1746576076396009200,4.72300927734375,0.0034637078642845154,0.013067732565104961,0.011630081571638584
1746576076406088200,4.733088134765625,0.0071596428751945496,0.007031677290797234,0.010116340592503548
1746576076416166100,4.743166259765625,0.008611046709120274,0.0038726222701370716,0.009883045218884945
1746576076426244000,4.753244140625,0.007882406003773212,-0.0019413246773183346,0.005198013037443161
1746576076436322300,4.763322265625,0.00290832482278347,-0.005551391281187534,0.006363253574818373
1746576076446401000,4.773401123046875,-0.002954091876745224,-0.0057660420425236225,0.003076646476984024
1746576076456479000,4.78347900390625,-0.005806887988001108,-0.0013721054419875145,-0.003851302433758974
1746576076466557000,4.793556884765625,-0.0038337516598403454,-0.004642201121896505,-0.013455459848046303
1746576076476636200,4.80363623046875,-0.0015183426439762115,-0.0007274053059518337,-0.015633977949619293
1746576076486714000,4.813714111328125,0.00013947533443570137,-0.0015308805741369724,-0.017158905044198036
1746576076496792000,4.8237919921875,0.004518986213952303,0.0028801639564335346,-0.010197615250945091
1746576076506870000,4.8338701171875,0.005251355469226837,0.0055260141380131245,-0.005400197114795446
1746576076516949200,4.84394921875,0.002943669445812702,0.003160911612212658,-0.0029199421405792236
1746576076527027200,4.854027099609375,0.0004520160146057606,-0.000624239444732666,0.002523559145629406
1746576076537105200,4.864105224609375,-0.0001398134045302868,-0.0052138930186629295,0.0027960510924458504
1746576076547184000,4.87418408203125,-0.00560808228328824,-0.0020354101434350014,-0.001268997904844582
1746576076557262000,4.884261962890625,-0.00223570317029953,-0.006430679000914097,-0.0032162992283701897
1746576076567340000,4.894340087890625,-0.006355879828333855,-0.005798178259283304,0.0016322517767548561
1746576076577418000,4.90441796875,-0.004815222695469856,-0.0013104723766446114,0.004138021729886532
1746576076587497000,4.9144970703125,-0.0030303718522191048,-0.0016058171167969704,0.003515108721330762
1746576076597575200,4.9245751953125,-0.0008486895821988583,-0.004511135630309582,-0.001966266194358468
1746576076607653000,4.934653076171875,-0.0001200488768517971,-0.00686057610437274,-0.008179421536624432
1746576076617732000,4.944732177734375,-0.0022498182952404022,-0.00831513199955225,-0.012226572260260582
1746576076627810000,4.95481005859375,-0.005958269350230694,-0.004473788198083639,-0.018785137683153152
1746576076637888300,4.96488818359375,-0.008738726377487183,0.002412805799394846,-0.017179621383547783
1746576076647966200,4.97496630859375,-0.00923993345350027,0.002087100874632597,-0.011244233697652817
1746576076658045000,4.985044921875,-0.003706129267811775,-0.0055482592433691025,-0.004194636829197407
1746576076668123000,4.995122802734375,-0.0003630630671977997,-0.010520913638174534,-0.0008305318187922239
1746576076678201000,5.005201171875,0.0036295291502028704,-0.0075120870023965836,-0.0027030024211853743
1746576076688280000,5.015280029296875,0.004074809607118368,-0.0067259217612445354,-0.004639653023332357
1746576076698358000,5.02535791015625,0.004491175524890423,-0.0016788006760179996,-0.003558515338227153
1746576076708436000,5.03543603515625,-0.0016024033538997173,-0.00007797451689839363,0.0055486964993178844
1746576076718515200,5.04551513671875,-0.00461510568857193,0.0027068047784268856,0.01066186185926199
1746576076728593200,5.05559326171875,-0.0025634057819843292,0.0009794789366424084,0.009954526089131832
1746576076738671000,5.065671142578125,-0.0024235150776803493,-0.0032999913673847914,0.004240662790834904
1746576076748749000,5.0757490234375,0.0014319433830678463,-0.0013178004883229733,-0.006538481451570988
1746576076758828300,5.085828369140625,0.0021440929267555475,0.00043448153883218765,-0.013256095349788666
1746576076768906200,5.09590625,0.00020744232460856438,-0.0014859242364764214,-0.009495445527136326
1746576076778984200,5.105984130859375,0.001676785759627819,-0.0016639498062431812,-0.008043067529797554
1746576076789063200,5.116063232421875,0.00045386236160993576,-0.006196649745106697,-0.00664970139041543
1746576076799141000,5.12614111328125,-0.0033275801688432693,-0.010612094774842262,-0.004781703464686871
1746576076809219000,5.136218994140625,-0.005196853540837765,-0.005216264631599188,0.0007845696527510881
1746576076819297000,5.146297119140625,-0.005024471785873175,0.0032336427830159664,0.008280518464744091
1746576076829376300,5.156376220703125,-0.00034449854865670204,0.0053274198435246944,0.007456270046532154
1746576076839454200,5.1664541015625,0.0007360205054283142,0.005986782722175121,0.002975982381030917
1746576076849532200,5.1765322265625,0.003761371597647667,0.0028828680515289307,0.0019951402209699154
1746576076859611100,5.186611083984375,0.00763612100854516,-0.0016098120249807835,0.0018767319852486253
1746576076869689300,5.196689453125,0.0070566171780228615,-0.0021006325259804726,-0.0024833951611071825
1746576076879767300,5.206767333984375,0.004962288774549961,-0.004321455489844084,-0.008326106704771519
1746576076889845200,5.21684521484375,-0.0006761560216546059,-0.0027832137420773506,-0.012970926240086555
1746576076899924000,5.226924072265625,0.0015367786400020123,-0.01100422628223896,-0.01494363509118557
1746576076910002000,5.237001953125,-0.0005524712614715099,-0.011747248470783234,-0.012280207127332687
1746576076920080100,5.247080078125,-0.0029325750656425953,-0.007173294201493263,-0.0027298496570438147
1746576076930159000,5.2571591796875,-0.0036026262678205967,-0.0017942413687705994,-0.0013793606776744127
1746576076940237000,5.267237060546875,-0.003418185282498598,0.005124574061483145,0.002787319477647543
1746576076950315000,5.27731494140625,-0.001308429054915905,0.007944595068693161,0.008230021223425865
1746576076960393200,5.287393310546875,0.0004266202449798584,0.012343604117631912,0.015825357288122177
1746576076970472200,5.29747216796875,0.0026500935200601816,0.006780261639505625,0.019296521320939064
1746576076980550100,5.307550048828125,0.0015908204950392246,0.001167295966297388,0.016345368698239326
1746576076990628000,5.317628173828125,0.0007798876613378525,-0.00039890920743346214,0.011403074488043785
1746576077000707000,5.32770703125,-0.0028103762306272984,-0.004229550249874592,0.007773771416395903
1746576077010785000,5.337784912109375,-0.0032631135545670986,-0.010062937624752522,0.006242719944566488
1746576077020863000,5.347863037109375,-0.005408898461610079,-0.008916942402720451,-0.00045854109339416027
1746576077030942200,5.357942138671875,-0.003465323243290186,-0.003152796532958746,-0.004819733556360006
1746576077041020200,5.368020263671875,-0.002313428558409214,0.0005206409841775894,-0.006177789065986872
1746576077051098000,5.37809814453125,-0.0021286047995090485,0.007172418292611837,-0.011046314612030983
1746576077061176000,5.388176025390625,0.0012776530347764492,0.008053619414567947,-0.005924839526414871
1746576077071255300,5.39825537109375,0.004421248100697994,0.006816049572080374,-0.005726434290409088
1746576077081333200,5.408333251953125,0.0020406872499734163,0.000040904153138399124,-0.004983999766409397
1746576077091411200,5.4184111328125,0.0029717283323407173,-0.005090474151074886,-0.002638553734868765
1746576077101489200,5.4284892578125,0.0006329971365630627,-0.007425318472087383,0.0025015606079250574
1746576077111568100,5.438568115234375,0.0015531191602349281,-0.0074090734124183655,0.002076253527775407
1746576077121646000,5.44864599609375,-0.002149720210582018,-0.003963550552725792,-0.002299110870808363
1746576077131724000,5.45872412109375,-0.003677575383335352,-0.0006638937629759312,0.001365664997138083
1746576077141803300,5.46880322265625,-0.004084260202944279,0.00119852926582098,-0.002721430966630578
1746576077151881200,5.478881103515625,-0.00039338506758213043,-0.0016790158115327358,-0.002081473357975483
1746576077161959200,5.488959228515625,0.0024713771417737007,0.0002688202075660229,-0.004053277894854546
1746576077172038100,5.4990380859375,0.003632781794294715,0.0013292906805872917,-0.0026726950891315937
1746576077182116400,5.509116455078125,0.0035782805643975735,-0.00019539333879947662,0.0005105321761220694
1746576077192194300,5.5191943359375,0.003464563749730587,-0.0012968769297003746,0.0007422271883115172
1746576077202272300,5.529272216796875,0.0017169998027384281,-0.001443173736333847,0.0008439011871814728
1746576077212351000,5.53935107421875,0.003693863982334733,-0.0017787320539355278,0.005287385545670986
1746576077222429000,5.549428955078125,0.0018972957041114569,-0.002251709345728159,0.006284472998231649
1746576077232507100,5.559507080078125,-0.0008052801713347435,-0.00298141548410058,0.007546545006334782
1746576077242586000,5.569586181640625,-0.0029008081182837486,0.000402029138058424,0.009687354788184166
1746576077252664000,5.5796640625,-0.0022680405527353287,0.0012997803278267384,0.00896217580884695
1746576077262742000,5.589741943359375,-0.0033567221835255623,0.0010028509423136711,0.004597789142280817
1746576077272820200,5.5998203125,-0.0018512378446757793,-0.0001803915947675705,0.0033128142822533846
1746576077282899200,5.609899169921875,0.0006345761939883232,0.00202462961897254,-0.0006566843949258327
1746576077292977200,5.61997705078125,-0.00015398580580949783,0.0027218456380069256,-0.0015163527568802238
1746576077303055000,5.63005517578125,0.0010638763196766376,0.0032420498318970203,-0.007344888523221016
1746576077313134000,5.640134033203125,0.0050615472719073296,0.0029341881163418293,-0.0071858977898955345
1746576077323212000,5.6502119140625,0.004775011446326971,-0.0007634209468960762,-0.007673845626413822
1746576077333290000,5.6602900390625,0.0065193818882107735,0.00008239876478910446,-0.0014878548681735992
1746576077343368000,5.670367919921875,0.00726788304746151,-0.0007081921212375164,0.005070817656815052
1746576077353447200,5.680447265625,0.0020667293574661016,-0.0028371228836476803,0.008531329222023487
1746576077363525000,5.690525146484375,-0.0028757359832525253,0.0002589537762105465,0.013705743476748466
1746576077373603000,5.70060302734375,-0.00549069419503212,0.0010770768858492374,0.016408585011959076
1746576077383682300,5.710682373046875,-0.0013213078491389751,0.006888766307383776,0.018106728792190552
1746576077393760300,5.72076025390625,-0.0009018597193062305,0.00811035931110382,0.009203781373798847
1746576077403838200,5.730838134765625,0.0003873170353472233,0.000793201383203268,0.0037734401412308216
1746576077413916200,5.740916259765625,-0.0011445330455899239,-0.0054292744025588036,-0.004773975349962711
1746576077423995100,5.7509951171875,0.0025886886287480593,-0.010223058052361012,-0.005290686152875423
1746576077434073000,5.761072998046875,0.0004610894247889519,-0.005936167668551207,-0.004229948855936527
1746576077444151000,5.771151123046875,-0.0037246965803205967,-0.001062734518200159,-0.0039131916128098965
1746576077454230000,5.78122998046875,-0.003881290089339018,-0.001077648252248764,-0.0017578955739736557
1746576077464308200,5.79130810546875,-0.003279681783169508,0.0025501102209091187,-0.0009533545817248523
1746576077474386200,5.80138623046875,-0.0009624655358493328,0.008992030285298824,0.0007276327232830226
1746576077484464000,5.811464111328125,-0.0010638367384672165,0.007724782917648554,0.0033182480838149786
1746576077494543000,5.821543212890625,0.0005811979062855244,0.004854960832744837,-0.0016030070837587118
1746576077504621300,5.831621337890625,0.0013715284876525402,-0.0035394742153584957,0.0016307106707245111
1746576077514699300,5.84169921875,-0.00009960168972611427,-0.012312458828091621,0.0020807848777621984
1746576077524778200,5.8517783203125,-0.0031547416001558304,-0.012577241286635399,0.0019672794733196497
1746576077534856200,5.861856201171875,-0.0037148045375943184,-0.0068839360028505325,-0.004334292374551296
1746576077544934100,5.87193408203125,-0.00655983854085207,0.000127292238175869,-0.013157668523490429
1746576077555013000,5.88201318359375,-0.0023682890459895134,0.008976442739367485,-0.010926205664873123
1746576077565091000,5.892091064453125,0.0013975524343550205,0.0056077223271131516,-0.00998647976666689
1746576077575169000,5.9021689453125,0.005206139292567968,0.0028401650488376617,-0.00750707695260644
1746576077585247000,5.9122470703125,0.008934298530220985,-0.0004381858743727207,-0.004135248716920614
1746576077595326200,5.922326171875,0.00217013549990952,0.005091069266200066,-0.00678695784881711
1746576077605404200,5.932404052734375,-0.0008271769620478153,0.007142730988562107,-0.001404760405421257
1746576077615482000,5.942482177734375,-0.003934287000447512,0.008927050046622753,-0.00023217051057145
1746576077625561300,5.952561279296875,-0.0045974720269441605,0.0013461452908813953,-0.0002763260854408145
1746576077635639300,5.962639404296875,-0.0020805178210139275,-0.007225238252431154,0.0003638978523667902
1746576077645717200,5.97271728515625,-0.0008607697673141956,-0.0028561330400407314,0.001473047537729144
1746576077655795200,5.982795166015625,0.00027746520936489105,0.004015355370938778,0.00341848679818213
1746576077665874200,5.992874267578125,0.0013410160318017006,0.005231812130659819,0.003762198844924569
1746576077675952000,6.0029521484375,0.004642536863684654,0.005068027880042791,0.0026921408716589212
1746576077686030000,6.013030029296875,0.007057966664433479,0.0008163410238921642,-0.002207223791629076
1746576077696109000,6.023109130859375,0.007529079914093018,-0.005570451728999615,-0.003078610170632601
1746576077706187300,6.033187255859375,0.0013902299106121063,-0.0016178772784769535,-0.004758324474096298
1746576077716265200,6.04326513671875,-0.0014564231969416142,0.007843002676963806,-0.004971909802407026
1746576077726343200,6.05334326171875,-0.01193694956600666,0.011631757020950317,0.0004831990518141538
1746576077736422100,6.063422119140625,-0.006340317893773317,0.003071824088692665,0.009068964049220085
1746576077746500400,6.073500244140625,-0.0008909613825380802,-0.005153702571988106,0.008625665679574013
1746576077756578300,6.083578369140625,0.0028606338892132044,-0.0031893551349639893,0.006590477656573057
1746576077766657000,6.093656982421875,0.004407912027090788,-0.000498245470225811,-0.0004618408565875143
1746576077776735000,6.10373486328125,0.0047882115468382835,-0.0010407310910522938,-0.0017257771687582135
1746576077786813200,6.113813232421875,0.002551482757553458,0.0028411326929926872,0.0006501239258795977
1746576077796891100,6.12389111328125,0.00004198634997010231,0.002774021588265896,0.00512716406956315
1746576077806970000,6.13397021484375,-0.0017557055689394474,0.0018873242661356926,0.002937359269708395
1746576077817048000,6.144048095703125,-0.0031000692397356033,-0.0011169873178005219,0.004385852254927158
1746576077827126300,6.154126220703125,-0.002436448819935322,-0.000545143149793148,-0.002218998270109296
1746576077837205200,6.164205322265625,-0.0019890377297997475,-0.0024042963050305843,-0.010622336529195309
1746576077847283200,6.174283203125,-0.000925921369343996,-0.008304009214043617,-0.00978930201381445
1746576077857361200,6.184361083984375,-0.0010513565503060818,-0.009060613811016083,-0.006684855092316866
1746576077867440000,6.194440185546875,-0.002180634532123804,-0.00801858026534319,-0.0035799755714833736
1746576077877518000,6.20451806640625,-0.0016850205138325691,-0.004423046484589577,-0.0016129649011418223
1746576077887596000,6.214595947265625,0.0003356155939400196,0.000634713564068079,-0.001317195245064795
1746576077897674000,6.224674072265625,0.0009404197335243225,0.0021266168914735317,0.0027899316046386957
1746576077907753200,6.234753173828125,0.0045361826196312904,0.002647237852215767,0.004639493301510811
1746576077917831200,6.2448310546875,-0.0006215614266693592,0.004574301652610302,0.005923403427004814
1746576077927909000,6.2549091796875,-0.0006576478481292725,0.007963618263602257,0.006072702817618847
1746576077937988000,6.264988037109375,0.0009639509953558445,0.0022215773351490498,0.006627172697335482
1746576077948066300,6.27506640625,-0.0015234211459755898,-0.004931483417749405,-0.00016154776676557958
1746576077958144300,6.285144287109375,-0.005146385170519352,-0.004147182684391737,-0.004004222806543112
1746576077968222200,6.29522216796875,-0.003922644071280956,-0.0034683304838836193,-0.004435386974364519
1746576077978301000,6.305301025390625,-0.0047069452702999115,-0.002730368636548519,-0.0066751050762832165
1746576077988379100,6.315379150390625,-0.006095841061323881,0.0008036973886191845,-0.006601548753678799
1746576077998457000,6.32545703125,-0.003916309680789709,-0.003070403356105089,-0.0076897162944078445
1746576078008536000,6.3355361328125,-0.0004689251072704792,-0.0002918001264333725,-0.002308423863723874
1746576078018614000,6.345614013671875,0.0038621737621724606,-0.005497214384377003,0.008028370328247547
1746576078028692200,6.355692138671875,0.0023269180674105883,-0.001799465622752905,0.007330035790801048
1746576078038770200,6.365770263671875,0.002299753949046135,0.007537310477346182,0.004441571421921253
1746576078048849200,6.37584912109375,0.0007388954982161522,0.007435766514390707,0.00468679191544652
1746576078058927400,6.38592724609375,-0.0016560852527618408,0.006648003589361906,0.009283407591283321
1746576078069005300,6.39600537109375,-0.0008698245510458946,0.0027255862951278687,0.014949175529181957
1746576078079084000,6.406083984375,0.001866307109594345,0.002119184471666813,0.01334408763796091
1746576078089162200,6.416162353515625,-0.0019129668362438679,0.0025660754181444645,0.01106069516390562
1746576078099240200,6.426240234375,0.00044126762077212334,0.004731225315481424,0.006954101379960775
1746576078109319200,6.436319091796875,-0.00211532786488533,0.006090971641242504,0.0010090721771121025
1746576078119397000,6.446397216796875,0.002831493504345417,0.006178056821227074,-0.0024415855295956135
1746576078129475000,6.45647509765625,0.0014190282672643661,0.005350575316697359,-0.007970890961587429
1746576078139553300,6.46655322265625,0.0020587195176631212,0.0030434788204729557,-0.0063354442827403545
1746576078149632300,6.47663232421875,0.005795345641672611,-0.0023912708275020123,-0.009212995879352093
1746576078159710200,6.486710205078125,0.0024291102308779955,-0.004570535384118557,-0.009316859766840935
1746576078169788200,6.4967880859375,-0.0013103135861456394,-0.0015494953840970993,-0.008255953900516033
1746576078179867400,6.506867431640625,-0.0060392883606255054,0.007466902490705252,-0.0015141615876927972
1746576078189945300,6.5169453125,-0.002055634278804064,0.00894102267920971,0.004009867087006569
1746576078200023300,6.527023193359375,0.002742582932114601,0.0008335630409419537,0.005950512830168009
1746576078210101200,6.537101318359375,0.0003736051730811596,-0.004754967056214809,0.003761501982808113
1746576078220180200,6.54718017578125,-0.000818425789475441,-0.007842902094125748,0.005889100953936577
1746576078230258200,6.557258056640625,-0.004018784500658512,-0.01035073772072792,0.0029383739456534386
1746576078240336100,6.567336181640625,-0.004514665342867374,-0.00523160956799984,0.0016957427142187953
1746576078250415400,6.577415283203125,-0.0033359117805957794,-0.004373868461698294,0.0002599777653813362
1746576078260493300,6.587493408203125,0.00057201087474823,-0.0036644022911787033,-0.004142227582633495
1746576078270571300,6.5975712890625,0.0029610944911837578,0.00035383831709623337,-0.005805583205074072
1746576078280649200,6.607649169921875,-0.0008975598029792309,-0.0006211451254785061,-0.0011117616668343544
1746576078290728400,6.617728515625,-0.0021057408303022385,0.0026142150163650513,0.005916479043662548
1746576078300806400,6.627806396484375,-0.0007350118830800056,0.002391042187809944,0.010000968351960182
1746576078310884400,6.63788427734375,-0.002046124543994665,-0.003174101933836937,0.006902169901877642
1746576078320963000,6.647963134765625,-0.0030770343728363514,-0.006202914752066135,0.0009542658808641136
1746576078331041300,6.658041259765625,-0.004254948813468218,-0.005806191358715296,-0.005324994679540396
1746576078341119200,6.668119140625,-0.0032557309605181217,-0.0068546780385077,-0.006550048943608999
1746576078351198200,6.6781982421875,-0.0034447009675204754,-0.006693392526358366,-0.0044750189408659935
1746576078361276200,6.688276123046875,-0.001077416818588972,-0.00566354813054204,-0.0017559316474944353
1746576078371354400,6.698354248046875,0.002227203920483589,-0.008571073412895203,-0.00942306499928236
1746576078381432300,6.708432373046875,0.001863948768004775,-0.008245635777711868,-0.012705677188932896
1746576078391511300,6.71851123046875,-0.0006210287101566792,-0.006874627899378538,-0.011031345464289188
1746576078401589200,6.72858935546875,-0.0006354097276926041,-0.004695363342761993,-0.004950549453496933
1746576078411667500,6.73866748046875,-0.0026216129772365093,-0.004271932877600193,-0.002429337240755558
1746576078421746200,6.74874609375,-0.0020807250402867794,-0.0013552387244999409,0.005431248806416988
1746576078431824100,6.75882421875,-0.004753589630126953,0.0022197128273546696,0.004384258762001991
1746576078441902000,6.768902099609375,-0.006412472575902939,0.008087722584605217,0.0034241890534758568
1746576078451980300,6.778980224609375,-0.00416543148458004,0.004892374388873577,0.002270936267450452
1746576078462059300,6.789059326171875,0.0014658225700259209,-0.0000390014611184597,-0.001435917685739696
1746576078472137200,6.79913720703125,0.00019329041242599487,0.00003018835559487343,-0.00013363953621592373
1746576078482215200,6.809215087890625,0.0009783906862139702,0.004246770869940519,0.0038456555921584368
1746576078492294400,6.81929443359375,0.002732614753767848,0.006285421084612608,-0.0009232667507603765
1746576078502372400,6.829372314453125,0.0031291593331843615,0.006880371365696192,-0.003547013271600008
1746576078512450300,6.8394501953125,0.003212305484339595,0.001167929731309414,-0.0038830977864563465
1746576078522529000,6.849529052734375,0.0016964343376457691,-0.000023568980395793915,-0.005336384754627943
1746576078532607200,6.859607177734375,0.0015392140485346317,-0.0012392769567668438,-0.006976843345910311
1746576078542685200,6.869685302734375,-0.0009207478724420071,0.003273449372500181,-0.008840257301926613
1746576078552763100,6.87976318359375,-0.00009246636182069778,0.0012600361369550228,-0.006187004502862692
1746576078562842000,6.889842041015625,-0.002796906977891922,0.004265945870429277,0.003414223436266184
1746576078572920300,6.89992041015625,-0.005471309646964073,0.008675925433635712,0.0031405033078044653
1746576078582998300,6.909998291015625,-0.0013583237305283546,0.007364052813500166,0.003820941084995866
1746576078593077200,6.9200771484375,0.0017033414915204048,0.008034257218241692,0.0009299719240516424
1746576078603155200,6.9301552734375,0.005938833113759756,0.0065482123754918575,-0.000746487989090383
1746576078613233400,6.9402333984375,0.00852329470217228,0.0054509905166924,0.001215417985804379
1746576078623311400,6.950311279296875,0.006700361147522926,-0.00010329857468605042,0.009215820580720901
1746576078633390000,6.96039013671875,0.0014745178632438183,0.004594122990965843,0.009826373308897018
1746576078643468000,6.970468017578125,-0.0024632317945361137,-0.0000195368193089962,0.01140136644244194
1746576078653546200,6.980546142578125,-0.003599011804908514,0.002495946828275919,0.013181312009692192
1746576078663625200,6.990625244140625,-0.0022541158832609653,0.00008578598499298096,0.013216465711593628
1746576078673703200,7.000703125,-0.0025425944477319717,0.002302739769220352,0.013543879613280296
1746576078683781000,7.010781005859375,-0.001129254698753357,0.0029165977612137794,0.008809578604996204
1746576078693859300,7.020859375,0.000758602749556303,0.0021086460910737514,0.006517715286463499
1746576078703938300,7.030938232421875,0.0044113947078585625,0.007088491227477789,0.0025677147787064314
1746576078714016300,7.041016357421875,0.007518220692873001,0.007107833866029978,0.001330880681052804
1746576078724094200,7.05109423828125,0.005128033924847841,0.011334802955389023,0.0002941120765171945
1746576078734173200,7.061173095703125,0.0026135877706110477,0.008944423869252205,-0.0022960659116506577
1746576078744251100,7.071251220703125,0.0010697534307837486,0.005537176039069891,0.0006142366910353303
1746576078754329000,7.0813291015625,-0.00037360237911343575,0.00023629143834114075,0.0027435910888016224
1746576078764408300,7.091408203125,-0.0005240710452198982,-0.005248222500085831,0.0020322606433182955
1746576078774486300,7.101486328125,-0.002872105222195387,-0.006640826351940632,0.003921722527593374
1746576078784564200,7.111564208984375,-0.004023123066872358,-0.0069745201617479324,-0.0004791514074895531
1746576078794642200,7.12164208984375,0.00038134679198265076,-0.003683564718812704,0.003017150331288576
1746576078804721200,7.13172119140625,0.0014154519885778427,-0.002174884080886841,0.007258500903844833
1746576078814799400,7.14179931640625,0.0038410411216318607,0.001469106413424015,0.010881463065743446
1746576078824877300,7.151877197265625,0.0005895877256989479,0.0067922333255410194,0.011005033738911152
1746576078834956300,7.161956298828125,0.0012363167479634285,0.00422431156039238,0.007377170026302338
1746576078845034200,7.1720341796875,0.0017750742845237255,0.005525532178580761,0.001612491556443274
1746576078855112200,7.1821123046875,0.0036227202508598566,0.00808239821344614,-0.0054472885094583035
1746576078865190100,7.192190185546875,0.0027598561719059944,0.0034487638622522354,-0.009025778621435165
1746576078875269000,7.20226904296875,-0.0009069181978702545,-0.0024584843777120113,-0.010051997378468513
1746576078885347000,7.21234716796875,-0.004113097675144672,-0.00800158828496933,-0.008131325244903564
1746576078895425300,7.22242529296875,-0.006720789708197117,-0.010190744884312153,-0.0033547307830303907
1746576078905504300,7.232504150390625,-0.004581738263368607,-0.010767851956188679,-0.002838077489286661
1746576078915582200,7.242582275390625,0.0019601054955273867,-0.011445586569607258,-0.0019882572814822197
1746576078925660200,7.25266015625,0.005711700301617384,-0.0046079205349087715,-0.00124550168402493
1746576078935739400,7.262739501953125,0.004054228309541941,-0.00335378828458488,0.0013794078258797526
1746576078945817300,7.2728173828125,0.0037144089583307505,0.0003994046710431576,0.0010310664074495435
1746576078955895300,7.282895263671875,0.004678243305534124,0.0015850686468183994,0.0026396200992166996
1746576078965973200,7.29297314453125,0.001881125383079052,0.00025668367743492126,0.0003157455939799547
1746576078976052200,7.30305224609375,-0.002272149547934532,0.003800856415182352,0.0004841081681661308
1746576078986130200,7.313130126953125,-0.0015613515861332417,-0.0017489045858383179,-0.0005830205045640469
1746576078996208000,7.3232080078125,-0.004281904548406601,0.001495002768933773,-0.005672425031661987
1746576079006287400,7.333287353515625,-0.005269670858979225,-0.0007441830821335316,-0.006776305381208658
1746576079016365300,7.343365234375,-0.0023670922964811325,-0.005103511270135641,0.000874157587531954
1746576079026443300,7.353443359375,0.0032005126122385263,-0.0034363726153969765,0.004158367868512869
1746576079036521200,7.363521240234375,0.004468938801437616,-0.005473182536661625,0.009694277308881283
1746576079046600400,7.373600341796875,0.00364069570787251,-0.00021157553419470787,0.008039655163884163
1746576079056678400,7.383678466796875,0.0015218467451632023,-0.0009878240525722504,0.0030769091099500656
1746576079066756400,7.39375634765625,0.00009199557825922966,0.002456975169479847,-0.000632608076557517
1746576079076835300,7.40383544921875,-0.004198204260319471,0.003516482189297676,-0.0008522132411599159
1746576079086913300,7.413913330078125,-0.003004309255629778,0.002540432848036289,-0.002977149561047554
1746576079096991200,7.4239912109375,-0.005098695866763592,-0.0011293631978332996,-0.002878029365092516
1746576079107069200,7.434069091796875,-0.004225444979965687,-0.002795969136059284,-0.001949384924955666
1746576079117148400,7.4441484375,-0.0047536282800138,-0.0006106304936110973,-0.0029638807754963636
1746576079127226400,7.454226318359375,-0.006376292090862989,0.002104461658746004,0.00020181889703962952
1746576079137304300,7.46430419921875,-0.0036714905872941017,0.00020684534683823586,-0.0005208042566664517
1746576079147383600,7.474383544921875,-0.002482655458152294,-0.004305615089833736,-0.00021747022401541471
1746576079157461500,7.48446142578125,-0.0016750707291066647,-0.005068445578217506,0.0009835095843300223
1746576079167539500,7.49453955078125,-0.0006739888340234756,-0.00415924284607172,0.00034275304642505944
1746576079177618200,7.5046181640625,0.0037383753806352615,-0.00009851856157183647,-0.005698415916413069
1746576079187696400,7.5146962890625,0.0053083086386322975,-0.0020114672370254993,-0.0038994511123746634
1746576079197774300,7.5247744140625,0.004310747142881155,0.0023586410097777843,-0.0032281798776239157
1746576079207852300,7.534852294921875,0.003234031144529581,0.004294226411730051,-0.004280927591025829
1746576079217931300,7.54493115234375,0.0009982301853597164,0.011414313688874245,-0.004359380807727575
1746576079228009500,7.555009521484375,-0.00017356080934405327,0.004209398292005062,-0.007643591146916151
1746576079238087400,7.56508740234375,-0.001441034022718668,-0.0008321939967572689,-0.008333032950758934
1746576079248166400,7.57516650390625,-0.0013094739988446236,0.0015002023428678513,-0.0034160385839641094
1746576079258244400,7.585244384765625,-0.0039796363562345505,0.003395967185497284,0.0011726978700608015
1746576079268322600,7.595322509765625,-0.001878934446722269,0.00013465993106365204,0.004774356726557016
1746576079278400500,7.605400390625,0.0022118326742202044,-0.002495376393198967,-0.004530089441686869
1746576079288479200,7.615479248046875,0.0020389934070408344,-0.006748444400727749,-0.006875269114971161
1746576079298557200,7.62555712890625,0.006036835722625256,-0.0024462598375976086,-0.00231369910761714
1746576079308635400,7.635635498046875,0.002384576480835676,0.0030909846536815166,0.00045732001308351755
1746576079318714400,7.64571435546875,0.00004584575071930885,0.0068827420473098755,0.0053247264586389065
1746576079328792300,7.655792236328125,0.0018876877147704363,0.0030208928510546684,0.0011094753863289952
1746576079338870300,7.665870361328125,0.003585796570405364,-0.00020858319476246834,-0.0002565697650425136
1746576079348948500,7.675948486328125,0.004510978702455759,-0.001551082357764244,0.001339728944003582
1746576079359027500,7.68602734375,-0.0007623285055160522,0.0008305949158966541,0.0037224614061415195
1746576079369105400,7.69610546875,0.0027264126110821962,0.00819370336830616,0.008875145576894283
1746576079379183400,7.706183349609375,-0.001031343825161457,0.007042393088340759,0.011474652215838432
1746576079389262300,7.716262451171875,0.0005841297097504139,0.0014305803924798965,0.01516579370945692
1746576079399340300,7.72634033203125,0.0005975952371954918,-0.0028036562725901604,0.009263061918318272
1746576079409418200,7.736418212890625,-0.0021265516988933086,-0.0008337157778441906,0.001062656519934535
1746576079419497200,7.746497314453125,0.00030617043375968933,-0.0008488576859235764,-0.0067523387260735035
1746576079429575400,7.756575439453125,0.0007700929418206215,0.002724038902670145,-0.008159019984304905
1746576079439653400,7.7666533203125,-0.0008561466820538044,0.00547571899369359,-0.004437413532286882
1746576079449731300,7.7767314453125,-0.003803999163210392,0.008154325187206268,-0.003367355326190591
1746576079459810300,7.786810302734375,-0.003441639244556427,0.0013026595115661621,-0.002623426727950573
1746576079469888500,7.796888427734375,-0.003705558367073536,-0.004836459644138813,-0.005077263340353966
1746576079479966500,7.806966552734375,-0.00020325416699051857,-0.006801086012274027,-0.003707601921632886
1746576079490045200,7.817045166015625,2.1141022443771362e-7,-0.009164907969534397,-0.004468466620892286
1746576079500123100,7.827123046875,0.002713476773351431,-0.003757334081456065,-0.0007935667526908219
1746576079510201300,7.837201416015625,-0.0013643554411828518,0.0029218741692602634,0.001969462726265192
1746576079520279300,7.847279296875,0.0011772876605391502,-0.00015767710283398628,0.006987766828387976
1746576079530358300,7.857358154296875,0.0004853983409702778,0.002882320899516344,0.011367068625986576
1746576079540436200,7.867436279296875,0.0012659169733524323,-0.0009215110912919044,0.00848392490297556
1746576079550514400,7.877514404296875,0.004293398465961218,-0.002448035404086113,0.0035618706606328487
1746576079560593400,7.887593505859375,0.0016733803786337376,-0.001117520034313202,-0.0018328948644921184
1746576079570671400,7.89767138671875,0.0029554262291640043,-0.0017090081237256527,-0.0054966057650744915
1746576079580749300,7.907749267578125,0.0011541936546564102,-0.003710903227329254,-0.00274134473875165
1746576079590827500,7.91782763671875,0.0023784488439559937,-0.0017449576407670975,0.002322123385965824
1746576079600906500,7.927906494140625,-0.003364122938364744,0.002672601956874132,0.002543906681239605
1746576079610984400,7.937984375,0.0014937492087483406,0.0028837905265390873,0.0013023409992456436
1746576079621062400,7.9480625,0.0004596821963787079,-0.004037296399474144,0.0018983015324920416
1746576079631141400,7.958141357421875,0.004747637547552586,-0.004498555790632963,0.003878894494846463
1746576079641219300,7.96821923828125,0.003314780071377754,-0.0026203664019703865,0.004617498256266117
1746576079651297300,7.97829736328125,-0.0005776961334049702,-0.0012347237206995487,0.0024369023740291595
1746576079661375200,7.988375244140625,-0.0019780066795647144,-0.001982727088034153,-0.005147191695868969
1746576079671454500,7.998454345703125,-0.003277895972132683,-0.0032762244809418917,-0.010669788345694542
1746576079681532400,8.008532470703125,-0.0007182727567851543,-0.004730453249067068,-0.013773547485470772
1746576079691610400,8.0186103515625,-0.0035755778662860394,-0.0040891640819609165,-0.012479517608880997
1746576079701689300,8.028689453125,-0.0028771469369530678,-0.0007006311789155006,-0.006640639156103134
1746576079711767600,8.038767578125,-0.002056360710412264,-0.0007909121923148632,-0.003341248957440257
1746576079721845500,8.048845458984376,0.0002492554485797882,-0.0021978747099637985,-0.006017948966473341
1746576079731923500,8.05892333984375,0.002323325490579009,0.0018706363625824451,-0.002587531227618456
1746576079742002200,8.069002197265625,0.0004391167312860489,-0.0019319253042340279,0.0017756412271410227
1746576079752080400,8.079080322265625,0.0023997360840439796,-0.006987137719988823,0.007678271271288395
1746576079762158300,8.089158447265625,-0.0023393589071929455,-0.0060675484128296375,0.009045804850757122
1746576079772237300,8.0992373046875,-0.0004008440300822258,-0.00033722445368766785,0.011237585917115211
1746576079782315300,8.109315185546874,-0.0044451202265918255,-0.0019854549318552017,0.007933668792247772
1746576079792393500,8.1193935546875,-0.0038991724140942097,-0.0003793025389313698,0.007426336407661438
1746576079802472400,8.129472412109376,-0.001617451198399067,-0.0010346700437366962,0.0014033825136721134
1746576079812550400,8.13955029296875,-0.0005332781001925468,0.0053800861351192,-0.0017748340032994747
1746576079822628400,8.14962841796875,-0.000943006481975317,0.0026268232613801956,-0.003962990827858448
1746576079832706600,8.15970654296875,-0.0003168974071741104,0.00017511704936623573,-0.006175278685986996
1746576079842785300,8.169785400390625,0.000771823339164257,-0.0037539228796958923,-0.008427570573985577
1746576079852863200,8.17986328125,-0.0006332602351903915,-0.0015086117200553417,-0.012143478728830814
1746576079862941200,8.189941162109376,-0.0013020006008446217,-0.0027991016395390034,-0.012753020972013474
1746576079873020400,8.2000205078125,-0.00030198367312550545,-0.0033016400411725044,-0.013421474024653435
1746576079883098400,8.210098388671875,-0.003471295814961195,-0.003132987767457962,-0.011647706851363182
1746576079893176300,8.22017626953125,-0.0032880702055990696,-0.0038632263895124197,-0.006477445363998413
1746576079903254300,8.230254150390625,-0.000660615973174572,-0.0035486300475895405,0.0004377749573905021
1746576079913333500,8.24033349609375,-0.0008726036176085472,0.0012455922551453114,0.005613362416625023
1746576079923411500,8.250411376953124,-0.0027397824451327324,0.0034655770286917686,0.004010135307908058
1746576079933489400,8.260489501953124,0.0007076794281601906,0.003858393058180809,0.0009182054782286286
1746576079943568400,8.270568359375,-0.0013944124802947044,-0.003922955133020878,0.0038525876589119434
1746576079953646300,8.280646240234375,0.000895373523235321,-0.00362228462472558,0.008614852093160152
1746576079963724300,8.290724365234375,-0.0016216733492910862,0.0026819733902812004,0.011964092962443829
1746576079973802200,8.30080224609375,-0.003927703946828842,0.003966149874031544,0.004410569090396166
1746576079983881500,8.310881591796875,-0.0008473373018205166,0.0012419144622981548,-0.0026626242324709892
1746576079993959400,8.32095947265625,0.0009870482608675957,0.006991412956267595,-0.009992974810302258
1746576080004037400,8.331037353515624,0.0017799767665565014,0.004793239291757345,-0.011225751601159573
1746576080014116400,8.341116455078126,0.003660435089841485,0.00410188315436244,-0.008591885678470135
1746576080024194600,8.351194580078126,0.0009759790264070034,-0.0018449309282004833,-0.005645049270242453
1746576080034272500,8.3612724609375,-0.00295564578846097,-0.0006864555180072784,-0.0051694088615477085
1746576080044350500,8.3713505859375,-0.003150430042296648,-0.0013426458463072777,-0.0060873981565237045
1746576080054429200,8.38142919921875,-0.00421755900606513,-0.002558112610131502,-0.009057622402906418
1746576080064507000,8.3915068359375,-0.004673972260206938,-0.003340434981510043,-0.013678099028766155
1746576080074585000,8.401585205078124,-0.0015932274982333183,-0.005167895928025246,-0.010528910905122757
1746576080084663800,8.411663818359376,-0.002712761051952839,-0.003102855756878853,-0.00536925345659256
1746576080094741800,8.42174169921875,-0.00029381224885582924,0.00008388282731175423,-0.0004887445829808712
1746576080104819700,8.43181982421875,-0.0018482189625501633,0.0006443257443606853,0.002571068936958909
1746576080114899000,8.44189892578125,0.002884218003600836,0.0032909754663705826,-0.0007275223615579307
1746576080124977000,8.451976806640625,0.0005438579246401787,0.005484519526362419,0.0005940987612120807
1746576080135054800,8.462054931640624,0.005029952619224787,0.0040605273097753525,-0.0009515998535789549
1746576080145132800,8.4721328125,0.005369069054722786,0.005113693419843912,0.006162394769489765
1746576080155212000,8.4822119140625,0.004040417727082968,0.005533407907932997,0.006571456324309111
1746576080165290000,8.4922900390625,0.0036078819539397955,0.005684738513082266,0.004448438994586468
1746576080175368000,8.502367919921875,0.0019162420649081469,0.0037342398427426815,0.008603769354522228
1746576080185447000,8.512447021484375,-0.0036342605017125607,0.0007457686588168144,0.003744985908269882
1746576080195524900,8.52252490234375,-0.004600189160555601,0.002401455771178007,-0.0032785688526928425
1746576080205602800,8.532602783203124,-0.00574274268001318,0.0017408630810678005,-0.011884993873536587
1746576080215680800,8.5426806640625,-0.004521950148046017,-0.0032389815896749496,-0.015504229813814163
1746576080225759700,8.552759765625,0.001440583262592554,-0.0017979578115046024,-0.0170493982732296
1746576080235838000,8.562837890625,0.0008341814391314983,0.0008811820298433304,-0.01608586683869362
1746576080245916000,8.572916015625,-0.00048377877101302147,0.0036247079260647297,-0.014644618146121502
1746576080255995000,8.582994873046875,-0.0031554619781672955,0.0038529406301677227,-0.0133058475330472
1746576080266072800,8.59307275390625,0.0013011451810598373,-0.0002482752315700054,-0.00763304065912962
1746576080276151000,8.603151123046874,0.0041171712800860405,-0.006388192996382713,0.0038467817939817905
1746576080286229000,8.61322900390625,0.0039940788410604,-0.010282839648425579,0.00916643999516964
1746576080296307700,8.6233076171875,0.002440923359245062,-0.011021334677934647,0.013600870035588741
1746576080306385700,8.6333857421875,-0.0017908988520503044,-0.006823519244790077,0.01323905773460865
1746576080316463900,8.6434638671875,-0.006478594616055489,0.0039372495375573635,0.012354888021945953
1746576080326542800,8.65354296875,-0.005746166687458754,0.009876757860183716,0.010714801959693432
1746576080336620800,8.663620849609375,-0.001344494055956602,0.00899951159954071,0.008470023982226849
1746576080346698800,8.67369873046875,0.0020230920054018497,0.0037232693284749985,0.0042095002718269825
1746576080356778000,8.683778076171874,0.006019697990268469,-0.002467780839651823,0.0019830979872494936
1746576080366856000,8.69385595703125,0.0040411208756268024,0.003196331672370434,-0.004474429413676262
1746576080376934000,8.703933837890625,0.0051460666581988335,-0.001668731216341257,-0.00813254714012146
1746576080387011800,8.71401171875,0.001011508982628584,-0.0032013801392167807,-0.012086808681488037
1746576080397090800,8.7240908203125,-0.002767516765743494,-0.0025603575631976128,-0.015084994956851006
1746576080407168800,8.734168701171875,-0.0044456906616687775,-0.002513027284294367,-0.014873642474412918
1746576080417246700,8.744246826171874,-0.005606295540928841,-0.003207047004252672,-0.011772657744586468
1746576080427326000,8.754325927734374,-0.0031210342422127724,-0.0036659096367657185,-0.005617027636617422
1746576080437404000,8.76440380859375,-0.0014403131790459156,-0.006553042680025101,-0.003215122502297163
1746576080447481900,8.77448193359375,-0.0010066344402730465,-0.0023853876627981663,-0.003539659781381488
1746576080457559800,8.784559814453125,-0.0015517836436629295,-0.00486186146736145,-0.006398563273251057
1746576080467639000,8.79463916015625,0.0009364630095660686,-0.0039675310254096985,-0.0063426317647099495
1746576080477717000,8.804717041015625,-0.0006587705574929714,-0.0012471117079257965,-0.006688043475151062
1746576080487795000,8.814794921875,-0.000001101754605770111,0.0032398682087659836,-0.004903621505945921
1746576080497873700,8.824873779296874,0.0001863846555352211,0.003514973446726799,-0.0034607206471264362
1746576080507951900,8.834951904296876,-0.0007575536146759987,0.0018175751902163029,-0.0010541825322434306
1746576080518029800,8.84502978515625,0.002965811872854829,-0.0008919248357415199,-0.007280120626091957
1746576080528107800,8.855107666015625,0.000613480806350708,0.003948040306568146,-0.010943086817860603
1746576080538186800,8.865186767578125,-0.00024112733080983162,-0.0009774761274456978,-0.007037028670310974
1746576080548264700,8.8752646484375,-0.002767079509794712,-0.002573292702436447,-0.0014652159297838807
1746576080558343000,8.885343017578125,-0.0034307390451431274,-0.0048678722232580185,-0.0010950366267934442
1746576080568422000,8.895421875,-0.0012619588524103165,-0.001377325039356947,0.0019911997951567173
1746576080578499800,8.905499755859376,0.00045924214646220207,-0.0018875868991017342,-0.004081872757524252
1746576080588577800,8.915577880859376,-0.0006701629608869553,-0.0010563055984675884,-0.0061608487740159035
1746576080598656000,8.925656005859375,0.0025224348064512014,-0.000012612435966730118,-0.008541980758309364
1746576080608734700,8.935734619140625,0.0014354665763676167,-0.00043303659185767174,-0.004532488062977791
1746576080618812700,8.945812744140625,-0.00414252420887351,-0.0021158885210752487,0.0017286032671108842
1746576080628891000,8.955890869140624,-0.004612497054040432,0.0017581735737621784,-0.0011207634815946221
1746576080638969900,8.965969970703124,-0.0036966362968087196,0.005001637618988752,-0.0014254291309043765
1746576080649047800,8.9760478515625,0.000828474760055542,0.0019766418263316154,-0.004885038360953331
1746576080659125800,8.986125732421876,0.002300403779372573,-0.0007581580430269241,0.0004255714302416891
1746576080669205000,8.996205078125,0.0022539489436894655,-0.0033383043482899666,0.0016151037998497486
1746576080679283000,9.006282958984375,0.001262454316020012,-0.0032139348331838846,0.001431611948646605
1746576080689361000,9.01636083984375,-0.0022384808398783207,0.00444207014515996,-0.0010300006251782179
1746576080699438800,9.02643896484375,-0.0016472586430609226,0.0024196659214794636,-0.002071829279884696
1746576080709518000,9.03651806640625,0.0007867380045354366,-0.0036650365218520164,-0.0024757268838584423
1746576080719596000,9.046595947265626,-0.00017945654690265656,-0.006744183599948883,0.00004894970334134996
1746576080729674000,9.056674072265626,0.002230248646810651,-0.0018201246857643127,0.0011910696048289537
1746576080739752700,9.066752685546875,0.0005031884647905827,0.003860664088279009,0.003574332455173135
1746576080749831000,9.076830810546875,-0.0011742450296878815,0.004347555804997683,0.0002501841227058321
1746576080759908900,9.086908935546875,0.0007999562658369541,0.002684145700186491,-0.0016076370375230908
1746576080769986800,9.09698681640625,0.0002631605602800846,-0.0017920355312526226,-0.005321580916643143
1746576080780065800,9.107065673828124,0.000714033842086792,0.0024136286228895187,-0.004489875864237547
1746576080790144000,9.11714404296875,-0.0011106138117611408,0.0043430146761238575,-0.000012138785677962005
1746576080800222000,9.127221923828126,-0.005500301718711853,0.004505467135459185,0.004252114798873663
1746576080810301000,9.137301025390625,-0.004622064996510744,0.005446310620754957,0.0021953475661575794
1746576080820379000,9.14737890625,-0.002484878059476614,0.002026811707764864,-0.003890241961926222
1746576080830457000,9.15745703125,0.005261399783194065,-0.005878909956663847,-0.009520584717392921
1746576080840535000,9.16753515625,0.004180955700576305,-0.011616956442594528,-0.008894476108253002
1746576080850613800,9.17761376953125,0.001964101567864418,-0.007326273713260889,-0.0037047192454338074
1746576080860691700,9.187691650390626,-0.001173634547740221,-0.005314521491527557,-0.0011025444837287068
1746576080870770000,9.19777001953125,-0.0024089408107101917,-0.0006091608665883541,0.002700819866731763
1746576080880849000,9.207848876953125,-0.001282157376408577,-0.002486955840140581,0.004378344863653183
1746576080890926800,9.2179267578125,-0.0010323738679289818,-0.0025574518367648125,0.0007871287525631487
1746576080901004800,9.2280048828125,-0.0008712527342140675,-0.0013963133096694946,-0.004513360559940338
1746576080911084000,9.238083984375,-0.0005031442269682884,-0.000859028659760952,0.0008943427237682045
1746576080921162000,9.248161865234374,-0.002746857237070799,0.0016549956053495407,0.005798553582280874
1746576080931240000,9.258239990234374,-0.0032246490009129047,-0.00027492037042975426,0.0022832381073385477
1746576080941318000,9.26831787109375,0.001048392616212368,-0.0025876094587147236,0.001641682581976056
1746576080951396900,9.27839697265625,0.004829396493732929,-0.0048468708992004395,0.002451443811878562
1746576080961474800,9.288474853515625,0.001757174264639616,-0.0013376232236623764,-0.002440250478684902
1746576080971552800,9.298552734375,-0.0018185931257903576,0.002349116839468479,-0.004797792062163353
1746576080981631700,9.3086318359375,-0.0017802435904741287,0.002673489972949028,-0.00434319069609046
1746576080991710000,9.3187099609375,-0.003385827410966158,-0.0030884998850524426,0.000569280469790101
1746576081001788000,9.328787841796874,-0.00439010513946414,-0.004354566801339388,0.00410702358931303
1746576081011865900,9.338865966796876,-0.00014078384265303612,-0.005335688125342131,0.007530249189585447
1746576081021944800,9.34894482421875,-0.0016601169481873512,-0.0009372113272547722,-0.00007280963473021984
1746576081032023000,9.35902294921875,0.005112529266625643,-0.00314517505466938,-0.006215069442987442
1746576081042101000,9.36910107421875,0.00453968346118927,-0.004308709874749184,-0.006246228236705065
1746576081052179700,9.3791796875,0.003706416580826044,-0.004370200447738171,-0.004223554395139217
1746576081062258200,9.389258056640625,-0.001823370810598135,0.000464501790702343,-0.0029476338531821966
1746576081072336100,9.399336181640624,-0.0020973128266632557,-0.0018412023782730103,-0.002075614407658577
1746576081082414000,9.4094140625,-0.0020307335071265697,0.00038866233080625534,-0.0005211273673921824
1746576081092493000,9.4194931640625,-0.005177886225283146,0.0013991794548928738,0.001420158427208662
1746576081102571300,9.4295712890625,-0.0005855313502252102,-0.0012187077663838863,-0.00031968465191312134
1746576081112649200,9.439649169921875,0.00012758560478687286,-0.004047655966132879,0.002659969497472048
1746576081122728200,9.449728271484375,0.0025657096412032843,0.0034771054051816463,0.005594772752374411
1746576081132806100,9.45980615234375,0.0021823684219270945,0.004934932570904493,0.009388493373990059
1746576081142884400,9.46988427734375,0.0005304096266627312,0.005521093960851431,0.008559450507164001
1746576081152962300,9.47996240234375,0.00013854540884494781,0.0027581658214330673,0.005330740008503199
1746576081163041000,9.490041015625,0.0019404403865337372,-0.0029718908481299877,0.002602864056825638
1746576081173119000,9.500118896484375,-0.00028094323351979256,-0.004051118157804012,0.001151554984971881
1746576081183197200,9.510197265625,0.0024384106509387493,-0.00387108838185668,0.0012223951052874327
1746576081193276200,9.520276123046875,0.0040174187161028385,-0.008309056982398033,0.001311820698902011
1746576081203354000,9.53035400390625,0.0009137708693742752,-0.003401649883016944,-0.0003992603160440922
1746576081213432000,9.54043212890625,-0.003950988873839378,0.001956390682607889,-0.0007276242831721902
1746576081223510300,9.55051025390625,-0.0036868033930659294,0.0009939237497746944,0.0022103749215602875
1746576081233589200,9.56058935546875,0.00011155009269714355,0.0007492802105844021,0.003975091502070427
1746576081243667200,9.570667236328125,0.002749144798144698,0.000028895214200019836,-0.0008966292371042073
1746576081253745200,9.5807451171875,0.00004719709977507591,0.0062549845315515995,-0.002424592385068536
1746576081263824100,9.59082421875,-0.0017837262712419033,0.006976967211812735,-0.004105313215404749
1746576081273902000,9.600902099609375,-0.0018251007422804832,0.007812782190740108,-0.0031912086997181177
1746576081283980000,9.61097998046875,-0.0020530670881271362,0.0028049740940332413,0.0034909287933260202
1746576081294058000,9.62105810546875,0.005022038705646992,0.0011768187396228313,0.002818053588271141
1746576081304137200,9.63113720703125,0.004677691962569952,0.00021355366334319115,0.00015222943329717964
1746576081314215200,9.641215087890625,0.003177496837452054,-0.00637300219386816,-0.00043446890776976943
1746576081324293000,9.651293212890625,0.00014708610251545906,-0.0016514835879206657,-0.0030494267120957375
1746576081334372000,9.6613720703125,-0.0007278192788362503,-0.0002708504907786846,-0.0007625175639986992
1746576081344450300,9.6714501953125,-0.002205075230449438,-0.0026051108725368977,0.0038332995027303696
1746576081354528300,9.6815283203125,-0.003056203480809927,-0.003283139318227768,0.005303366109728813
1746576081364607000,9.69160693359375,-0.003073780331760645,-0.005865606479346752,0.009592387825250626
1746576081374685000,9.701684814453126,-0.0030436315573751926,-0.0033688521943986416,0.005369151942431927
1746576081384763100,9.71176318359375,-0.003684388007968664,-0.002961388323456049,0.0020303470082581043
1746576081394841000,9.721841064453125,-0.0016330513171851635,-0.0019506034441292286,-0.0015767973382025957
1746576081404920000,9.731920166015625,-0.0029137656092643738,-0.0031972292345017195,-0.005177657585591078
1746576081414998000,9.741998046875,-0.0029239957220852375,-0.0023553953506052494,-0.0061454023234546185
1746576081425076200,9.752076171875,-0.0050601172260940075,-0.0017175683751702309,-0.0036526834592223167
1746576081435155200,9.7621552734375,-0.008453937247395515,-0.0009831702336668968,-0.003599792253226042
1746576081445233200,9.772233154296876,-0.005704489070922136,0.0005311034619808197,-0.008617187850177288
1746576081455311000,9.78231103515625,-0.007827219553291798,-0.002080695703625679,-0.009980777278542519
1746576081465389300,9.792389404296875,-0.004891883581876755,-0.007271995302289724,-0.015484466217458248
1746576081475468000,9.802468017578125,0.0008072243072092533,-0.0036891945637762547,-0.011701392941176891
1746576081485546200,9.812546142578125,0.00002265721559524536,0.00011326698586344719,-0.006134853698313236
1746576081495624200,9.822624267578124,0.00371113745495677,0.0023065567947924137,0.0007746589835733175
1746576081505703200,9.832703125,0.003645890159532428,0.0009438176639378071,0.00883178599178791
1746576081515781000,9.842781005859376,0.001753044780343771,-0.0005984161980450153,0.008183527737855911
1746576081525859000,9.852859130859375,-0.0004094420000910759,-0.002250641118735075,0.005417834501713514
1746576081535937000,9.86293701171875,-0.001532724592834711,-0.0029037129133939743,0.005263050552457571
1746576081546016300,9.873016357421875,-0.0036371545866131783,0.0016127419658005238,0.0077539049088954926
1746576081556094200,9.88309423828125,-0.0007126415148377419,-0.0035320681054145098,0.005239773541688919
1746576081566172200,9.893172119140624,0.003698884742334485,-0.0016651921905577183,0.006360165309160948
1746576081576251400,9.90325146484375,0.0050817327573895454,-0.004063813015818596,0.005925641395151615
1746576081586329300,9.913329345703126,0.004496369510889053,-0.005156241822987795,0.004075277131050825
1746576081596407300,9.9234072265625,0.0032897477503865957,-0.002901394385844469,0.0010512048611417413
1746576081606485200,9.9334853515625,0.006348654627799988,0.0016808402724564075,-0.002460439456626773
1746576081616564000,9.94356396484375,0.005495719611644745,0.002511176746338606,-0.002896449761465192
1746576081626642200,9.95364208984375,0.002241070382297039,0.003612926695495844,0.0004005436203442514
1746576081636720000,9.96372021484375,0.0013059028424322605,0.0027858372777700424,0.0058100600726902485
1746576081646799000,9.973799072265624,0.001967431977391243,-0.0009268759749829769,0.008262565359473228
1746576081656877000,9.983876953125,-0.0005344762466847897,0.0037143933586776257,0.00807870365679264
1746576081666955300,9.993955322265625,-0.0009414069354534149,-0.0016255108639597893,0.008268054574728012
1746576081677033200,10.004033203125,0.000026271678507328033,-0.004974600858986378,0.002156471600756049
1746576081687112200,10.0141123046875,0.0007168292067945004,0.0008143126033246517,-0.0006816592067480087
1746576081697190100,10.024190185546875,-0.0024618241004645824,0.005152486264705658,-0.004205129109323025
1746576081707268400,10.034268310546874,-0.002288984600454569,0.007819908671081066,-0.001250351662747562
1746576081717347000,10.04434716796875,-0.000253473874181509,0.0027236328460276127,-0.0015638585900887847
1746576081727425000,10.054425048828126,0.0000027222558856010437,-0.0022857729345560074,0.00038051523733884096
1746576081737503000,10.0645029296875,-0.00005135871469974518,-0.0016010869294404984,-0.0016109986463561654
1746576081747582200,10.074582275390625,-0.0016796155832707882,0.0008298465982079506,-0.002028582151979208
1746576081757660200,10.08466015625,-0.003011670894920826,0.0018931957893073559,-0.002714931732043624
1746576081767738000,10.094738037109375,0.0016246256418526173,-0.0005760868079960346,-0.00017480869428254664
1746576081777816000,10.104816162109374,0.0014916770160198212,-0.001417328603565693,0.005602972116321325
1746576081787895300,10.114895263671874,0.004435002338141203,0.0015941737219691277,0.012013467028737068
1746576081797973200,10.12497314453125,0.001397077925503254,0.001601414754986763,0.011562113650143147
1746576081808051200,10.13505126953125,0.003218147438019514,0.004862988367676735,0.0074110450223088264
1746576081818130200,10.145130126953125,0.001131751574575901,0.006586092058569193,0.006861685775220394
1746576081828208000,10.1552080078125,-0.0026107891462743282,0.004021201748400927,0.0034278056118637323
1746576081838286000,10.1652861328125,0.0020187164191156626,-0.00003434903919696808,-0.0009734378545545042
1746576081848364000,10.175364013671874,-0.0005989046767354012,-0.003060232847929001,0.001880139228887856
1746576081858443300,10.185443359375,0.0009693927131593227,-0.002479866612702608,-0.00009347453305963427
1746576081868521200,10.195521240234376,0.0019129507709294558,-0.0014335107989609241,0.0011787174735218287
1746576081878599200,10.20559912109375,-0.0007756240665912628,-0.0012589721009135246,0.003602566197514534
1746576081888678100,10.21567822265625,-0.0027154707349836826,0.0005250796675682068,0.00619621854275465
1746576081898756400,10.22575634765625,-0.002991145011037588,-0.0006083864718675613,0.009089739061892033
1746576081908834300,10.235834228515625,-0.0002632690593600273,0.001437454018741846,0.011217072606086731
1746576081918912300,10.245912353515624,0.0008503878489136696,-0.00044660642743110657,0.015373577363789082
1746576081928991000,10.255990966796874,0.0005750167183578014,-0.002165410667657852,0.009721817448735237
1746576081939069200,10.266069091796876,0.002860673936083913,-0.005510961636900902,0.002959947334602475
1746576081949147100,10.276147216796875,-0.0014512501657009125,-0.008634316734969616,0.0010584502015262842
1746576081959226000,10.28622607421875,-0.00316942622885108,-0.006326003931462765,0.002817627042531967
1746576081969304000,10.296303955078125,-0.0006354278884828091,-0.0025315317325294018,-0.00014487355656456202
1746576081979382000,10.306382080078125,-0.001453933771699667,-0.00037657469511032104,0.001027081161737442
1746576081989460200,10.316460205078124,-0.004442266654223204,-0.0017747343517839909,0.00034877401776611805
1746576081999539200,10.326539306640624,-0.00010161707177758217,-0.001367565244436264,0.0030327043496072292
1746576082009617200,10.3366171875,0.0016909567639231682,-0.004225935786962509,0.0018209661357104778
1746576082019695000,10.346695068359375,0.001808249857276678,-0.003174887504428625,0.001993166981264949
1746576082029774000,10.356774169921875,0.0006255400367081165,-0.0015218635089695454,0.001133232144638896
1746576082039852000,10.36685205078125,0.0015297993086278439,-0.0019263220019638538,-0.000058164281654171646
1746576082049930000,10.376929931640625,-0.0012795696966350079,-0.0006671794690191746,0.004536853637546301
1746576082060010200,10.38701025390625,0.00017556129023432732,0.00024316506460309029,0.0081779845058918
1746576082070088200,10.397088134765625,0.0018813160713762045,-0.0022538150660693645,0.009269081987440586
1746576082080166400,10.40716650390625,0.0030368228908628225,-0.006472464185208082,0.010193520225584507
1746576082090244400,10.417244384765626,-0.0008902745321393013,-0.0051065292209386826,0.009415877051651478
1746576082100323300,10.4273232421875,-0.00191138731315732,-0.0011703260242938995,0.010484389029443264
1746576082110401300,10.4374013671875,-0.00021229032427072525,0.004543486051261425,0.00955441314727068
1746576082120479200,10.447479248046875,0.001178717240691185,0.0053615448996424675,0.009801500476896763
1746576082130558200,10.45755810546875,0.00015313411131501198,0.004187357611954212,0.00515242014080286
1746576082140636200,10.46763623046875,0.00310547580011189,0.000544216949492693,0.0005505325389094651
1746576082150714000,10.477714111328124,0.0011387313716113567,-0.0017751301638782024,-0.0006289815064519644
1746576082160792300,10.487792236328126,0.0008563399314880371,-0.005323677323758602,-0.003254484385251999
1746576082170871300,10.497871337890626,-0.0017519602552056313,-0.0030972743406891823,-0.006116317119449377
1746576082180949200,10.50794921875,-0.0006940560415387154,-0.0016227969899773598,-0.006660508457571268
1746576082191027200,10.518027099609375,0.0005581621080636978,-0.0018393122591078281,-0.006151578389108181
1746576082201106400,10.5281064453125,-0.0011457470245659351,0.00025951163843274117,-0.006287135183811188
1746576082211184400,10.538184326171875,0.0036074628587812185,0.0022691325284540653,-0.004423455335199833
1746576082221262300,10.548262451171874,0.0025245037395507097,0.009870149195194244,-0.00190346862655133
1746576082231340300,10.55834033203125,0.0010925219394266605,0.007483957335352898,-0.0015785630093887448
1746576082241419300,10.568419189453126,0.0005010436289012432,0.005846874788403511,-0.001813238370232284
1746576082251497200,10.578497314453125,-0.0008710171096026897,0.0062093306332826614,-0.0004563577240332961
1746576082261575200,10.5885751953125,0.00015406683087348938,0.0031067105010151863,-0.0018521712627261877
1746576082271654100,10.598654052734375,0.000485363882035017,-0.002655304502695799,0.001543625257909298
1746576082281732400,10.608732421875,-0.0031806854531168938,-0.001668464858084917,0.0031371512450277805
1746576082291810300,10.618810302734374,-0.0048028165474534035,-0.0018708650022745132,0.008646965958178043
1746576082301888300,10.62888818359375,-0.0046547697857022285,0.0027540307492017746,0.010067547671496868
1746576082311967200,10.63896728515625,-0.0040765972808003426,0.0033455193042755127,0.004542820621281862
1746576082322045400,10.64904541015625,0.00028364406898617744,0.004249561112374067,0.003907551057636738
1746576082332123400,10.659123291015625,0.004338573198765516,0.002509984653443098,-0.00046642482629977167
1746576082342202000,10.6692021484375,-0.00006051361560821533,0.0017082341946661472,-0.001866871607489884
1746576082352280000,10.679280029296875,-0.0005830256268382072,0.002885884139686823,-0.006203563418239355
1746576082362358300,10.689358154296874,-0.004189612343907356,-0.0008527478203177452,-0.008281465619802475
1746576082372436200,10.699436279296876,-0.000359454657882452,0.0005454118363559246,-0.010336893610656261
1746576082382515200,10.70951513671875,0.0033539640717208385,0.0015156236477196217,-0.008693140931427479
1746576082392593200,10.71959326171875,0.003120404900982976,0.00352231552824378,-0.0024304513353854418
1746576082402671400,10.72967138671875,0.0004902668297290802,0.0024099131114780903,0.004258876666426659
1746576082412750300,10.739750244140625,0.00016056746244430542,0.003928181249648333,0.006645601708441973
1746576082422828300,10.749828369140625,-0.0016467473469674587,0.0015018004924058914,0.004278100095689297
1746576082432906200,10.75990625,-0.005464654881507158,0.0029934365302324295,0.002134521957486868
1746576082442984400,10.769984375,0.0005889357998967171,0.0021472382359206676,0.0036489088088274
1746576082453063200,10.780063232421876,-0.001008428167551756,0.0019054231233894825,0.0027705980464816093
1746576082463141000,10.79014111328125,-0.00047940853983163834,-0.0005981400609016418,0.000044688640628010035
1746576082473219000,10.800218994140625,-0.00191804813221097,-0.004045336041599512,-0.0013233772478997707
1746576082483298300,10.81029833984375,-0.0018352619372308254,-0.005753690376877785,-0.002404032973572612
1746576082493376300,10.820376220703125,0.00009819259867072105,-0.009229382500052452,-0.0005294340080581605
1746576082503454200,10.8304541015625,0.002412270288914442,-0.01066647469997406,0.0004212615895085037
1746576082513532200,10.8405322265625,0.0032873849850147963,-0.0062275175005197525,0.0014183491002768278
1746576082523611400,10.850611328125,0.00439145602285862,-0.005176063627004623,0.00467864191159606
1746576082533689300,10.860689453125,0.0029003522358834743,-0.0004521487280726433,0.0024205476511269808
1746576082543767300,10.870767333984375,0.0034909250680357218,-0.0005587493069469929,0.0003224071697331965
1746576082553846000,10.880845947265625,0.0012541362084448338,0.005887697916477919,0.00558348186314106
1746576082563924200,10.89092431640625,0.0017001046799123287,0.008088545873761177,0.0036703140940517187
1746576082574002200,10.901002197265624,0.003205323126167059,0.0028546354733407497,0.005965160205960274
1746576082584081200,10.9110810546875,0.0013177315704524517,-0.0027287323027849197,0.006030620541423559
1746576082594159000,10.9211591796875,-0.0028802091255784035,-0.0075623695738613605,0.005722226575016975
1746576082604237300,10.9312373046875,-0.001773057971149683,-0.005860648117959499,0.0019370251102373004
1746576082614315300,10.941315185546875,0.0007428303360939026,-0.0058281575329601765,0.0038960466627031565
1746576082624394200,10.951394287109375,0.0012959474697709084,-0.004104482010006905,0.001982887974008918
1746576082634472200,10.96147216796875,0.00259397248737514,0.0039334711618721485,-0.0011316786985844374
1746576082644550400,10.97155029296875,-0.0007807640358805656,0.006822390481829643,-0.0029578646644949913
1746576082654629000,10.981629150390624,-0.0007983408868312836,0.0062338318675756454,-0.006511054467409849
1746576082664707000,10.99170703125,0.00017004087567329407,0.004481421317905188,-0.008725792169570923
1746576082674785000,11.001784912109375,0.0007213153876364231,0.002402024809271097,-0.007055457215756178
1746576082684863200,11.01186328125,-0.0007974263280630112,-0.002515107858926058,-0.005290959030389786
1746576082694942200,11.021942138671875,-0.0011803889647126198,-0.011552544310688972,-0.0018096747808158398
1746576082705020200,11.032020263671875,-0.00215984508395195,-0.012934954836964607,0.0019086371175944805
1746576082715098000,11.04209814453125,-0.0016162935644388199,-0.006798499263823032,0.000624727108515799
1746576082725177300,11.05217724609375,-0.0001607048325240612,-0.0008568721823394299,-0.00039515597745776176
1746576082735255300,11.06225537109375,-0.00038414448499679565,0.008959007449448109,-0.0033150457311421633
1746576082745333200,11.072333251953125,0.0005323835648596287,0.006754796486347914,-0.0004781427269335836
1746576082755411200,11.0824111328125,0.00008710287511348724,0.0025960044004023075,0.001893135835416615
1746576082765490200,11.092490234375,0.0014431271702051163,0.004102072678506374,0.002189864870160818
1746576082775568100,11.102568115234375,0.0015946612693369389,0.002108963206410408,0.0055230772122740746
1746576082785646000,11.11264599609375,-0.00044131744652986526,0.0046251676976680756,0.005029912572354078
1746576082795725300,11.122725341796874,-0.0002879193052649498,0.0029641538858413696,-0.0011845736298710108
1746576082805803300,11.13280322265625,-0.000041404273360967636,-0.0017858538776636124,-0.004948731511831284
1746576082815881200,11.142881103515625,-0.0007884209044277668,-0.0004974165931344032,-0.005999881308525801
1746576082825959200,11.152959228515625,0.0006351941265165806,0.001861481461673975,-0.002168500330299139
1746576082836038400,11.163038330078125,0.0004660836420953274,-0.0007761134766042233,-0.0000795167579781264
1746576082846116400,11.173116455078125,-0.0011570965871214867,-0.003091631457209587,0.0030769675504416227
1746576082856194300,11.1831943359375,-0.0021951962262392044,0.0005624918267130852,-0.001334292464889586
1746576082866273300,11.193273193359374,-0.00016159005463123322,-0.004899017978459597,-0.0008305827504955232
1746576082876351200,11.203351318359376,-0.0020487061701714993,-0.001347692683339119,0.000004584508133120835
1746576082886429200,11.21342919921875,-0.0004583536647260189,-0.00012357765808701515,0.0012447069166228175
1746576082896507100,11.223507080078125,-0.0003289240412414074,-0.0021366607397794724,-0.0011931507615372539
1746576082906586000,11.233586181640625,-0.0010575796477496624,0.0014035934582352638,0.0005848834407515824
1746576082916664000,11.2436640625,-0.0009635700844228268,-0.004359221085906029,-0.0013863884378224611
1746576082926742300,11.2537421875,0.00193184451200068,-0.0032742233015596867,-0.0025067762471735477
1746576082936821200,11.2638212890625,-0.0015648859553039074,0.0006952183321118355,-0.002827154705300927
1746576082946899200,11.273899169921876,-0.0005461946129798889,0.001558348536491394,-0.005057285539805889
1746576082956977200,11.28397705078125,0.00009722495451569557,0.004497413523495197,-0.003183485474437475
1746576082967056400,11.294056396484375,-0.0017280983738601208,0.0014957892708480358,-0.006632762961089611
1746576082977134300,11.30413427734375,-0.0039353263564407825,0.00401780242100358,-0.00786314345896244
1746576082987212300,11.31421240234375,-0.000610716175287962,0.0011240378953516483,-0.006122496910393238
1746576082997290200,11.324290283203124,0.001773878000676632,-0.002321826294064522,-0.00730680488049984
1746576083007369200,11.334369140625,0.0037795461248606443,-0.005560890771448612,-0.006844856310635805
1746576083017447200,11.344447265625,0.001907610334455967,-0.008658146485686302,-0.002292448654770851
1746576083027525000,11.354525146484375,-0.002419882919639349,-0.006173036992549896,0.006148814223706722
1746576083037604400,11.364604248046875,-0.005414607468992472,-0.003934916108846664,0.014105274342000484
1746576083047682300,11.374682373046875,-0.004557945299893618,-0.0013481746427714825,0.014499157667160034
1746576083057760300,11.38476025390625,-0.00391132989898324,0.0008225678466260433,0.011067408137023449
1746576083067837400,11.39483740234375,-0.0018201423808932304,-0.000763243529945612,0.004391502123326063
1746576083077916700,11.404916748046874,0.002072600182145834,0.0036442880518734455,0.001079861307516694
1746576083087994600,11.41499462890625,0.0016755624674260616,0.0018491526134312153,-0.005180858075618744
1746576083098072600,11.425072509765625,0.0027078036218881607,-0.000484309159219265,-0.008820334449410439
1746576083108151600,11.435151611328125,-0.0011213412508368492,0.00028010690584778786,-0.00905432179570198
1746576083118229500,11.4452294921875,0.0003814809024333954,0.0019645560532808304,-0.007137645501643419
1746576083128307500,11.455307373046875,0.003601843025535345,0.0027709612622857094,-0.01025727204978466
1746576083138385400,11.465385498046874,0.0019616021309047937,0.0005983547307550907,-0.012521491385996342
1746576083148464400,11.47546435546875,0.003009296488016844,-0.0001277625560760498,-0.008061119355261326
1746576083158542600,11.48554248046875,0.0041291555389761925,0.005292036570608616,-0.004926046822220087
1746576083168620500,11.49562060546875,0.004176022484898567,0.005727261304855347,0.002020597457885742
1746576083178699500,11.505699462890625,0.0014071338810026646,0.005439107306301594,0.008342408575117588
1746576083188777500,11.515777587890625,-0.002866213209927082,0.005500424187630415,0.00966099463403225
1746576083198855700,11.525855712890625,-0.0001916005276143551,0.0012553459964692593,0.01119817141443491
1746576083208933600,11.53593359375,-0.0009266785345971584,-0.0007990440353751183,0.007096366956830025
1746576083219012600,11.5460126953125,-0.0021735704503953457,-0.0003921128809452057,0.002147947670891881
1746576083229090600,11.556090576171876,0.0006843395531177521,0.00007070694118738174,-0.0012132790870964527
1746576083239168800,11.566168701171875,0.00004890933632850647,0.0015349127352237701,-0.0004484191886149347
1746576083249247500,11.57624755859375,0.001806084532290697,0.004982921294867992,0.0011385601246729493
1746576083259325400,11.586325439453125,-0.00009754300117492676,0.004385841079056263,-0.0006857052212581038
1746576083269403400,11.5964033203125,0.0019165505655109882,-0.001100044697523117,-0.003828240791335702
1746576083279481300,11.6064814453125,-0.002387384418398142,0.0013993317261338234,-0.009279465302824974
1746576083289560600,11.616560546875,-0.001902005635201931,0.0014479928649961948,-0.005950882099568844
1746576083299638500,11.626638427734376,-0.001373101957142353,0.000613091979175806,-0.008855591528117657
1746576083309716500,11.636716552734375,-0.0000939653255045414,-0.004300517495721579,-0.007275594864040613
1746576083319795700,11.646795654296875,0.0011254963465034962,-0.00636819563806057,-0.0021271719597280025
1746576083329873700,11.656873779296875,0.00229089567437768,-0.004051512107253075,-0.001076288754120469
1746576083339951600,11.66695166015625,0.0023518819361925125,-0.0030506961047649384,0.0008587641641497612
1746576083350029600,11.677029541015624,0.00164791289716959,0.0011233901605010033,0.0038376175798475742
1746576083360108500,11.687108642578124,0.00010780710726976395,0.003356717526912689,0.006678411271423101
1746576083370186500,11.6971865234375,-0.005614622961729765,0.0019554770551621914,0.00454479455947876
1746576083380264400,11.707264404296875,-0.002625224646180868,-0.00020940694957971573,0.0035431794822216034
1746576083390343400,11.717343505859375,-0.002085896208882332,-0.0014353240840137005,0.006048626732081175
1746576083400421600,11.727421630859375,0.0013583702966570854,-0.006105177104473114,0.007977554574608803
1746576083410499600,11.73749951171875,-0.0010066507384181023,-0.0047965869307518005,0.003253535134717822
1746576083420577500,11.74757763671875,-0.001091605518013239,0.0012136348523199558,0.003771786345168948
1746576083430656500,11.757656494140624,-0.0007666819728910923,0.007299238815903664,-0.00023387264809571207
1746576083440734700,11.767734619140626,-0.0024474025703966618,0.011242581531405449,0.0027147792279720306
