time,seconds_elapsed,z,y,x
1746739108197301000,0.025301025390625,-0.0037187347188591957,-0.0006624800153076649,-0.05533047020435333
1746739108207380000,0.0353798828125,-0.004034586250782013,-0.0015133600682020187,-0.053551480174064636
1746739108217459000,0.045458984375,-0.008539647795259953,-0.005207089241594076,-0.04889095202088356
1746739108227538200,0.0555380859375,-0.0061140405014157295,-0.011434359475970268,-0.04667466878890991
1746739108237617000,0.065616943359375,-0.003982239402830601,-0.016776666045188904,-0.040712807327508926
1746739108247696000,0.07569580078125,0.0010210410691797733,-0.015931379050016403,-0.034441862255334854
1746739108257775000,0.085775146484375,0.005751895718276501,-0.007367075886577368,-0.02428305335342884
1746739108267854000,0.09585400390625,0.009484581649303436,-0.0045065744780004025,-0.019249945878982544
1746739108277932800,0.105932861328125,0.010318964719772339,0.0012874249368906021,-0.020079756155610085
1746739108288012000,0.116011962890625,0.006374024786055088,0.00350024551153183,-0.018759094178676605
1746739108298090000,0.126090087890625,0.005279968027025461,0.0026439018547534943,-0.021275460720062256
1746739108308169000,0.1361689453125,0.006432317662984133,0.0013703787699341774,-0.016566991806030273
1746739108318248000,0.146248046875,0.006425231229513884,0.0019218232482671738,-0.007258047349750996
1746739108328327000,0.156326904296875,0.0037881690077483654,0.008922474458813667,-0.008263124153017998
1746739108338406100,0.16640625,0.0031459927558898926,0.013899516314268112,-0.010269919410347939
1746739108348485000,0.176485107421875,0.004914598073810339,0.006975031457841396,-0.012598853558301926
1746739108358563800,0.186563720703125,0.0024596829898655415,-0.004846306052058935,-0.00776353944092989
1746739108368643000,0.19664306640625,0.002423730446025729,-0.014416907913982868,0.004364496096968651
1746739108378722000,0.20672216796875,-0.001442781649529934,-0.01726638153195381,0.021640123799443245
1746739108388801000,0.216801025390625,-0.008246625773608685,-0.01445674616843462,0.030666377395391464
1746739108398880000,0.2268798828125,-0.0055014099925756454,-0.00010092044249176979,0.03619648888707161
1746739108408959000,0.236958984375,-0.004107777960598469,0.006574292667210102,0.027794748544692993
1746739108419038000,0.247037841796875,-0.0025055608712136745,0.012127256020903587,0.012974148616194725
1746739108429117000,0.257116943359375,-0.0015667970292270184,0.002666907850652933,-0.00441815797239542
1746739108439196200,0.267196044921875,0.002514187479391694,-0.009203572757542133,-0.017271235585212708
1746739108449275100,0.277275146484375,0.006746216677129269,-0.00831594131886959,-0.033263254910707474
1746739108459353900,0.287353759765625,0.0023831294383853674,-0.006525293458253145,-0.03964237868785858
1746739108469433000,0.29743310546875,0.00484202615916729,-0.006054446566849947,-0.04301420599222183
1746739108479512000,0.307511962890625,0.0037066324148327112,-0.0030249725095927715,-0.04091494157910347
1746739108489590800,0.3175908203125,0.005253929179161787,-0.006717445328831673,-0.031440746039152145
1746739108499670000,0.327669921875,0.004051380790770054,-0.0015131272375583649,-0.026470834389328957
1746739108509749000,0.3377490234375,0.004103844985365868,-0.00020977621898055077,-0.014522295445203781
1746739108519828000,0.347827880859375,0.0015933699905872345,-0.0012291022576391697,0.010168510489165783
1746739108529906000,0.357906005859375,0.0006956183351576328,-0.0016477513127028942,0.033309515565633774
1746739108539985000,0.36798486328125,0.0003150966949760914,-0.0027320249937474728,0.04067019745707512
1746739108550064000,0.378064208984375,0.00008260272443294525,0.0016230428591370583,0.038130875676870346
1746739108560143000,0.38814306640625,-0.002798178233206272,-0.00008347071707248688,0.02656622976064682
1746739108570221800,0.398221923828125,-0.0037313494831323624,0.0029551959596574306,0.01274948287755251
1746739108580301000,0.408301025390625,-0.0021302462555468082,0.0037592980079352856,0.0020139378029853106
1746739108590380000,0.418380126953125,0.0001001511700451374,0.0018620616756379604,-0.0060381293296813965
1746739108600459000,0.428458984375,0.006345354486256838,-0.007564660161733627,-0.009845705702900887
1746739108610538000,0.4385380859375,0.010246885940432549,-0.016136575490236282,-0.010490989312529564
1746739108620616700,0.44861669921875,0.008324464783072472,-0.010191603563725948,-0.01271254476159811
1746739108630696000,0.458696044921875,0.006017634645104408,-0.005057295318692923,-0.008156674914062023
1746739108640774700,0.468774658203125,0.0010088351555168629,-0.0014284388162195683,-0.003169719595462084
1746739108650853600,0.478853515625,-0.0025848345831036568,0.0028376788832247257,0.0008601758745498955
1746739108660932900,0.488932861328125,-0.007376186084002256,0.004879256244748831,0.007908073253929615
1746739108671011600,0.499011474609375,-0.003922332543879747,0.0065261549316346645,0.004595899023115635
1746739108681090600,0.509090576171875,-0.0028617712669074535,0.003792754840105772,-0.0011251571122556925
1746739108691169800,0.519169677734375,0.004333290737122297,0.00753928953781724,-0.005349729675799608
1746739108701248800,0.529248779296875,0.007564430125057697,0.0024885726161301136,-0.007580047473311424
1746739108711327700,0.53932763671875,0.009866200387477875,-0.005936071276664734,-0.00909432116895914
1746739108721406700,0.54940673828125,0.01029779203236103,-0.008253122679889202,-0.011454387567937374
1746739108731485700,0.559485595703125,0.007724113762378693,0.0022738203406333923,-0.011120693758130074
1746739108741564700,0.569564697265625,0.00767342746257782,0.003215381409972906,-0.007670142222195864
1746739108751643600,0.5796435546875,0.005668865982443094,0.0033722412772476673,0.000022132619051262736
1746739108761723000,0.589722900390625,0.004822378046810627,-0.0026057236827909946,0.0070151411928236485
1746739108771800800,0.59980078125,0.0046934811398386955,-0.004404156468808651,0.009375234134495258
1746739108781879600,0.609879638671875,-0.0018292805179953575,-0.0009162817150354385,0.01264682225883007
1746739108791958800,0.619958740234375,-0.004346500616520643,0.002167925238609314,0.01204334944486618
1746739108802037800,0.630037841796875,-0.0013755513355135918,0.003256059717386961,0.01825658418238163
1746739108812116700,0.64011669921875,-0.0007417192682623863,-0.0017842389643192291,0.01795937493443489
1746739108822195700,0.65019580078125,0.0006843460723757744,-0.003779743565246463,0.019921164959669113
1746739108832274700,0.660274658203125,0.0032231376972049475,-0.006620271131396294,0.015023079700767994
1746739108842354000,0.67035400390625,0.004454018548130989,-0.005129501223564148,0.003804993350058794
1746739108852432600,0.6804326171875,0.003257193835452199,-0.0022319816052913666,-0.007576824631541967
1746739108862511600,0.69051171875,0.0030336230993270874,-0.001790197566151619,-0.013531998731195927
1746739108872590800,0.7005908203125,0.003034954657778144,-0.003997425548732281,-0.011322373524308205
1746739108882669600,0.710669677734375,0.00249371025711298,-0.0021777539514005184,-0.011925526894629002
1746739108892748500,0.72074853515625,0.0021496296394616365,-0.0032531381584703922,-0.01215881947427988
1746739108902827800,0.730827880859375,0.0014885594137012959,0.0007737935520708561,-0.018329283222556114
1746739108912906800,0.74090673828125,0.0010557956993579865,0.005772014614194632,-0.016536977142095566
1746739108922985700,0.75098583984375,0.0028802535962313414,-0.000500562135130167,-0.010804175399243832
1746739108933064700,0.761064697265625,0.007947184145450592,-0.0036111341323703527,0.009019862860441208
1746739108943143700,0.771143798828125,0.006486943922936916,-0.00377318705432117,0.025740304961800575
1746739108953222700,0.78122265625,0.0035042036324739456,0.0045100427232682705,0.034336987882852554
1746739108963301600,0.791301513671875,-0.003988067619502544,0.007927410304546356,0.03330687806010246
1746739108973380900,0.801380859375,-0.005511661991477013,0.009197473526000977,0.027720632031559944
1746739108983459600,0.81145947265625,-0.00278240954503417,0.004647097084671259,0.027304086834192276
1746739108993538600,0.82153857421875,0.0036738922353833914,-0.004708055406808853,0.02714722789824009
1746739109003617800,0.83161767578125,0.007744074799120426,-0.004437711555510759,0.020103618502616882
1746739109013695700,0.84169580078125,0.008665528148412704,-0.0049141510389745235,0.01781569793820381
1746739109023774700,0.851774658203125,0.0032401494681835175,-0.003353172680363059,0.006052967626601458
1746739109033853700,0.861853759765625,0.0008065528236329556,0.0013614213094115257,-0.005965878255665302
1746739109043932700,0.8719326171875,0.006094244308769703,0.005743889138102531,-0.018732568249106407
1746739109054012000,0.882011962890625,0.00774620333686471,-0.00024635856971144676,-0.02127482183277607
1746739109064090600,0.892090576171875,0.009507485665380955,-0.0010594590567052364,-0.01430860348045826
1746739109074169600,0.902169677734375,0.010513627901673317,-0.004003849811851978,0.0004327924980316311
1746739109084248800,0.912248779296875,0.007432989776134491,-0.0028423429466784,0.010000702925026417
1746739109094327800,0.922327880859375,0.0023735163267701864,0.001681036315858364,0.014207165688276291
1746739109104406500,0.932406494140625,-0.0005051703192293644,0.005127016920596361,0.014251233078539371
1746739109114485800,0.94248583984375,-0.002755275461822748,0.00799071416258812,0.006723541766405106
1746739109124564700,0.952564697265625,0.003719551023095846,0.004494698252528906,0.004476695321500301
1746739109134643700,0.962643798828125,0.005691355559974909,-0.00485406257212162,0.0027754679322242737
1746739109144722700,0.97272265625,0.007016053888946772,-0.006520436145365238,0.0012631922727450728
1746739109154801700,0.9828017578125,0.00301252375356853,-0.00448205228894949,0.0013417555019259453
1746739109164880600,0.992880615234375,0.005721372086554766,0.0008712341077625751,0.00172349251806736
1746739109174959600,1.002959716796875,0.0001934487372636795,0.0038638287223875523,-0.007069466169923544
1746739109185038800,1.013038818359375,0.0006512617692351341,0.00046886177733540535,-0.009177863597869873
1746739109195117800,1.023117919921875,0.0013338299468159676,-0.004612982273101807,-0.013370211236178875
1746739109205196500,1.033196533203125,0.0009569479152560234,-0.006223028060048819,-0.013316921889781952
1746739109215275800,1.04327587890625,0.0014043590053915977,-0.005237924866378307,-0.011991732753813267
1746739109225354800,1.053354736328125,0.0006985636427998543,-0.005614763125777245,-0.013681934215128422
1746739109235432700,1.0634326171875,0.0028408102225512266,-0.004863485228270292,-0.013004692271351814
1746739109245511700,1.07351171875,0.0020665102638304234,-0.00911994930356741,-0.007525664754211903
1746739109255590700,1.083590576171875,-0.000011554453521966934,-0.0077838413417339325,-0.008497718721628189
1746739109265670000,1.093669921875,0.00001998990774154663,-0.004619006998836994,-0.008687175810337067
1746739109275748600,1.10374853515625,-0.00018933415412902832,0.0003118356689810753,-0.01454879343509674
1746739109285827600,1.11382763671875,-0.0014269063249230385,0.0019164634868502617,-0.015759043395519257
1746739109295906800,1.12390673828125,0.004316733218729496,0.0003595794551074505,-0.01339894998818636
1746739109305985800,1.13398583984375,0.0045429980382323265,-0.006471598986536264,0.0011058251839131117
1746739109316064500,1.144064453125,0.005071368999779224,-0.00585614237934351,0.019071510061621666
1746739109326143700,1.154143798828125,0.0022252188064157963,-0.004502592608332634,0.026283936575055122
1746739109336222700,1.16422265625,-0.002977532334625721,0.0029063215479254723,0.018888337537646294
1746739109346301700,1.1743017578125,-0.00609894935041666,0.007314418908208609,0.0028754700906574726
1746739109356380700,1.184380615234375,-0.004511439241468906,0.009575443342328072,-0.013996987603604794
1746739109366459600,1.194459716796875,0.002174811437726021,0.0012822928838431835,-0.01823391579091549
1746739109376539000,1.204538818359375,0.005159682594239712,-0.0075519452802836895,-0.014839185401797295
1746739109386617600,1.21461767578125,0.007913301698863506,-0.016661085188388824,-0.0016615457134321332
1746739109396696800,1.22469677734375,0.003306831931695342,-0.014680493623018265,0.0034218961372971535
1746739109406775800,1.23477587890625,0.0020155690144747496,-0.005495346616953611,0.0005173176759853959
1746739109416854500,1.2448544921875,-0.0013373508118093014,0.0030675148591399193,-0.004294481594115496
1746739109426933800,1.254933837890625,0.0014707455411553383,0.007894421927630901,-0.01106503326445818
1746739109437012700,1.2650126953125,0.0017413226887583733,-0.0019259843975305557,-0.008555004373192787
1746739109447090700,1.275090576171875,0.004161129705607891,-0.005234956741333008,-0.005498868878930807
1746739109457169700,1.285169677734375,0.00719340518116951,-0.00672552827745676,-0.0011267573572695255
1746739109467248600,1.29524853515625,0.005420865025371313,-0.004039802588522434,0.0023281641770154238
1746739109477328000,1.305327880859375,0.0028386639896780252,-0.0016016787849366665,0.001374486368149519
1746739109487406800,1.31540673828125,0.001252099871635437,0.0015571638941764832,-0.0021405136212706566
1746739109497485600,1.325485595703125,0.0018848669715225697,-0.001669522374868393,-0.0064156861044466496
1746739109507564800,1.335564697265625,0.003648190526291728,-0.0032331645488739014,-0.01693599857389927
1746739109517643800,1.345643798828125,0.003594394540414214,-0.0069101909175515175,-0.020935799926519394
1746739109527722500,1.355722412109375,0.0013012955896556377,-0.00532492995262146,-0.018138689920306206
1746739109537801700,1.3658017578125,-0.0023584202863276005,-0.0022902577184140682,-0.009250123053789139
1746739109547880700,1.375880615234375,-0.0015640896745026112,-0.001482133287936449,0.002515888772904873
1746739109557959700,1.385959716796875,-0.0008849836885929108,0.007181928493082523,0.002522014081478119
1746739109568038700,1.39603857421875,-0.0033505666069686413,0.0005135880783200264,0.008078373037278652
1746739109578117600,1.40611767578125,-0.002092755399644375,0.00041931215673685074,0.009054954163730145
1746739109588196900,1.41619677734375,0.002063401974737644,-0.0016246126033365726,0.00586987379938364
1746739109598275600,1.426275634765625,0.0051460107788443565,-0.0024714977480471134,0.0020429114811122417
1746739109608354800,1.436354736328125,0.006684667430818081,-0.011194880120456219,0.00527343200519681
1746739109618434300,1.446434326171875,0.009327588602900505,-0.010656388476490974,0.00415916508063674
1746739109628513000,1.456512939453125,0.003618806367740035,-0.00434989295899868,0.004299035761505365
1746739109638591000,1.466591064453125,0.003035307861864567,0.001768719870597124,0.0005026995204389095
1746739109648670200,1.476670166015625,0.0017455415800213814,0.005624530371278524,-0.004467674531042576
1746739109658749200,1.486749267578125,0.0038896524347364902,0.008525244891643524,-0.012173265218734741
1746739109668828000,1.496827880859375,0.006467841565608978,-0.0017480128444731236,-0.011144665069878101
1746739109678907100,1.5069072265625,0.011221317574381828,-0.006150484085083008,-0.010308432392776012
1746739109688986000,1.516986083984375,0.008026620373129845,-0.0062249936163425446,-0.01000157929956913
1746739109699065000,1.527065185546875,0.0030268013942986727,-0.007113424129784107,-0.008587174117565155
1746739109709144000,1.53714404296875,-0.0004071085713803768,-0.0029996982775628567,-0.004562395624816418
1746739109719223000,1.54722314453125,-0.005735295359045267,-0.0027437685057520866,0.0022422471083700657
1746739109729302300,1.55730224609375,-0.00645130081102252,0.002142797689884901,0.009112298488616943
1746739109739381000,1.567381103515625,-0.002400366123765707,0.0067972042597830296,0.013010633178055286
1746739109749460000,1.5774599609375,-0.0016991118900477886,0.0036982474848628044,0.011981029994785786
1746739109759539200,1.587539306640625,-0.0005542188882827759,0.0026809200644493103,0.011243334040045738
1746739109769618000,1.597617919921875,-0.00007138773798942566,0.000332011841237545,-0.00028895243303850293
1746739109779697200,1.607697265625,0.0013603274710476398,-0.0013742754235863686,-0.01032214518636465
1746739109789776100,1.617776123046875,0.0017429357394576073,-0.007217844948172569,-0.020595772191882133
1746739109799855000,1.627855224609375,0.0033893019426614046,-0.00866367481648922,-0.022059444338083267
1746739109809934000,1.63793408203125,0.004134912509471178,-0.003222605213522911,-0.011726299300789833
1746739109820013000,1.648012939453125,0.0006914455443620682,-0.0013671806082129478,-0.00183904729783535
1746739109830091000,1.658091064453125,-0.0005759089253842831,-0.00024129869416356087,0.008669761009514332
1746739109840170200,1.668170166015625,0.0009708553552627563,0.002739044837653637,0.011890321969985962
1746739109850249000,1.6782490234375,-0.0008721407502889633,0.00002282625064253807,0.013732480816543102
1746739109860328200,1.688328125,-0.00092673534527421,-0.0019777403213083744,0.0169431883841753
1746739109870407200,1.6984072265625,-0.000940701924264431,-0.0022639608941972256,0.011623894795775414
1746739109880486000,1.70848583984375,-0.0008520190604031086,0.0017717927694320679,0.008509327657520771
1746739109890565000,1.718565185546875,0.002899798797443509,0.0011937245726585388,0.003831243608146906
1746739109900644000,1.72864404296875,0.0007586171850562096,0.0025647198781371117,-0.005746548529714346
1746739109910723000,1.73872314453125,0.0016422825865447521,0.0025959312915802,-0.009653345681726933
1746739109920802000,1.748802001953125,0.00359917338937521,-0.00036949804052710533,-0.016181020066142082
1746739109930881000,1.758881103515625,0.002581801265478134,-0.002820303663611412,-0.01820046827197075
1746739109940960300,1.768960205078125,0.002786065684631467,-0.004030444193631411,-0.016837196424603462
1746739109951039000,1.7790390625,0.005009657237678766,-0.006551726721227169,-0.008530370891094208
1746739109961118000,1.789117919921875,0.004605655558407307,-0.009829279035329819,-0.0013494231970980763
1746739109971197200,1.799197265625,0.004247271455824375,-0.010241147130727768,0.007925902493298054
1746739109981276200,1.809276123046875,0.004530365113168955,-0.009490402415394783,0.015510317869484425
1746739109991355100,1.819355224609375,0.0038728879299014807,-0.013924913480877876,0.018026215955615044
1746739110001434000,1.82943408203125,0.005765063688158989,-0.008688073605298996,0.018734082579612732
1746739110011513000,1.83951318359375,0.0025755304377526045,-0.004785430617630482,0.014310112223029137
1746739110021591300,1.84959130859375,0.0031118912156671286,-0.001703087706118822,0.016407351940870285
1746739110031670000,1.859669921875,0.002863195724785328,-0.007855360396206379,0.01192203164100647
1746739110041749000,1.8697490234375,0.004516752436757088,-0.0026704519987106323,0.009658611379563808
1746739110051828200,1.879828125,0.0065898890607059,-0.0029418733902275562,0.00539055559784174
1746739110061907000,1.889906982421875,0.005717437248677015,-0.005395177286118269,-0.0020891984459012747
1746739110071986200,1.899986083984375,0.0050057219341397285,-0.0053895157761871815,-0.00878135021775961
1746739110082065200,1.910065185546875,0.003920217510312796,-0.0040390267968177795,-0.004261433612555265
1746739110092144000,1.92014404296875,0.0034364836756139994,-0.006564673501998186,-0.0023978841491043568
1746739110102223000,1.93022314453125,0.002507040509954095,-0.005604337435215712,0.001385668758302927
1746739110112302000,1.940302001953125,0.00118960440158844,-0.0031146779656410217,0.004486864898353815
1746739110122381000,1.950381103515625,0.0033747281413525343,-0.0040342677384614944,0.013398866169154644
1746739110132460000,1.9604599609375,0.00866505317389965,0.002033049240708351,0.009954093024134636
1746739110142539000,1.9705390625,0.005421589594334364,-0.002685273066163063,0.007018756587058306
1746739110152618200,1.9806181640625,0.007602614816278219,-0.008620033971965313,0.009967278689146042
1746739110162697000,1.990697021484375,0.006988755892962217,-0.005246341228485107,0.010508965700864792
1746739110172776000,2.00077587890625,0.003381298156455159,0.0009444523602724075,0.01683572679758072
1746739110182855200,2.010855224609375,0.00039616087451577187,0.001117025502026081,0.01984935998916626
1746739110192934100,2.02093408203125,-0.000005028676241636276,0.005737147759646177,0.02750525251030922
1746739110203012000,2.03101220703125,0.003452020464465022,0.0028137951157987118,0.03466303274035454
1746739110213091000,2.041091064453125,0.003740279469639063,0.0020051682367920876,0.032607998698949814
1746739110223170000,2.051170166015625,0.0030507869087159634,0.013017338700592518,0.029303014278411865
1746739110233249300,2.061249267578125,0.003839139360934496,0.010742650367319584,0.01972363330423832
1746739110243328000,2.071327880859375,-0.0003356318920850754,0.007383606396615505,0.024312259629368782
1746739110253407000,2.081406982421875,0.000727873295545578,-0.005116831511259079,0.012386220507323742
1746739110263486200,2.091486328125,0.0008059036917984486,-0.010968329384922981,0.0034507829695940018
1746739110273565000,2.10156494140625,-0.00017791427671909332,-0.00830568466335535,0.004200072027742863
1746739110283644200,2.11164404296875,-0.0031934119760990143,-0.004859554581344128,0.00720784580335021
1746739110293723100,2.12172314453125,-0.011816401965916157,0.0004204362630844116,0.007873792201280594
1746739110303802000,2.131802001953125,-0.00810608547180891,0.00302767101675272,0.0035062083043158054
1746739110313881000,2.141881103515625,-0.0011813188903033733,0.0012819957919418812,0.003045245073735714
1746739110323960000,2.1519599609375,0.0011867638677358627,0.001341118011623621,0.0025562886148691177
1746739110334039000,2.1620390625,0.0026484145782887936,-0.0007721022702753544,-0.0005279080360196531
1746739110344118000,2.172117919921875,0.0017764957156032324,0.0016487105749547482,0.00539256539195776
1746739110354197000,2.182197021484375,-0.000918226782232523,-0.0013026525266468525,0.007295854855328798
1746739110364276200,2.192276123046875,-0.0018146466463804245,0.0029655960388481617,0.0010597970103845
1746739110374355200,2.202355224609375,-0.0041341111063957214,0.004715094808489084,-0.003309013554826379
1746739110384433200,2.21243310546875,-0.0020515196956694126,0.0022692480124533176,-0.0026863666716963053
1746739110394512100,2.22251220703125,0.0016854554414749146,0.003354270476847887,-0.005999543238431215
1746739110404591000,2.232591064453125,-0.001173448283225298,0.0023699658922851086,-0.01148618757724762
1746739110414670000,2.242670166015625,-0.0022172285243868828,0.0027800309471786022,-0.013095752336084843
1746739110424749000,2.2527490234375,-0.00010534189641475677,0.003421320114284754,-0.012728502042591572
1746739110434828000,2.262828125,0.0015530525706708431,0.005345883779227734,-0.012002549134194851
1746739110444907300,2.2729072265625,0.00032826466485857964,0.0038111042231321335,-0.006035204511135817
1746739110454986000,2.282986083984375,-0.0015592309646308422,-0.0007371436804533005,-0.006246143486350775
1746739110465065000,2.29306494140625,0.0017958194948732853,-0.004570497665554285,-0.011973537504673004
1746739110475144200,2.303144287109375,0.002474003005772829,-0.013285985216498375,-0.016448484733700752
1746739110485223200,2.31322314453125,0.008106854744255543,-0.0178394578397274,-0.01992364414036274
1746739110495302000,2.323302001953125,0.006981403101235628,-0.01933935098350048,-0.01704290322959423
1746739110505381000,2.333381103515625,0.012356194667518139,-0.02414236217737198,-0.022847527638077736
1746739110515460000,2.343460205078125,0.013122299686074257,-0.016606472432613373,-0.02419956773519516
1746739110525539000,2.3535390625,0.014009397476911545,-0.016970260068774223,-0.018805067986249924
1746739110535618000,2.3636181640625,0.011121435090899467,-0.010869631543755531,-0.010234160348773003
1746739110545697000,2.373697021484375,0.00845854077488184,-0.006841334048658609,-0.0052916002459824085
1746739110555776000,2.38377587890625,0.0015289518050849438,0.0017165732569992542,-0.002709641121327877
1746739110565854000,2.39385400390625,-0.00222344184294343,0.000889661256223917,-0.0024023125879466534
1746739110575933000,2.403932861328125,-0.0022835489362478256,0.0027588075026869774,0.0002505218726582825
1746739110586012200,2.41401220703125,-0.0002073482610285282,0.000208298210054636,-0.003914661705493927
1746739110596091100,2.424091064453125,-0.0014005689881742,0.007000655401498079,-0.0066244639456272125
1746739110606170000,2.434170166015625,0.002277256455272436,-0.0008013411425054073,-0.004894474521279335
1746739110616249000,2.4442490234375,0.000127522274851799,-0.0051424335688352585,-0.005976193584501743
1746739110626328300,2.454328369140625,0.0023917416110634804,-0.007286278065294027,-0.009779720567166805
1746739110636407000,2.464406982421875,0.002369445515796542,-0.00912622082978487,-0.009484723210334778
1746739110646486300,2.474486328125,0.0017750279512256384,-0.005501658655703068,-0.012013927102088928
1746739110656565200,2.484565185546875,-0.0010685776360332966,0.005310438573360443,-0.010208941996097565
1746739110666644200,2.494644287109375,-0.0007484657689929008,0.009960850700736046,-0.01044995803385973
1746739110676723200,2.50472314453125,0.00036279764026403427,0.005284836981445551,-0.014854745008051395
1746739110686802200,2.51480224609375,0.00031246384605765343,0.006517348345369101,-0.014677378349006176
1746739110696881400,2.52488134765625,-0.003014326561242342,0.004620518069714308,-0.010274430736899376
1746739110706960100,2.534960205078125,-0.0015953942202031612,0.0005176523700356483,-0.0020290177781134844
1746739110717039000,2.5450390625,0.001742004882544279,-0.005177285522222519,0.0012848341139033437
1746739110727118300,2.555118408203125,0.002062915824353695,-0.00428299605846405,0.010088445618748665
1746739110737196300,2.5651962890625,0.004074252676218748,-0.002334164921194315,0.005961506627500057
1746739110747275000,2.57527490234375,0.0038436229806393385,0.0033879028633236885,-0.0025030849501490593
1746739110757354200,2.585354248046875,0.0040358598344028,0.003660715650767088,-0.013497387990355492
1746739110767433200,2.59543310546875,0.0014523272402584553,0.005320663098245859,-0.02155851013958454
1746739110777512200,2.60551220703125,0.0004724152386188507,0.004487581551074982,-0.02445184253156185
1746739110787591200,2.615591064453125,-0.0008714157156646252,0.0015628980472683907,-0.016213087365031242
1746739110797670100,2.625670166015625,-0.0008022473193705082,-0.004163998179137707,-0.010020358487963676
1746739110807749400,2.635749267578125,-0.00016042543575167656,-0.006532613653689623,-0.005422144662588835
1746739110817828000,2.645828125,-0.0009705731645226479,-0.0022473460994660854,-0.0010591188911348581
1746739110827907300,2.6559072265625,-0.0033399872481822968,0.001650989055633545,0.0005454356432892382
1746739110837986300,2.665986328125,-0.007593929301947355,0.002633127849549055,-0.0018992654513567686
1746739110848065000,2.67606494140625,-0.006593379657715559,0.0008964804001152515,-0.0018902109004557133
1746739110858144300,2.686144287109375,-0.004830825142562389,0.0027135899290442467,-0.0023345069494098425
1746739110868223200,2.69622314453125,-0.0025455662980675697,-0.0034249958116561174,0.00039816281059756875
1746739110878302200,2.70630224609375,0.0031766495667397976,-0.0045248111709952354,-0.0012832521460950375
1746739110888381200,2.716381103515625,0.0022000684402883053,0.00010828999802470207,-0.0017772684805095196
1746739110898460200,2.726460205078125,0.005635499954223633,0.0006361445412039757,-0.0029883324168622494
1746739110908539400,2.736539306640625,0.005414191167801619,-0.00003550434485077858,-0.007415305357426405
1746739110918617300,2.746617431640625,0.00523793650791049,-0.0016597826033830643,-0.007550202775746584
1746739110928696000,2.756696044921875,0.006108523812144995,-0.00041954824700951576,-0.003832696471363306
1746739110938775300,2.766775390625,0.0037261343095451593,0.0036580520682036877,0.0004937946214340627
1746739110948854300,2.776854248046875,0.0041471803560853004,0.00201621325686574,0.002931385999545455
1746739110958933000,2.78693310546875,0.005167686380445957,-0.0009922077879309654,0.009254883043467999
1746739110969012200,2.79701220703125,0.00414742948487401,-0.005582698620855808,0.008266584016382694
1746739110979091200,2.80709130859375,0.0018530457746237516,0.00073624262586236,0.006655065808445215
1746739110989170400,2.81717041015625,-0.0016604629345238209,0.008996302261948586,0.012734263204038143
1746739110999249200,2.827249267578125,-0.004640526603907347,0.010075703263282776,0.01849471405148506
1746739111009328000,2.837328125,-0.004581670742481947,0.008992861956357956,0.01943933591246605
1746739111019407400,2.847407470703125,-0.0007392624393105507,0.0028074043802917004,0.019165830686688423
1746739111029486000,2.857486083984375,0.0024424162693321705,0.002544283401221037,0.014045902527868748
1746739111039565000,2.86756494140625,0.006468893028795719,0.004061647225171328,0.010235960595309734
1746739111049644300,2.877644287109375,0.006602051202207804,0.006007353309541941,-0.00035676269908435643
1746739111059723300,2.88772314453125,0.006090147886425257,-0.0012981253676116467,-0.0038630561903119087
1746739111069802200,2.89780224609375,0.003909551538527012,-0.009592007845640182,-0.013251231983304024
1746739111079881200,2.907881103515625,0.002321390900760889,-0.0037468329537659883,-0.015821078792214394
1746739111089959200,2.917959228515625,-0.0012483103200793266,-0.0003614225424826145,-0.022325582802295685
1746739111100038400,2.928038330078125,-0.0004405733197927475,-0.003638442140072584,-0.021292010322213173
1746739111110117000,2.9381171875,-0.0010704109445214272,-0.003685313742607832,-0.014540363103151321
1746739111120196000,2.948196044921875,0.00214185006916523,0.00046666013076901436,-0.013093443587422371
1746739111130275300,2.958275390625,0.004517123568803072,0.004203340969979763,-0.011056924238801003
1746739111140354000,2.96835400390625,0.004837114829570055,-0.0020894636400043964,-0.0030499063432216644
1746739111150433300,2.978433349609375,0.0021750188898295164,-0.002534477971494198,0.009651240892708302
1746739111160512300,2.98851220703125,-0.003352962899953127,0.001374055165797472,0.016015123575925827
1746739111170591200,2.99859130859375,-0.0037622912786900997,0.004566386807709932,0.018247652798891068
1746739111180670200,3.008670166015625,-0.0018653515726327896,0.002856764942407608,0.02177080512046814
1746739111190749200,3.018749267578125,-0.0006381669081747532,-0.0029396051540970802,0.014855640940368176
1746739111200828400,3.028828369140625,0.0037128617987036705,-0.006012789439409971,0.0056051756255328655
1746739111210907100,3.0389072265625,0.0031322927679866552,-0.0017376169562339783,-0.005781702231615782
1746739111220986000,3.048986083984375,0.0010365522466599941,-0.0009797578677535057,-0.013367968611419201
1746739111231065300,3.0590654296875,-0.0003496231511235237,-0.003192844334989786,-0.015060673467814922
1746739111241144000,3.06914404296875,-0.00045144930481910706,-0.0059557631611824036,-0.013112133368849754
1746739111251223000,3.07922314453125,-0.002288497518748045,-0.004257731139659882,-0.012717985548079014
1746739111261302300,3.08930224609375,-0.0004800488241016865,-0.0021630623377859592,-0.013936512172222137
1746739111271380200,3.099380126953125,-0.0009775273501873016,-0.003084249794483185,-0.011859779246151447
1746739111281459200,3.109459228515625,0.0013961219228804111,-0.0031410190276801586,-0.00021676984033547342
1746739111291538200,3.1195380859375,0.005025477614253759,0.0016382895410060883,0.01578456722199917
1746739111301617200,3.1296171875,0.0034135065507143736,0.004371562972664833,0.032296791672706604
1746739111311696400,3.1396962890625,0.0015138736926019192,0.00510499719530344,0.04002581909298897
1746739111321775000,3.149775146484375,-0.0015943287871778011,0.009956693276762962,0.0363822877407074
1746739111331854000,3.15985400390625,-0.0010577021166682243,0.01109146699309349,0.023367686197161674
1746739111341933300,3.169933349609375,0.0005702446214854717,0.00908807571977377,0.010974155738949776
1746739111352012000,3.180011962890625,0.00047889817506074905,0.004383602179586887,-0.004887897055596113
1746739111362091300,3.19009130859375,0.0015364368446171284,-0.006709352135658264,-0.014314037747681141
1746739111372170200,3.200170166015625,-0.0009184647351503372,-0.007863033562898636,-0.016538575291633606
1746739111382249200,3.210249267578125,-0.0012506050989031792,-0.00877666100859642,-0.01391240768134594
1746739111392328200,3.220328125,-0.001325173769146204,-0.011221708729863167,-0.008187410421669483
1746739111402407200,3.2304072265625,-0.00041835149750113487,-0.005891811568289995,-0.004181570373475552
1746739111412486400,3.240486328125,0.0007425206713378429,-0.004438258707523346,0.00002941999991890043
1746739111422565000,3.250565185546875,0.0007488070987164974,0.0016777832061052322,0.0014777837786823511
1746739111432644000,3.26064404296875,-0.0012054205872118473,0.005655215121805668,0.00504402257502079
1746739111442722300,3.270722412109375,0.000999573152512312,0.00406593456864357,0.0065371268428862095
1746739111452801300,3.28080126953125,0.0019196951761841774,-0.0006518554873764515,0.002639058046042919
1746739111462880300,3.29088037109375,0.005170824471861124,-0.0066582695581018925,-0.006007167510688305
1746739111472959200,3.300959228515625,0.0008730152621865273,0.00036981282755732536,-0.015384157188236713
1746739111483038200,3.3110380859375,0.0004589376039803028,0.005197485443204641,-0.022872989997267723
1746739111493117200,3.3211171875,-0.0021080835722386837,0.006911229807883501,-0.023796841502189636
1746739111503196200,3.331196044921875,0.0013356809504330158,-0.0011316430754959583,-0.01973531022667885
1746739111513275100,3.341275146484375,0.0035221362486481667,-0.004966328851878643,-0.014129357412457466
1746739111523354400,3.351354248046875,0.003042221534997225,-0.005585534498095512,-0.00926459301263094
1746739111533433000,3.36143310546875,0.002564983209595084,-0.002496267668902874,0.000815205043181777
1746739111543512000,3.371511962890625,0.0026019832585006952,-0.0030029197223484516,0.0022416836582124233
1746739111553591300,3.38159130859375,0.001483189407736063,0.00003601331263780594,0.0023820321075618267
1746739111563670300,3.391670166015625,0.0012292121537029743,-0.0010065543465316296,0.00127410760615021
1746739111573749200,3.401749267578125,-0.00012979889288544655,-0.0007010898552834988,-0.0052916500717401505
1746739111583828200,3.411828125,-0.0019302410073578358,-0.0009985407814383507,-0.004578680265694857
1746739111593907200,3.4219072265625,0.0005848482251167297,0.00034395838156342506,-0.002483838004991412
1746739111603986200,3.431986083984375,0.0008435286581516266,0.0035416721366345882,-0.005691130645573139
1746739111614064000,3.442064208984375,0.003745841793715954,0.0021238052286207676,-0.007233100943267345
1746739111624143400,3.452143310546875,0.006496131420135498,-0.0030718608759343624,-0.01078232005238533
1746739111634222300,3.462222412109375,0.00698908232152462,-0.00659176055341959,-0.009962599724531174
1746739111644301300,3.47230126953125,0.005993994884192944,-0.006258550100028515,-0.008809644728899002
1746739111654380300,3.48238037109375,0.003483166452497244,-0.0006022625602781773,-0.00532037066295743
1746739111664459300,3.492459228515625,-0.0010826182551681995,0.006724079605191946,-0.003317293943837285
1746739111674538500,3.50253857421875,0.00035708677023649216,0.006369612645357847,0.0008766522514633834
1746739111684617200,3.5126171875,0.002761611482128501,0.009768176823854446,-0.006400943733751774
1746739111694696400,3.522696533203125,-0.00041261035948991776,-0.0009228168055415154,0.0036508915945887566
1746739111704775400,3.532775390625,0.004956750199198723,-0.004206402227282524,0.004263289272785187
1746739111714854100,3.542854248046875,0.004921330139040947,-0.004197081550955772,0.0005926542216911912
1746739111724933400,3.552933349609375,0.003916371148079634,-0.004819796420633793,-0.0002460803370922804
1746739111735012400,3.563012451171875,0.0034207566641271114,0.00010784994810819626,0.0029001780785620213
1746739111745091300,3.57309130859375,0.005425942596048117,-0.003600982017815113,0.0032456868793815374
1746739111755170300,3.58317041015625,0.004746303893625736,-0.002508553210645914,0.001729815499857068
1746739111765249300,3.593249267578125,0.0038906303234398365,-0.0035274787805974483,-0.005086811725050211
1746739111775328500,3.60332861328125,0.00476840790361166,-0.005656942259520292,-0.0048993248492479324
1746739111785406500,3.613406494140625,0.0010890723206102848,-0.004400673322379589,-0.005142519250512123
1746739111795485200,3.623485107421875,0.002906945999711752,-0.005941045470535755,-0.0069960798136889935
1746739111805564400,3.633564453125,-0.0007750364020466805,-0.0013881968334317207,-0.007828720845282078
1746739111815643400,3.643643310546875,-0.0034965206868946552,-0.002414312679320574,-0.0039705997332930565
1746739111825722000,3.65372216796875,-0.004063834436237812,0.0035327784717082977,-0.005318844690918922
1746739111835801300,3.66380126953125,-0.0019359691068530083,0.0012158285826444626,-0.0005962615250609815
1746739111845880300,3.67388037109375,0.002131476765498519,-0.005197329446673393,0.004233913961797953
1746739111855959300,3.683959228515625,0.00452033244073391,-0.007630926091223955,0.010783425532281399
1746739111866038300,3.694038330078125,0.003639581613242626,-0.002903976943343878,0.004012096673250198
1746739111876117200,3.7041171875,0.0010608425363898277,0.0026748129166662693,0.0018461478175595403
1746739111886196500,3.714196533203125,0.0018355995416641235,0.000587056390941143,0.004298628773540258
1746739111896275200,3.724275146484375,0.003219377947971225,-0.0034961022902280092,0.0074515449814498425
1746739111906354400,3.7343544921875,0.000444779172539711,-0.005524828098714352,0.012308456934988499
1746739111916433400,3.744433349609375,-0.0037611513398587704,-0.004016413353383541,0.01219873409718275
1746739111926512000,3.75451220703125,-0.004553188104182482,-0.005683573894202709,0.006600737106055021
1746739111936591400,3.76459130859375,-0.001868988387286663,-0.00729958014562726,-0.0012486637569963932
1746739111946670300,3.77467041015625,0.0008312473073601723,-0.008674654178321362,-0.006711863912642002
1746739111956749300,3.784749267578125,0.003755131969228387,-0.008369987830519676,-0.009697800502181053
1746739111966827500,3.79482763671875,0.004120251163840294,-0.006135329604148865,-0.0044756075367331505
1746739111976906200,3.80490625,0.006112295668572187,-0.0040399543941020966,0.0036259947810322046
1746739111986985500,3.8149853515625,0.002873905934393406,-0.0007442673668265343,0.014437127858400345
1746739111997064400,3.825064453125,0.0018318109214305878,-0.004457779228687286,0.017791645601391792
1746739112007143200,3.83514306640625,0.0008940678089857101,0.004702266305685043,0.02422560192644596
1746739112017222400,3.845222412109375,-0.0008705426007509232,0.00958543922752142,0.03307049348950386
1746739112027301400,3.85530126953125,-0.004663900937885046,0.012174554169178009,0.039595622569322586
1746739112037380000,3.865380126953125,-0.009137479588389397,0.009602205827832222,0.032672736793756485
1746739112047459300,3.875459228515625,-0.007934294641017914,-0.011081107892096043,0.007124290801584721
1746739112057538300,3.885538330078125,0.0025423155166208744,-0.011681650765240192,-0.008090348914265633
1746739112067617500,3.895617431640625,0.0069352868013083935,-0.010641629807651043,-0.025087488815188408
1746739112077696300,3.9056962890625,0.008056744001805782,-0.013975108042359352,-0.03159838542342186
1746739112087775200,3.915775146484375,0.0001296396367251873,-0.007838373072445393,-0.03199451416730881
1746739112097854500,3.9258544921875,-0.0031721475534141064,-0.006900407373905182,-0.023490505293011665
1746739112107933200,3.93593310546875,-0.005697876680642366,-0.0016614156775176525,-0.014836530201137066
1746739112118012400,3.946012451171875,-0.007566083688288927,-0.002610033843666315,-0.01543094776570797
1746739112128090400,3.95609033203125,-0.008414758369326591,0.003611678723245859,-0.015552468597888947
1746739112138169300,3.96616943359375,-0.007012337911874056,0.004591188859194517,-0.01737700030207634
1746739112148248300,3.976248291015625,-0.00418200483545661,0.0006978786550462246,-0.012808267027139664
1746739112158327300,3.986327392578125,0.0002468316815793514,0.004346942063421011,-0.003721561748534441
1746739112168406300,3.99640625,0.002299313899129629,0.00255931681022048,0.007464600261300802
1746739112178485500,4.006485595703125,0.002847392577677965,-0.0040724873542785645,0.01770045980811119
1746739112188564200,4.016564208984375,0.00432202871888876,-0.0018693571910262108,0.02171514928340912
1746739112198643500,4.0266435546875,0.007150305900722742,0.003972819074988365,0.025309352204203606
1746739112208722400,4.036722412109375,0.009824315086007118,-0.002323905937373638,0.01356823742389679
1746739112218801200,4.04680126953125,0.013548213057219982,-0.014292151667177677,-0.0008964561275206506
1746739112228880400,4.05688037109375,0.01524757593870163,-0.020858975127339363,-0.01107239443808794
1746739112238959400,4.06695947265625,0.016003645956516266,-0.029835691675543785,-0.019482124596834183
1746739112249038300,4.077038330078125,0.009346555918455124,-0.022978559136390686,-0.018772359937429428
1746739112259117300,4.087117431640625,0.004469243343919516,-0.012641234323382378,-0.010721624828875065
1746739112269196300,4.0971962890625,0.00032961275428533554,-0.0044088950380682945,-0.0027726530097424984
1746739112279275500,4.107275634765625,-0.001695987768471241,0.0029302448965609074,-0.0012458628043532372
1746739112289354200,4.117354248046875,0.0005482560954988003,0.005626075901091099,-0.0006193704903125763
1746739112299433200,4.12743310546875,-0.0013087661936879158,-0.00027176039293408394,0.003908802289515734
1746739112309511400,4.137511474609375,-0.002441970631480217,-0.0035694213584065437,0.004081163089722395
1746739112319590400,4.14759033203125,-0.004389540292322636,-0.003879679599776864,0.01863294094800949
1746739112329669000,4.157669189453125,-0.00541837839409709,-0.002422857563942671,0.025401096791028976
1746739112339748400,4.167748291015625,-0.004578950349241495,0.003236359916627407,0.02427271567285061
1746739112349827300,4.177827392578125,-0.0033082379959523678,0.002798468340188265,0.016262352466583252
1746739112359906600,4.187906494140625,-0.004484556149691343,0.002781690564006567,0.002873576944693923
1746739112369985300,4.1979853515625,-0.00041092513129115105,0.002996002323925495,-0.005843479186296463
1746739112380064300,4.208064208984375,-0.0007352982647716999,0.004053011536598206,-0.00760036613792181
1746739112390143500,4.2181435546875,0.0016175303608179092,-0.001988935749977827,-0.006907598581165075
1746739112400222200,4.22822216796875,0.003624754725024104,-0.006880629807710648,-0.0028611912857741117
1746739112410301400,4.238301513671875,0.006063337903469801,-0.012474555522203445,-0.001304339966736734
1746739112420380400,4.24838037109375,0.007305436301976442,-0.017296208068728447,0.0017377889016643167
1746739112430459100,4.258459228515625,0.01202547550201416,-0.014379126951098442,0.0007684043375775218
1746739112440538400,4.268538330078125,0.007758292369544506,-0.0015863659791648388,0.009323010221123695
1746739112450617300,4.278617431640625,0.0013533895835280418,0.0031316899694502354,0.025523019954562187
1746739112460696300,4.2886962890625,-0.0031635980121791363,0.007262519095093012,0.029361167922616005
1746739112470775300,4.298775390625,-0.001737711951136589,0.008538840338587761,0.024950651451945305
1746739112480854300,4.308854248046875,-0.004049335606396198,0.007770251482725143,0.010531232692301273
1746739112490933500,4.31893359375,-0.002405396196991205,0.002178011927753687,-0.005522515159100294
1746739112501012200,4.32901220703125,0.0008503184653818607,-0.001217518001794815,-0.024553196504712105
1746739112511091200,4.33909130859375,0.00479123555123806,-0.008631357923150063,-0.036933112889528275
1746739112521169400,4.34916943359375,0.00008036987856030464,-0.0070550329983234406,-0.03779198229312897
1746739112531248400,4.359248291015625,0.00004071742296218872,0.0013034301809966564,-0.0289215799421072
1746739112541327400,4.369327392578125,-0.0023516002111136913,0.0018294048495590687,-0.014620671980082989
1746739112551406300,4.37940625,-0.0007107811979949474,0.003526270855218172,-0.0019781405571848154
1746739112561485300,4.3894853515625,0.00042665470391511917,0.0021576727740466595,0.0016301763243973255
1746739112571564500,4.399564453125,0.0004180585965514183,0.0008412390016019344,0.005519270431250334
1746739112581643300,4.409643310546875,0.001046032179147005,0.005242911633104086,0.002391920192167163
1746739112591722200,4.41972216796875,0.0015173666179180145,0.0013273651711642742,0.0019261603010818362
1746739112601801500,4.429801513671875,-0.0010693618096411228,0.0010623806156218052,-0.0011087780585512519
1746739112611880200,4.439880126953125,0.0029912337195128202,-0.004460982047021389,-0.007155032828450203
1746739112621959400,4.44995947265625,0.004164089914411306,-0.00670576049014926,-0.009947623126208782
1746739112632038400,4.460038330078125,0.004706416744738817,-0.009839929640293121,-0.010799331590533257
1746739112642117400,4.470117431640625,0.005384457763284445,-0.00881141610443592,-0.018858322873711586
1746739112652196400,4.4801962890625,0.0073022847063839436,-0.004290839657187462,-0.02517176978290081
1746739112662275300,4.490275390625,0.0035664024762809277,0.0034123542718589306,-0.02540666051208973
1746739112672354600,4.5003544921875,0.004158202093094587,0.015104597434401512,-0.03613416478037834
1746739112682433300,4.510433349609375,-0.0012176549062132835,0.003715855535119772,-0.03186991065740585
1746739112692512300,4.52051220703125,-0.003072886262089014,-0.009731010533869267,-0.022007882595062256
1746739112702591500,4.530591552734375,0.004206864163279533,-0.006087806075811386,-0.010018863715231419
1746739112712670200,4.540670166015625,0.001650586724281311,-0.004109540022909641,0.0009162875358015299
1746739112722749400,4.55074951171875,-0.0019444143399596214,0.00027934927493333817,0.006788823753595352
1746739112732828400,4.560828369140625,-0.0024709217250347137,-0.0014074970968067646,0.002330958843231201
1746739112742907400,4.570907470703125,0.001141123939305544,0.0006010588258504868,0.005256973672658205
1746739112752986400,4.580986328125,0.006707975175231695,-0.007742189336568117,0.012353205122053623
1746739112763065300,4.5910654296875,0.00789521262049675,-0.007336589973419905,0.01935385726392269
1746739112773143300,4.601143310546875,0.006117580458521843,-0.0023936335928738117,0.019440092146396637
1746739112783222500,4.611222412109375,0.0002959100529551506,0.0002508857287466526,0.017428074032068253
1746739112793301200,4.62130126953125,-0.004382153041660786,0.005601877346634865,0.01366979256272316
1746739112803380500,4.63138037109375,-0.00810471922159195,0.007049039006233215,0.00852163601666689
1746739112813459500,4.64145947265625,-0.005588546860963106,0.0025438102893531322,-0.0017442948883399367
1746739112823538200,4.6515380859375,-0.0015312209725379944,-0.00027754250913858414,-0.002932064700871706
1746739112833617400,4.661617431640625,0.004441579803824425,-0.0036059364210814238,-0.00008799048373475671
1746739112843696400,4.6716962890625,0.0070749130100011826,-0.0043891724199056625,0.008590718731284142
1746739112853775400,4.681775390625,0.004105488769710064,-0.007086954079568386,0.016793787479400635
1746739112863854300,4.691854248046875,0.003574986942112446,-0.0029619839042425156,0.01893976330757141
1746739112873933300,4.701933349609375,0.0020908641163259745,-0.0007851202972233295,0.014088178053498268
1746739112884012500,4.712012451171875,-0.0008676415309309959,0.0000889291986823082,0.007946395315229893
1746739112894091300,4.72209130859375,-0.0016831583343446255,0.0022681979462504387,-0.00047627935418859124
1746739112904170200,4.732170166015625,-0.0017774342559278011,0.002204548567533493,-0.0036180103197693825
1746739112914249500,4.74224951171875,0.0012973328121006489,0.0005393391475081444,-0.009125852957367897
1746739112924328400,4.752328369140625,0.001015570480376482,-0.0003940989263355732,-0.01305614598095417
1746739112934407400,4.762407470703125,0.005852063186466694,-0.001519051380455494,-0.011008627712726593
1746739112944486400,4.772486328125,0.00594713818281889,-0.0005781566724181175,-0.004717443138360977
1746739112954565400,4.7825654296875,0.004511591978371143,0.005182365421205759,-0.000821639783680439
1746739112964644400,4.792644287109375,0.0021179430186748505,0.0029812627471983433,0.0030532595701515675
1746739112974723300,4.802723388671875,-0.0010671233758330345,0.0005500954575836658,0.008966995403170586
1746739112984802600,4.812802490234375,0.0010732589289546013,0.003941896837204695,0.016384964808821678
1746739112994881300,4.82288134765625,-0.0023281481117010117,0.005881439428776503,0.020055042579770088
1746739113004960300,4.832960205078125,-0.0015252050943672657,0.00840744748711586,0.018784714862704277
1746739113015039500,4.84303955078125,-0.003008016850799322,0.004822379443794489,0.015380974858999252
1746739113025118500,4.853118408203125,0.0028940802440047264,0.004482826683670282,0.005329673178493977
1746739113035197200,4.863197265625,0.005690932273864746,0.005718000698834658,-0.003920550923794508
1746739113045275400,4.873275390625,0.0055362023413181305,0.0016489564441144466,-0.013207260519266129
1746739113055354400,4.883354248046875,0.003146649105474353,-0.003193308599293232,-0.014470260590314865
1746739113065433300,4.893433349609375,0.006063875742256641,-0.00875185802578926,-0.01745167002081871
1746739113075512300,4.90351220703125,0.0038012820295989513,-0.0028813229873776436,-0.008383125066757202
1746739113085591300,4.91359130859375,-0.0015077297575771809,0.000130445696413517,-0.006803870666772127
1746739113095670500,4.92367041015625,-0.004311000928282738,0.0006826557219028473,0.0015952583635225892
1746739113105749200,4.933749267578125,-0.002309368923306465,-0.00009125843644142151,0.00042826117714866996
1746739113115828200,4.943828125,-0.0027423533610999584,-0.00302908755838871,0.001748627983033657
1746739113125907500,4.953907470703125,-0.0021303584799170494,-0.0022831358946859837,0.00015259554493241012
1746739113135986400,4.963986328125,-0.0003030169755220413,-0.005988594610244036,0.0012933352263644338
1746739113146065400,4.9740654296875,-0.000704621896147728,-0.01059959176927805,0.000636599725112319
1746739113156144400,4.984144287109375,0.00021528033539652824,-0.004493326414376497,0.0013886478263884783
1746739113166223400,4.994223388671875,-0.00002520345151424408,0.0005626846104860306,0.0024517816491425037
1746739113176302300,5.00430224609375,-0.004158759489655495,0.0049907793290913105,0.0027143743354827166
1746739113186381300,5.01438134765625,0.0011236206628382206,0.004926064517349005,-0.002767210127785802
1746739113196460500,5.02446044921875,-0.00039627309888601303,0.00635045999661088,-0.002615624340251088
1746739113206539500,5.03453955078125,0.0011273212730884552,-0.004573293961584568,0.001590838422998786
1746739113216618200,5.0446181640625,0.0036291403230279684,-0.008544163778424263,0.006689432077109814
1746739113226697500,5.054697509765625,0.0014360272325575352,-0.007552935276180506,0.0017149136401712894
1746739113236776400,5.0647763671875,0.0007083602249622345,-0.00449170358479023,-0.0031314510852098465
1746739113246855200,5.074855224609375,0.0022191714961081743,-0.0031886189244687557,-0.004708841443061829
1746739113256934400,5.084934326171875,0.004543063696473837,-0.0006676306948065758,-0.009020742028951645
1746739113267013400,5.095013427734375,0.0026370391715317965,-0.001979770138859749,-0.0092894546687603
1746739113277092400,5.10509228515625,0.0037000083830207586,-0.0006781225092709064,-0.008198222145438194
1746739113287171300,5.11517138671875,-0.0006063231267035007,-0.0009700050577521324,-0.006159306038171053
1746739113297250300,5.125250244140625,-0.0017356961034238338,-0.001426970586180687,-0.00444457633420825
1746739113307329500,5.13532958984375,-0.001983902882784605,0.000985853374004364,0.0010497914627194405
1746739113317408300,5.145408203125,-0.003657176624983549,-0.004051869735121727,0.004527420736849308
1746739113327487500,5.155487548828125,-0.0017263852059841156,0.0024009691551327705,-0.0004886430688202381
1746739113337566500,5.16556640625,-0.002962329890578985,0.005711407400667667,-0.0022128240671008825
1746739113347644400,5.17564453125,-0.0019372794777154922,0.002599503844976425,-0.010825220495462418
1746739113357723400,5.185723388671875,-0.0010420442558825016,0.002957496326416731,-0.010492750443518162
1746739113367802400,5.19580224609375,0.001199538353830576,0.0022163386456668377,-0.013032873161137104
1746739113377881300,5.20588134765625,0.0014429795555770397,-0.0004810485988855362,-0.015339754521846771
1746739113387960300,5.215960205078125,0.0014166138134896755,0.0020225895568728447,-0.01756642386317253
1746739113398039300,5.226039306640625,0.00391571456566453,-0.002770921215415001,-0.02351798303425312
1746739113408118500,5.236118408203125,0.0021415166556835175,0.0012158313766121864,-0.026503121480345726
1746739113418197500,5.246197509765625,0.0010319799184799194,0.002624697517603636,-0.02463836781680584
1746739113428276200,5.256276123046875,-0.0021345186978578568,-0.000328215304762125,-0.015937287360429764
1746739113438355500,5.26635546875,-0.0009081326425075531,0.0010792654938995838,-0.004077699966728687
1746739113448434400,5.276434326171875,-0.0027635572478175163,-0.0003931964747607708,0.007207977585494518
1746739113458513200,5.28651318359375,-0.0032232007943093777,0.00338533753529191,0.01070606242865324
1746739113468592400,5.29659228515625,-0.003141708206385374,0.0055185300298035145,0.00578320911154151
1746739113478671400,5.30667138671875,0.0010374253615736961,0.0021963967010378838,0.008478198200464249
1746739113488750300,5.316750244140625,0.0004472690634429455,0.00012019649147987366,0.00573434354737401
1746739113498829300,5.326829345703125,0.0012707742862403393,0.0007447008974850178,-0.001442446606233716
1746739113508908300,5.336908203125,0.0029237985145300627,0.0023268847726285458,-0.007733365520834923
1746739113518987500,5.346987548828125,0.00331490533426404,0.0020230356603860855,-0.013404895551502705
1746739113529066200,5.357066162109375,0.0028136984910815954,0.0028334353119134903,-0.018141327425837517
1746739113539145500,5.3671455078125,0.003528500674292445,0.001993294805288315,-0.01881331577897072
1746739113549224400,5.377224365234375,0.0026294176932424307,0.0027363160625100136,-0.023004332557320595
1746739113559303200,5.38730322265625,0.005138069856911898,0.0010777967981994152,-0.020705463364720345
1746739113569382400,5.39738232421875,0.0035215308889746666,-0.0012386203743517399,-0.014694975689053535
1746739113579461400,5.40746142578125,0.0009690001606941223,-0.0015924405306577682,-0.009848056361079216
1746739113589540600,5.41754052734375,-0.0023415754549205303,-0.0005660583265125751,-0.0037821740843355656
1746739113599619300,5.427619384765625,-0.002242852933704853,0.0019848733209073544,0.0009280405938625336
1746739113609698300,5.4376982421875,-0.0035802917554974556,0.0012754076160490513,0.009249620139598846
1746739113619777500,5.447777587890625,-0.00240069767460227,0.0031724870204925537,0.01464769896119833
1746739113629856500,5.4578564453125,-0.0031184195540845394,0.00833076424896717,0.010519532486796379
1746739113639935700,5.467935791015625,-0.001845960970968008,0.004909134469926357,0.0028134104795753956
1746739113650013700,5.478013671875,0.0014366512186825275,0.0018132096156477928,-0.005442122463136911
1746739113660092700,5.4880927734375,0.0010189027525484562,-0.0012948052026331425,-0.011804544366896152
1746739113670171600,5.498171630859375,0.005052792839705944,-0.0042439899407327175,-0.01182158850133419
1746739113680250600,5.508250732421875,0.003927543759346008,-0.004880428314208984,-0.010275086387991905
1746739113690329900,5.518329833984375,0.001657465472817421,-0.0019256509840488434,-0.010507580824196339
1746739113700408600,5.52840869140625,0.0010686758905649185,-0.004753581248223782,-0.0050115687772631645
1746739113710487600,5.538487548828125,0.00039915740489959717,-0.0010531186126172543,-0.00555645115673542
1746739113720566800,5.54856689453125,0.0025809581857174635,0.0029333499260246754,-0.0005918742390349507
1746739113730645800,5.558645751953125,0.001968963770195842,-0.0008936128579080105,0.008021587505936623
1746739113740724700,5.568724853515625,-0.00015124445781111717,0.0008271052502095699,0.011092220433056355
1746739113750803700,5.5788037109375,-0.003290844615548849,0.00233205733820796,0.007822125218808651
1746739113760882700,5.588882568359375,-0.006520433351397514,0.0012922217138111591,0.004665429703891277
1746739113770961700,5.598961669921875,-0.0011578919366002083,0.0030741426162421703,-0.0014984564622864127
1746739113781040600,5.60904052734375,-0.002643897198140621,0.003809529822319746,-0.009815200231969357
1746739113791120000,5.619119873046875,-0.0005080425180494785,0.0007689991034567356,-0.016437949612736702
1746739113801198800,5.62919873046875,0.001970541663467884,-0.0032987594604492188,-0.017426002770662308
1746739113811277600,5.639277587890625,0.00394554203376174,-0.004978149197995663,-0.01893574930727482
1746739113821356800,5.649356689453125,0.004277500323951244,-0.006085469387471676,-0.011184265837073326
1746739113831435800,5.659435791015625,-0.00044934405013918877,-0.001497375313192606,-0.00873841904103756
1746739113841514500,5.669514404296875,0.001645177137106657,-0.004101404920220375,-0.001425809459760785
1746739113851593700,5.67959375,-0.002730663400143385,0.00011011818423867226,0.0006429339991882443
1746739113861672700,5.689672607421875,-0.00015126261860132217,-0.0023689954541623592,-0.0024478451814502478
1746739113871751700,5.699751708984375,-0.0012037437409162521,-0.0035511727910488844,-0.004017246421426535
1746739113881830700,5.70983056640625,-0.0022830921225249767,0.0025101914070546627,-0.00453938078135252
1746739113891909600,5.71990966796875,-0.00041302014142274857,0.005123817827552557,-0.006170566659420729
1746739113901988900,5.72998876953125,-0.0011884719133377075,0.001375481951981783,-0.009661606512963772
1746739113912067600,5.740067626953125,-0.0012963302433490753,0.0003818562254309654,-0.00970767904073
1746739113922146800,5.750146728515625,0.0021408922038972378,-0.0007499223574995995,-0.01753540150821209
1746739113932225800,5.760225830078125,0.004009632393717766,-0.0009387405589222908,-0.018636085093021393
1746739113942304500,5.770304443359375,0.0018475770484656096,0.003385806456208229,-0.01974649354815483
1746739113952383700,5.7803837890625,0.002771427622064948,0.0018241284415125847,-0.019821327179670334
1746739113962462700,5.790462646484375,0.004969793371856213,0.0007042381912469864,-0.014355110935866833
1746739113972541700,5.800541748046875,0.0036741658113896847,-0.001972505357116461,-0.009335584938526154
1746739113982619600,5.81061962890625,0.005541327875107527,-0.0033857987727969885,-0.006017532665282488
1746739113992698600,5.82069873046875,0.005373548716306686,-0.005030833184719086,-0.00006589993427041918
1746739114002777900,5.83077783203125,0.001290143933147192,-0.0024520456790924072,0.0039032939821481705
1746739114012856800,5.84085693359375,-0.003261198755353689,0.00204416923224926,0.0020446740090847015
1746739114022935600,5.850935546875,-0.003774254582822323,0.007147415541112423,-0.001738061779178679
1746739114033014800,5.861014892578125,-0.00396919809281826,0.003630977123975754,-0.006406583357602358
1746739114043093800,5.87109375,-0.0034808823838829994,-0.0005035535432398319,-0.009332931600511074
1746739114053172500,5.88117236328125,0.0013008229434490204,-0.004818407353013754,-0.006110506597906351
1746739114063251700,5.891251708984375,0.001071106642484665,-0.005303500685840845,-0.002703568432480097
1746739114073330700,5.90133056640625,0.0017281086184084415,-0.004500824026763439,0.0014011617749929428
1746739114083409700,5.91140966796875,0.000983409583568573,-0.002431207802146673,0.004285554867237806
1746739114093488600,5.921488525390625,-0.0008387253619730473,0.00031664175912737846,0.0035987261217087507
1746739114103567600,5.931567626953125,-0.002295822836458683,0.0003809761255979538,0.002594598103314638
1746739114113646800,5.941646728515625,-0.0005621043965220451,-0.00038335099816322327,0.006535543594509363
1746739114123725600,5.9517255859375,0.0003780447877943516,-0.00163292046636343,0.009739493019878864
1746739114133804800,5.9618046875,0.002182869240641594,0.0003689774312078953,0.011287854984402657
1746739114143883800,5.9718837890625,0.004529399797320366,0.004278809297829866,0.004417186602950096
1746739114153962500,5.98196240234375,0.005072418600320816,0.003915288019925356,0.0003806332824751735
1746739114164041700,5.992041748046875,0.008558742702007294,0.0035133715718984604,0.00408586859703064
1746739114174120700,6.00212060546875,0.006585873197764158,-0.00037750648334622383,0.010073453187942505
1746739114184200000,6.012199951171875,0.004192756954580545,0.001249951310455799,0.013264186680316925
1746739114194278700,6.022278564453125,0.0015831254422664642,-0.0013381089083850384,0.01510096900165081
1746739114204357600,6.032357666015625,-0.0031559416092932224,-0.002016820013523102,0.023791879415512085
1746739114214436900,6.042436767578125,-0.004379131365567446,-0.0031316191889345646,0.024857675656676292
1746739114224515600,6.052515625,-0.0037149940617382526,-0.0016604778356850147,0.020374344661831856
1746739114234594800,6.0625947265625,-0.0019027134403586388,-0.00002476433292031288,0.01447091531008482
1746739114244673800,6.072673828125,-0.0021023224107921124,0.0028591929003596306,0.005174705293029547
1746739114254752500,6.08275244140625,0.002385636791586876,-0.0017795003950595856,0.003020740579813719
1746739114264831700,6.092831787109375,0.005727775860577822,0.0006458200514316559,0.00202330038882792
1746739114274910700,6.10291064453125,0.0019910945557057858,0.0004953509196639061,-0.005000254139304161
1746739114284989700,6.11298974609375,0.0018824839498847723,-0.0016328752972185612,-0.007358512841165066
1746739114295068700,6.123068603515625,0.0004566274583339691,-0.003017985727638006,-0.004091879352927208
1746739114305147600,6.133147705078125,0.0006035338155925274,-0.0029262620955705643,0.002434590831398964
1746739114315227000,6.143226806640625,-0.0013059526681900024,0.0061489916406571865,0.0014146000612527132
1746739114325305600,6.1533056640625,-0.004545891657471657,0.009097978472709656,0.0017662332393229008
1746739114335384600,6.163384521484375,-0.0049054184928536415,0.007456139661371708,-0.0034708729945123196
1746739114345462800,6.173462890625,-0.0026064468547701836,0.008326094597578049,-0.0032136288937181234
1746739114355541800,6.183541748046875,-0.0017108255997300148,0.0013880273327231407,-0.00420991750434041
1746739114365620700,6.193620849609375,0.0005666627548635006,-0.009304736740887165,-0.0030458196997642517
1746739114375699700,6.20369970703125,0.002474817680194974,-0.005098540335893631,-0.0016423336928710341
1746739114385778700,6.21377880859375,0.0006864997558295727,-0.0002649757079780102,0.001970576588064432
1746739114395858000,6.22385791015625,-0.005601223558187485,0.0012676739133894444,-0.0013131009181961417
1746739114405936600,6.2339365234375,-0.0037199147045612335,0.003985408693552017,-0.0015851056668907404
1746739114416015600,6.244015625,-0.003264513798058033,0.0007504671812057495,0.00020427218987606466
1746739114426094800,6.2540947265625,-0.0048011778853833675,-0.00022456469014286995,-0.005499705672264099
1746739114436173600,6.264173583984375,-0.00734289875254035,0.00020953034982085228,-0.008806551806628704
1746739114446252800,6.274252685546875,-0.005181064363569021,0.0012618089094758034,-0.012857911176979542
1746739114456331800,6.284331787109375,-0.0016827359795570374,0.0022668857127428055,-0.012629944831132889
1746739114466410800,6.29441064453125,-0.0016127945855259895,0.0019207843579351902,-0.010584508068859577
1746739114476489700,6.30448974609375,-0.004032010678201914,0.0009170384146273136,-0.007857698015868664
1746739114486568700,6.314568603515625,0.00076315738260746,-0.0023074541240930557,0.005521599669009447
1746739114496647700,6.324647705078125,0.0006097592413425446,-0.0017684302292764187,0.01750875450670719
1746739114506726700,6.3347265625,0.0019258004613220692,0.0009045079350471497,0.029448028653860092
1746739114516805600,6.3448056640625,0.00003442354500293732,0.010949152521789074,0.029818208888173103
1746739114526884900,6.354884765625,0.0010109515860676765,0.006156541872769594,0.017513703554868698
1746739114536963600,6.364963623046875,0.004395829513669014,0.00021609477698802948,-0.002377444878220558
1746739114547042600,6.37504248046875,0.009323302656412125,-0.006701651960611343,-0.015194500796496868
1746739114557121800,6.385121826171875,0.006333105731755495,-0.006872094236314297,-0.023625535890460014
1746739114567200800,6.39520068359375,0.006251766346395016,-0.0030982550233602524,-0.0279478058218956
1746739114577279700,6.40527978515625,0.004720981232821941,-0.0054764579981565475,-0.023580754175782204
1746739114587358700,6.415358642578125,0.004769610706716776,-0.0045911893248558044,-0.01603449136018753
1746739114597437700,6.425437744140625,0.0013538403436541557,-0.003974401392042637,-0.010172874666750431
1746739114607516700,6.4355166015625,0.0006225891411304474,-0.003583734156563878,-0.004454099107533693
1746739114617595600,6.445595703125,-0.0011478802189230919,0.00023657036945223808,0.0011955307563766837
1746739114627674000,6.455674072265625,-0.0014155278913676739,0.005975150037556887,0.00500012282282114
1746739114637753300,6.46575341796875,-0.0019862432964146137,0.005143444519490004,0.00981218833476305
1746739114647832000,6.47583203125,-0.002121531870216131,0.00623400928452611,0.007667811121791601
1746739114657911300,6.485911376953125,-0.0022933059372007847,0.0028872149996459484,0.00779511034488678
1746739114667990300,6.495990234375,0.0006912252865731716,-0.00013017840683460236,-0.0007684717420488596
1746739114678069000,6.506069091796875,0.002851049182936549,-0.0019531124271452427,-0.009477540850639343
1746739114688148200,6.516148193359375,0.0043564606457948685,-0.005651474930346012,-0.01804511807858944
1746739114698227200,6.526227294921875,0.004818519111722708,-0.006438172422349453,-0.022050779312849045
1746739114708306400,6.536306396484375,0.002884411718696356,-0.004259111825376749,-0.02133241482079029
1746739114718385200,6.54638525390625,0.0016809292137622833,-0.0036521772854030132,-0.026643291115760803
1746739114728464100,6.556464111328125,0.002890177769586444,-0.011631619185209274,-0.02459792234003544
1746739114738542300,6.566542236328125,0.0004845443181693554,-0.007161503192037344,-0.017649736255407333
1746739114748621300,6.576621337890625,0.007754195015877485,-0.002877761609852314,-0.008426657877862453
1746739114758700000,6.586699951171875,0.008492689579725266,0.004564708564430475,0.0028939074836671352
1746739114768779300,6.596779296875,0.007205337751656771,0.0033535524271428585,0.013872007839381695
1746739114778858200,6.606858154296875,0.006882296409457922,0.0027892286889255047,0.01819671504199505
1746739114788937200,6.616937255859375,0.00565753411501646,-0.00047275377437472343,0.01851784437894821
1746739114799016200,6.62701611328125,-0.0015175542794167995,0.003876720555126667,0.019398551434278488
1746739114809095200,6.63709521484375,-0.008006637915968895,0.004422013182193041,0.031192142516374588
1746739114819174400,6.64717431640625,-0.006194356828927994,0.010315323248505592,0.02944830432534218
1746739114829253000,6.657253173828125,-0.009548481553792953,0.008002378046512604,0.02034597657620907
1746739114839332000,6.66733203125,-0.003913499880582094,0.0028182691894471645,0.0034871019888669252
1746739114849411300,6.677411376953125,-0.0009725247509777546,0.00019176676869392395,-0.0062419879250228405
1746739114859490000,6.687489990234375,0.004452334251254797,-0.005420578643679619,-0.011022628284990788
1746739114869569300,6.6975693359375,0.006320541724562645,-0.006413671653717756,-0.009236179292201996
1746739114879648300,6.707648193359375,0.00468323053792119,-0.005029093939810991,-0.00817757286131382
1746739114889727200,6.717727294921875,0.0034548607654869556,-0.007821355946362019,-0.003661808790639043
1746739114899806200,6.72780615234375,0.0032346174120903015,-0.004302521236240864,-0.005281010642647743
1746739114909885200,6.73788525390625,-0.000026809051632881165,0.0009000259451568127,-0.003868094878271222
1746739114919964400,6.74796435546875,-0.0009759599342942238,0.004048681352287531,-0.0017524798167869449
1746739114930043100,6.758043212890625,-0.0013511991128325462,0.0004512835294008255,-0.0010462095960974693
1746739114940122000,6.7681220703125,-0.0020478819496929646,0.0007751244120299816,0.001822547521442175
1746739114950201300,6.778201416015625,-0.004803967196494341,0.0026660170406103134,-0.0008003810653463006
1746739114960280000,6.788280029296875,-0.0024308250285685062,-0.0003603990189731121,-0.0006754788337275386
1746739114970359000,6.798359130859375,-0.0013048136606812477,-0.004801895469427109,-0.00048697559395805
1746739114980438300,6.808438232421875,-0.0024062972515821457,-0.005647182930260897,-0.00301325018517673
1746739114990517200,6.818517333984375,-0.0024542729370296,-0.003639250760897994,-0.0056897676549851894
1746739115000596200,6.82859619140625,0.0021492678206413984,-0.007899509742856026,-0.00762109225615859
1746739115010675200,6.83867529296875,0.0006101918406784534,-0.005560660734772682,-0.00664439145475626
1746739115020754200,6.848754150390625,-0.0013091485016047955,0.002957726363092661,-0.000825650931801647
1746739115030833200,6.858833251953125,-0.000935219693928957,0.005258748307824135,0.004010667558759451
1746739115040912100,6.868912109375,-0.0021890359930694103,0.0008038124069571495,0.013304566964507103
1746739115050991400,6.878991455078125,-0.00040493160486221313,0.0015132580883800983,0.01515456847846508
1746739115061070000,6.889070068359375,0.00028855539858341217,0.0018821056000888348,0.0068279290571808815
1746739115071149000,6.899149169921875,0.0008389842696487904,0.0016955123282968998,0.0016638231463730335
1746739115081228300,6.909228271484375,0.00497434101998806,-0.0038571783807128668,-0.00651074992492795
1746739115091307300,6.919307373046875,0.003117585089057684,-0.003794860327616334,-0.0039269509725272655
1746739115101386200,6.92938623046875,0.006149061024188995,-0.004811921622604132,-0.004924837499856949
1746739115111465200,6.93946533203125,0.002559412969276309,0.0010442286729812622,-0.00637923926115036
1746739115121544200,6.949544189453125,-0.0009101531468331814,0.0038003334775567055,-0.006470585707575083
1746739115131623200,6.959623046875,0.001423155888915062,0.0010451562702655792,-0.001454296289011836
1746739115141702100,6.9697021484375,0.0013182270340621471,-0.00006484938785433769,0.007605777587741613
1746739115151781400,6.979781494140625,-0.0003860965371131897,0.0003531542606651783,0.019603723660111427
1746739115161860400,6.9898603515625,-0.0034607164561748505,-0.0012455410324037075,0.025470133870840073
1746739115171939000,6.99993896484375,-0.005171716678887606,0.0035453299060463905,0.0293656587600708
1746739115182018300,7.010018310546875,-0.00540927005931735,0.005389036610722542,0.019653111696243286
1746739115192096300,7.02009619140625,-0.0011190799996256828,0.0027290629222989082,0.00563990930095315
1746739115202175200,7.03017529296875,0.004423224367201328,-0.0020691538229584694,-0.003625760320574045
1746739115212254200,7.040254150390625,0.00543864443898201,-0.0009683161042630672,-0.01713920198380947
1746739115222333200,7.050333251953125,0.004475378897041082,-0.006644844077527523,-0.02681899443268776
1746739115232412200,7.060412109375,0.007627914659678936,-0.008860991336405277,-0.025239963084459305
1746739115242491100,7.0704912109375,0.005468890070915222,-0.007181868422776461,-0.023191193118691444
1746739115252570000,7.080570068359375,0.0034112054854631424,-0.004403405357152224,-0.015443614684045315
1746739115262649300,7.0906494140625,-0.0002453145571053028,-0.002674481365829706,-0.00599951297044754
1746739115272728300,7.100728271484375,-0.0015639187768101692,0.0007098331116139889,0.01092122495174408
1746739115282807000,7.11080712890625,-0.0049040550366044044,0.003814279567450285,0.020410068333148956
1746739115292886300,7.12088623046875,-0.007661632727831602,0.002575655933469534,0.025722632184624672
1746739115302965200,7.13096533203125,-0.0069710747338831425,0.0004483223892748356,0.027325589209794998
1746739115313044200,7.141044189453125,-0.006617992650717497,0.0013897689059376717,0.015972895547747612
1746739115323123200,7.151123291015625,-0.0010429313406348228,-0.0008637979626655579,0.006536785047501326
1746739115333202200,7.1612021484375,0.0020194118842482567,-0.0009094602428376675,-0.004453234374523163
1746739115343281200,7.17128125,0.003768575843423605,-0.004647739697247744,-0.009572362527251244
1746739115353360100,7.181360107421875,0.005168092902749777,-0.009609352797269821,-0.01397568080574274
1746739115363439400,7.191439453125,0.0034389023203402758,-0.00326863257214427,-0.01676534302532673
1746739115373518300,7.201518310546875,0.004046348854899406,-0.0038990522734820843,-0.015174920670688152
1746739115383597000,7.21159716796875,0.0007110061123967171,-0.0007551908493041992,-0.008393446914851665
1746739115393676300,7.22167626953125,0.0044679478742182255,-0.0002816310152411461,0.0015404283767566085
1746739115403755300,7.23175537109375,0.001752322306856513,0.0027495790272951126,0.013019984588027
1746739115413834000,7.241833984375,1.2945383787155151e-7,0.0034996382892131805,0.018654827028512955
1746739115423913200,7.251913330078125,-0.003752264194190502,0.005219774320721626,0.017921391874551773
1746739115433992200,7.2619921875,-0.0042609963566064835,0.007364192511886358,0.01588461920619011
1746739115444071200,7.2720712890625,-0.0052415719255805016,0.0058781481347978115,0.006750775966793299
1746739115454150100,7.282150146484375,0.00018044793978333473,0.0018277615308761597,0.0004910181742161512
1746739115464229000,7.29222900390625,0.001819090684875846,-0.001565106213092804,-0.008247878402471542
1746739115474308400,7.302308349609375,0.004906105808913708,0.0017476603388786316,-0.007827254943549633
1746739115484387000,7.312386962890625,0.0044807991944253445,-0.00047261686995625496,-0.006126560736447573
1746739115494466300,7.32246630859375,0.004361417144536972,-0.0005099312402307987,-0.0015509056393057108
1746739115504545300,7.332545166015625,0.0017334097065031528,0.0011159288696944714,0.00020172064250800759
1746739115514624000,7.3426240234375,0.0022363350726664066,0.00037444429472088814,0.0006439617718569934
1746739115524703200,7.352703125,-0.0012638573534786701,-0.00018615089356899261,0.0022120310459285975
1746739115534782200,7.3627822265625,-0.0019500977359712124,0.0036120950244367123,0.002443566918373108
1746739115544861400,7.372861328125,-0.0015761898830533028,0.003967361059039831,0.0008848186698742211
1746739115554940200,7.382940185546875,0.0015539377927780151,-0.0022885361686348915,-0.002115276176482439
1746739115565019100,7.39301904296875,0.002883121371269226,-0.004527987912297249,-0.005906286183744669
1746739115575098400,7.403098388671875,-0.00018365401774644852,0.0016108034178614616,-0.011799437925219536
1746739115585177000,7.413177001953125,-0.0019440031610429287,0.0013359654694795609,-0.007214007433503866
1746739115595256000,7.423256103515625,-0.003417092375457287,-0.0020665740594267845,-0.007723940536379814
1746739115605335300,7.433335205078125,-0.0014894967898726463,-0.004888992290943861,-0.007915155962109566
1746739115615414000,7.4434140625,-0.0012598796747624874,-0.00589568680152297,-0.0074414755217731
1746739115625493000,7.453492919921875,0.001911944942548871,-0.007883204147219658,-0.012094018049538136
1746739115635572000,7.463572021484375,0.002480696886777878,-0.00918298028409481,-0.007043206132948399
1746739115645651000,7.47365087890625,-0.00015476718544960022,-0.006822620984166861,-0.006578750908374786
1746739115655730000,7.48372998046875,-0.0015154019929468632,-0.0054802438244223595,-0.0011370660504326224
1746739115665809000,7.493808837890625,-0.0024789338931441307,-0.0028743408620357513,0.011157683096826077
1746739115675888000,7.50388818359375,-0.005924823693931103,-0.0023436942137777805,0.021507572382688522
1746739115685966000,7.513966064453125,-0.008415412157773972,-0.0006480594165623188,0.028146034106612206
1746739115696045800,7.5240458984375,-0.007000934332609177,0.0036748144775629044,0.024214064702391624
1746739115706124000,7.5341240234375,-0.004450958222150803,0.0023751920089125633,0.014446123503148556
1746739115716203000,7.544203125,-0.002241327427327633,-0.002319092396646738,0.008308270946145058
1746739115726282000,7.554281982421875,0.0012109284289181232,-0.003381427377462387,0.0014756652526557446
1746739115736361000,7.56436083984375,0.0018998824525624514,-0.002733017783612013,-0.003354444866999984
1746739115746440000,7.57443994140625,0.007323143538087606,-0.00429549440741539,-0.0024670797865837812
1746739115756519000,7.584518798828125,0.004796023480594158,-0.0037774185184389353,-0.0061414120718836784
1746739115766598000,7.594597900390625,0.0047046770341694355,-0.005440030246973038,-0.0025309643242508173
1746739115776676900,7.6046767578125,0.005835914518684149,-0.0052304696291685104,0.0026700012385845184
1746739115786756000,7.614756103515625,0.004745349753648043,-0.004343370907008648,0.0056314365938305855
1746739115796835000,7.6248349609375,0.0012933826074004173,-0.001266831997781992,0.01454345416277647
1746739115806913800,7.634913818359375,0.0002848436124622822,0.0019404124468564987,0.018214087933301926
1746739115816993000,7.644992919921875,0.0005481354892253876,0.001056424342095852,0.016333427280187607
1746739115827072000,7.655072021484375,-0.0017925170250236988,0.0009712027385830879,0.010923482477664948
1746739115837151000,7.66515087890625,-0.002127980347722769,-0.002291083801537752,0.0020479022059589624
1746739115847230000,7.67522998046875,-0.0005801510997116566,-0.002347010187804699,-0.011510251089930534
1746739115857309000,7.685308837890625,-0.0017427420243620872,0.00044990191236138344,-0.0141578558832407
1746739115867388000,7.695387939453125,-0.00013632327318191528,-0.002551480196416378,-0.017208240926265717
1746739115877467000,7.705466796875,0.0016188211739063263,-0.002858070656657219,-0.01641685888171196
1746739115887546000,7.715546142578125,0.004015399608761072,-0.008508766070008278,-0.0038416783791035414
1746739115897625000,7.725625,0.0044955904595553875,-0.011370273306965828,0.009453900158405304
1746739115907703800,7.735703857421875,0.0058223772794008255,-0.007933996617794037,0.015279298648238182
1746739115917783000,7.745782958984375,0.002440823009237647,-0.0007591056637465954,0.018314268440008163
1746739115927862000,7.755862060546875,-0.0031286454759538174,0.006044472102075815,0.019045040011405945
1746739115937941000,7.76594091796875,-0.0009456789121031761,0.008489398285746574,0.016595780849456787
1746739115948020000,7.77602001953125,-0.005513000302016735,0.00658230809494853,0.012848446145653725
1746739115958099000,7.786098876953125,-0.0052570016123354435,-0.0026626246981322765,0.003413116792216897
1746739115968178000,7.796177978515625,-0.0010047322139143944,-0.006637658923864365,-0.0036871370393782854
1746739115978257000,7.8062568359375,-0.001116220373660326,-0.0066462974064052105,-0.007350173778831959
1746739115988335900,7.8163359375,0.004506511613726616,-0.002779920119792223,-0.010690310038626194
1746739115998415000,7.8264150390625,0.0028329812921583652,-0.0025370395742356777,-0.005137885920703411
1746739116008493800,7.836493896484375,-0.0001540202647447586,-0.00417381851002574,-0.001001730328425765
1746739116018573000,7.846572998046875,0.002656585769727826,-0.0027432520873844624,0.0018306036945432425
1746739116028652000,7.856652099609375,0.0029340870678424835,-0.0027283383533358574,0.007944689132273197
1746739116038730800,7.866730712890625,0.0009352127090096474,0.0010899193584918976,0.006413841620087624
1746739116048810000,7.87681005859375,-0.0011082305572926998,0.0030010035261511803,0.009972091764211655
1746739116058889000,7.886888916015625,0.0003727278672158718,0.0057604508474469185,0.011062170378863811
1746739116068968000,7.896968017578125,0.000898436177521944,0.006778577342629433,0.009536178782582283
1746739116079047000,7.907046875,0.002840996952727437,0.003908197861164808,0.004023873712867498
1746739116089126000,7.9171259765625,0.0010422980412840843,0.0011204010806977749,-0.001296855742111802
1746739116099205000,7.927205078125,0.0017296336591243744,-0.006036966107785702,0.004414340015500784
1746739116109283800,7.937283935546875,0.0009895414113998413,-0.010885517112910748,0.011672786436975002
1746739116119363000,7.947363037109375,-0.000733670312911272,-0.013574570417404175,0.014860480092465878
1746739116129442000,7.957442138671875,-0.001514775212854147,-0.010335899889469147,0.008485138416290283
1746739116139520800,7.967520751953125,-0.00003749364987015724,-0.006786585319787264,0.0015267846174538136
1746739116149600000,7.97760009765625,-0.001426864881068468,-0.0068686106242239475,0.001968070399016142
1746739116159679000,7.987678955078125,-0.00014627398923039436,-0.0033330018632113934,0.0008172234520316124
1746739116169758000,7.997758056640625,-0.002184391487389803,-0.0018608062528073788,-0.002233960200101137
1746739116179837000,8.0078369140625,-0.0047884779050946236,-0.0024785702116787434,-0.008665994741022587
1746739116189916000,8.017916015625,-0.003870219923555851,-0.0012231562286615372,-0.011382418684661388
1746739116199995100,8.0279951171875,-0.00020086579024791718,-0.0027907174080610275,-0.020355235785245895
1746739116210073900,8.038073974609375,0.0005725165829062462,-0.007274148985743523,-0.021629557013511658
1746739116220152800,8.04815283203125,0.0029287568759173155,-0.006710363086313009,-0.01414750050753355
1746739116230232000,8.058232177734375,0.002819833578541875,-0.00405146274715662,-0.005789969116449356
1746739116240310800,8.068310791015625,-0.000562720000743866,-0.0030477475374937057,-0.002483310177922249
1746739116250390000,8.07839013671875,-0.0012085363268852234,0.0009459285065531731,-0.0011522623244673014
1746739116260469000,8.088468994140625,-0.0049359919503331184,0.005724085494875908,-0.0005838803481310606
1746739116270548000,8.0985478515625,-0.007088092155754566,0.008442108519375324,-0.004683018196374178
1746739116280627000,8.108626953125,-0.005769805517047644,0.01195300929248333,-0.007844176143407822
1746739116290706000,8.118705810546874,-0.006424676161259413,0.005946516990661621,-0.015820875763893127
1746739116300785200,8.12878515625,0.0004763975739479065,0.0031553772278130054,-0.018864382058382034
1746739116310864000,8.13886376953125,0.00577662093564868,-0.001733653713017702,-0.015027832239866257
1746739116320941800,8.14894189453125,0.008782556280493736,-0.00426326971501112,-0.009752156212925911
1746739116331022000,8.15902197265625,0.00883448775857687,-0.00016013765707612038,-0.008767319843173027
1746739116341100000,8.16910009765625,0.0060461112298071384,0.0022807405330240726,-0.007993640378117561
1746739116351179000,8.179178955078125,0.003808523528277874,0.004812607076019049,-0.011549759656190872
1746739116361258000,8.189258056640625,-0.0006864587776362896,0.003210298717021942,-0.01359893660992384
1746739116371337000,8.1993369140625,-0.0033600060269236565,0.00692620687186718,-0.00897009577602148
1746739116381416000,8.209416015625,-0.007308576256036758,0.005536986980587244,-0.00401727482676506
1746739116391495000,8.219494873046875,-0.004949281923472881,-0.003012292552739382,0.0020376883912831545
1746739116401574000,8.229573974609375,-0.004303297959268093,-0.008540633134543896,0.008431796915829182
1746739116411653000,8.239653076171875,-0.0023235036060214043,-0.003348001977428794,0.011428652331233025
1746739116421731800,8.24973193359375,0.0007906756363809109,0.0014622602611780167,0.014669829048216343
1746739116431810800,8.259810791015624,0.0023502230178564787,0.0030542975291609764,0.013170469552278519
1746739116441890000,8.26989013671875,0.0034227005671709776,0.00402827188372612,0.003873388981446624
1746739116451969000,8.279968994140624,0.0016405130736529827,0.004234400577843189,-0.003371208207681775
1746739116462048000,8.290048095703124,0.0015478124842047691,0.002318998798727989,-0.007857583463191986
1746739116472127000,8.300126953125,0.0028556908946484327,0.0014430852606892586,-0.008956138044595718
1746739116482206000,8.3102060546875,0.00005450565367937088,-0.0002816086634993553,-0.01172255165874958
1746739116492285000,8.320284912109376,-0.0029085278511047363,0.003095545805990696,-0.009660732001066208
1746739116502364000,8.330364013671876,-0.002208191901445389,-0.0000910172238945961,-0.00041276702540926635
1746739116512443100,8.340443115234375,-0.0007570353336632252,-0.004543822258710861,0.0044317892752587795
1746739116522521900,8.35052197265625,0.0026994089130312204,-0.0050384001806378365,0.0061019351705908775
1746739116532600800,8.360600830078125,0.0015169652178883553,-0.0029014800675213337,0.005778361111879349
1746739116542680000,8.37068017578125,0.0018020693678408861,0.0032747159712016582,0.006226149387657642
1746739116552759000,8.380759033203125,-0.0003510965034365654,0.004894982557743788,0.0042737857438623905
1746739116562837800,8.390837646484375,0.0001513720490038395,0.008715319447219372,0.0003126179799437523
1746739116572917000,8.4009169921875,0.002874986734241247,0.004645742475986481,-0.0032719967421144247
1746739116582996000,8.410995849609375,0.0028879859019070864,-0.004203115589916706,-0.008461606688797474
1746739116593075000,8.421074951171875,0.006318137049674988,-0.0019522118382155895,-0.01731714978814125
1746739116603154000,8.43115380859375,0.002669460838660598,0.0028909542597830296,-0.026804771274328232
1746739116613233000,8.44123291015625,0.004829550627619028,0.0030880277045071125,-0.02625269815325737
1746739116623312000,8.451311767578124,0.0022552418522536755,0.0000864989124238491,-0.012304801493883133
1746739116633391000,8.46139111328125,0.002611040137708187,-0.0029002362862229347,0.0016315202228724957
1746739116643470000,8.471469970703126,-0.00116047915071249,-0.0009724050760269165,0.01279540080577135
1746739116653549300,8.48154931640625,-0.005810624919831753,0.0057406253181397915,0.018505483865737915
1746739116663628000,8.4916279296875,-0.005891971755772829,0.0036205416545271873,0.025105440989136696
1746739116673707000,8.50170703125,-0.004940956365317106,0.0017121201381087303,0.022088611498475075
1746739116683786200,8.5117861328125,-0.0042008161544799805,0.0015857978723943233,0.012527299113571644
1746739116693865000,8.521864990234375,-0.00044948747381567955,0.0006118793971836567,-0.0009275235352106392
1746739116703944200,8.531944091796875,0.0011892281472682953,-0.003018511924892664,-0.011587702669203281
1746739116714023200,8.542023193359375,0.0027269371785223484,-0.004414807073771954,-0.017398454248905182
1746739116724102100,8.55210205078125,0.0020720886532217264,-0.005903720390051603,-0.02223740518093109
1746739116734181000,8.56218115234375,0.003674512729048729,-0.001707377377897501,-0.018212836235761642
1746739116744260000,8.572260009765625,0.004359477665275335,0.00009158765897154808,-0.0061226170510053635
1746739116754339300,8.58233935546875,0.006844739429652691,-0.0015278803184628487,0.004061310552060604
1746739116764418000,8.59241796875,0.009331722743809223,-0.004926873836666346,0.011149944737553596
1746739116774497000,8.6024970703125,0.005918881390243769,-0.0008879238739609718,0.017473619431257248
1746739116784576300,8.612576171875,0.003909477032721043,0.00220563355833292,0.026115668937563896
1746739116794655000,8.622655029296874,0.0024668427649885416,0.00445946678519249,0.030871009454131126
1746739116804734200,8.632734130859374,-0.0027278712950646877,0.00576566020026803,0.032522935420274734
1746739116814813200,8.642813232421876,-0.0015970929525792599,0.008211774751543999,0.02292064018547535
1746739116824892200,8.65289208984375,0.002708031563088298,0.005387820303440094,0.009981709532439709
1746739116834971100,8.66297119140625,0.0002011982724070549,0.006683713756501675,0.00017994562222156674
1746739116845050000,8.673050048828125,-0.0001719389110803604,0.006778073962777853,-0.008822230622172356
1746739116855129000,8.683129150390625,0.002221710281446576,0.000627503264695406,-0.007774809375405312
1746739116865208000,8.6932080078125,0.002624722197651863,-0.0025431648828089237,-0.002685380633920431
1746739116875287000,8.703287109375,0.0002430570311844349,-0.005952543579041958,-0.0018211849965155125
1746739116885366300,8.7133662109375,-0.00017905374988913536,-0.0028901747427880764,0.0012782018166035414
1746739116895445000,8.723445068359375,-0.0023612482473254204,-0.0024568787775933743,-0.0013604580890387297
1746739116905524000,8.73352392578125,-0.0008282847702503204,-0.0010838424786925316,0.0016054727602750063
1746739116915603200,8.743603271484375,-0.0004509151913225651,0.003874697256833315,-0.004551755264401436
1746739116925682200,8.75368212890625,-0.0010611927136778831,0.008995572105050087,-0.021176056936383247
1746739116935761200,8.76376123046875,-0.0006129825487732887,0.00759767834097147,-0.02191162109375
1746739116945840000,8.773840087890624,0.0016853013075888157,-0.0027903635054826736,-0.009957446716725826
1746739116955919000,8.783919189453124,0.003991066012531519,-0.0055070542730391026,-0.003002335550263524
1746739116965998000,8.793998046875,-0.0021702293306589127,-0.004302747547626495,-0.005606619641184807
1746739116976077000,8.8040771484375,-0.0034767761826515198,-0.005175997503101826,-0.004464922472834587
1746739116986156300,8.81415625,-0.0024515059776604176,0.0012023616582155228,-0.0037684733979403973
1746739116996235000,8.824235107421876,-0.0011177952401340008,-0.0023098154924809933,-0.0013934666058048606
1746739117006314000,8.83431396484375,0.0001427982933819294,-0.0016934075392782688,0.00257325847633183
1746739117016393200,8.844393310546875,0.0003100447356700897,-0.004810637794435024,0.016489874571561813
1746739117026472200,8.85447216796875,0.000505451112985611,-0.0032997382804751396,0.027772847563028336
1746739117036551200,8.86455126953125,-0.0012322613038122654,0.0032822638750076294,0.026261502876877785
1746739117046630100,8.874630126953125,0.0015470362268388271,0.005964123643934727,0.020890722051262856
1746739117056709000,8.884709228515625,-0.0007217107340693474,0.0012093158438801765,0.011311864480376244
1746739117066788000,8.8947880859375,-0.0033468864858150482,0.0030296510085463524,0.0038613183423876762
1746739117076867000,8.9048671875,0.0005634324625134468,0.002757210284471512,-0.00249404925853014
1746739117086946000,8.914946044921875,-0.00037194229662418365,0.0009726495482027531,-0.009090411476790905
1746739117097025300,8.925025390625,-0.001549858134239912,-0.0005730492994189262,-0.017078561708331108
1746739117107104000,8.93510400390625,0.001674019731581211,-0.0036290858406573534,-0.02194879576563835
1746739117117183200,8.945183349609374,0.0017658986616879702,0.0002902885898947716,-0.021373286843299866
1746739117127262200,8.95526220703125,-0.0002104584127664566,-0.0005125044845044613,-0.015545979142189026
1746739117137341000,8.9653408203125,-0.0020067603327333927,-0.0019692531786859035,-0.008893403224647045
1746739117147420200,8.975420166015626,-0.0028732316568493843,0.003448890056461096,0.005185819696635008
1746739117157499100,8.9854990234375,-0.0049872491508722305,0.007929392158985138,0.01195104792714119
1746739117167578000,8.995578125,-0.006224213168025017,0.008426422253251076,0.014639906585216522
1746739117177656000,9.005656005859375,-0.003849206492304802,0.004322758410125971,0.019784068688750267
1746739117187736000,9.015736083984375,-0.004139879252761602,0.00480505870655179,0.014858719892799854
1746739117197814300,9.025814208984375,-0.0031659607775509357,0.003985603805631399,0.008440235629677773
1746739117207893200,9.035893310546875,-0.0009062932804226875,0.0007955539040267467,-0.0010192680638283491
1746739117217972000,9.045971923828125,-0.00003570597618818283,0.0026360643096268177,-0.014981955289840698
1746739117228051200,9.05605126953125,-0.0001045851968228817,-0.0005848840810358524,-0.026872558519244194
1746739117238130200,9.066130126953125,0.003601736156269908,-0.0001537185162305832,-0.03270195424556732
1746739117248209200,9.076209228515625,0.006305958144366741,0.0015434273518621922,-0.030637236312031746
1746739117258288000,9.0862880859375,0.005644429009407759,-0.0028518540784716606,-0.022318586707115173
1746739117268367000,9.0963671875,0.004454117268323898,-0.004715325310826302,-0.007026826497167349
1746739117278446000,9.106446044921874,0.0011970712803304195,-0.0028465851210057735,0.001991169061511755
1746739117288525000,9.116525146484374,-0.0005673449486494064,0.00026800669729709625,0.012521862052381039
1746739117298604000,9.12660400390625,-0.0011931881308555603,0.007894767448306084,0.013098170049488544
1746739117308683300,9.136683349609376,-0.0019259452819824219,0.008840726688504219,0.007527537178248167
1746739117318762000,9.146761962890626,-0.00393103901296854,0.007299554999917746,0.007887862622737885
1746739117328841200,9.15684130859375,-0.0022513093426823616,0.00796729326248169,0.002137164119631052
1746739117338920200,9.166920166015625,-0.00045767100527882576,0.00785650685429573,-0.0035196563694626093
1746739117348999000,9.1769990234375,-0.0023025888949632645,0.00394186656922102,-0.012076502665877342
1746739117359078100,9.187078125,-0.0014546383172273636,0.0022318512201309204,-0.013246162794530392
1746739117369157000,9.1971572265625,-0.0016572079621255398,0.003242344595491886,-0.016825517639517784
1746739117379236000,9.207236083984375,-0.0002694348804652691,-0.0001894044689834118,-0.021642908453941345
1746739117389315000,9.217315185546875,-0.00047800876200199127,0.0018168422393500805,-0.02009131945669651
1746739117399394000,9.22739404296875,-0.0022261077538132668,-0.0000769314356148243,-0.013970308937132359
1746739117409473300,9.237473388671875,0.00036236364394426346,-0.0057728951796889305,-0.010851847007870674
1746739117419552000,9.247552001953125,0.0006553116254508495,-0.006139612291008234,-0.005036569200456142
1746739117429631200,9.25763134765625,0.0014698756858706474,-0.00037449412047863007,-0.001940577756613493
1746739117439710200,9.267710205078124,-0.002805029973387718,0.020431717857718468,0.0085365641862154
1746739117449789000,9.277788818359374,-0.008136555552482605,0.0027659032493829727,-0.0016232974594458938
1746739117459868200,9.2878681640625,-0.0008916929364204407,-0.0021103443577885628,-0.009480156004428864
1746739117469947100,9.297947021484376,0.0059190732426941395,-0.0011575217358767986,-0.014801093377172947
1746739117480026000,9.308026123046876,0.00605729129165411,-0.006739773787558079,-0.020423825830221176
1746739117490105000,9.31810498046875,0.0032065976411104202,-0.006102333776652813,-0.023065706714987755
1746739117500184000,9.32818408203125,-0.0015383563004434109,-0.002129696309566498,-0.019763920456171036
1746739117510263300,9.33826318359375,-0.004522406030446291,-0.007213611621409655,-0.016662919893860817
1746739117520342000,9.348342041015625,-0.0009785373695194721,0.001714902464300394,-0.015405642800033092
1746739117530421000,9.3584208984375,0.00596754252910614,0.0071177189238369465,-0.014535842463374138
1746739117540500200,9.368500244140625,0.0022982393857091665,0.023099880665540695,0.004957697354257107
1746739117550579000,9.378578857421875,-0.011139731854200363,0.03732092306017876,0.032282449305057526
1746739117560658200,9.388658203125,-0.015592535957694054,0.03927941247820854,0.04186530411243439
1746739117570737200,9.398737060546875,-0.021614452823996544,0.022252023220062256,0.03319006785750389
1746739117580816100,9.408816162109375,-0.016085462644696236,-0.0010125520639121532,0.012579064816236496
1746739117590895000,9.41889501953125,-0.008280271664261818,-0.015047358348965645,-0.0008233485277742147
1746739117600974000,9.42897412109375,0.00159073481336236,-0.02332739345729351,-0.01154230535030365
1746739117611053300,9.43905322265625,0.012323226779699326,-0.010393230244517326,-0.016689522191882133
1746739117621132000,9.449132080078124,0.02010897919535637,0.001705243717879057,-0.013948863372206688
1746739117631211500,9.45921142578125,0.016459405422210693,0.00809885561466217,-0.003878748742863536
1746739117641290500,9.46929052734375,0.007299729622900486,0.010003814473748207,-0.0018755188211798668
1746739117651369500,9.479369384765626,0.002181715564802289,0.0070985411293804646,0.0002951336791738868
1746739117661448400,9.489448486328126,-0.002511839382350445,0.00511688319966197,0.004071229603141546
1746739117671527400,9.49952734375,-0.0019143489189445972,0.0027421447448432446,0.001029268722049892
1746739117681606700,9.509606689453125,-0.00043602799996733665,-0.0018049362115561962,-0.0012868824414908886
1746739117691685400,9.519685302734375,0.0003392673097550869,0.00012795394286513329,-0.008427971974015236
1746739117701764600,9.5297646484375,-0.0011454452760517597,0.0007394151762127876,-0.013727130368351936
1746739117711843600,9.539843505859375,-0.001044438686221838,0.005483278539031744,-0.01571733132004738
1746739117721922300,9.54992236328125,-0.0015397868119180202,0.005645199213176966,-0.017386600375175476
1746739117732001500,9.56000146484375,-0.0003176135942339897,0.008795153349637985,-0.014646830037236214
1746739117742080500,9.57008056640625,-0.00024757254868745804,0.008663592860102654,-0.009485890157520771
1746739117752159500,9.580159423828125,0.0025301524437963963,0.007132452912628651,-0.0012034924002364278
1746739117762238500,9.590238525390625,-0.0010701753199100494,0.004867700859904289,0.008635289967060089
1746739117772317400,9.6003173828125,0.0006000152789056301,0.005168265197426081,0.014831876382231712
1746739117782396700,9.610396728515624,-0.002267143689095974,0.006406101863831282,0.023686353117227554
1746739117792475400,9.620475341796874,-0.0027491282671689987,0.010150203481316566,0.028554260730743408
1746739117802554600,9.6305546875,-0.0036063995212316513,0.013063700869679451,0.024636216461658478
1746739117812633600,9.640633544921876,-0.0036560073494911194,0.01171110663563013,0.019362647086381912
1746739117822712300,9.65071240234375,-0.0007694070227444172,0.009451680816709995,0.015715712681412697
1746739117832791600,9.66079150390625,-0.000989940483123064,0.008939702063798904,0.010167861357331276
1746739117842870500,9.67087060546875,-0.0012530605308711529,0.008595090359449387,0.006509477272629738
1746739117852949500,9.680949462890625,0.000054939184337854385,0.006426103878766298,0.0061853136867284775
1746739117863028500,9.691028564453125,-0.004119832068681717,0.006487090606242418,0.006615414284169674
1746739117873107500,9.701107421875,-0.003571196924895048,0.00887046754360199,0.002749259816482663
1746739117883186700,9.711186767578125,-0.004585861694067717,0.005202495958656073,-0.004101722035557032
1746739117893265400,9.721265380859375,-0.004558165092021227,0.00422325124964118,-0.0009573276620358229
1746739117903344400,9.731344482421875,-0.0077499630860984325,0.009673943743109703,-0.0003650407015811652
1746739117913423600,9.741423583984375,-0.006972925737500191,0.011242302134633064,0.004991397261619568
1746739117923502300,9.75150244140625,-0.006596354767680168,0.010930711403489113,0.015008877962827682
1746739117933581600,9.76158154296875,-0.004515141248703003,0.0070052011869847775,0.01932094246149063
1746739117943660500,9.77166064453125,-0.0030735721811652184,0.008026523515582085,0.017772048711776733
1746739117953739500,9.781739501953124,0.0000929245725274086,0.00433356361463666,0.013791901990771294
1746739117963818500,9.791818603515624,0.0004402007907629013,-0.0005322983488440514,0.0025978372432291508
1746739117973897500,9.8018974609375,0.0021238529589027166,-0.002282573375850916,-0.005831814371049404
1746739117983976700,9.811976806640626,0.0003339424729347229,0.00521342596039176,-0.011387434788048267
1746739117994055400,9.822055419921876,-0.0014542751014232635,0.00446846429258585,-0.014117348939180374
1746739118004134400,9.832134521484376,0.0004930282011628151,0.00495182815939188,-0.007527622859925032
1746739118014213600,9.842213623046876,-0.0029595158994197845,0.005435028579086065,0.005647664424031973
1746739118024292400,9.852292236328125,0.0003896751441061497,0.002039498183876276,0.016855046153068542
1746739118034371600,9.86237158203125,-0.0002533099614083767,0.0017581721767783165,0.020008031278848648
1746739118044450600,9.872450439453125,-0.0010804878547787666,0.003235694020986557,0.015128852799534798
1746739118054529500,9.882529541015625,0.001850442960858345,0.000132629182189703,0.01455525029450655
1746739118064608500,9.8926083984375,-0.0023267255164682865,-0.001966740470379591,0.0068342131562530994
1746739118074687500,9.9026875,-0.0009333109483122826,0.0024195602163672447,-0.0007999259396456182
1746739118084766500,9.912766357421875,-0.0023098993115127087,0.003409990109503269,-0.006577653810381889
1746739118094845400,9.922845458984375,0.0016934843733906746,-0.00022470299154520035,-0.009056421928107738
1746739118104924400,9.93292431640625,0.007157225627452135,-0.0010974211618304253,-0.0117177190259099
1746739118115003600,9.943003662109374,0.008251277729868889,0.00023832684382796288,-0.013478436507284641
1746739118125082400,9.953082275390624,0.007422235794365406,0.0006673624739050865,-0.013001464307308197
1746739118135161300,9.963161376953124,0.002447860548272729,0.005569444037973881,-0.0030360135715454817
1746739118145240600,9.973240478515624,-0.0007077190093696117,0.009681097231805325,0.005989438854157925
1746739118155319600,9.983319580078126,-0.0006805295124650002,0.008699309080839157,0.015977580100297928
1746739118165398500,9.9933984375,-0.00695120869204402,0.0063930111937224865,0.024623798206448555
1746739118175477500,10.0034775390625,-0.008582176640629768,0.0022368673235177994,0.027559543028473854
1746739118185556500,10.013556396484375,-0.0065621682442724705,0.0017481772229075432,0.023647893220186234
1746739118195635500,10.023635498046875,-0.003232831135392189,0.005813748110085726,0.020370176061987877
1746739118205714400,10.03371435546875,-0.00290632713586092,0.008872920647263527,0.01538953185081482
1746739118215793700,10.043793701171875,-0.0008816234767436981,0.02683664858341217,0.018848512321710587
1746739118225872600,10.05387255859375,-0.008515574038028717,0.009804935194551945,-0.0019385248888283968
1746739118235951400,10.063951416015625,0.0010390006937086582,-0.015946945175528526,-0.02642732299864292
1746739118246030600,10.074030517578125,0.009984292089939117,-0.01693151704967022,-0.03753243759274483
1746739118256109600,10.084109619140625,0.013938069343566895,-0.02564205601811409,-0.026523973792791367
1746739118266188300,10.094188232421875,0.008841312490403652,-0.021115746349096298,-0.011183368042111397
1746739118276267500,10.104267578125,-0.0003552366979420185,-0.010159178636968136,0.007764602079987526
1746739118286346500,10.114346435546874,-0.009764451533555984,0.0011651148088276386,0.03421644866466522
1746739118296425500,10.124425537109374,-0.017047058790922165,0.019734300673007965,0.06006234884262085
1746739118306504400,10.13450439453125,-0.02344450354576111,0.019329767674207687,0.06863586604595184
1746739118316583400,10.14458349609375,-0.020878087729215622,0.004367566201835871,0.052836738526821136
1746739118326662700,10.15466259765625,-0.01022091694176197,-0.003911136649549007,0.03570276126265526
1746739118336741400,10.164741455078126,-0.0005502528510987759,-0.008220159448683262,0.01598639041185379
1746739118346820600,10.174820556640626,0.004223729949444532,-0.012485744431614876,-0.0034275208599865437
1746739118356899600,10.184899658203125,0.010577717795968056,-0.013403862714767456,-0.02071385458111763
1746739118366978300,10.194978271484375,0.016334673389792442,-0.020380811765789986,-0.03298783302307129
1746739118377057500,10.2050576171875,0.01915515400469303,-0.01881548762321472,-0.04023096337914467
1746739118387136500,10.215136474609375,0.015526862815022469,-0.017140094190835953,-0.03364044055342674
1746739118397215500,10.225215576171875,0.009832249954342842,-0.007246335968375206,-0.019302556291222572
1746739118407294500,10.23529443359375,-0.004489697515964508,0.006637521553784609,-0.004531866870820522
1746739118417373400,10.24537353515625,-0.0058537195436656475,0.010917721316218376,0.006696996279060841
1746739118427452700,10.25545263671875,-0.006777836475521326,0.007063062395900488,0.013900579884648323
1746739118437531400,10.265531494140625,-0.002532202284783125,0.0031155203469097614,0.019220789894461632
1746739118447610400,10.2756103515625,-0.0020067603327333927,0.001096844207495451,0.023682117462158203
1746739118457689600,10.285689697265624,-0.0011017448268830776,0.0033544343896210194,0.023011986166238785
1746739118467768300,10.295768310546874,0.0006868341006338596,0.0027115470729768276,0.012133774347603321
1746739118477847600,10.30584765625,0.0021997035946696997,-0.0016393358819186687,-0.006055751349776983
1746739118487926500,10.315926513671876,0.004318514838814735,0.0015340866521000862,-0.012767981737852097
1746739118498005500,10.326005615234376,0.005468248855322599,0.00792829878628254,-0.015525773167610168
1746739118508084500,10.33608447265625,0.003741721622645855,0.006093114148825407,-0.019243013113737106
1746739118518163500,10.34616357421875,0.004249852616339922,0.007476093713194132,-0.01884780079126358
1746739118528242700,10.35624267578125,0.003069273428991437,0.0050835092552006245,-0.016605151817202568
1746739118538321400,10.3663212890625,0.0032815998420119286,0.004041176754981279,-0.012538583017885685
1746739118548400400,10.376400390625,0.0075413258746266365,-0.004554175306111574,-0.003685968928039074
1746739118558479600,10.386479736328125,0.0026908398140221834,-0.0020934888161718845,0.004285002127289772
1746739118568558300,10.396558349609375,0.0006633754819631577,0.0027867532335221767,0.00697878934442997
1746739118578637600,10.406637451171875,-0.0032525616697967052,0.0058797309175133705,0.0032186086755245924
1746739118588716500,10.416716552734375,-0.002938575576990843,0.006422483362257481,-0.004180984105914831
1746739118598795500,10.42679541015625,0.0002804356627166271,0.007135590072721243,-0.007856978103518486
1746739118608874500,10.43687451171875,0.0032570508774369955,0.002142163459211588,-0.020064376294612885
1746739118618953500,10.446953369140624,0.006583847105503082,-0.008460262790322304,-0.030543072149157524
1746739118629033000,10.457032958984374,0.007176666520535946,-0.00723547488451004,-0.027066048234701157
1746739118639111700,10.467111572265624,0.0012669186107814312,-0.004324877168983221,-0.008124393410980701
1746739118649191000,10.47719091796875,-0.0007408387027680874,-0.0023525399155914783,0.010800029151141644
1746739118659270000,10.487269775390626,-0.0065021272748708725,0.0029069622978568077,0.025283651426434517
1746739118669348600,10.4973486328125,-0.007998557761311531,0.0035365335643291473,0.030204907059669495
1746739118679427800,10.507427734375,-0.005815273616462946,0.00588550278916955,0.028713282197713852
1746739118689506800,10.5175068359375,-0.004963861312717199,0.005569385830312967,0.020736848935484886
1746739118699585800,10.527585693359375,-0.0012907073833048344,-0.00021111033856868744,0.010662052780389786
1746739118709664800,10.537664794921875,0.00007389625534415245,-0.004812519997358322,0.0016571064479649067
1746739118719743700,10.54774365234375,0.0002252110280096531,-0.002991489600390196,-0.006731404922902584
1746739118729823000,10.557822998046875,-0.0014275466091930866,-0.002450601663440466,-0.01390090025961399
1746739118739901700,10.567901611328125,0.0011396445333957672,-0.006783707533031702,-0.014085071161389351
1746739118749981000,10.57798095703125,-0.000635884702205658,-0.00862475112080574,-0.0165474284440279
1746739118760060000,10.588059814453125,0.005790757481008768,-0.011395865119993687,-0.01454280037432909
1746739118770138600,10.598138671875,0.006057340186089277,-0.0028138281777501106,-0.0106932008638978
1746739118780217900,10.6082177734375,0.0019319099374115467,0.00245073763653636,0.0020281095057725906
1746739118790296800,10.618296875,0.00032655661925673485,0.007890509441494942,0.01940470188856125
1746739118800376000,10.6283759765625,-0.00002849055454134941,0.009746504947543144,0.02714979462325573
1746739118810454800,10.638454833984374,0.002103103557601571,0.007130481768399477,0.032003406435251236
1746739118820533800,10.64853369140625,-0.0009539639577269554,0.005363728851079941,0.024310000240802765
1746739118830613000,10.658613037109374,0.0012905481271445751,0.01218568254262209,0.017213474959135056
1746739118840691700,10.668691650390626,0.0009928066283464432,0.003179882187396288,0.013159400783479214
1746739118850770700,10.678770751953126,0.00156059255823493,0.0020642834715545177,0.008160914294421673
1746739118860850000,10.688849853515626,-0.0031809485517442226,-0.0009431373327970505,0.0020660373847931623
1746739118870928600,10.6989287109375,0.001749095506966114,-0.0019133267924189568,-0.006851824000477791
1746739118881007900,10.7090078125,0.0026016966439783573,-0.003394149011000991,-0.016297580674290657
1746739118891086800,10.7190869140625,0.0023910405579954386,-0.0030503347516059875,-0.020439328625798225
1746739118901165800,10.729165771484375,0.003749832510948181,0.00042238831520080566,-0.023197120055556297
1746739118911244800,10.739244873046875,0.0055426727049052715,-0.00241041649132967,-0.019695064052939415
1746739118921323800,10.74932373046875,0.004916805773973465,-0.00067947618663311,-0.0077422200702130795
1746739118931403000,10.759403076171875,0.0034408820793032646,-0.002080831676721573,0.002907761372625828
1746739118941481700,10.769481689453125,-0.00153722008690238,0.0006679249927401543,0.008429349400103092
1746739118951560700,10.779560791015625,-0.0000802045688033104,0.004126305691897869,0.011848848313093185
1746739118961640000,10.789639892578125,-0.0021102596074342728,0.003748381044715643,0.012717283330857754
1746739118971719000,10.799718994140624,-0.002144348341971636,-0.0031079272739589214,0.01615302637219429
1746739118981798000,10.8097978515625,-0.0028788968920707703,-0.0018423073925077915,0.010916486382484436
1746739118991876900,10.819876953125,-0.000777130015194416,0.000700212549418211,0.006915886886417866
1746739119001955800,10.829955810546876,-0.0011356151662766933,-0.0029547731392085552,0.004304646048694849
1746739119012034800,10.840034912109376,0.001152039971202612,-0.0035361414775252342,0.0002920611295849085
1746739119022113800,10.85011376953125,0.0010862108319997787,-0.005041324533522129,-0.0007310365908779204
1746739119032193000,10.860193115234376,0.00009977631270885468,-0.0015728236176073551,-0.005920206196606159
1746739119042271700,10.870271728515625,-0.0009401645511388779,-0.0023663309402763844,-0.009781301021575928
1746739119052350700,10.880350830078125,-0.0016150092706084251,-0.0019016088917851448,-0.00891896989196539
1746739119062430000,10.890429931640625,0.0012453231029212475,-0.00017658574506640434,-0.008664172142744064
1746739119072509000,10.900509033203125,-0.0009853406809270382,0.0017214496619999409,-0.00947883352637291
1746739119082587600,10.910587646484375,0.002753328764811158,0.0014736764132976532,-0.010263461619615555
1746739119092667000,10.9206669921875,0.004389574751257896,-0.004118962213397026,-0.009638683870434761
1746739119102745900,10.930745849609375,0.002463938668370247,-0.0061556086875498295,-0.00526722427457571
1746739119112824800,10.940824951171875,0.0029419760685414076,-0.0036839288659393787,0.003513484261929989
1746739119122903800,10.95090380859375,-0.0019778767600655556,0.0008890596218407154,0.006367464084178209
1746739119132982800,10.960982666015624,-0.0035672513768076897,0.0011085043661296368,0.004094189964234829
1746739119143061800,10.971061767578124,0.00019523873925209045,0.0003411327488720417,0.0052404580637812614
1746739119153140700,10.981140625,0.0029422894585877657,-0.001299640629440546,0.0004387788358144462
1746739119163220000,10.991219970703124,0.0023682096507400274,-0.00026437360793352127,-0.007752906996756792
1746739119173299000,11.001298828125,0.005172251723706722,-0.0013677212409675121,-0.006023982539772987
1746739119183377700,11.011377685546876,0.002687448635697365,0.000662690494209528,-0.003109128214418888
1746739119193457000,11.021456787109376,-0.0005618738941848278,0.004326934460550547,0.0016246405430138111
1746739119203536000,11.031535888671876,-0.0017626932822167873,0.006273172330111265,0.004789008758962154
1746739119213614800,11.04161474609375,-0.0006106100045144558,0.005896335002034903,0.01348742563277483
1746739119223693800,11.05169384765625,-0.0008402960374951363,0.0011469111777842045,0.008470140397548676
1746739119233772800,11.061772705078125,0.0011757169850170612,-0.003985798917710781,0.0037408992648124695
1746739119243851000,11.07185107421875,0.0012605050578713417,-0.008226033300161362,-0.002382256556302309
1746739119253930800,11.0819306640625,0.004888529423624277,-0.007347723003476858,0.0002063359133899212
1746739119264009700,11.092009765625,0.0007840399630367756,-0.0034939327742904425,0.0007765109185129404
1746739119274089000,11.1020888671875,-0.001996300183236599,0.0013716625981032848,0.005831190850585699
1746739119284167700,11.112167724609375,-0.0014076214283704758,0.0008491412736475468,-0.0015371418558061123
1746739119294247000,11.122246826171875,0.000498402863740921,0.0013870992697775364,-0.013739479705691338
1746739119304326000,11.132325927734374,0.0027053658850491047,0.001289314590394497,-0.018825532868504524
1746739119314404600,11.142404541015624,0.0059384433552622795,-0.006467142142355442,-0.022554224357008934
1746739119324483800,11.15248388671875,0.005754711106419563,-0.012652795761823654,-0.014624654315412045
1746739119334562800,11.162562744140626,0.0024052534718066454,-0.008523831143975258,-0.003235379233956337
1746739119344642000,11.17264208984375,-0.0025217183865606785,0.001065779011696577,0.003847358515486121
1746739119354720800,11.182720703125,-0.004314824473112822,0.00685868738219142,0.005102772731333971
1746739119364799700,11.1927998046875,-0.0031092604622244835,0.007528557907789946,0.016203127801418304
1746739119374879000,11.20287890625,-0.004416606388986111,0.0036459355615079403,0.02033901773393154
1746739119384957700,11.212957763671875,-0.0005224575288593769,-0.0012108893133699894,0.018485965207219124
1746739119395037000,11.223036865234375,0.0007262984290719032,0.006032642442733049,0.006640756968408823
1746739119405116000,11.233115966796875,-0.00021880818530917168,0.0030373018234968185,-0.0029218902345746756
1746739119415194600,11.243194580078125,0.004382601473480463,-0.004049103707075119,-0.005155483260750771
1746739119425273900,11.25327392578125,0.006454321090131998,-0.012113995850086212,-0.008366541936993599
1746739119435352800,11.263352783203125,0.008181114681065083,-0.01042129099369049,-0.00879531167447567
1746739119445432000,11.27343212890625,0.005759671330451965,-0.006035159341990948,-0.00919258687645197
1746739119455510800,11.2835107421875,-0.0007336479611694813,0.00185019476339221,-0.0072633931413292885
1746739119465589800,11.29358984375,-0.0026627192273736,0.009802024811506271,-0.0068120467476546764
1746739119475669000,11.3036689453125,0.001630829181522131,0.005331109743565321,0.005824918858706951
1746739119485747700,11.313747802734374,0.0010068975389003754,0.001123274676501751,0.02555699273943901
1746739119495826700,11.32382666015625,0.0030932179652154446,0.0026561906561255455,0.04190667346119881
1746739119505906000,11.333906005859374,0.002558408072218299,0.006305028218775988,0.04600030183792114
1746739119515985000,11.34398486328125,0.00014212215319275856,0.004183553624898195,0.033500488847494125
1746739119526063900,11.35406396484375,-0.0008638515137135983,0.003885448444634676,0.023635411635041237
1746739119536142800,11.364142822265626,-0.0011245748028159142,0.006370709743350744,0.013093819841742516
1746739119546221800,11.374221923828125,-0.0012376145459711552,-0.0004810132086277008,0.005318566225469112
1746739119556300800,11.38430078125,0.0020433999598026276,-0.008913113735616207,-0.002726044273003936
1746739119566379800,11.3943798828125,0.002800730289891362,-0.009774409234523773,-0.010656061582267284
1746739119576457700,11.404457763671875,-0.00019559217616915703,-0.0009686672128736973,-0.011730647645890713
1746739119586537700,11.414537841796875,-0.001973808277398348,-0.0014641275629401207,-0.006427717860788107
1746739119596616700,11.42461669921875,-0.0002371608279645443,-0.006663683336228132,-0.005713990423828363
1746739119606696000,11.434696044921875,0.0002600261941552162,-0.0008298303000628948,0.0011926422594115138
1746739119616775000,11.44477490234375,-0.00048699043691158295,0.0013765986077487469,0.006124550476670265
1746739119626854000,11.45485400390625,0.0004106885753571987,-0.001031992956995964,0.012417943216860294
1746739119636932600,11.4649326171875,-0.0001107584685087204,-0.00488691870123148,0.014734894037246704
1746739119647011600,11.475011474609374,0.000997214112430811,-0.0030846609733998775,0.011482838541269302
1746739119657090600,11.485090576171874,-0.0009671333245933056,-0.0034606994595378637,0.003818528028205037
1746739119667169500,11.49516943359375,0.0007917140610516071,-0.002347356639802456,-0.001885550795122981
1746739119677248500,11.50524853515625,-0.0021521439775824547,0.0027890820056200027,-0.00955918338149786
1746739119687327700,11.51532763671875,-0.000730208121240139,0.000574914738535881,-0.011287068016827106
1746739119697406500,11.525406494140626,-0.0007248814217746258,-0.0023763999342918396,-0.014248503372073174
1746739119707485700,11.535485595703125,0.001796166179701686,-0.006634427700191736,-0.01046608667820692
1746739119717564700,11.545564697265625,0.0011876337230205536,-0.003289231099188328,-0.003174351528286934
1746739119727643400,11.555643310546875,0.0035976951476186514,-0.008649209514260292,0.004354209639132023
1746739119737722600,11.56572265625,0.0005592945963144302,-0.006545312236994505,0.01360336784273386
1746739119747801600,11.575801513671875,-0.0014401301741600037,-0.0014496282674372196,0.01430721115320921
1746739119757880600,11.585880615234375,-0.0006190775893628597,0.0007719807326793671,0.007651705294847488
1746739119767959600,11.59595947265625,-0.0026909252628684044,0.0028118714690208435,0.004612871911376715
1746739119778038500,11.60603857421875,-0.003060571849346161,0.00324197206646204,-0.0027366538997739553
1746739119788117800,11.61611767578125,-0.002828949596732855,-0.0014958195388317108,-0.0073425136506557465
1746739119798196500,11.626196533203125,0.00045579345896840096,-0.0031573656015098095,-0.016555452719330788
1746739119808275500,11.636275390625,0.001423490233719349,-0.004669914022088051,-0.025581851601600647
1746739119818354700,11.646354736328124,0.0020155110396444798,-0.004952209535986185,-0.02733447775244713
1746739119828433400,11.656433349609374,0.0024977840948849916,-0.0049767810851335526,-0.02801891788840294
1746739119838512600,11.6665126953125,0.0021814005449414253,-0.006068410351872444,-0.02501087822020054
1746739119848591600,11.676591552734376,0.003983587026596069,-0.004126097075641155,-0.012215712107717991
1746739119858670600,11.686670654296876,-0.002460197079926729,0.0024971850216388702,-0.009760278277099133
1746739119868749600,11.69674951171875,-0.0031659603118896484,0.002691791858524084,-0.006652642972767353
1746739119878828500,11.70682861328125,-0.0036559822037816048,0.0002400856465101242,-0.0028941240161657333
1746739119888907800,11.71690771484375,-0.0016432865522801876,0.0025546951219439507,-0.004361147526651621
1746739119898986500,11.726986572265625,-0.0014382232911884785,0.004303859546780586,-0.006739084143191576
1746739119909065500,11.7370654296875,0.00037178583443164825,0.0026499396190047264,-0.004328719340264797
1746739119919144700,11.747144775390625,0.000022112857550382614,0.0026089269667863846,0.0010764324106276035
1746739119929223400,11.757223388671875,0.002524513751268387,-0.0006743459962308407,0.0025495742447674274
1746739119939302700,11.767302734375,0.000910638365894556,-0.0014898059889674187,-0.0018441088031977415
1746739119949381600,11.777381591796875,-0.00023895269259810448,-0.005411437246948481,-0.008121564984321594
1746739119959460600,11.787460693359375,-0.0017066211439669132,-0.0038761247415095568,-0.008154056966304779
1746739119969539600,11.79753955078125,-0.001979157794266939,-0.0013278857804834843,-0.004793026950210333
