time,seconds_elapsed,z,y,x
1746728839597648400,0.0156484375,-0.00038279546424746513,0.0014945301227271557,0.0020610515493899584
1746728839607666400,0.02566650390625,-0.0015114429406821728,0.0021440754644572735,-0.0010801467578858137
1746728839617684500,0.0356845703125,0.00021184328943490982,0.0006828056648373604,0.0034705286379903555
1746728839627702500,0.04570263671875,-0.00141108687967062,0.0013975980691611767,0.0015160347102209926
1746728839637720600,0.055720458984375,0.000932241789996624,0.0014411122538149357,-0.0005941432900726795
1746728839647738400,0.06573828125,0.00026591913774609566,0.00047758035361766815,-0.00015498814173042774
1746728839657756700,0.075756591796875,-0.00032937200739979744,-0.0008820248767733574,0.002224669326096773
1746728839667774500,0.0857744140625,-0.0010689320042729378,0.0019017774611711502,-0.004597283899784088
1746728839677791200,0.095791259765625,0.0021775271743535995,0.0019658412784337997,0.00028732954524457455
1746728839687809500,0.1058095703125,-0.0008986904285848141,-0.00014418130740523338,-0.001083133276551962
1746728839697827600,0.11582763671875,0.00008952617645263672,0.00032506929710507393,-0.0011250493116676807
1746728839707845400,0.125845458984375,-0.0035656625404953957,0.0010284101590514183,0.002308031776919961
1746728839717863700,0.13586376953125,0.0009148586541414261,-0.001825573854148388,-0.0008603434544056654
1746728839727881500,0.145881591796875,0.0008291052654385567,-0.00003699492663145065,0.0016648658784106374
1746728839737899500,0.1558994140625,-0.002965419553220272,0.001248002052307129,-0.001512809656560421
1746728839747917300,0.165917236328125,-0.0012229136191308498,0.0003976547159254551,-0.0016307877376675606
1746728839757934600,0.1759345703125,0.0009039617143571377,0.0015852265059947968,0.0009388441685587168
1746728839767952400,0.185952392578125,0.00034576281905174255,0.0012954743579030037,-0.0009994045831263065
1746728839777970400,0.195970458984375,-0.001429717056453228,0.0008767340332269669,-0.0005155489780008793
1746728839787988500,0.205988525390625,-0.0010829735547304153,0.0013395915739238262,-0.0006865239702165127
1746728839798006500,0.216006591796875,0.0008679814636707306,-0.003731529228389263,-0.00033359997905790806
1746728839808024300,0.2260244140625,-0.00012537743896245956,0.0006584255024790764,0.00018198811449110508
1746728839818042600,0.236042724609375,0.0008234973065555096,0.0016420125029981136,-0.0015886579640209675
1746728839828060400,0.246060302734375,0.0016014068387448788,-0.00010901596397161484,-0.0018917256966233253
1746728839838078500,0.256078369140625,-0.00028400029987096786,-0.0006866096518933773,-0.002109528286382556
1746728839848095500,0.266095458984375,-0.0015924116596579552,0.000009008217602968216,-0.0014242969918996096
1746728839858113500,0.276113525390625,0.0002637435682117939,0.0004858803004026413,-0.0011480262037366629
1746728839868131300,0.28613134765625,-0.0020119273103773594,0.00198151171207428,-0.0015051562804728746
1746728839878149600,0.296149658203125,0.0021576285362243652,-0.0005880300886929035,-0.00229576020501554
1746728839888167400,0.30616748046875,0.0005773087032139301,-0.00010653026401996613,-0.0015961478929966688
1746728839898185500,0.316185546875,0.0025929883122444153,0.001397394109517336,0.000785294221714139
1746728839908203300,0.326203369140625,-0.0002089235931634903,0.0022200443781912327,0.001522723468951881
1746728839918221600,0.3362216796875,0.0008962550200521946,0.0013063149526715279,-0.0009951239917427301
1746728839928239600,0.346239501953125,-0.00028032949194312096,0.001231746282428503,0.0014962630812078714
1746728839938256400,0.35625634765625,0.00011100759729743004,0.0011630072258412838,0.0022419921588152647
1746728839948274400,0.3662744140625,-0.00010098004713654518,-0.0005368883721530437,0.00020174449309706688
1746728839958292500,0.37629248046875,0.001280244905501604,0.00427377549931407,0.0012173468712717295
1746728839968310300,0.386310302734375,-0.0005821036174893379,-0.0013960939832031727,-0.002051417250186205
1746728839978328600,0.39632861328125,0.0003124577924609184,-0.0002483152784407139,0.0008452667389065027
1746728839988346600,0.4063466796875,-0.001756818499416113,0.0009173499420285225,0.0006676339544355869
1746728839998364400,0.416364501953125,0.002160895150154829,0.0006326464936137199,-0.0015880432911217213
1746728840008382500,0.426382568359375,0.0007560779340565205,0.0007221284322440624,-0.0026421225629746914
1746728840018399500,0.4363994140625,0.0004765428602695465,-0.000124435406178236,0.0004926887340843678
1746728840028417500,0.44641748046875,-0.0010795420967042446,0.000977847259491682,0.0021190810948610306
1746728840038435600,0.456435546875,-0.0014513800852000713,-0.00043942034244537354,0.0012160955229774117
1746728840048453600,0.46645361328125,-0.000986392144113779,0.000776312779635191,0.004531464539468288
1746728840058471400,0.476471435546875,-0.0013715247623622417,0.0029197665862739086,-0.002851856406778097
1746728840068489500,0.486489501953125,-0.0016977619379758835,-0.0005226354114711285,0.001707209157757461
1746728840078507500,0.496507568359375,0.0019585215486586094,-0.002803380135446787,-0.0018084426410496235
1746728840088525600,0.506525634765625,-0.0002710768021643162,0.0005042660050094128,-0.0014949883334338665
1746728840098543400,0.51654345703125,-0.0003101392649114132,-0.0015805666334927082,-0.00048687984235584736
1746728840108560600,0.526560546875,0.0020177296828478575,0.0019776825793087482,-0.001795290969312191
1746728840118578400,0.536578369140625,-0.002644409891217947,0.0027271220460534096,0.0010130451992154121
1746728840128596500,0.546596435546875,-0.0027043307200074196,0.0011004633270204067,0.0013464728835970163
1746728840138614500,0.556614501953125,0.0006454209797084332,-0.00013731280341744423,-0.001936472486704588
1746728840148632600,0.566632568359375,-0.0005428814329206944,-0.0012680906802415848,-0.00039876322261989117
1746728840158650400,0.576650390625,-0.0010067019611597061,-0.00039286352694034576,0.0010633483761921525
1746728840168668400,0.58666845703125,-0.0006855246610939503,-0.00048740580677986145,0.000594898359850049
1746728840178686500,0.5966865234375,0.002644607098773122,-0.001780954422429204,0.0003187574911862612
1746728840188703500,0.606703369140625,-0.000706980936229229,-0.000002229120582342148,0.0013051923597231507
1746728840198721500,0.616721435546875,-0.0004097921773791313,-0.0016291993670165539,0.00008839438669383526
1746728840208739600,0.626739501953125,0.0002735750749707222,-0.0009109447710216045,-0.0016660962719470263
1746728840218757400,0.63675732421875,0.0004355544224381447,0.0008916468359529972,-0.00022868788801133633
1746728840228775400,0.646775390625,0.003140260698273778,0.0032237768173217773,0.0017332627903670073
1746728840238793500,0.65679345703125,0.000977810239419341,0.0015106583014130592,0.0003935876302421093
1746728840248811500,0.6668115234375,-0.0018422110006213188,-0.0008217380382120609,0.0006266140844672918
1746728840258829300,0.676829345703125,-0.00028770044445991516,0.0006633740849792957,-0.0014581005088984966
1746728840268847400,0.686847412109375,-0.00026399828493595123,0.001874845940619707,0.001116377068683505
1746728840278864400,0.696864501953125,0.001071675680577755,-0.00009881565347313881,0.00012960517778992653
1746728840288882400,0.70688232421875,0.0007251985371112823,-0.000790704507380724,0.0022588022984564304
1746728840298900500,0.716900390625,0.0010493290610611439,-0.0026484790723770857,0.0002726903185248375
1746728840308918500,0.72691845703125,-0.00012885360047221184,0.0011212253011763096,-0.0005022895056754351
1746728840318936600,0.7369365234375,-0.0018795914947986603,-0.0013831201940774918,0.002853905549272895
1746728840328954400,0.746954345703125,-0.0010028788819909096,-0.0017029661685228348,0.0022901142947375774
1746728840338972700,0.75697265625,0.0028415329288691282,-0.0001180386170744896,-0.00042292545549571514
1746728840348990500,0.766990478515625,-0.0005939449183642864,-0.0002535935491323471,-0.0002681957557797432
1746728840359008500,0.777008544921875,0.0019385800696909428,-0.0008142953738570213,-0.00018848618492484093
1746728840369025500,0.787025634765625,0.0005175173282623291,-0.0006177537143230438,0.0008895613718777895
1746728840379043600,0.797043701171875,0.001217320328578353,0.001167086884379387,-0.0013921044301241636
1746728840389061400,0.807061279296875,-0.0020479816012084484,-0.0011770273558795452,0.0012803777353838086
1746728840399079700,0.81707958984375,0.0010587489232420921,0.0005353833548724651,0.0016787585336714983
1746728840409097500,0.827097412109375,0.0008853771723806858,0.00022219587117433548,-0.0024235749151557684
1746728840419115500,0.837115478515625,0.0014697262085974216,-0.0002642059698700905,-0.0005085810553282499
1746728840429133300,0.84713330078125,-0.0012616119347512722,-0.0008303942158818245,0.001219011377543211
1746728840439151600,0.857151611328125,0.0016654583159834146,0.001182050909847021,0.0006702367682009935
1746728840449169400,0.86716943359375,-0.0018581701442599297,0.0022246786393225193,-0.0008347155526280403
1746728840459186400,0.8771865234375,-0.00028165243566036224,0.0027806651778519154,-0.0014498615637421608
1746728840469204500,0.88720458984375,-0.00009363330900669098,0.00015425542369484901,-0.0009507853537797928
1746728840479222500,0.897222412109375,0.0003232969902455807,-0.0007449383847415447,-0.0023553671780973673
1746728840489240300,0.907240234375,-0.0008285203948616982,-0.000618970487266779,-0.0006799725815653801
1746728840499258600,0.917258544921875,-0.0002702423371374607,-0.0007101749069988728,-0.00015363353304564953
1746728840509276400,0.9272763671875,-0.00280850101262331,-0.0004984536208212376,0.002417914802208543
1746728840519294500,0.93729443359375,0.0004865000955760479,0.001154324971139431,0.003380204550921917
1746728840529312300,0.947312255859375,0.0008678650483489037,0.0003306092694401741,0.0014267760561779141
1746728840539330600,0.95733056640625,-0.002872995100915432,0.000035855453461408615,-0.0006369417533278465
1746728840549347300,0.967347412109375,-0.0006955945864319801,0.002718723379075527,-0.0012135158758610487
1746728840559365600,0.97736572265625,-0.0006605745293200016,0.0031985966488718987,0.001457952312193811
1746728840569383400,0.987383544921875,-0.00007174955680966377,0.0010574148036539555,-0.0003023971803486347
1746728840579402000,0.997402099609375,0.0002926778979599476,-0.0005570682696998119,0.0005506635643541813
1746728840589419800,1.007419677734375,-0.0023885928094387054,0.0011769160628318787,0.0006779627874493599
1746728840599438000,1.01743798828125,-0.0020150644704699516,-0.0022272542119026184,-0.0007312465459108353
1746728840609455900,1.027455810546875,0.0006427699699997902,-0.0010551968589425087,0.0012538738083094358
1746728840619474000,1.037473876953125,-0.0008761836215853691,0.0019360124133527279,0.0014417467173188925
1746728840629491000,1.047490966796875,-0.0012138723395764828,-0.0005961214192211628,0.0012550590327009559
1746728840639509000,1.057509033203125,-0.001967464108020067,-0.0005687903612852097,0.0003213935997337103
1746728840649526800,1.06752685546875,-0.0003543873317539692,0.00013614818453788757,-0.00005837320350110531
1746728840659544800,1.077544921875,-0.0007656039670109749,-0.0008290354162454605,0.0010541772935539484
1746728840669563000,1.08756298828125,-0.00009794952347874641,0.0012165387161076069,0.0006286040879786015
1746728840679581000,1.097580810546875,-0.001219011377543211,-0.00017855549231171608,-0.0003020970616489649
1746728840689599000,1.107598876953125,-0.0009164758957922459,-0.0020491599570959806,0.002577579114586115
1746728840699617000,1.117616943359375,-0.000756449531763792,0.00224481662735343,-0.0025708142202347517
1746728840709635000,1.127635009765625,0.0016632985789328814,-0.00007426459342241287,-0.0002975398674607277
1746728840719651800,1.13765185546875,0.0014723443891853094,0.0003188718110322952,-0.0014828946441411972
1746728840729670100,1.147670166015625,0.001048369100317359,0.0000578821636736393,0.0015232814475893974
1746728840739688000,1.15768798828125,-0.002013328019529581,-0.0009746723808348179,0.0006851970683783293
1746728840749706000,1.1677060546875,-0.00013526668772101402,-0.0019789505749940872,-0.0009614354930818081
1746728840759723800,1.177723876953125,-0.001088365912437439,-0.00183167215436697,-0.000003191642463207245
1746728840769742000,1.1877421875,-0.0017959680408239365,-0.00047612329944968224,0.0000772357452660799
1746728840779759900,1.197759765625,-0.00020098965615034103,0.0007873340509831905,-0.0005636755377054214
1746728840789778000,1.20777783203125,-0.000997541006654501,-0.0006454465910792351,-0.0011517016682773829
1746728840799795000,1.217794921875,0.0011270276736468077,0.0011852900497615337,-0.001240104204043746
1746728840809813000,1.22781298828125,0.0009635095484554768,0.003007691353559494,0.0011740511981770396
1746728840819830800,1.237830810546875,-0.0015310673043131828,0.0029800222255289555,-0.0008708371315151453
1746728840829849000,1.24784912109375,0.0006652418524026871,0.0022567068226635456,-0.00013287528418004513
1746728840839867000,1.257866943359375,0.0021566704381257296,0.0010805116035044193,0.0015402004355564713
1746728840849885000,1.267885009765625,0.002958015538752079,-0.00024228030815720558,-0.00036715553142130375
1746728840859903000,1.277903076171875,0.0017921165563166142,-0.00036789989098906517,-0.00346131413243711
1746728840869921000,1.287921142578125,-0.0019877078011631966,0.0021999203599989414,0.0021723369136452675
1746728840879938800,1.297938720703125,0.0001818533055484295,-0.0019428383093327284,0.00016335537657141685
1746728840889956000,1.3079560546875,0.0011781419161707163,0.0006228508427739143,0.0002166186459362507
1746728840899974000,1.317973876953125,-0.0004996047355234623,0.0005961284041404724,0.001303019467741251
1746728840909992000,1.327991943359375,0.002771289786323905,0.0001460541971027851,0.00008808542042970657
1746728840920009700,1.338009765625,-0.0001302296295762062,0.00026898225769400597,-0.00018004677258431911
1746728840930028000,1.348028076171875,0.0012852402869611979,0.0022421185858547688,0.0011629854561761022
1746728840940045800,1.3580458984375,-0.000777391716837883,0.0011796602047979832,-0.001378574874252081
1746728840950063900,1.36806396484375,0.0003264886327087879,0.0004398343153297901,-0.0012006754986941814
1746728840960082000,1.37808203125,-0.00026953546330332756,0.0002827928401529789,-0.00010968721471726894
1746728840970100000,1.388099853515625,-0.002992084715515375,-0.0009625013917684555,-0.0000761314295232296
1746728840980116700,1.39811669921875,-0.0004459400661289692,0.0009620832279324532,-0.00043976097367703915
1746728840990135000,1.408135009765625,0.0015279946383088827,-0.0000954577699303627,-0.000895428005605936
1746728841000152800,1.41815283203125,-0.0029531274922192097,0.000475157517939806,-0.0009223909582942724
1746728841010171000,1.4281708984375,-0.0007221978157758713,0.00002082204446196556,-0.003536549862474203
1746728841020189000,1.43818896484375,0.0008663996122777462,0.0009239991195499897,-0.0008664261549711227
1746728841030207000,1.44820703125,-0.00016371114179491997,0.001864627469331026,-0.0014350111596286297
1746728841040225000,1.45822509765625,-0.000797513872385025,0.0016804588958621025,-0.0006016294937580824
1746728841050242800,1.468242919921875,-0.001592467539012432,0.0010913675650954247,-0.0017007160931825638
1746728841060259800,1.478259765625,-0.000030125025659799576,-0.0016776444390416145,-0.0007696547545492649
1746728841070278000,1.48827783203125,0.0018340880051255226,-0.0005793566815555096,0.0010298432316631079
1746728841080296000,1.4982958984375,0.000017264392226934433,-0.00188931985758245,0.00013479497283697128
1746728841090314000,1.50831396484375,-0.0015345597639679909,0.0003160438500344753,-0.0004044952802360058
1746728841100332000,1.51833203125,-0.0014901217073202133,0.0005405633710324764,-0.00006003677845001221
1746728841110349800,1.528349853515625,0.00006276741623878479,0.0024210214614868164,-0.00017668306827545166
1746728841120368000,1.5383681640625,0.0013153296895325184,-0.00119696743786335,0.002679770113900304
1746728841130386000,1.548385986328125,-0.0022847312502563,0.0008834940381348133,-0.0039533646777272224
1746728841140404000,1.558404052734375,-0.0012008273042738438,0.0017112670466303825,0.0012022688752040267
1746728841150421000,1.5684208984375,-0.0008322461508214474,0.00037462636828422546,0.0003505898639559746
1746728841160439000,1.57843896484375,0.0005942019633948803,-0.0016535990871489048,0.0005904943682253361
1746728841170456800,1.588456787109375,-0.0008785263635218143,0.0014082370325922966,0.0007193915080279112
1746728841180475000,1.598474853515625,0.0014190943911671638,0.00034445617347955704,-0.002947357716038823
1746728841190493000,1.608492919921875,-0.00011462019756436348,-0.0012012426741421223,0.0011685575591400266
1746728841200511000,1.618510986328125,-0.0004081721417605877,0.0011359937489032745,0.0035026734694838524
1746728841210528800,1.62852880859375,0.0018501882441341877,-0.00036469707265496254,-0.0016076662577688694
1746728841220547000,1.638547119140625,-0.00023516500368714333,-0.0003766976296901703,-0.00041665323078632355
1746728841230563800,1.648563720703125,0.0014618013519793749,0.0009650029242038727,0.0012366371229290962
1746728841240582000,1.658581787109375,-0.0004992266185581684,0.0007438221946358681,0.0003440415021032095
1746728841250600000,1.668599853515625,0.0009093191474676132,-0.0015038861893117428,0.0013818754814565182
1746728841260618000,1.678617919921875,-0.00004512770101428032,-0.0004996447823941708,0.0009214321617037058
1746728841270635800,1.6886357421875,0.0030047246254980564,-0.0012099100276827812,0.001210385118611157
1746728841280654000,1.698654052734375,0.0010982505045831203,0.0004576388746500015,0.00043474650010466576
1746728841290671900,1.708671875,0.0021973371040076017,-0.001546123530715704,-0.00048271240666508675
1746728841300690000,1.71868994140625,0.0006615924648940563,0.0014088964089751244,-0.0005597288254648447
1746728841310708000,1.7287080078125,0.001972400350496173,0.0012999731115996838,0.0005337651818990707
1746728841320725000,1.73872509765625,0.0008023316040635109,0.0008112117648124695,-0.001282090088352561
1746728841330742800,1.74874267578125,0.00010857777670025826,-0.0009267674759030342,0.00010861270129680634
1746728841340760800,1.7587607421875,0.00035308394581079483,-0.0006876620464026928,-0.0020121384877711535
1746728841350779000,1.76877880859375,-0.0009172437712550163,-0.0007009780965745449,0.0010643450077623129
1746728841360797000,1.778796875,0.0005753803998231888,0.0006240801885724068,0.0001442236825823784
1746728841370815000,1.78881494140625,0.0014419732615351677,0.0008595036342740059,-0.0018278472125530243
1746728841380833000,1.7988330078125,-0.0005440297536551952,-0.0012297416105866432,0.0009950683452188969
1746728841390851000,1.80885107421875,0.0010381543543189764,-0.002632694784551859,-0.0011253405828028917
1746728841400868900,1.818868896484375,0.0012050392106175423,-0.000540146604180336,0.00014624721370637417
1746728841410886000,1.828885986328125,0.0014841384254395962,0.0020356629975140095,0.0013665076112374663
1746728841420904000,1.838904052734375,0.00047172000631690025,0.0032782787457108498,-0.0009337279479950666
1746728841430922000,1.848921875,-0.00240236334502697,-0.0008304459042847157,0.002765935380011797
1746728841440939800,1.858939697265625,-0.00034695956856012344,0.0009992043487727642,-0.00044684833846986294
1746728841450958000,1.8689580078125,0.0027329858858138323,0.0010721753351390362,-0.001810120651498437
1746728841460975900,1.878975830078125,0.0006533828563988209,0.0010393247939646244,0.000994016183540225
1746728841470994000,1.888993896484375,0.0010243614669889212,0.0007562311366200447,0.0012494133552536368
1746728841481012000,1.899011962890625,0.00036505749449133873,-0.0018512101378291845,0.0012501270975917578
1746728841491029000,1.909029052734375,0.00280158338136971,0.00030142301693558693,-0.0006439131684601307
1746728841501046800,1.919046875,0.0013317877892404795,0.0012504965998232365,-0.0006493187975138426
1746728841511065000,1.929065185546875,0.0011959667317569256,-0.0008499384857714176,-0.0007063103839755058
1746728841521083000,1.939082763671875,-0.000783250667154789,0.0007614814676344395,-0.0007351234089583158
1746728841531101000,1.949100830078125,-0.0001685931347310543,-0.0008121803402900696,0.0012960695894435048
1746728841541119000,1.959118896484375,-0.00006657280027866364,0.0015195836313068867,0.0009859933052212
1746728841551137000,1.969136962890625,-0.0011968179605901241,0.0011376864276826382,0.0011513754725456238
1746728841561154800,1.97915478515625,0.000907848821952939,0.0006430638022720814,0.002380654914304614
1746728841571172900,1.9891728515625,0.0010207670275121927,0.00020470749586820602,-0.00025134719908237457
1746728841581190000,1.99918994140625,-0.001279026735574007,0.0038844849914312363,-0.0007464757654815912
1746728841591208000,2.0092080078125,-0.0004161624237895012,-0.00026685046032071114,0.00014541670680046082
1746728841601225700,2.019225830078125,-0.0004347716458141804,0.0020006787963211536,-0.0029170948546379805
1746728841611244000,2.029244140625,-0.0027754236944019794,0.0014736391603946686,0.0003764366265386343
1746728841621262000,2.039261962890625,0.0018227400723844767,-0.0008757761679589748,0.00018465076573193073
1746728841631279900,2.04927978515625,-0.0009307023137807846,0.0016475692391395569,0.0023918787483125925
1746728841641298200,2.059298095703125,-0.0010037650354206562,0.0008207685314118862,0.0000010924413800239563
1746728841651316000,2.06931591796875,0.00039386190474033356,-0.0010311934165656567,-0.002750752028077841
1746728841661333000,2.0793330078125,-0.0012689321301877499,0.0008397097699344158,0.0029978982638567686
1746728841671351000,2.08935107421875,0.0004373551346361637,0.0003936304710805416,-0.0004165405407547951
1746728841681369000,2.099369140625,0.0010286911856383085,0.000722009688615799,0.0010346048511564732
1746728841691387000,2.109386962890625,-0.0003284555859863758,-0.00007214490324258804,0.0007379287853837013
1746728841701405000,2.119405029296875,0.0019073530565947294,-0.000741105992347002,-0.0024743808899074793
1746728841711423000,2.129423095703125,0.0005408851429820061,-0.0018822706770151854,-0.0006114994175732136
1746728841721441000,2.13944091796875,0.0009928338695317507,-0.0017064404673874378,-0.00025227502919733524
1746728841731458800,2.149458740234375,0.001041836105287075,-0.0022380072623491287,0.0005570596549659967
1746728841741477000,2.15947705078125,0.00012547383084893227,0.0001769745722413063,-0.0006341962143778801
1746728841751494000,2.169493896484375,-0.0021256962791085243,0.0008243890479207039,-0.0008850658778101206
1746728841761512000,2.179511962890625,-0.0010768072679638863,0.00004239799454808235,0.00029332214035093784
1746728841771530000,2.189530029296875,-0.00019077351316809654,-0.0003674621693789959,-0.0012931227684020996
1746728841781548000,2.199548095703125,-0.001572354231029749,0.00027833273634314537,-0.0005884882993996143
1746728841791565800,2.20956591796875,-0.0008533005602657795,0.0002796645276248455,6.030313670635223e-7
1746728841801584000,2.219584228515625,0.0018308176659047604,-0.0014136573299765587,-0.001010052626952529
1746728841811602000,2.229601806640625,-0.0029972270131111145,0.00014961836859583855,-0.001485160319134593
1746728841821620000,2.239619873046875,-0.001928496640175581,0.0024034311063587666,0.0013318064156919718
1746728841831637000,2.249636962890625,-0.0001662829890847206,0.0007304330356419086,0.0006377866957336664
1746728841841655000,2.259655029296875,0.0010296653490513563,-0.0016158870421350002,0.0012900927104055882
1746728841851672800,2.2696728515625,-0.0010039242915809155,-0.00030241580680012703,0.0018831786001101136
1746728841861691000,2.27969091796875,0.0021347396541386843,0.0016182223334908485,0.0019917581230401993
1746728841871709000,2.289708984375,-0.00020857574418187141,0.0018427264876663685,0.0019004116766154766
1746728841881727000,2.29972705078125,0.00036736438050866127,0.0009771017357707024,0.00021371827460825443
1746728841891745000,2.3097451171875,0.0005058487877249718,-0.00013769743964076042,0.0009801759151741862
1746728841901763000,2.31976318359375,0.00024800561368465424,-0.00011476315557956696,-0.0025272255297750235
1746728841911781000,2.329781005859375,-0.0009341719560325146,-0.0017789723351597786,-0.0004494271706789732
1746728841921798000,2.3397978515625,-0.0004352303221821785,-0.00028725946322083473,0.002241462701931596
1746728841931816000,2.34981591796875,-0.0009662648662924767,-0.0006087031215429306,0.000609477749094367
1746728841941834000,2.359833984375,0.00032955873757600784,0.0014809523709118366,0.0004633932840079069
1746728841951852000,2.36985205078125,-0.0005647307261824608,0.0003443150781095028,0.0001816307194530964
1746728841961870000,2.3798701171875,0.004453958943486214,-0.0007151532918214798,-0.0039927102625370026
1746728841971888000,2.38988818359375,0.00046747317537665367,0.0005072378553450108,0.0003477097488939762
1746728841981906000,2.399906005859375,0.0016681291162967682,0.0009664343670010567,-0.001558681484311819
1746728841991924000,2.409924072265625,-0.001771876122802496,0.0003760112449526787,0.0020632175728678703
1746728842001942000,2.41994189453125,0.002639549085870385,0.0017437813803553581,-0.003391359932720661
1746728842011959000,2.429958984375,0.000960958655923605,0.0010747956112027168,-0.00040515721775591373
1746728842021976800,2.439976806640625,-0.00009047891944646835,0.0000022584572434425354,-0.00011159339919686317
1746728842031995100,2.4499951171875,0.0000607883557677269,0.0020212004892528057,0.0002596513368189335
1746728842042013000,2.460012939453125,0.0016308764461427927,0.0006669950671494007,-0.0016813813708722591
1746728842052031000,2.470031005859375,-0.0022413600236177444,0.0007988219149410725,-0.00022702920250594616
1746728842062049000,2.480049072265625,-0.000425742007791996,0.00031605176627635956,0.001773450174368918
1746728842072067000,2.490067138671875,-0.0005296049639582634,-0.001161203719675541,-0.0012907828204333782
1746728842082084900,2.5000849609375,0.0010945959948003292,0.0013025873340666294,-0.0002848333679139614
1746728842092102100,2.51010205078125,-0.0003565605729818344,-0.00009317556396126747,-0.0017042981926351786
1746728842102120000,2.520119873046875,-0.00019857054576277733,0.0000914200209081173,0.0015483980532735586
1746728842112138000,2.530137939453125,-0.0001005660742521286,-0.001715002115815878,0.0009193592704832554
1746728842122156000,2.540156005859375,-0.0015101861208677292,-0.0004922691732645035,-0.00007801316678524017
1746728842132174000,2.550174072265625,-0.0008784839883446693,0.0011082906275987625,0.0021023168228566647
1746728842142191900,2.56019189453125,0.00011674407869577408,0.0004538474604487419,0.0009545085486024618
1746728842152210000,2.5702099609375,0.0009998483583331108,0.0019012754783034325,-0.000297709833830595
1746728842162228000,2.58022802734375,0.0005844836123287678,0.0006487155333161354,0.0011402491945773363
1746728842172246000,2.59024609375,-0.0013582920655608177,0.0004082322120666504,-0.00042702117934823036
1746728842182262800,2.6002626953125,0.003526118816807866,-0.0021559554152190685,0.001165360095910728
1746728842192281000,2.610281005859375,0.000777470413595438,0.0020742095075547695,-0.0010093774180859327
1746728842202299000,2.620298828125,-0.00046375999227166176,0.002805509138852358,-0.0007590774912387133
1746728842212317000,2.63031689453125,0.0007703485898673534,0.0007237163372337818,-0.000567596172913909
1746728842222335000,2.6403349609375,0.0015309215523302555,0.0006140656769275665,-0.0020119212567806244
1746728842232353000,2.65035302734375,0.000594820361584425,0.0004345686174929142,-0.0018071243539452553
1746728842242371000,2.66037109375,0.0019284572917968035,-0.0009100455790758133,-0.00010620499961078167
1746728842252388900,2.670388916015625,-0.0011072801426053047,-0.0006477241404354572,0.00019340054132044315
1746728842262406000,2.680406005859375,0.00020573940128087997,-0.0003604232333600521,0.00019448180682957172
1746728842272424000,2.690423828125,0.00022571301087737083,0.0011328109540045261,0.001230451394803822
1746728842282441700,2.700441650390625,-0.001135474070906639,-0.000935340765863657,-0.0009558226447552443
1746728842292460000,2.7104599609375,-0.0004148227162659168,-0.00024265237152576447,-0.0026666373014450073
1746728842302478000,2.72047802734375,-0.00021585030481219292,-0.0017332108691334724,0.0017026943387463689
1746728842312495900,2.730495849609375,0.0008555389940738678,0.0009137052111327648,0.0000035974662750959396
1746728842322514200,2.74051416015625,-0.0008850889280438423,0.0020331908017396927,0.0006160831544548273
1746728842332532000,2.750531982421875,0.00044143153354525566,0.0005767080001533031,0.0009545707143843174
1746728842342550000,2.760550048828125,0.002124349819496274,-0.0014850073494017124,-0.001570563530549407
1746728842352567000,2.770567138671875,-0.0014373618178069592,0.00005722930654883385,-0.0018169062677770853
1746728842362585000,2.780585205078125,0.0004623471759259701,0.00038434984162449837,0.0008077127858996391
1746728842372603000,2.790602783203125,0.00048019038513302803,0.0010450799018144608,-0.0026610547211021185
1746728842382621000,2.800620849609375,0.0011788113042712212,0.0019123051315546036,-0.0009962113108485937
1746728842392639000,2.810638916015625,0.0021407450549304485,0.0014142938889563084,-0.0018393679056316614
1746728842402657000,2.820656982421875,0.0002992064692080021,0.0007529384456574917,0.00010998011566698551
1746728842412674800,2.8306748046875,-0.0005362271331250668,0.0007111267186701298,0.0034455894492566586
1746728842422693000,2.840693115234375,-0.0015953853726387024,0.0002319151535630226,-0.0027752877213060856
1746728842432711000,2.8507109375,-0.0013623586855828762,0.0004646754823625088,0.0012586024822667241
1746728842442728000,2.86072802734375,0.0005009234882891178,-0.00026121828705072403,-0.0013938476331532001
1746728842452746000,2.87074609375,0.0005821497179567814,0.0011289515532553196,-0.0018021105788648129
1746728842462764000,2.880763916015625,-0.0007323920726776123,0.0010367999784648418,0.0021896453108638525
1746728842472781800,2.89078173828125,-0.00006420491263270378,0.0019787601195275784,0.00018401863053441048
1746728842482800000,2.900800048828125,-0.00007148273289203644,0.0017091305926442146,0.0004143686965107918
1746728842492818000,2.91081787109375,0.0007117530331015587,-0.00020408444106578827,-0.0008202726021409035
1746728842502836000,2.9208359375,0.001898548100143671,0.003058935049921274,-0.0014533023349940777
1746728842512853800,2.930853759765625,-0.00047592632472515106,0.0005848584696650505,0.0007999981753528118
1746728842522871000,2.94087109375,0.001726334448903799,-0.0029540208633989096,0.0021965426858514547
1746728842532888800,2.950888916015625,-0.000916054006665945,-0.0014815591275691986,-0.0017875460907816887
1746728842542907000,2.960906982421875,0.00026046717539429665,0.000954456627368927,-0.0004556428175419569
1746728842552925000,2.970925048828125,-0.0011805691756308079,0.002015460282564163,-0.001773641211912036
1746728842562943000,2.98094287109375,-0.00044930074363946915,0.0010130261071026325,-0.00039306911639869213
1746728842572960800,2.990960693359375,-0.0005715400911867619,0.0012758802622556686,-0.0009446097537875175
1746728842582979000,3.00097900390625,0.0007994305342435837,0.000018487218767404556,0.0009697307832539082
1746728842592997000,3.0109970703125,-0.0018663937225937843,-0.0006507649086415768,0.0005838386714458466
1746728842603015000,3.021014892578125,-0.0005592345260083675,0.0019939150661230087,-0.002659779042005539
1746728842613032000,3.031031982421875,0.00033771805465221405,-0.00032143713906407356,-0.0009055549744516611
1746728842623050000,3.041050048828125,0.0003331350162625313,-0.0016979617066681385,0.0002674916759133339
1746728842633068000,3.051068115234375,-0.0010453173890709877,-0.0001440071500837803,-0.00024063955061137676
1746728842643086000,3.061086181640625,-0.0007220497354865074,0.0011067092418670654,-0.00010422361083328724
1746728842653104000,3.071104248046875,0.0006255097687244415,0.000947185792028904,0.0012630433775484562
1746728842663122000,3.081121826171875,0.002063136314973235,0.0013565318658947945,-0.00282061449252069
1746728842673140000,3.091139892578125,0.0010551298037171364,0.0004864772781729698,0.0007871699053794146
1746728842683158000,3.101157958984375,0.0007146294228732586,-0.001754828728735447,-0.0004363660700619221
1746728842693175000,3.111175048828125,-0.0008318680338561535,-0.0000693141482770443,0.0021740642841905355
1746728842703192800,3.12119287109375,-0.0023427256383001804,0.0017260829918086529,0.0011876615462824702
1746728842713211100,3.131211181640625,0.0010346951894462109,0.0007859873585402966,-0.0018520704470574856
1746728842723229000,3.14122900390625,-0.0004250914789736271,0.001958228647708893,0.0010370879899710417
1746728842733247000,3.1512470703125,-0.0015758434310555458,-0.0004937434569001198,-0.0006444319151341915
1746728842743265000,3.16126513671875,-0.0005667200312018394,0.0007369657978415489,0.0000817545223981142
1746728842753283000,3.171282958984375,-0.0009784447029232979,0.0007454878650605679,-0.001361678820103407
1746728842763300900,3.18130078125,-0.0006422996520996094,0.00010247528553009033,-0.0005111792124807835
1746728842773319000,3.19131884765625,0.0009039316792041063,0.0002050069160759449,-0.0004967981949448586
1746728842783336000,3.2013359375,-0.0006433664821088314,0.0004021422937512398,0.0007864993531256914
1746728842793354000,3.21135400390625,0.0018858376424759626,0.0010359748266637325,-0.0011991537176072598
1746728842803372000,3.2213720703125,0.0025713127106428146,-0.0016553238965570927,0.0018087177304551005
1746728842813390000,3.23139013671875,0.0005339947529137135,-0.001871040090918541,0.000950114568695426
1746728842823407900,3.241407958984375,0.0010669843759387732,0.0004045441746711731,0.00046272343024611473
1746728842833426000,3.251426025390625,0.000007844995707273483,-0.0013459515757858753,0.0004890887066721916
1746728842843444000,3.26144384765625,-0.001768866553902626,-0.0015449305064976215,0.0002824242692440748
1746728842853462000,3.2714619140625,-0.002062613144516945,-0.0009297402575612068,-0.001489376649260521
1746728842863478800,3.281478759765625,0.0019650105386972427,0.001101554837077856,0.0005895274225622416
1746728842873497000,3.2914970703125,-0.0006020106375217438,0.0009827776812016964,-0.00003072270192205906
1746728842883515000,3.301514892578125,-0.001028680708259344,-0.0003772652707993984,-0.002072542905807495
1746728842893533000,3.311532958984375,-0.0017304238863289356,0.000280801672488451,-0.0009066110942512751
1746728842903551000,3.321551025390625,-0.00010726647451519966,0.001005453523248434,0.000506566371768713
1746728842913569000,3.331569091796875,-0.0007634693756699562,-0.0007109539583325386,0.0015965983038768172
1746728842923587000,3.341587158203125,-0.0004356922581791878,-0.0016982555389404297,-0.0003517582081258297
1746728842933604900,3.35160498046875,-0.0007227808237075806,0.00008606212213635445,-0.0016279451083391905
1746728842943623200,3.361623046875,-0.00023004133254289627,-0.0020797112956643105,-0.0005774185992777348
1746728842953640000,3.371639892578125,0.0012836994137614965,0.0017097005620598793,-0.0002759487833827734
1746728842963657700,3.38165771484375,-0.0041425772942602634,0.00031682616099715233,0.0025986353866755962
1746728842973676000,3.391676025390625,0.0016375472769141197,-0.0030113260727375746,-0.0019460490439087152
1746728842983694000,3.401694091796875,-0.000743138138204813,-0.0012564579956233501,0.00006328034214675426
1746728842993711900,3.4117119140625,-0.0000025131739675998688,0.00047246646136045456,0.0017061843536794186
1746728843003730200,3.421730224609375,-0.0005071237683296204,0.0016206083819270134,-0.0009122877381742001
1746728843013748000,3.431748046875,-0.0006669135764241219,0.00023443344980478287,-0.0010201458353549242
1746728843023766000,3.44176611328125,-0.0018494166433811188,0.0003062817268073559,0.0020456532947719097
1746728843033783800,3.45178369140625,0.002134139882400632,-0.0003989231772720814,0.0006102095358073711
1746728843043801000,3.461801025390625,0.003415962215512991,0.0011673327535390854,-0.0026107165031135082
1746728843053819000,3.47181884765625,0.002104621846228838,-0.0010063392110168934,-0.0007805919740349054
1746728843063837000,3.4818369140625,0.0015627373941242695,-0.0007655816152691841,0.0009470491204410791
1746728843073855000,3.49185498046875,-0.001250626053661108,0.0009841150604188442,-0.0003701504319906235
1746728843083873000,3.501873046875,-0.0017426898702979088,0.00019457144662737846,0.0019885669462382793
1746728843093890800,3.511890869140625,0.0023990580812096596,0.0015775510109961033,0.0017472844338044524
1746728843103909000,3.5219091796875,0.0020421252120286226,0.0014512748457491398,-0.0009156563319265842
1746728843113927000,3.531927001953125,0.001022400800138712,0.0012336946092545986,-0.0017060826066881418
1746728843123944000,3.54194384765625,-0.00006291689351201057,-0.000977343413978815,0.00022162171080708504
1746728843133962000,3.5519619140625,0.0016590829472988844,-0.00011527817696332932,0.0012043281458318233
1746728843143980000,3.56197998046875,0.00025891559198498726,-0.0005551734939217567,-0.0011286416556686163
1746728843153997800,3.571997802734375,0.0007087234407663345,0.00048319296911358833,-0.0029422540683299303
1746728843164016000,3.58201611328125,-0.001353733241558075,-0.0004138643853366375,-0.0008412019815295935
1746728843174034000,3.592033935546875,0.0007842523045837879,-0.00017284834757447243,0.002194535220041871
1746728843184052000,3.602052001953125,-0.0009292471222579479,-0.000676850788295269,-0.0042257290333509445
1746728843194069800,3.61206982421875,0.0016236589290201664,0.000963656697422266,-0.0016994546167552471
1746728843204088000,3.622088134765625,-0.00016079377382993698,-0.0009527029469609261,-0.001522005070000887
1746728843214104800,3.632104736328125,-0.0006912951357662678,0.0018132561817765236,-0.000914271455258131
1746728843224123000,3.642122802734375,-0.001608904916793108,-0.0011228392831981182,0.0007404135540127754
1746728843234141000,3.652140869140625,0.001995151164010167,0.00015601050108671188,-0.0011006295680999756
1746728843244159000,3.662158935546875,-0.0007078913040459156,0.0009029903449118137,-0.002685718471184373
1746728843254176800,3.6721767578125,-0.0001377086155116558,0.0007751588709652424,-0.0006686400156468153
1746728843264195000,3.682195068359375,0.0009498992003500462,-0.00015917280688881874,0.0010061425855383277
1746728843274213000,3.692213134765625,0.0006633428856730461,0.001584399025887251,0.0003414175007492304
1746728843284231000,3.70223095703125,-0.0001247301697731018,0.0009679868817329407,0.0016430270625278354
1746728843294248000,3.712248046875,-0.00009436998516321182,0.002119803801178932,-0.0017943151760846376
1746728843304266000,3.722265869140625,-0.00028843386098742485,-0.0002840752713382244,-0.0004279031418263912
1746728843314284000,3.732283935546875,-0.0019648936577141285,0.000994508620351553,0.0029268807265907526
1746728843324302000,3.742302001953125,-0.0004664515145123005,-0.0013317326083779335,-0.0005010871682316065
1746728843334320000,3.752320068359375,-0.00031252065673470497,-0.00045635178685188293,0.001900817733258009
1746728843344338000,3.762337890625,-0.00042121997103095055,-0.0024315458722412586,0.0012716320343315601
1746728843354356000,3.77235595703125,0.0003692060708999634,0.0003879428841173649,-0.000984598184004426
1746728843364374000,3.7823740234375,0.0006061089225113392,-0.000057163648307323456,0.0019885189831256866
1746728843374392000,3.79239208984375,-0.002264512237161398,0.00030529266223311424,0.0022045013029128313
1746728843384408800,3.802408935546875,-0.002774584572762251,0.0030290689319372177,0.0021648467518389225
1746728843394427100,3.81242724609375,0.00012266822159290314,0.0009419498965144157,-0.0013052518479526043
1746728843404445000,3.82244482421875,-0.0013380576856434345,0.0013323454186320305,-0.0006012606900185347
1746728843414463000,3.832462890625,0.0002161627635359764,-0.0020213734824210405,-0.001405535265803337
1746728843424481000,3.84248095703125,-0.000684048980474472,-0.0007032882422208786,0.00023438315838575363
1746728843434499000,3.8524990234375,-0.00008483743295073509,0.00010498100891709328,-0.00035843648947775364
1746728843444516900,3.862516845703125,0.0024282934609800577,-0.0006903284229338169,-0.0011112750507891178
1746728843454535000,3.872534912109375,0.0025228357408195734,0.00000449037179350853,-0.0006444230675697327
1746728843464552000,3.882552001953125,0.0013299116399139166,0.0009048581123352051,-0.0018565559294074774
1746728843474570000,3.892570068359375,0.0016825140919536352,-0.0003857100382447243,-0.0012259192299097776
1746728843484588000,3.902588134765625,0.000801237765699625,-0.00024914415553212166,-0.0014474482741206884
1746728843494606000,3.912606201171875,-0.00015723379328846931,-0.000702680554240942,-0.001574747497215867
1746728843504623900,3.922623779296875,-0.0015478134155273438,0.0000713602639734745,0.000635216711089015
1746728843514642000,3.932641845703125,0.00449063815176487,0.0030671502463519573,0.0006370807532221079
1746728843524660000,3.942659912109375,-0.0011295992881059647,0.0003763302229344845,0.0015465390169993043
1746728843534678000,3.952677978515625,-0.0008251997642219067,0.0030860966071486473,-0.0015176942106336355
1746728843544695800,3.96269580078125,-0.0012922468595206738,0.0010025231167674065,-0.00025347317568957806
1746728843554713000,3.972713134765625,0.0019570759031921625,0.0017370227724313736,-0.0024098344147205353
1746728843564731000,3.98273095703125,0.00022368645295500755,-0.00016387365758419037,0.00016670790500938892
1746728843574749000,3.9927490234375,-0.0005281241610646248,0.0010396088473498821,-0.0026160292327404022
1746728843584766700,4.0027666015625,-0.000546399038285017,0.0005729538388550282,0.0018866033060476184
1746728843594784500,4.012784423828125,0.000026180408895015717,-0.0009434502571821213,-0.000486006960272789
1746728843604802600,4.022802490234375,0.0016438555903732777,-0.00010587228462100029,0.0010290625505149364
1746728843614820600,4.032820556640625,0.0018009820487350225,0.0004307543858885765,-0.0009760311804711819
1746728843624838700,4.042838623046875,0.000944637693464756,-0.0003511984832584858,-0.000774795189499855
1746728843634856700,4.052856689453125,0.0013736728578805923,0.001807293388992548,-0.002290932694450021
1746728843644873700,4.062873779296875,-0.00001066131517291069,0.0007266546599566936,0.0013752277009189129
1746728843654891500,4.0728916015625,0.0022125456016510725,-0.0024401103146374226,-0.0009542391635477543
1746728843664909600,4.08290966796875,0.0022436650469899178,-0.0007565044797956944,-0.0023496272042393684
1746728843674927600,4.092927734375,0.0013536366168409586,-0.0011226888746023178,-0.0015791747719049454
1746728843684945700,4.102945556640625,0.0007383693009614944,0.0001866617240011692,0.0022348249331116676
1746728843694963700,4.112963623046875,0.001786589389666915,0.0019254395738244057,-0.0013412677217274904
1746728843704981500,4.1229814453125,0.0011326074600219727,0.001693155150860548,0.0011772436555474997
1746728843714999600,4.13299951171875,0.0006242101080715656,-0.0018983841873705387,-0.0013309214264154434
1746728843725016600,4.1430166015625,0.0032102817203849554,0.00291537307202816,0.0021607475355267525
1746728843735034600,4.15303466796875,0.002064323518425226,0.001292176079005003,-0.0001570016611367464
1746728843745052700,4.163052734375,0.0003993329592049122,-0.00045607518404722214,-0.0009706858545541763
1746728843755070700,4.17307080078125,-0.0003700545057654381,-0.0017556976526975632,-0.0007070326246321201
1746728843765088500,4.183088623046875,0.00010334048420190811,0.0007976442575454712,0.0006265337578952312
1746728843775106600,4.1931064453125,-0.0015321066603064537,0.0018647732213139534,0.0021951356902718544
1746728843785124600,4.20312451171875,-0.00011057034134864807,-0.001616811379790306,-0.0005681274924427271
1746728843795142700,4.213142578125,0.0014244758058339357,0.0008455472998321056,-0.0011958342511206865
1746728843805160400,4.223160400390625,-0.00008950615301728249,0.001191954594105482,0.00008941930718719959
1746728843815177700,4.233177734375,-0.0003289240412414074,-0.0018445819150656462,-0.00017343484796583652
1746728843825195500,4.243195556640625,0.0017095422372221947,0.00026012398302555084,0.0009028303902596235
1746728843835213600,4.253213623046875,0.0001997961662709713,-0.0015806527808308601,-0.0007107788696885109
1746728843845231600,4.263231689453125,-0.00015032803639769554,-0.0016741291619837284,-0.0017767034005373716
1746728843855249700,4.273249755859375,-0.0020907074213027954,-0.0010432261042296886,0.002145333681255579
1746728843865267500,4.283267333984375,-0.0004922659136354923,-0.0010011675767600536,-0.0012284149415791035
1746728843875285500,4.293285400390625,-0.0005812156014144421,-0.00026000989601016045,0.000894124386832118
1746728843885303600,4.303303466796875,0.0005313623696565628,-0.001429269090294838,-0.000004202593117952347
1746728843895320600,4.313320556640625,0.002455762354657054,0.00013800151646137238,-0.003445273032411933
1746728843905338600,4.323338623046875,0.0019522425718605518,0.0009861360304057598,0.0007359099108725786
1746728843915356700,4.333356689453125,-0.0030382550321519375,0.002203200478106737,0.001772944931872189
1746728843925374500,4.34337451171875,-0.00006854254752397537,0.00039509357884526253,0.0005563709419220686
1746728843935392500,4.353392578125,-0.0012882701121270657,0.0019495803862810135,0.0027161946054548025
1746728843945410600,4.36341064453125,0.00018064118921756744,-0.0012555522844195366,0.0004250484053045511
1746728843955428600,4.3734287109375,0.0006352425552904606,0.00007709348574280739,-0.001423984533175826
1746728843965446700,4.38344677734375,-0.00009766407310962677,-0.00030048051849007607,0.0004235990345478058
1746728843975464700,4.393464599609375,-0.00009020743891596794,0.0009450800716876984,0.0015748835867270827
1746728843985481500,4.4034814453125,0.00038614310324192047,0.0006256024353206158,-0.0015498674474656582
1746728843995499500,4.41349951171875,0.0019182597752660513,0.000843981746584177,-0.0008763542864471674
1746728844005517600,4.423517578125,-0.0008388282731175423,-0.0015696710906922817,0.0004198800306767225
1746728844015535600,4.43353564453125,-0.000639091245830059,-0.0009334422647953033,-0.0014869433362036943
1746728844025553700,4.4435537109375,0.00024287588894367218,-0.0027970748487859964,-0.000423977617174387
1746728844035571500,4.453571533203125,-0.0004615304060280323,-0.000340308528393507,-0.0017009635921567678
1746728844045589800,4.46358984375,0.00044019194319844246,0.0016670655459165573,-0.0010011608246713877
1746728844055607600,4.473607666015625,0.0004425891675055027,-0.0005643973127007484,-0.001390248304232955
1746728844065625600,4.48362548828125,0.0009606331586837769,0.0005973917432129383,0.002156274626031518
1746728844075642600,4.493642578125,-0.00008305953815579414,-0.00201064208522439,-0.0007766648195683956
1746728844085660700,4.50366064453125,0.000487747136503458,-0.0007142708636820316,0.00011757994070649147
1746728844095678500,4.513678466796875,-0.0036920844577252865,0.002028518822044134,0.001669137622229755
1746728844105696800,4.52369677734375,0.0004249168559908867,0.0003167828544974327,0.0017869273433461785
1746728844115714600,4.533714599609375,0.0013884487561881542,0.00042197760194540024,-0.0006080532912164927
1746728844125732600,4.543732666015625,0.0009967200458049774,-0.0004078401252627373,0.001231946051120758
1746728844135750700,4.553750732421875,-0.001854992937296629,0.0004358496516942978,0.0010367362992838025
1746728844145768700,4.563768798828125,0.002083549741655588,0.0015209992416203022,0.00045060343109071255
1746728844155785500,4.573785400390625,-0.0012912079691886902,0.00016545038670301437,0.0009254449978470802
1746728844165803800,4.5838037109375,0.0001738276332616806,0.0005515292286872864,-0.001313961111009121
1746728844175821600,4.593821533203125,0.0005376152694225311,-0.0000988147221505642,0.0021113967522978783
1746728844185839600,4.603839599609375,0.00037613511085510254,0.00045493850484490395,0.0013643174897879362
1746728844195857400,4.613857421875,-0.001077418215572834,0.00148478290066123,0.001218376331962645
1746728844205875700,4.623875732421875,0.000590762123465538,-0.0013071317225694656,0.0033873210195451975
1746728844215893500,4.6338935546875,0.00025919824838638306,0.0003682631067931652,-0.0000755873043090105
1746728844225911600,4.64391162109375,-0.0016593625769019127,0.0006457651033997536,-0.0013051151763647795
1746728844235929600,4.6539296875,-0.0003956928849220276,0.001027395948767662,-0.0013080446515232325
1746728844245946600,4.663946533203125,0.0017839332576841116,-0.0002103927545249462,-0.0005627891514450312
1746728844255964400,4.67396435546875,0.000482446514070034,-0.00015499908477067947,0.0016644123243167996
1746728844265982700,4.683982666015625,0.0009596734307706356,-0.000028857961297035217,-0.0008084571454674006
1746728844276000500,4.69400048828125,-0.000008119270205497742,0.002956545911729336,-0.002329122042283416
1746728844286018600,4.7040185546875,0.00019068317487835884,0.0018230131827294827,0.00013069366104900837
1746728844296036600,4.71403662109375,-0.0017813877202570438,-0.0010851584374904633,0.0015946332132443786
1746728844306054700,4.7240546875,0.00017325766384601593,0.0006236853078007698,-0.001141031738370657
1746728844316072700,4.73407275390625,0.0009724725969135761,-0.00017739366739988327,0.001052081468515098
1746728844326089700,4.74408984375,-0.000018679536879062653,-0.0008613346144556999,-0.0011172359809279442
1746728844336107500,4.754107421875,0.0003107534721493721,-0.000767857301980257,-0.001442141830921173
1746728844346125600,4.76412548828125,-0.000804562121629715,0.0004728403873741627,-0.001392375212162733
1746728844356143600,4.7741435546875,0.00031982455402612686,-0.0006906948983669281,-0.00047944369725883007
1746728844366161700,4.78416162109375,-0.0007378105074167252,-0.0017935577780008316,-0.00038270815275609493
1746728844376179700,4.7941796875,0.0008278614841401577,0.003167379181832075,-0.0004602060653269291
1746728844386197500,4.804197509765625,0.000552179291844368,-0.00038374681025743484,0.0009192894212901592
1746728844396215600,4.814215576171875,-0.0008241427130997181,-0.00021463632583618164,0.001328617217950523
1746728844406233600,4.824233642578125,-0.0015579881146550179,0.0001871902495622635,-0.0006808214820921421
1746728844416250600,4.834250732421875,-0.0007308102212846279,0.0006425906904041767,-0.002153815934434533
1746728844426268700,4.8442685546875,0.0013244727160781622,0.001773313619196415,-0.0025492687709629536
1746728844436286700,4.85428662109375,-0.0011589247733354568,0.0024300492368638515,-0.0012073018588125706
1746728844446304500,4.864304443359375,0.002785565098747611,0.001287978608161211,-0.001987959025427699
1746728844456322600,4.874322509765625,-0.000784668605774641,0.0006304443813860416,0.0006198084447532892
1746728844466340600,4.884340576171875,0.00034996122121810913,-0.0007070107385516167,0.0018311252351850271
1746728844476358700,4.894358642578125,-0.0004476555623114109,-0.0014758654870092869,0.000908339861780405
1746728844486376400,4.90437646484375,0.0014180780854076147,0.0008520698174834251,0.00022852863185107708
1746728844496393700,4.914393798828125,0.0005445610731840134,0.001696291845291853,0.0032341722398996353
1746728844506411500,4.92441162109375,-0.001241267193108797,-0.0008348105475306511,-0.0007820373866707087
1746728844516429600,4.9344296875,0.001681285910308361,-0.002063593128696084,0.0013255882076919079
1746728844526447600,4.944447509765625,0.00040803337469697,-0.0009058751165866852,0.0013137651840224862
1746728844536465700,4.954465576171875,0.0006586369127035141,0.0013719266280531883,0.0014384010573849082
1746728844546483500,4.9644833984375,0.0007749805226922035,0.000007340684533119202,0.0008347141556441784
1746728844556501500,4.97450146484375,-0.0013313135132193565,0.0010001668706536293,-0.0005179054569453001
1746728844566519600,4.98451953125,0.0007283845916390419,-0.003121517598628998,0.0019183196127414703
1746728844576537600,4.99453759765625,-0.0009187804535031319,-0.0005385177209973335,-0.00003244588151574135
1746728844586555000,5.004554931640625,0.0001434297300875187,0.0005083512514829636,0.002218029461801052
1746728844596572700,5.01457275390625,-0.0000049085356295108795,-0.0017590643838047981,0.001943990238942206
1746728844606590700,5.0245908203125,-0.0010330509394407272,0.000592897180467844,-0.001318782800808549
1746728844616608500,5.0346083984375,0.00009426521137356758,-0.002106216736137867,-0.0016937556210905313
1746728844626626800,5.044626708984375,0.0013160060625523329,0.0005948659963905811,0.001147085102275014
1746728844636644600,5.05464453125,0.00025313859805464745,0.0009061894379556179,-0.0005485494621098042
1746728844646662700,5.06466259765625,0.00019667483866214752,0.0015050079673528671,-0.0011777014005929232
1746728844656680700,5.0746806640625,-0.0029908623546361923,0.00021896744146943092,-0.0026839852798730135
1746728844666697700,5.08469775390625,0.0005393782630562782,-0.00006771227344870567,-0.0004969851579517126
1746728844676715500,5.094715576171875,-0.00005743606016039848,0.0028106323443353176,0.001111564110033214
1746728844686733800,5.10473388671875,0.0004547126591205597,0.0006151441484689713,0.0005457433871924877
1746728844696751600,5.114751708984375,-0.000010275281965732574,0.0003741281107068062,-0.0005083356518298388
1746728844706769700,5.124769775390625,-0.002704970072954893,-0.003022459801286459,0.00048681069165468216
1746728844716787500,5.134787353515625,-0.0015241242945194244,-0.0005457201041281223,-0.0005891064647585154
1746728844726805800,5.1448056640625,0.0010000178590416908,-0.0005900310352444649,0.002197583904489875
1746728844736823800,5.15482373046875,0.001006942242383957,0.00001210952177643776,0.00041459756903350353
1746728844746841600,5.164841552734375,-0.00019776728004217148,0.002773803658783436,0.000016271602362394333
1746728844756858600,5.174858642578125,-0.0009956504218280315,0.00022249529138207436,0.0003241330850869417
1746728844766876700,5.184876708984375,0.0021287512499839067,-0.00023866631090641022,-0.00040205358527600765
1746728844776894500,5.19489453125,0.0007479023188352585,0.0007381811738014221,-0.002333111595362425
1746728844786912800,5.204912841796875,0.00164214544929564,0.0021483972668647766,-0.00011070352047681808
1746728844796930800,5.214930908203125,0.0017763685900717974,-0.0008995900861918926,-0.001557864947244525
1746728844806948600,5.224948486328125,-0.0012965169735252857,-0.0004760073497891426,0.0004886779934167862
1746728844816966700,5.234966552734375,-0.000988655723631382,-0.0005345968529582024,-0.002174749504774809
1746728844826984700,5.244984619140625,0.000711535569280386,-0.000618636142462492,0.0002495567314326763
1746728844837002800,5.255002685546875,-0.0002706381492316723,-0.0016282405704259872,-0.00248817284591496
1746728844847019800,5.265019775390625,-0.0009472533129155636,0.0014636814594268799,0.0019178641960024834
1746728844857037800,5.275037841796875,0.0002977745607495308,-0.0016703265719115734,-0.001176196150481701
1746728844867055600,5.2850556640625,-0.0011829626746475697,0.0023508272133767605,0.0006919389124959707
1746728844877073700,5.29507373046875,-0.00016563525423407555,-0.0011096848174929619,0.0021375026553869247
1746728844887091700,5.305091796875,-0.0017397073097527027,-0.0012484798207879066,0.0022926561068743467
1746728844897109800,5.31510986328125,-0.00088083790615201,0.00019415467977523804,0.0019256725208833814
1746728844907127600,5.32512744140625,0.001723392866551876,0.0012368131428956985,0.0011056197108700871
1746728844917145900,5.335145751953125,-0.0004199189133942127,0.0016818274743855,0.00034502078779041767
1746728844927162600,5.34516259765625,-0.00003906711935997009,-0.0010557244531810284,0.0014214683324098587
1746728844937180700,5.3551806640625,-0.0008723698556423187,-0.0024839777033776045,0.0003625955432653427
1746728844947198700,5.36519873046875,-0.000873238779604435,-0.0002641775645315647,-0.0022281345445662737
1746728844957216800,5.375216796875,0.0017425180412828922,0.0007222574204206467,-0.00240203901194036
1746728844967234600,5.385234619140625,0.0003022830933332443,0.0020007845014333725,0.0028250813484191895
1746728844977252600,5.395252685546875,-0.0004567177966237068,0.0005980976857244968,-0.0017528925091028214
1746728844987270700,5.405270751953125,0.00024531176313757896,0.0008727321401238441,0.001230326946824789
1746728844997288700,5.415288818359375,-0.0006364607252180576,-0.002185375662520528,0.0022063753567636013
1746728845007306500,5.425306396484375,-0.0006289808079600334,0.0019252803176641464,-0.001676234183833003
1746728845017323800,5.43532373046875,-0.0008042170666158199,0.001592385582625866,-0.0010152377653867006
1746728845027341600,5.445341552734375,-0.001308230683207512,-0.0005122139118611813,0.0002032197080552578
1746728845037359600,5.455359619140625,-0.0016994490288197994,0.00008832849562168121,-0.003607231192290783
1746728845047377700,5.465377685546875,0.0013765301555395126,0.00025380682200193405,-0.00027040252462029457
1746728845057395700,5.475395751953125,-0.00002535758540034294,-0.0011576684191823006,0.0007043143268674612
1746728845067413500,5.48541357421875,-0.0003647306002676487,0.0007782978937029839,-0.0006481306627392769
1746728845077431600,5.495431640625,-0.00012158416211605072,-0.0008675358258187771,-0.001833237474784255
1746728845087449900,5.505449951171875,-0.00003060232847929001,-0.0007477668114006519,-0.0014633466489613056
1746728845097467600,5.515467529296875,0.0012458509299904108,-0.00030088843777775764,0.0014453578041866422
1746728845107484700,5.525484619140625,-0.00011573592200875282,-0.0007196939550340176,0.002282700501382351
1746728845117502700,5.535502685546875,0.00035644229501485825,-0.000565496739000082,0.0009007861372083426
1746728845127520500,5.5455205078125,-0.0018519810400903225,0.0008581648580729961,0.0010765002807602286
1746728845137538600,5.55553857421875,-0.00035581737756729126,0.001918635331094265,-0.00010834005661308765
1746728845147556900,5.565556884765625,0.0005959761328995228,-0.00007575098425149918,-0.00008564791642129421
1746728845157574700,5.57557470703125,0.002131288405507803,-0.0011122534051537514,-0.00014743325300514698
1746728845167592700,5.5855927734375,0.00016551930457353592,-0.000537447165697813,-0.0013076425530016422
1746728845177610800,5.59561083984375,0.0007583387196063995,0.0007701646536588669,0.0005634946282953024
1746728845187627800,5.605627685546875,0.00006363727152347565,-0.0004215729422867298,0.002135032322257757
1746728845197645600,5.6156455078125,-0.0005531506612896919,0.0006399629637598991,0.0015467400662600994
1746728845207663900,5.625663818359375,-0.00019963551312685013,0.000852957833558321,0.0016902516363188624
1746728845217681700,5.635681640625,0.000522347167134285,-0.0004021902568638325,-0.0015516141429543495
1746728845227699700,5.64569970703125,0.0006178645417094231,-0.0007044216617941856,0.00014183996245265007
1746728845237717500,5.655717529296875,0.00018083956092596054,-0.0007326514460146427,-0.00004857592284679413
1746728845247735800,5.66573583984375,0.0026102643460035324,0.0007773162797093391,0.0006845418829470873
1746728845257753600,5.675753662109375,0.0020278310403227806,-0.000794747844338417,-0.0016630347818136215
1746728845267771600,5.685771728515625,0.00017514359205961227,-0.0005279229953885078,-0.0008644144982099533
1746728845277788700,5.69578857421875,-0.0007212762720882893,0.00008806586265563965,0.0005595777183771133
1746728845287806700,5.705806640625,0.0026813254225999117,0.0014625457115471363,0.0010261113056913018
1746728845297824500,5.715824462890625,-0.0006215269677340984,0.0000026007182896137238,0.0012783126439899206
1746728845307842800,5.7258427734375,-0.00037768157199025154,-3.25031578540802e-7,0.0004837089218199253
1746728845317860600,5.735860595703125,-0.0013452079147100449,-0.0005627847276628017,-0.0018859715200960636
1746728845327878700,5.745878662109375,-0.00047688884660601616,0.000018403399735689163,-0.00017091864719986916
1746728845337896700,5.755896728515625,-0.0003152349963784218,-0.0011749588884413242,0.0009462775196880102
1746728845347914800,5.765914794921875,-0.000839967280626297,0.0008056247606873512,-0.0001705752220004797
1746728845357932500,5.7759326171875,0.0009273062460124493,0.0009286627173423767,0.0005681857001036406
1746728845367949800,5.78594970703125,0.0006513809785246849,-0.0010442775674164295,-0.002459077863022685
1746728845377967600,5.795967529296875,-0.0016543841920793056,-0.00037848716601729393,-0.002260406268760562
1746728845387985700,5.805985595703125,0.0016658178064972162,-0.001955282874405384,0.0008440513629466295
1746728845398003500,5.81600341796875,-0.0009206444956362247,-0.0016423617489635944,-0.001360247377306223
1746728845408021800,5.826021728515625,-0.0005306322127580643,0.00019929371774196625,0.0006146184168756008
1746728845418039800,5.836039794921875,-0.0008619297295808792,0.000035775359719991684,0.0013150298036634922
1746728845428057600,5.8460576171875,-0.0017232317477464676,-0.00019919220358133316,0.0013475517043843865
1746728845438076000,5.856075927734375,-0.0006065685302019119,-0.0004929392598569393,0.000739019364118576
1746728845448092700,5.8660927734375,0.000554896891117096,0.0008029402233660221,0.0011425029952079058
1746728845458110500,5.8761103515625,-0.00022487668320536613,-0.00029960833489894867,0.0007914984598755836
1746728845468128800,5.886128662109375,-0.0009318781085312366,-0.000584539957344532,-0.002419758355244994
1746728845478146800,5.896146728515625,0.0008159545250236988,0.00024210521951317787,0.0011715143918991089
1746728845488164600,5.90616455078125,-0.0002325526438653469,-0.00021813251078128815,0.0015779654495418072
1746728845498182700,5.9161826171875,-0.0001958007924258709,0.0008223643526434898,0.0019691837951540947
1746728845508200700,5.92620068359375,-0.00020904745906591415,0.0018715034238994122,0.0007730887737125158
1746728845518218800,5.93621875,-0.0032447846606373787,-0.0010462552309036255,-0.002720179269090295
1746728845528236500,5.946236572265625,0.0009283442050218582,0.0017888168804347515,-0.00007472815923392773
1746728845538253800,5.95625390625,-0.0008365325629711151,0.0008077085949480534,-0.0009421198628842831
1746728845548271600,5.966271728515625,0.001230873167514801,-0.0006836582906544209,-0.0008595702238380909
1746728845558289700,5.97628955078125,0.0012207531835883856,0.0002638944424688816,-0.0017775616142898798
1746728845568307700,5.9863076171875,0.0019564111717045307,-0.0008512199856340885,-0.002725980244576931
1746728845578325800,5.99632568359375,0.0018458901904523373,-0.0011457656510174274,-0.0012260880321264267
1746728845588344000,6.006343994140625,-0.0005365763790905476,0.000007776543498039246,-0.0010079413186758757
1746728845598362000,6.016362060546875,0.0009337547235190868,-0.0008114119991660118,-0.0007818390149623156
1746728845608380200,6.026380126953125,-0.0008256426081061363,0.00022232532501220703,-0.0007114429026842117
1746728845618398200,6.036398193359375,-0.0004733060486614704,-0.0001079067587852478,-0.002115194918587804
1746728845628415200,6.046415283203125,-0.00029406044632196426,-0.0014133057557046413,0.0018613190623000264
1746728845638433300,6.056433349609375,-0.00008873036131262779,-0.0008838693611323833,0.0010549138532951474
1746728845648451000,6.066451171875,-0.0016928664408624172,0.000876495148986578,-0.00033727893605828285
1746728845658469000,6.07646923828125,-0.0011192215606570244,-0.0006726658903062344,0.00015647104009985924
1746728845668487200,6.086487060546875,0.0009310590103268623,0.002783569972962141,-0.0012792486231774092
1746728845678505200,6.096505126953125,-0.0006292867474257946,-0.0002756030298769474,-0.0006589982658624649
1746728845688523300,6.106523193359375,-0.0002840938977897167,0.002721022814512253,0.0001340282615274191
1746728845698541000,6.116541015625,-0.0004457477480173111,0.00034095579758286476,0.0026256816927343607
1746728845708558000,6.12655810546875,0.0013828950468450785,0.0005348306149244308,-0.001584408339112997
1746728845718576000,6.136576171875,0.003273739479482174,0.0017218017019331455,-0.0013527129776775837
1746728845728594200,6.14659423828125,-0.001987235154956579,0.0005890326574444771,-0.000783061608672142
1746728845738612200,6.1566123046875,0.001043442403897643,0.0036154487170279026,-0.00045123184099793434
1746728845748630300,6.16663037109375,-0.00027224374935030937,0.0002310355193912983,-0.0007500057108700275
1746728845758648000,6.17664794921875,-0.00021605100482702255,-0.0008472786284983158,0.0020798693876713514
1746728845768666400,6.186666259765625,-0.0008598910644650459,0.001582808792591095,0.0016906193923205137
1746728845778684200,6.19668408203125,0.0006634369492530823,-0.0021493451204150915,0.0015478739514946938
1746728845788702200,6.2067021484375,-0.00008328305557370186,-0.0008747344836592674,0.0006875388789921999
1746728845798719200,6.21671923828125,-0.0037259552627801895,-0.00030455179512500763,-0.0003281906247138977
1746728845808737300,6.2267373046875,0.0008828970603644848,0.0005683228373527527,-0.0011369239073246717
1746728845818755000,6.236755126953125,-0.0013371137902140617,0.0003179856576025486,0.0014889531303197145
1746728845828773400,6.2467734375,0.0028292317874729633,0.0006345249712467194,-0.0017602299340069294
1746728845838791200,6.256791259765625,0.0006046933121979237,0.00010322453454136848,0.0007207710295915604
1746728845848809200,6.266809326171875,-0.00007449323311448097,-0.0001622322015464306,-0.0023740925826132298
1746728845858827000,6.276826904296875,-0.0004137801006436348,0.0007978375069797039,-0.0013216109946370125
1746728845868845300,6.28684521484375,0.0001222868449985981,0.0005954462103545666,0.0010819801827892661
1746728845878863000,6.296863037109375,-0.001220212783664465,0.0006471117958426476,-0.00006504333578050137
1746728845888880000,6.306880126953125,0.0011209493968635798,-0.0005997037515044212,0.002340835053473711
1746728845898898200,6.316898193359375,-0.0007067779079079628,0.000369952991604805,-0.0022413996048271656
1746728845908916200,6.326916259765625,-0.0008993805386126041,-0.0003500077873468399,-0.0003533647395670414
1746728845918934000,6.33693408203125,0.0005717496387660503,0.0013128696009516716,0.0012842129217460752
1746728845928952300,6.346952392578125,-0.00048785842955112457,-0.001745869405567646,-0.0004979986697435379
1746728845938970000,6.35697021484375,0.0002256021834909916,-0.0002507711760699749,-0.00010278541594743729
1746728845948988200,6.36698828125,0.0000053620897233486176,0.00039929943159222603,-0.0003075299318879843
1746728845959006000,6.377005859375,-0.0007259417325258255,-0.00018526427447795868,0.0009958210866898298
1746728845969024300,6.387024169921875,0.0006776251830160618,-0.002224263735115528,0.00034910766407847404
1746728845979041000,6.397041015625,-0.0019080378115177155,-0.0010114600881934166,-0.0012597078457474709
1746728845989059300,6.407059326171875,0.00018774531781673431,0.0005577784031629562,0.0019494444131851196
1746728845999077000,6.4170771484375,0.0020378432236611843,0.0015111900866031647,-0.0014713858254253864
1746728846009095200,6.42709521484375,0.0018654812593013048,0.0009675337933003902,0.0017597614787518978
1746728846019113000,6.437113037109375,0.0005051386542618275,0.00018935836851596832,-0.0011766399256885052
1746728846029131300,6.44713134765625,-0.001243804581463337,-0.001101010013371706,0.0006798573303967714
1746728846039149300,6.4571494140625,-0.0021402244456112385,-0.00035212934017181396,0.0013310002395883203
1746728846049167000,6.4671669921875,0.00016145454719662666,-0.0033170452807098627,0.002845466136932373
1746728846059185200,6.47718505859375,0.0011675967834889889,-0.0012006312608718872,0.0006962951738387346
1746728846069202200,6.4872021484375,-0.0014570802450180054,-0.0001561022363603115,0.00001322687603533268
1746728846079220200,6.49722021484375,0.001768806716427207,0.0003448384813964367,0.000984215410426259
1746728846089238300,6.50723828125,-0.0007479996420443058,0.0023932242766022682,0.0009797425009310246
1746728846099256300,6.51725634765625,0.0004424336366355419,-0.0009626252576708794,-0.0013148370198905468
1746728846109274000,6.527274169921875,0.0004925597459077835,0.0012711328454315662,-0.00013144337572157383
1746728846119292200,6.537292236328125,-0.00017003482207655907,0.00026818644255399704,0.0015908228233456612
1746728846129310200,6.547310302734375,-0.0010442445054650307,0.00017910869792103767,-0.00014311214908957481
1746728846139328300,6.557328369140625,0.000784548232331872,-0.0017104041762650013,-0.0019031953997910023
1746728846149345300,6.56734521484375,-0.0003215544857084751,-0.0019455254077911377,0.00041479081846773624
1746728846159363300,6.57736328125,-0.001446740236133337,0.0006566494703292847,-0.002100565005093813
1746728846169381000,6.587381103515625,-0.00030659791082143784,0.00034543033689260483,-0.0016705950256437063
1746728846179399200,6.597399169921875,-0.00328321335837245,0.001622149720788002,0.00014594709500670433
1746728846189417200,6.607417236328125,0.0007635140791535378,-0.0013580536469817162,-0.0012773650232702494
1746728846199435300,6.617435302734375,0.0021132039837539196,-0.0007457928732037544,0.001314955879934132
1746728846209453000,6.627453125,-0.0002453876659274101,-0.00198007607832551,0.00004128133878111839
1746728846219471000,6.63747119140625,-0.0008211629465222359,-0.0008061546832323074,-0.0031441254541277885
1746728846229489200,6.6474892578125,-0.00013959547504782677,0.0005068210884928703,-0.0017415836919099092
1746728846239506200,6.657506103515625,0.000804761191830039,-0.001039943192154169,-0.0004142641555517912
1746728846249524200,6.667524169921875,0.00020690681412816048,-0.0009573092684149742,-0.0010797420982271433
1746728846259542300,6.677542236328125,-0.0007787290960550308,0.00045949220657348633,0.003054016502574086
1746728846269560000,6.68756005859375,0.0009827394969761372,-0.0010646204464137554,-0.0004819086752831936
1746728846279578000,6.697578125,0.0008021772373467684,0.0013735033571720123,0.0003881461452692747
1746728846289596200,6.70759619140625,-0.0015970831736922264,-0.00014768028631806374,0.00007846858352422714
1746728846299614200,6.7176142578125,-0.0007869494147598743,0.0019069481641054153,0.0009706274140626192
1746728846309632000,6.727632080078125,-0.0007500299252569675,0.0017742174677550793,-0.00030434969812631607
1746728846319650000,6.737650146484375,-0.001956175547093153,-0.001112649217247963,-0.001195975812152028
1746728846329667000,6.7476669921875,0.000357841607183218,0.0001542181707918644,-0.002795135136693716
1746728846339685000,6.75768505859375,-0.0005460353568196297,-0.0012439414858818054,-0.0005109419580549002
1746728846349703200,6.767703125,-0.0013210438191890717,-0.0005693435668945312,0.0019559806678444147
1746728846359721200,6.77772119140625,0.0009682092349976301,0.0006077736616134644,0.0008800635114312172
1746728846369739300,6.7877392578125,-0.000290547963231802,-0.0012817359529435635,0.000530005432665348
1746728846379757000,6.797757080078125,0.0039223069325089455,-0.0005062236450612545,0.000042913248762488365
1746728846389775400,6.807775390625,0.001324101584032178,-0.0008701970800757408,0.0005990064237266779
1746728846399793200,6.817793212890625,-0.0032312357798218727,-0.003360252594575286,0.00023175636306405067
1746728846409811200,6.827811279296875,-0.0012952480465173721,0.0004677628166973591,-0.0010020909830927849
1746728846419828200,6.837828125,0.00047442223876714706,-0.0005921749398112297,0.0018770524766296148
1746728846429846300,6.84784619140625,0.001792142167687416,-0.0014706971123814583,-0.0014009675942361355
1746728846439864000,6.857864013671875,-0.0010063075460493565,-0.0005833315663039684,-0.000003873137757182121
1746728846449882400,6.86788232421875,0.001072002574801445,0.00026489514857530594,-0.0033142557367682457
1746728846459900200,6.877900146484375,0.0001127319410443306,0.00018260348588228226,-0.0031896200962364674
1746728846469918200,6.887918212890625,-0.0013876399025321007,0.00042071007192134857,-0.003627992235124111
1746728846479936000,6.89793603515625,-0.000819055363535881,0.0004385532811284065,-0.00006441655568778515
1746728846489954300,6.907954345703125,-0.001984930131584406,0.0014434740878641605,-0.0002488743048161268
1746728846499972000,6.91797216796875,0.002032448537647724,0.0004493161104619503,-0.00036339019425213337
1746728846509989400,6.9279892578125,-0.0015640417113900185,0.0006035566329956055,0.0007775560952723026
1746728846520007200,6.938007080078125,0.0005041691474616528,-0.0007469323463737965,0.002355212578549981
1746728846530025200,6.948025146484375,-0.0002844729460775852,0.0010570753365755081,-0.00023079966194927692
1746728846540043000,6.95804296875,0.0008558924309909344,-0.000012449920177459717,-0.0008494521025568247
1746728846550061300,6.968061279296875,0.0008736853487789631,-0.0006176340393722057,0.0016240018885582685
1746728846560079000,6.9780791015625,0.0005799387581646442,0.0004516253247857094,-0.00027403305284678936
1746728846570097200,6.98809716796875,-0.0011851675808429718,0.0006594494916498661,0.0023705896455794573
1746728846580115200,6.998115234375,0.00010646553710103035,0.00034306570887565613,0.00016229646280407906
1746728846590132200,7.00813232421875,-0.0014793644659221172,-0.004242646042257547,0.0002825292758643627
1746728846600150000,7.01814990234375,0.0015609001275151968,-0.00022926228120923042,-0.0005052338819950819
1746728846610168300,7.028168212890625,0.00024821702390909195,-0.0012192502617835999,0.0018917403649538755
1746728846620186000,7.03818603515625,0.0006961608305573463,0.0019339323043823242,0.0009148928802460432
1746728846630204200,7.0482041015625,0.0006331433542072773,-0.0020222067832946777,-0.0015026924666017294
1746728846640222000,7.058221923828125,0.0010531237348914146,0.0008430886082351208,0.0008278400637209415
1746728846650240300,7.068240234375,0.0009064283221960068,-0.001971646212041378,-0.00018393294885754585
1746728846660258300,7.07825830078125,0.0009884536266326904,0.0005130828358232975,0.000675469171255827
1746728846670276000,7.088276123046875,-0.001949827652424574,0.0005973083898425102,-0.00010674865916371346
1746728846680293000,7.098293212890625,-0.0009996118023991585,-0.0020224428735673428,0.00027674646116793156
1746728846690311200,7.108311279296875,-0.002241115551441908,-0.000947627704590559,0.0005988758057355881
1746728846700329000,7.118328857421875,0.0019280633423477411,-0.0031713673379272223,0.0010963542154058814
1746728846710347300,7.12834716796875,-0.00029655685648322105,-0.0011586770415306091,-0.0017253572586923838
1746728846720365300,7.138365234375,-0.002944537904113531,-0.00012909900397062302,-0.001379945082589984
1746728846730383000,7.148383056640625,-0.0009100083261728287,-0.0011531691998243332,-0.001280306139960885
1746728846740401200,7.158401123046875,0.00023488467559218407,-0.0010876557789742947,-0.0018137374427169561
1746728846750419200,7.168419189453125,0.0015203687362372875,-0.0006999103352427483,0.0015631733695045114
1746728846760437200,7.178437255859375,0.0007443237118422985,0.00020023807883262634,-0.0030054792296141386
1746728846770454300,7.188454345703125,-0.00007832096889615059,0.0014734207652509212,0.000016032252460718155
1746728846780472300,7.198472412109375,0.0016292980872094631,0.00039004720747470856,0.0010533335153013468
1746728846790490000,7.208489990234375,-0.0006850780919194221,-0.0012107291258871555,0.0008030731696635485
1746728846800508200,7.218508056640625,0.0006289253942668438,-0.0032456505578011274,0.0008949523326009512
1746728846810526200,7.228526123046875,0.00014621810987591743,0.00041369348764419556,0.0008832644671201706
1746728846820544300,7.238544189453125,-0.00016404036432504654,0.00020250491797924042,-0.00039025931619107723
1746728846830562000,7.24856201171875,0.00013279449194669724,0.0004077143967151642,0.0006928856018930674
1746728846840580400,7.258580322265625,-0.0004440462216734886,-0.002217896282672882,0.0008556046523153782
1746728846850598100,7.26859814453125,-0.00034888042137026787,-0.00045665493234992027,-0.0005781340878456831
1746728846860615200,7.278615234375,0.0006386195309460163,0.001838190946727991,0.002493023406714201
1746728846870633200,7.28863330078125,-0.0019139917567372322,0.00006488151848316193,-0.0005449203308671713
1746728846880651300,7.2986513671875,0.0006639482453465462,0.0018622488714754581,-0.000004032161086797714
1746728846890669000,7.3086689453125,-0.0016709272749722004,0.002428818494081497,-0.0007138496730476618
1746728846900687000,7.31868701171875,0.001640979666262865,0.0007656742818653584,-0.0003692368045449257
1746728846910705200,7.328705078125,-0.0012090937234461308,0.0005325037054717541,0.0016931616701185703
1746728846920723200,7.33872314453125,0.0016034706495702267,0.0004358310252428055,0.0006705077830702066
1746728846930741000,7.348740966796875,0.0007239351980388165,0.0016331691294908524,0.0001181082334369421
1746728846940759300,7.35875927734375,0.0005335188470780849,-0.0011042938567698002,-0.0004712494555860758
1746728846950776000,7.368776123046875,-0.0009067677892744541,0.0014528464525938034,-0.00004031858406960964
1746728846960794000,7.378794189453125,-0.0007536360062658787,0.0001577511429786682,-0.0007151635363698006
1746728846970812200,7.388812255859375,-0.001426731701940298,0.0002827513962984085,-0.0004852509591728449
1746728846980830200,7.398830322265625,0.0025112847797572613,-0.0013215369544923306,-0.0006594217848032713
1746728846990848000,7.408847900390625,0.0016189983580261469,0.0002950630150735378,0.0011781896464526653
1746728847000866000,7.418865966796875,0.0008016740903258324,-0.0052549648098647594,0.0045667956583201885
1746728847010884400,7.42888427734375,-0.0003565968945622444,0.0008982340805232525,-0.002612009411677718
1746728847020902100,7.438902099609375,0.0011238541919738054,0.0019834726117551327,-0.00016110227443277836
1746728847030919200,7.448919189453125,0.000060930848121643066,-0.0008560945279896259,0.0019764460157603025
1746728847040937200,7.458937255859375,0.0018364603165537119,-0.00040202541276812553,0.00024166284129023552
1746728847050955300,7.468955322265625,0.0011514751240611076,-0.00017069606110453606,0.001905412063933909
1746728847060973000,7.47897314453125,0.00010272255167365074,-0.0002780212089419365,-0.0012839895207434893
1746728847070991400,7.488991455078125,-0.0014777635224163532,0.00042665377259254456,0.0029738214798271656
1746728847081009200,7.499009033203125,0.0006064260378479958,-0.0007384791970252991,-0.0001154453493654728
1746728847091027200,7.509027099609375,0.0011895494535565376,-0.0001519988290965557,-0.002533193677663803
1746728847101045200,7.519045166015625,0.001530167879536748,0.0018802597187459469,-0.0010604658164083958
1746728847111063300,7.529063232421875,-0.00033315597102046013,-0.0004430231638252735,-0.0017214457038789988
1746728847121081000,7.5390810546875,0.0005073375068604946,-0.0002310355193912983,0.0006535614375025034
1746728847131098400,7.549098388671875,-0.000049083493649959564,0.0003223768435418606,-0.004939067177474499
1746728847141116200,7.5591162109375,0.0008998005650937557,0.0007141274400055408,0.0009702204260975122
1746728847151134200,7.56913427734375,-0.0009800437837839127,0.0001941588707268238,0.0019288636976853013
1746728847161152000,7.579152099609375,-0.0007888288237154484,0.000679386779665947,-0.0009082017932087183
1746728847171170300,7.58917041015625,-0.0008492916822433472,0.00034312671050429344,0.0012926674680784345
1746728847181188000,7.59918798828125,0.0017598073463886976,0.0017175842076539993,-0.000651972834020853
1746728847191206100,7.6092060546875,-0.0014874711632728577,-0.0008420119993388653,0.0015272926539182663
1746728847201224200,7.61922412109375,0.00024997489526867867,-0.001902216114103794,-0.0015960626769810915
1746728847211242200,7.6292421875,0.00029784953221678734,0.000398123636841774,0.0012610845733433962
1746728847221259000,7.639259033203125,-0.0013799415901303291,-0.00014622649177908897,-0.0013160565868020058
1746728847231277300,7.64927734375,0.0003020600415766239,0.000552683137357235,-0.0016233185306191444
1746728847241295000,7.659295166015625,-0.0004161945544183254,0.0007609422318637371,0.00013010669499635696
1746728847251313200,7.669313232421875,0.0018394340295344591,0.002399782184511423,-0.0006788598839193583
1746728847261331200,7.679331298828125,0.0016807096544653177,-0.0018660696223378181,0.0012087885988876224
1746728847271349200,7.689349365234375,0.0008220616728067398,-0.0013787196949124336,0.004037507809698582
1746728847281367000,7.699366943359375,0.0020146253518760204,0.0004524700343608856,-0.001595610287040472
1746728847291385000,7.709385009765625,0.0011097956448793411,-0.000498507171869278,0.0004452515859156847
1746728847301402000,7.719402099609375,0.0007955427281558514,0.0012812833301723003,-0.000595778226852417
1746728847311420200,7.729420166015625,-0.0004514707252383232,0.0014429530128836632,0.00005078362300992012
1746728847321438000,7.73943798828125,-0.00042830128222703934,0.0008360184729099274,0.0017525434959679842
1746728847331456300,7.749456298828125,-0.0004870546981692314,-0.00007405364885926247,0.0014499286189675331
1746728847341474300,7.759474365234375,0.0003686188720166683,-0.0008437070064246655,-0.0010126964189112186
1746728847351492000,7.7694921875,0.00038428977131843567,-0.002490440383553505,0.00023018615320324898
1746728847361510400,7.779510498046875,-0.0004852320998907089,-0.0010571270249783993,-0.0037994429003447294
1746728847371528200,7.789528076171875,-0.00016388250514864922,0.00053041847422719,-0.0017153376247733831
1746728847381546200,7.799546142578125,-0.00037933187559247017,0.00019645830616354942,-0.0001962706446647644
1746728847391563300,7.809563232421875,0.000675444956868887,0.0003032009117305279,-0.0038642468862235546
1746728847401581300,7.819581298828125,0.00011884421110153198,-0.0001812279224395752,-0.0001691109500825405
1746728847411599000,7.82959912109375,-0.0018698056228458881,-0.0007088738493621349,0.0007246180903166533
1746728847421617200,7.8396171875,-0.0012263860553503036,0.0007294993847608566,-0.0002852524630725384
1746728847431635200,7.84963525390625,0.0012826102320104837,0.0002050916664302349,0.000522614223882556
1746728847441653200,7.8596533203125,0.0010828732047230005,0.002052526455372572,-0.00022839708253741264
1746728847451671000,7.869671142578125,-0.0013015479780733585,-0.0002721864730119705,-0.0010451879352331161
1746728847461689300,7.879689453125,-0.0028126253746449947,0.00004925718531012535,-0.00018898164853453636
1746728847471707100,7.88970703125,-0.00003455020487308502,-0.0002204636111855507,-0.0008621003944426775
1746728847481725200,7.89972509765625,-0.0010311049409210682,-0.0002870424650609493,-0.000056227901950478554
1746728847491742200,7.9097421875,0.000735635869204998,-0.002129949862137437,0.00042686937376856804
1746728847501760300,7.91976025390625,0.0025662456173449755,-0.0008866819553077221,-0.0014634388498961926
1746728847511778000,7.929778076171875,0.00045952340587973595,-0.00007152324542403221,0.0020573341753333807
1746728847521796400,7.93979638671875,0.0012688583228737116,-0.0022473258432000875,-0.0028644539415836334
1746728847531814100,7.949814208984375,0.0006202026270329952,-0.00021990947425365448,0.00279955449514091
1746728847541832200,7.959832275390625,0.0006172731518745422,-0.0013466929085552692,-0.0010737467091530561
1746728847551850000,7.96985009765625,-0.0005012713372707367,0.0023562866263091564,-0.0005597879644483328
1746728847561868300,7.979868408203125,-0.00001897290349006653,-0.0004767845384776592,-0.0005704406648874283
1746728847571885000,7.989885009765625,-0.0004122350364923477,-0.0002882578410208225,0.0014526568120345473
1746728847581903000,7.999903076171875,-0.001334221102297306,0.0005418495275080204,-0.0014624395407736301
1746728847591921400,8.00992138671875,0.0012062208261340857,0.0005339570343494415,0.0016507904510945082
1746728847601939500,8.019939453125,0.00256416667252779,-0.0007084077224135399,-0.0001862579956650734
1746728847611957200,8.029957275390625,-0.000630007591098547,0.00001928769052028656,-0.0017416542395949364
1746728847621975300,8.039975341796875,-0.0026468192227184772,0.0003567100502550602,0.0006250971928238869
1746728847631993600,8.04999365234375,-0.0007185796275734901,-0.0006775953806936741,-0.0016285658348351717
1746728847642011400,8.060011474609375,-0.0011247117072343826,-0.0004842500202357769,0.0012971828691661358
1746728847652029400,8.070029541015625,-0.0007230956107378006,0.00044865114614367485,0.0016385653289034963
1746728847662047500,8.080047607421875,-0.0005819480866193771,-0.000690915621817112,-0.004701355472207069
1746728847672064500,8.090064453125,-0.0019218944944441319,-0.0007676798850297928,0.00016767065972089767
1746728847682082300,8.100082275390625,-0.0007825945504009724,0.0015125186182558537,-0.0027490234933793545
1746728847692100600,8.1101005859375,0.0003667939454317093,0.0004132036119699478,-0.0008076690137386322
1746728847702118400,8.120118408203124,0.0006730575114488602,0.0008574188686907291,-0.0009315060451626778
1746728847712136400,8.130136474609374,-0.00021977722644805908,-0.00021694926545023918,-0.0008616414852440357
1746728847722154500,8.140154541015624,0.00002177152782678604,0.00034923898056149483,-0.0016190442256629467
1746728847732172500,8.150172607421876,0.001022659707814455,0.000014545861631631851,-0.00007062708027660847
1746728847742190300,8.1601904296875,-0.0008625923655927181,0.00048086559399962425,0.00043084612116217613
1746728847752208400,8.17020849609375,-0.0001666545867919922,0.002880607731640339,0.003069272730499506
1746728847762225400,8.180225341796875,-0.0009080786257982254,-0.00010852422565221786,0.0007499256171286106
1746728847772243500,8.190243408203125,0.0023484546691179276,-0.00016182474792003632,-0.0012979749590158463
1746728847782261200,8.20026123046875,0.0011516299564391375,0.001106372568756342,-0.0011650831438601017
1746728847792279600,8.210279541015625,-0.0006369003094732761,-0.001043809112161398,0.0008218893781304359
1746728847802297300,8.22029736328125,0.0015713926404714584,0.0025080484338104725,-0.00015389290638267994
1746728847812315400,8.2303154296875,0.002396687399595976,-0.0020140022970736027,0.0018907635239884257
1746728847822333400,8.24033349609375,-0.0008691470138728619,0.0006670020520687103,-0.0013590918388217688
1746728847832351500,8.2503515625,-0.0006753024645149708,0.002496611326932907,-0.0017464596312493086
1746728847842369300,8.260369384765625,0.00020247558131814003,0.0017056530341506004,0.0004977863281965256
1746728847852386600,8.270386474609374,-0.0007308670319616795,0.0005243583582341671,0.0005639984738081694
1746728847862404400,8.280404296875,0.0015842190477997065,0.001622646115720272,-0.0013010131660848856
1746728847872422400,8.29042236328125,-0.0002679126337170601,0.0004967004060745239,-0.0001755966804921627
1746728847882440400,8.3004404296875,-0.0006969477981328964,0.00021360628306865692,0.000694724265486002
1746728847892458500,8.31045849609375,0.0010564830154180527,0.002111036330461502,0.0010151888709515333
1746728847902476300,8.320476318359376,-0.0016841762699186802,-0.002199822571128607,0.0011624617036432028
1746728847912494300,8.330494384765625,0.0010922504588961601,0.0006748265586793423,-0.00040644570253789425
1746728847922512600,8.3405126953125,0.0004078182391822338,0.0030013644136488438,-0.0004719595890492201
1746728847932530400,8.350530517578125,-0.0002796999178826809,0.0008553718216717243,-0.0006327081937342882
1746728847942547200,8.360547119140625,-0.00035986118018627167,-0.0009760838001966476,-0.001370936632156372
1746728847952565500,8.3705654296875,0.0014540485572069883,-0.0005446509458124638,-0.00021500210277736187
1746728847962583600,8.38058349609375,-0.0004935208708047867,-0.001807255670428276,0.000602055573835969
1746728847972601300,8.390601318359375,0.00010287901386618614,-0.0010230452753603458,-0.0012446632608771324
1746728847982619600,8.40061962890625,-0.0008792947046458721,0.00047258613631129265,-0.00010962411761283875
1746728847992637400,8.410637451171874,0.0008910582400858402,0.0017606797628104687,0.00033275876194238663
1746728848002655500,8.420655517578124,0.0002993037924170494,-0.0010452265851199627,-0.0011450292076915503
1746728848012673300,8.43067333984375,-0.0015678219497203827,-0.0030283357482403517,-0.0016085112001746893
1746728848022691600,8.440691650390624,0.00032728351652622223,0.0004377681761980057,-0.0009973158594220877
1746728848032708400,8.450708251953126,-0.0009546889923512936,-0.0016371291130781174,0.0011609892826527357
1746728848042726400,8.460726318359375,-0.0019302046857774258,-0.00014815572649240494,0.0009972047992050648
1746728848052744400,8.470744384765625,0.0015763866249471903,0.0011476431973278522,-0.00025591161102056503
1746728848062762500,8.480762451171875,-0.001695306971669197,-0.0002702237106859684,-0.0002625696361064911
1746728848072780300,8.4907802734375,-0.0008482309058308601,0.0002190624363720417,0.0009085035417228937
1746728848082798600,8.500798583984375,0.0010713753290474415,0.00007498543709516525,-0.0005266738589853048
1746728848092816400,8.51081640625,0.0006835004314780235,0.000697968527674675,-0.0002873409539461136
1746728848102834400,8.52083447265625,0.0005356953479349613,0.0019933306612074375,0.0013915157178416848
1746728848112852200,8.530852294921875,-0.000712753739207983,0.000891875009983778,0.0019525864627212286
1746728848122869500,8.540869384765625,0.000102972611784935,-0.0006154738366603851,0.0008178134448826313
1746728848132887300,8.55088720703125,0.0022122985683381557,-0.0010582664981484413,0.002397338394075632
1746728848142905600,8.560905517578124,0.0008626086637377739,0.0006773155182600021,-0.0009846100583672523
1746728848152923400,8.57092333984375,-0.000757262110710144,0.0019454173743724823,0.0003139902837574482
1746728848162941400,8.58094140625,0.0004060063511133194,-0.00021547172218561172,-0.00010705552995204926
1746728848172959200,8.590959228515626,0.001161534572020173,0.0008520213887095451,0.0014651571400463581
1746728848182977500,8.6009775390625,0.0010446219239383936,0.0005193925462663174,-0.0013940127100795507
1746728848192995600,8.61099560546875,0.0016188116278499365,0.001161796972155571,0.00037541287019848824
1746728848203013400,8.621013427734376,-0.0019327802583575249,-0.0007471567951142788,0.000996462069451809
1746728848213031400,8.631031494140625,-0.0004512402229011059,0.0028678029775619507,-0.0023194528184831142
1746728848223048400,8.64104833984375,0.0005543697625398636,0.0009066509082913399,-0.0035551595501601696
1746728848233066200,8.651066162109375,0.001341298222541809,0.0002229739911854267,-0.0015668573323637247
1746728848243084500,8.66108447265625,-0.0004680533893406391,0.00010899081826210022,0.0012012321967631578
1746728848253102600,8.6711025390625,0.0008056028746068478,0.0029249005019664764,-0.0017739313188940287
1746728848263120400,8.681120361328125,0.00007722852751612663,0.0015493775717914104,-0.0007560709491372108
1746728848273138400,8.691138427734375,0.00009154388681054115,0.000521557405591011,-0.00032728887163102627
1746728848283156500,8.701156494140625,0.0006007403135299683,0.00005150912329554558,0.0007675366941839457
1746728848293174500,8.711174560546874,0.0013798133004456758,0.0011559110134840012,0.0016023204661905766
1746728848303192300,8.7211923828125,0.00094598438590765,0.000003295019268989563,-0.0005971842911094427
1746728848313209600,8.731209716796876,0.0011150871869176626,-0.0007211552001535892,0.0024126647040247917
1746728848323227400,8.741227294921876,-0.0003182264044880867,-0.00284768920391798,-0.002669977955520153
1746728848333245400,8.751245361328126,0.0005360636860132217,-0.0018133376725018024,-0.0015954216942191124
1746728848343263500,8.761263427734375,-0.0020866170525550842,-0.0010306346230208874,-0.0014140605926513672
1746728848353281500,8.771281494140625,0.0020631966181099415,0.000613571610301733,-0.0015239447820931673
1746728848363299300,8.78129931640625,0.0013705084566026926,-0.0002471618354320526,-0.003738895757123828
1746728848373317400,8.7913173828125,0.0011716450098901987,-0.00011326512321829796,-0.000759416026994586
1746728848383335400,8.80133544921875,0.0005900105461478233,0.00028407853096723557,0.00006057135760784149
1746728848393353500,8.811353515625,0.0017417422495782375,-0.0004266863688826561,0.0008025153074413538
1746728848403370500,8.82137060546875,-0.004283925984054804,-0.001020038966089487,0.0002666872460395098
1746728848413388500,8.831388427734375,-0.0038326531648635864,-0.0017700293101370335,-0.00018751411698758602
1746728848423406300,8.84140625,0.0016534584574401379,0.0016643833369016647,-0.0011446543503552675
1746728848433424400,8.85142431640625,-0.0011442038230597973,-0.000215054489672184,0.0026344559155404568
1746728848443442400,8.8614423828125,-0.0005194265395402908,0.00036365026608109474,0.00013854121789336205
1746728848453460500,8.87146044921875,-0.0005688564851880074,-0.0004643341526389122,0.0005832850001752377
1746728848463478300,8.881478271484376,-0.0006849705241620541,-0.0009266589768230915,-0.0011421767994761467
1746728848473496300,8.891496337890626,0.001057569868862629,-0.00019425060600042343,0.0002269321121275425
1746728848483514600,8.9015146484375,-0.0006372658535838127,-0.002704013604670763,-0.0005736141465604305
1746728848493532400,8.911532470703126,-0.0011812075972557068,0.0010007638484239578,-0.0005050755571573973
1746728848503549400,8.921549560546875,-0.0006448468193411827,0.0004617399536073208,-0.00027045118622481823
1746728848513567500,8.9315673828125,0.00015104422345757484,-0.0001595849171280861,-0.0011418650392442942
1746728848523585300,8.941585205078125,-0.00045349355787038803,0.0002468135207891464,0.0015143717173486948
1746728848533603300,8.951603271484375,-0.0007683676667511463,0.0010483316145837307,0.0000359176192432642
1746728848543621600,8.96162158203125,0.00018238089978694916,0.000023813452571630478,-0.0005355968605726957
1746728848553639400,8.971639404296875,-0.0038158209063112736,0.0015824339352548122,0.0008894714992493391
1746728848563657500,8.981657470703125,-0.00013746321201324463,-0.00015447987243533134,-0.0011270737741142511
1746728848573675500,8.991675537109375,0.0016707112081348896,-0.0018628076650202274,0.0015361662954092026
1746728848583693600,9.001693603515625,0.0005918648093938828,0.00046159932389855385,0.00028794282115995884
1746728848593710300,9.01171044921875,-0.001882060430943966,-0.0005098362453281879,0.004466446116566658
1746728848603728600,9.021728759765624,-0.00021651946008205414,-0.003324264893308282,-0.0031882773619145155
1746728848613746400,9.031746337890626,0.0005734823644161224,-0.00034117279574275017,0.0024678220506757498
1746728848623764500,9.041764404296876,0.0007993185427039862,-0.0010181483812630177,-0.000661392230540514
1746728848633782300,9.0517822265625,0.0010598874650895596,0.0006755045615136623,-0.001410175347700715
1746728848643800600,9.061800537109375,-0.0010570595040917397,0.00008694594725966454,0.002286558737978339
1746728848653818400,9.071818359375,0.000485728494822979,0.00026425067335367203,0.0007126675918698311
1746728848663836400,9.08183642578125,0.0009057088755071163,0.0004216437228024006,-0.0003800273407250643
1746728848673854500,9.0918544921875,0.0024586317595094442,0.000035244040191173553,0.00023966189473867416
1746728848683871500,9.10187158203125,-0.0003241053782403469,-0.00006009731441736221,0.0005195601843297482
1746728848693889300,9.11188916015625,0.0006797355599701405,0.0017489795573055744,-0.00042177876457571983
1746728848703907600,9.121907470703125,-0.000538660679012537,0.0016003749333322048,-0.002804508898407221
1746728848713925400,9.13192529296875,-0.0007743332535028458,-0.0011853044852614403,-0.001935306005179882
1746728848723943400,9.141943359375,0.0007572509348392487,-0.0029083697590976954,0.000569929601624608
1746728848733961200,9.151961181640624,0.00041817035526037216,-0.001436085905879736,0.0006998926401138306
1746728848743979500,9.1619794921875,-0.0008905068971216679,0.0010568993166089058,0.0012061594752594829
1746728848753997300,9.171997314453124,-0.002073158510029316,-0.0011973180808126926,0.0018546084174886346
1746728848764015400,9.182015380859376,-0.0006816568784415722,0.0016232356429100037,0.0012796319788321853
1746728848774033700,9.19203369140625,0.0026525806169956923,-0.00038215238600969315,0.0010875201551243663
1746728848784050400,9.202050537109375,-0.00019460497424006462,0.0005848412401974201,-0.001317047979682684
1746728848794068200,9.212068115234375,-0.0010424735955893993,0.00004932563751935959,-0.002091635949909687
1746728848804086500,9.22208642578125,0.0005029588937759399,0.0006850222125649452,-0.0006260983645915985
1746728848814104300,9.232104248046875,0.0009949845261871815,0.0009147524833679199,-0.0005357838235795498
1746728848824122400,9.242122314453125,0.0001563550904393196,0.0005821236409246922,0.0022224520798772573
1746728848834140400,9.252140380859375,0.00047812797129154205,-0.0007358752191066742,-0.0033620749600231647
1746728848844158500,9.262158447265625,0.00030608754605054855,-0.0003401292487978935,-0.0007338013965636492
1746728848854176500,9.272176513671875,0.00005469564348459244,-0.001038797665387392,-0.0013664965517818928
1746728848864194300,9.2821943359375,0.0015268910210579634,-0.0021823591087013483,-0.0020128460600972176
1746728848874211300,9.29221142578125,0.00017912080511450768,-0.00003217719495296478,0.0007013666909188032
1746728848884229400,9.3022294921875,0.00022679101675748825,-0.0011531016789376736,-0.0012808239553123713
1746728848894247400,9.312247314453124,0.0001337067224085331,0.0026651285588741302,0.003113559214398265
1746728848904265500,9.322265380859376,-0.0013209120370447636,-0.0008478472009301186,-0.000032965559512376785
1746728848914283500,9.332283447265626,-0.0001249704509973526,0.0017939899116754532,-0.0015804034192115068
1746728848924301300,9.34230126953125,-0.002166283316910267,0.00022032810375094414,-0.0021204922813922167
1746728848934319600,9.352319580078126,-0.0010166936554014683,-0.0021545474883168936,0.002978664357215166
1746728848944337400,9.36233740234375,0.0011268844828009605,-0.0009505324997007847,0.0022596106864511967
1746728848954355500,9.37235546875,0.0003261445090174675,0.0002310778945684433,-0.0026402620133012533
1746728848964372500,9.38237255859375,0.00008566118776798248,-0.0011585596948862076,0.00001544225960969925
1746728848974390500,9.392390625,-0.0018790955655276775,0.000764855183660984,-0.0012679973151534796
1746728848984408300,9.402408203125,0.00008977949619293213,0.0011552744545042515,-0.0014917028602212667
1746728848994426400,9.41242626953125,0.000057279132306575775,-0.0005106627941131592,0.0009393151849508286
1746728849004444400,9.4224443359375,-0.00015390943735837936,-0.00042171310633420944,0.0009827245958149433
1746728849014462500,9.43246240234375,-0.0012109517119824886,-0.0004748092032968998,-0.00044278334826231003
1746728849024480300,9.442480224609374,0.0018452920485287905,0.0001829918473958969,-0.0017890115268528461
1746728849034498600,9.45249853515625,-0.0009135603904724121,-0.0022168573923408985,0.00041409884579479694
1746728849044516400,9.462516357421874,0.00014291564002633095,-0.00010070949792861938,0.0026093425694853067
1746728849054534400,9.472534423828124,0.0020371796563267708,0.0014701955951750278,0.002350900787860155
1746728849064551400,9.482551513671876,0.0010163898114115,-0.001469933893531561,-0.0007271808572113514
1746728849074569500,9.492569580078126,-0.0009486363269388676,-0.0011697341687977314,-0.0016422944609075785
1746728849084587300,9.502587158203125,-0.0010594241321086884,0.0012750476598739624,-0.0028817292768508196
1746728849094605600,9.51260546875,-0.001046793069690466,0.00018216250464320183,-0.0009734693448990583
1746728849104623400,9.522623291015625,0.0017790873534977436,-0.002139847492799163,-0.0007223333232104778
1746728849114641400,9.532641357421875,-0.00028345733880996704,-0.000004838220775127411,-0.00047135399654507637
1746728849124659500,9.542659423828125,-0.0009093005210161209,0.0006612185388803482,-0.0006636343896389008
1746728849134677500,9.552677490234375,0.0006517674773931503,-0.0007453649304807186,-0.003913176245987415
1746728849144695600,9.562695556640625,0.0008147526532411575,0.00026317406445741653,0.0008999544661492109
1746728849154712300,9.57271240234375,0.0020088334567844868,0.001075184904038906,0.0007434489671140909
1746728849164730600,9.582730712890625,0.0011281261686235666,0.0009223194792866707,-0.00019531534053385258
1746728849174748400,9.59274853515625,-0.0008511357009410858,0.002289798576384783,0.002050600480288267
1746728849184766500,9.602766357421874,0.0017648874782025814,-0.00039173848927021027,0.002425041049718857
1746728849194784500,9.612784423828124,0.0017342977225780487,0.0014441991224884987,0.001886329147964716
1746728849204802600,9.622802490234376,0.00039259716868400574,-0.00007966160774230957,-0.0012399556580930948
1746728849214820400,9.6328203125,-0.000529811717569828,0.00047938665375113487,0.001740242587402463
1746728849224838400,9.64283837890625,-0.00008000386878848076,0.0000468892976641655,-0.0014813835732638836
1746728849234856400,9.6528564453125,-0.0009594010189175606,0.0039025666192173958,-0.0001103617250919342
1746728849244873500,9.66287353515625,0.0005450188182294369,0.010564464144408703,-0.002122912323102355
1746728849254891500,9.6728916015625,-0.0005560340359807014,0.035816557705402374,-0.016253113746643066
1746728849264909600,9.68290966796875,0.0014578483533114195,-0.0003241356462240219,-0.0017284981440752745
1746728849274927400,9.69292724609375,-0.00006224960088729858,0.0005863546393811703,0.00016547273844480515
1746728849284945400,9.7029453125,0.0023348615504801273,0.0029355292208492756,0.001025940291583538
1746728849294963500,9.71296337890625,-0.000441783107817173,0.0018662866204977036,-0.001691160025075078
1746728849304981500,9.7229814453125,-0.00017173867672681808,0.0021520438604056835,-0.0002719615586102009
1746728849314999300,9.732999267578125,-0.00003887247294187546,0.0016371114179491997,0.000005017034709453583
1746728849325017300,9.743017333984374,-0.00038907816633582115,-0.000024168752133846283,-0.003599038813263178
1746728849335035400,9.753035400390624,-0.00010107317939400673,0.0032741334289312363,-0.0025518364273011684
1746728849345052400,9.763052490234376,-0.0012193345464766026,0.0027484260499477386,-0.002625339664518833
1746728849355070500,9.773070556640626,-0.0003578700125217438,0.0007404293864965439,-0.0024541523307561874
1746728849365088500,9.783088623046876,0.0009316322393715382,0.000926584005355835,-0.0005499923136085272
1746728849375106300,9.793106201171875,0.00021237460896372795,-0.00046043330803513527,-0.0028191707096993923
1746728849385124400,9.803124267578125,-0.00022757938131690025,-0.001353657804429531,-0.0005940995179116726
1746728849395142400,9.813142333984375,0.0008125929161906242,0.000630092341452837,0.000573490746319294
1746728849405160400,9.823160400390625,-0.00008728913962841034,-0.0006213271990418434,0.0012984032509848475
1746728849415178500,9.833178466796875,-0.0004914873279631138,0.0005586184561252594,0.00021523842588067055
1746728849425196300,9.8431962890625,0.0003665830008685589,-0.0011229012161493301,-0.00006705662235617638
1746728849435213300,9.85321337890625,0.0016189015004783869,-0.0006436198018491268,-0.0005372024606913328
1746728849445231400,9.8632314453125,-0.00011401763185858727,-0.0016175378113985062,0.002976306015625596
1746728849455249700,9.873249755859375,0.0004009297117590904,-0.000253140926361084,0.0017868238501250744
1746728849465267500,9.883267333984374,0.0008414164185523987,0.0013335705734789371,0.0008549836929887533
1746728849475285500,9.893285400390624,-0.0007957112975418568,-0.0011497908271849155,0.0019956030882894993
1746728849485303300,9.90330322265625,-4.912726581096649e-7,-0.002462995471432805,-0.0006422579754143953
1746728849495321600,9.913321533203124,0.00011797714978456497,-0.00013681594282388687,0.0011621540179476142
1746728849505339400,9.92333935546875,0.001963547896593809,0.0006299079395830631,-0.0013334942050278187
1746728849515357400,9.933357421875,0.000918329693377018,-0.00017519667744636536,0.0020027081482112408
1746728849525375500,9.94337548828125,0.0019577613566070795,0.0016967393457889557,-0.0002633756957948208
1746728849535392500,9.953392578125,0.0005323947407305241,0.0002752239815890789,0.0033325289841741323
1746728849545410300,9.963410400390625,0.00040696002542972565,-0.0025466615334153175,0.0007708342745900154
1746728849555428600,9.9734287109375,-0.0014045094139873981,-0.0016642939299345016,0.0011566119501367211
1746728849565446400,9.9834462890625,0.0004338710568845272,-0.0014083641581237316,-0.0003922823816537857
1746728849575464400,9.99346435546875,-0.00038845278322696686,-0.002409934299066663,0.0010399054735898972
1746728849585482200,10.003482177734375,0.0003135562874376774,-0.003052288666367531,0.0031802880112081766
1746728849595500000,10.0135,0.0014118540566414595,0.0006202659569680691,0.0004344198387116194
1746728849605518000,10.02351806640625,0.0022198569495230913,0.0010567582212388515,0.0012232480803504586
1746728849615536000,10.0335361328125,-0.0016876854933798313,0.001779837068170309,0.0012240346986800432
1746728849625554200,10.04355419921875,-0.0008439961820840836,-0.0027776306960731745,0.00013293768279254436
1746728849635571000,10.053571044921876,0.00014860928058624268,-0.002116596791893244,0.003495875746011734
1746728849645589000,10.063589111328126,-0.0005075936205685139,-0.001840693410485983,0.00018237088806927204
1746728849655607000,10.07360693359375,-0.0006176009774208069,0.0007449844852089882,-0.0005199525039643049
1746728849665625000,10.083625,0.00048228446394205093,-0.00379543867893517,0.003436972154304385
1746728849675643100,10.09364306640625,0.002227545017376542,-0.003899680683389306,-0.000637441873550415
1746728849685661200,10.1036611328125,0.00021020043641328812,-0.015057526528835297,0.005287558771669865
1746728849695679200,10.11367919921875,-0.0020014457404613495,-0.0066395653411746025,0.004565090406686068
1746728849705697000,10.123697021484375,-0.00007731188088655472,-0.00400889478623867,0.00249634706415236
1746728849715715000,10.133715087890625,0.002477852860465646,-0.009127214550971985,0.0009458479471504688
1746728849725732000,10.143732177734375,-0.001957908272743225,-0.0007339962758123875,-0.0001306016929447651
1746728849735750100,10.153750244140625,0.0003937333822250366,-0.00481540197506547,0.002464332152158022
1746728849745768200,10.163768310546875,0.0017841700464487076,-0.0015000328421592712,0.0002453862689435482
1746728849755786200,10.1737861328125,0.0010478105396032333,-0.002336217788979411,0.0034807592164725065
1746728849765804000,10.183803955078124,0.00033008866012096405,0.0002784738317131996,0.0012413071235641837
1746728849775822000,10.193822021484374,0.0009708334691822529,-0.00014189118519425392,0.0012455584947019815
1746728849785840000,10.203840087890624,0.0012741675600409508,-0.001996516715735197,0.0009395612869411707
1746728849795858200,10.213858154296876,-0.0010125162079930305,-0.0014536939561367035,-0.0007836592849344015
1746728849805876000,10.2238759765625,0.0005632760003209114,-0.0007942952215671539,0.001056851353496313
1746728849815894000,10.23389404296875,-0.0006982292979955673,-0.0022260528057813644,-0.0013188528828322887
1746728849825911000,10.2439111328125,-0.000862546730786562,-0.0009168428368866444,-0.001239224337041378
1746728849835929000,10.25392919921875,0.0020179038401693106,0.0003722808323800564,-0.00011355755850672722
1746728849845947100,10.263947021484375,0.002373702125623822,-0.00026155170053243637,0.000104555394500494
1746728849855965200,10.273965087890625,0.00031177373602986336,-0.0017634788528084755,-0.0008439985103905201
1746728849865983000,10.28398291015625,0.00042762141674757004,0.0010418947786092758,-0.00013133673928678036
1746728849876001000,10.2940009765625,-0.00036773504689335823,-0.0006345054134726524,0.000024077482521533966
1746728849886019000,10.30401904296875,-0.000909954309463501,0.001663003582507372,0.0003702885005623102
1746728849896037000,10.314037109375,0.0012029563076794147,-0.00033511873334646225,-0.0006992893759161234
1746728849906055200,10.32405517578125,0.00018562888726592064,0.00021162815392017365,0.0006117848679423332
1746728849916072200,10.334072265625,0.0007878555916249752,-0.002603193512186408,-0.000780733535066247
1746728849926090000,10.344090087890624,0.0014320740010589361,-0.0022330142091959715,-0.0004148152656853199
1746728849936108000,10.35410791015625,0.0008787950500845909,-0.0009755813516676426,0.0005236172582954168
1746728849946126000,10.3641259765625,0.0004620100371539593,0.0007424238137900829,-0.0017925337888300419
1746728849956144000,10.37414404296875,-0.0000809631310403347,-0.0006366157904267311,0.0001743384636938572
1746728849966162200,10.384162109375,-0.0002673845738172531,0.0005061463452875614,-0.001314635155722499
1746728849976180000,10.394179931640625,0.0006958963349461555,-0.0005418607033789158,0.00025734701193869114
1746728849986198300,10.4041982421875,-0.0005555227398872375,-0.000005499925464391708,0.0008885161951184273
1746728849996216000,10.414216064453125,0.0017782468348741531,-0.0006331177428364754,-0.0019370364025235176
1746728850006234000,10.424234130859375,-0.00010114582255482674,0.0008987323381006718,-0.002155682072043419
1746728850016251100,10.434251220703125,-0.0009385272860527039,0.0002730400301516056,-0.00029216380789875984
1746728850026269200,10.444269287109375,-0.0009888610802590847,0.0005494761280715466,-0.0028354828245937824
1746728850036287000,10.454286865234375,0.00022767717018723488,-0.0014877347275614738,-0.00008199666626751423
1746728850046305300,10.46430517578125,-0.0006935102865099907,-0.0018461961299180984,-0.001512380549684167
1746728850056323000,10.474322998046874,0.002996761817485094,-0.000965464860200882,-0.0009810435585677624
1746728850066341000,10.484341064453124,-0.0029956172220408916,-0.000975318718701601,-0.001601826399564743
1746728850076359000,10.49435888671875,0.001346023054793477,-0.0013897041790187359,-0.00006737560033798218
1746728850086377200,10.504377197265624,0.003946865908801556,-0.0010309764184057713,0.00025832909159362316
1746728850096395000,10.51439501953125,-0.0005406476557254791,-0.0010416279546916485,-0.00029503414407372475
1746728850106413000,10.5244130859375,-0.0008700806647539139,-0.0007116622291505337,-0.00001486949622631073
1746728850116430000,10.53443017578125,-0.00010494142770767212,-0.0011418098583817482,-0.0005218274891376495
1746728850126448000,10.5444482421875,-0.0004650009796023369,-0.0010834862478077412,-0.0010648462921380997
1746728850136466000,10.5544658203125,0.0005700117908418179,0.001623490359634161,0.001441346132196486
1746728850146484200,10.564484130859375,-0.0009101731702685356,0.0023955409415066242,-0.0012029064819216728
1746728850156502000,10.574501953125,-0.00040560727939009666,-0.0008184458129107952,0.00022404897026717663
1746728850166520000,10.58452001953125,0.0016397004947066307,-0.0010573314502835274,-0.0020771885756403208
1746728850176538000,10.5945380859375,-0.0021139089949429035,0.0001871548593044281,0.0013253787765279412
1746728850186556200,10.60455615234375,0.0030068173073232174,-0.0009785108268260956,-0.0004815759602934122
1746728850196574200,10.61457421875,0.000917837955057621,0.0029467185959219933,-0.0005435841158032417
1746728850206591200,10.62459130859375,0.0016829641535878181,0.003101448528468609,-0.0012357397936284542
1746728850216609000,10.634609130859374,-0.0004721391014754772,-0.00005850614979863167,-0.00013922643847763538
1746728850226627000,10.644626953125,-0.0025153160095214844,0.0018672258593142033,0.000825903145596385
1746728850236644900,10.654644775390626,-0.000750499777495861,0.001125367358326912,-0.0007247233297675848
1746728850246663200,10.6646630859375,0.0004596407525241375,0.00040684640407562256,-0.002311701187863946
1746728850256681200,10.67468115234375,0.0015837701503187418,-0.0006073685362935066,-0.0003918306902050972
1746728850266699000,10.684698974609375,-0.0009150737896561623,-0.0014012567698955536,-0.00017771264538168907
1746728850276717300,10.69471728515625,-0.0006080623716115952,-0.0003716577775776386,0.0021057967096567154
1746728850286735000,10.704735107421875,-0.0007276381365954876,0.0026971022598445415,0.0005318685434758663
1746728850296753200,10.714753173828125,-0.00031397026032209396,0.001164670567959547,-0.002318341750651598
1746728850306770200,10.724770263671875,0.0011832586023956537,-0.0004958100616931915,-0.0006826280150562525
1746728850316788200,10.734788330078125,0.00027753226459026337,-0.0010298830457031727,-0.002630426548421383
1746728850326806000,10.744805908203125,0.0012562437914311886,-0.00011508725583553314,-0.000010142568498849869
1746728850336824000,10.754823974609375,-0.000018553342670202255,0.0002347002737224102,0.003355966415256262
1746728850346842000,10.764842041015624,0.0004829196259379387,0.00044615520164370537,-0.00024782330729067326
1746728850356860200,10.774860107421874,0.0012565364595502615,0.001752893440425396,-0.0032899933867156506
1746728850366878000,10.7848779296875,0.0006695757620036602,0.0009369007311761379,0.00014601717703044415
1746728850376896300,10.794896240234374,-0.0016295090317726135,0.0003910665400326252,-0.00022603431716561317
1746728850386914000,10.8049140625,-0.0016311071813106537,0.0006693671457469463,-0.00007956032641232014
1746728850396931000,10.81493115234375,-0.0008848002180457115,-0.0007716822437942028,-0.000413582194596529
1746728850406949000,10.82494921875,0.0005072341300547123,0.00045976322144269943,-0.00013421662151813507
1746728850416967200,10.83496728515625,0.000331648625433445,-0.0030291194561868906,0.0010600954992696643
1746728850426985000,10.84498486328125,-0.0015437491238117218,-0.002030167728662491,-0.002499485621228814
1746728850437003000,10.8550029296875,-0.00007398892194032669,0.000618575606495142,0.002291141077876091
1746728850447021000,10.86502099609375,-0.00006573321297764778,-0.002098381519317627,-0.0010031892452389002
1746728850457039000,10.8750390625,0.0005722963251173496,-0.0006012613885104656,-0.0005503955762833357
1746728850467057000,10.885056884765625,-0.0025923377834260464,0.0005106087774038315,0.0023388678673654795
1746728850477075200,10.8950751953125,-0.0006473320536315441,-0.0007229363545775414,-0.0007033708970993757
1746728850487093200,10.90509326171875,-0.0007546576671302319,-0.0007477039471268654,0.0005267432425171137
1746728850497110000,10.915110107421874,-0.0004094494506716728,-0.000599496066570282,0.001309449435211718
1746728850507128000,10.925128173828124,-0.0003825514577329159,0.001858335454016924,0.0009677659254521132
1746728850517146000,10.93514599609375,0.0012122413609176874,0.0008410848677158356,-0.0007598656229674816
1746728850527164000,10.945163818359376,-0.0017800861969590187,0.00024533551186323166,0.0021949114743620157
1746728850537182200,10.95518212890625,0.00011332519352436066,0.0016535506583750248,-0.0014151660725474358
1746728850547200300,10.9652001953125,-0.0005889502353966236,-0.0015355846844613552,-0.0011917268857359886
1746728850557218000,10.975218017578126,-0.001833281945437193,-0.0011538369581103325,-0.00032159569673240185
1746728850567236000,10.985236083984375,0.0006602355279028416,0.0020906920544803143,0.0010099848732352257
1746728850577254100,10.995254150390625,0.00014348654076457024,-0.000713396817445755,0.0014095260994508862
1746728850587272200,11.005272216796875,0.00010913191363215446,0.00061072688549757,-0.0006277919746935368
1746728850597289000,11.0152890625,0.00026202620938420296,-0.0003638528287410736,-0.00223950925283134
1746728850607307000,11.02530712890625,-0.00045383162796497345,0.0002635875716805458,0.00009475112892687321
1746728850617324800,11.03532470703125,-0.000026201829314231873,-0.0009833634831011295,0.00012402934953570366
1746728850627342800,11.0453427734375,-0.002146344631910324,-0.0005996017716825008,0.0012947549112141132
1746728850637361000,11.05536083984375,0.002948989160358906,-0.002045093337073922,-0.0016623709816485643
1746728850647379000,11.06537890625,0.00007384037598967552,-0.0013081966899335384,-0.0009782046545296907
1746728850657397000,11.07539697265625,0.0012066296767443419,0.0009663794189691544,-0.001448966795578599
1746728850667414800,11.085414794921874,-0.0014408188872039318,-0.002917841076850891,-0.0008404345717281103
1746728850677433000,11.09543310546875,0.002754439599812031,0.0016961763612926006,0.0005132229998707771
1746728850687451000,11.105450927734376,-0.0006762444972991943,-0.000573636032640934,0.0032600073609501123
1746728850697468200,11.11546826171875,0.00179792451672256,-0.000018121208995580673,-0.0009116828441619873
1746728850707486000,11.12548583984375,-0.0006061107851564884,0.0008695102296769619,-0.0017926562577486038
1746728850717504000,11.13550390625,0.0019095349125564098,0.0019084680825471878,0.003522257786244154
1746728850727521800,11.145521728515625,-0.0009331232868134975,-0.001980546396225691,0.0021225002128630877
1746728850737540000,11.1555400390625,-0.0011382987722754478,0.000754527747631073,-0.0012178225442767143
1746728850747558000,11.165557861328125,-0.0006458801217377186,0.0008690436370670795,0.0009228265844285488
1746728850757576000,11.175575927734375,0.0007989415898919106,-0.00048553477972745895,-0.0014903033152222633
1746728850767594000,11.185593994140625,-0.0005036103539168835,0.0007877228781580925,0.00011797971092164516
1746728850777612000,11.195612060546875,-0.001465530600398779,0.0009839581325650215,0.00030466262251138687
1746728850787629800,11.2056298828125,-0.0002934737130999565,0.0014625280164182186,0.00012836139649152756
1746728850797647000,11.215647216796874,0.00032415613532066345,0.0020105475559830666,-0.0005997850093990564
1746728850807665000,11.225664794921874,-0.0009546936489641666,0.00028375396504998207,0.0029981457628309727
1746728850817683000,11.235682861328126,-0.0017117196694016457,0.000580313615500927,0.001906874356791377
1746728850827700700,11.24570068359375,0.0010068351402878761,0.0007728603668510914,0.001596882357262075
1746728850837719000,11.255718994140626,-0.0001940317451953888,0.0008748522959649563,0.0005949311889708042
1746728850847736800,11.26573681640625,0.00037375418469309807,-0.0009803054854273796,-0.0004519573412835598
1746728850857755000,11.2757548828125,-0.0015022801235318184,-0.0012430502101778984,-0.001140891807153821
1746728850867773000,11.28577294921875,-0.002616280224174261,-0.0026153770741075277,-0.0009427529294043779
1746728850877791000,11.295791015625,-0.002838131505995989,-0.0008804718963801861,-0.0003673830069601536
1746728850887807700,11.305807861328125,-0.0003571305423974991,-0.00044824089854955673,-0.0002307628747075796
1746728850897826000,11.315825927734375,0.0016710583586245775,-0.00021049100905656815,-0.0011835370678454638
1746728850907843800,11.32584375,0.000887556467205286,0.0019946065731346607,-0.004220073111355305
1746728850917862000,11.33586181640625,-0.0017193248495459557,-0.0005805278196930885,0.00029821530915796757
1746728850927880000,11.3458798828125,0.0005361060611903667,-0.0007698782719671726,-0.0021766601130366325
1746728850937898000,11.35589794921875,-0.0014121378771960735,-0.0005246084183454514,-0.0009475504048168659
1746728850947916000,11.365916015625,-0.00037563545629382133,0.0004897895269095898,0.001191766932606697
1746728850957933800,11.375933837890624,0.0014526147861033678,0.0000606258399784565,0.00041054398752748966
1746728850967952100,11.3859521484375,-0.0018632872961461544,-0.0020296890288591385,-0.00044140126556158066
1746728850977970000,11.395969970703124,0.00038896407932043076,-0.00180821493268013,0.0019513752777129412
1746728850987987000,11.405987060546876,0.00040600867941975594,0.00044854776933789253,0.00028956285677850246
1746728850998005000,11.4160048828125,0.001147187314927578,-0.00015500281006097794,0.0016716938698664308
1746728851008023000,11.42602294921875,-0.0003279373049736023,0.00010651955381035805,0.0018408045871183276
1746728851018040800,11.436040771484375,0.001226954162120819,-0.0005591623485088348,-0.00016524572856724262
1746728851028059000,11.446058837890625,-0.0021014646627008915,-0.0026843647938221693,0.0001242400612682104
1746728851038077000,11.456076904296875,0.0003389967605471611,-0.0025622586254030466,-0.0015819910913705826
1746728851048095000,11.466094970703125,-0.0018149679526686668,-0.00026102131232619286,0.002499303314834833
1746728851058112800,11.47611279296875,0.0029161199927330017,-0.0004602358676493168,0.0003264467231929302
1746728851068131000,11.486131103515625,-0.000928153283894062,-0.0005752844735980034,-0.0013023428618907928
