time,seconds_elapsed,z,y,x
1746734677093983700,0.020983642578125,0.00048027653247117996,0.000502775888890028,-0.00037323636934161186
1746734677103950800,0.030950927734375,-0.0013498477637767792,-0.0003893831744790077,-0.0013112016022205353
1746734677113916700,0.040916748046875,0.00043124263174831867,-0.00042297039180994034,0.000378286000341177
1746734677123883800,0.0508837890625,0.00047145644202828407,-0.0003603859804570675,0.0006387433968484402
1746734677133850600,0.0608505859375,-0.00027662189677357674,0.0010908935219049454,0.0004941080696880817
1746734677143817700,0.070817626953125,0.0010536271147429943,-0.00037331273779273033,-0.0013093845918774605
1746734677153783800,0.08078369140625,0.0008768392726778984,-0.00026680855080485344,0.00004656147211790085
1746734677163750700,0.090750732421875,-0.001911756582558155,-0.0010500443167984486,0.000038572121411561966
1746734677173717800,0.1007177734375,-0.0011349362321197987,-0.0001519736833870411,-0.000016724690794944763
1746734677183683600,0.11068359375,-0.000273670069873333,0.0013327389024198055,0.000023222528398036957
1746734677193650700,0.120650634765625,0.00016043311916291714,-0.0003682449460029602,0.00016655120998620987
1746734677203617500,0.130617431640625,-0.0002020229585468769,0.0017524301074445248,0.0008155638352036476
1746734677213583600,0.14058349609375,0.0005049651954323053,-0.0008054785430431366,0.00007989862933754921
1746734677223550200,0.15055029296875,0.0006636895705014467,0.000368709210306406,-0.001537972129881382
1746734677233517000,0.16051708984375,-0.000470723956823349,0.0006008348427712917,0.0003424091264605522
1746734677243483400,0.1704833984375,-0.0005508847534656525,-0.001022628042846918,0.0007243063300848007
1746734677253450200,0.1804501953125,-0.0006710574962198734,-0.0008710515685379505,-0.0013268692418932915
1746734677263417300,0.190417236328125,0.0010341648012399673,-0.00014747073873877525,0.000012966804206371307
1746734677273384400,0.200384521484375,0.0006509390659630299,-0.000605196226388216,-0.00020960485562682152
1746734677283350300,0.210350341796875,0.001041358569636941,-0.0002904105931520462,-0.0019228165037930012
1746734677293317400,0.2203173828125,-0.0010425266809761524,-0.0005392082966864109,0.0022901049815118313
1746734677303284200,0.2302841796875,0.0026930891908705235,0.0009351177141070366,-0.0017525735311210155
1746734677313250300,0.240250244140625,0.00007156142964959145,-0.0008000140078365803,-0.0006671515293419361
1746734677323217200,0.250217041015625,0.0002396067138761282,0.0009656618349254131,-0.000942522194236517
1746734677333184300,0.260184326171875,-0.0001781536266207695,-0.000545052345842123,0.0006538932211697102
1746734677343151400,0.2701513671875,0.00001119682565331459,6.295740604400635e-7,0.0004648091271519661
1746734677353117200,0.2801171875,-0.0004488476552069187,-0.00036312080919742584,-0.0011519934050738811
1746734677363084300,0.290084228515625,-0.00045417388901114464,0.001045425422489643,-0.00090405298396945
1746734677373051100,0.300051025390625,-0.0008061481639742851,0.00013961968943476677,-0.0004455479793250561
1746734677383017200,0.310017333984375,-0.0005534142255783081,-0.00005692197009921074,0.0005153208039700985
1746734677392984000,0.319984130859375,0.00036022672429680824,-0.0001653553918004036,0.0010679620318114758
1746734677402951200,0.329951171875,-0.0008278093300759792,-0.0000037015415728092194,-0.0005070315673947334
1746734677412917200,0.339917236328125,0.0004738753195852041,0.000058162957429885864,-0.000040891580283641815
1746734677422884400,0.34988427734375,-0.0008542430587112904,0.0005295425653457642,0.0008395491167902946
1746734677432851200,0.359851318359375,0.0004885520320385695,-0.0009323367848992348,0.00024096062406897545
1746734677442817300,0.3698173828125,0.00012529687955975533,0.000035455916076898575,0.0005400334484875202
1746734677452784400,0.379784423828125,-0.00010202592238783836,-0.001368403434753418,-0.000032573938369750977
1746734677462751200,0.389751220703125,0.00004071928560733795,-0.00010366830974817276,0.000023618806153535843
1746734677472718300,0.39971826171875,-0.00032266415655612946,0.0004688999615609646,-0.0014268341474235058
1746734677482684200,0.40968408203125,-0.0021506580524146557,-0.0005899728275835514,-0.0005786176770925522
1746734677492651300,0.4196513671875,-0.00009090360254049301,-0.0009530461393296719,-0.00029993802309036255
1746734677502618400,0.429618408203125,0.00006249453872442245,-0.0001093568280339241,-0.0008831704035401344
1746734677512584200,0.439584228515625,0.00048329122364521027,0.00006695650517940521,0.00006754137575626373
1746734677522551300,0.44955126953125,-0.0007172618061304092,-0.0004963018000125885,-0.00015137065201997757
1746734677532518100,0.45951806640625,-0.0011889263987541199,0.00028253067284822464,-0.0004712110385298729
1746734677542485200,0.4694853515625,0.00033093965612351894,-0.0009329360909759998,-0.0003196769393980503
1746734677552451000,0.479451171875,-0.0000518173910677433,0.0008128783665597439,-0.00039230939000844955
1746734677562418200,0.489418212890625,-0.0014318674802780151,0.0006062169559299946,-0.0016392013058066368
1746734677572385300,0.49938525390625,-0.0000300602987408638,0.0002296403981745243,-0.0007721893489360809
1746734677582351000,0.50935107421875,-0.00010915612801909447,-0.00015065912157297134,-0.0013279914855957031
1746734677592318200,0.519318115234375,-0.00023828446865081787,-0.0008150395005941391,-0.0009401803836226463
1746734677602285000,0.52928515625,-0.0005280361510813236,0.0013138912618160248,-0.000505552627146244
1746734677612252200,0.539252197265625,-0.00017761951312422752,-0.0010711890645325184,0.0012182770296931267
1746734677622218200,0.54921826171875,0.0004756536800414324,0.000402337871491909,0.00039935531094670296
1746734677632185300,0.559185302734375,0.000516016036272049,-0.00038921693339943886,-0.00034877145662903786
1746734677642152200,0.569152099609375,-0.0006142295897006989,0.0006265123374760151,0.00103660486638546
1746734677652118300,0.5791181640625,-0.0003022942692041397,-0.00031544826924800873,0.0009095994755625725
1746734677662085400,0.58908544921875,-0.00005248980596661568,-0.001584178302437067,0.00041451817378401756
1746734677672052200,0.59905224609375,0.0006468051578849554,0.000028117094188928604,-0.0005676290020346642
1746734677682018300,0.609018310546875,-0.0016427142545580864,0.000701630488038063,0.0006419788114726543
1746734677691985200,0.618985107421875,-0.0011385800316929817,-0.00019682152196764946,-0.0006834794767200947
1746734677701952300,0.6289521484375,0.001716328551992774,-0.0007763253524899483,-0.0003364691510796547
1746734677711919400,0.63891943359375,0.0011627583298832178,0.0007778680883347988,-0.0010471497662365437
1746734677721885200,0.64888525390625,-0.0009461990557610989,-0.0004463871009647846,0.00038882670924067497
1746734677731852300,0.658852294921875,-0.0010467292740941048,-0.0008439398370683193,-0.001436901744455099
1746734677741819100,0.668819091796875,0.0011466501746326685,0.0009262631647288799,0.0004712529480457306
1746734677751785200,0.67878515625,-0.0015280982479453087,-0.0004141037352383137,-0.0005056685768067837
1746734677761752000,0.688751953125,-0.0010585831478238106,0.0005787224508821964,-0.00027131056413054466
1746734677771719200,0.69871923828125,0.000656904885545373,-0.0000460292212665081,-0.0003497772850096226
1746734677781686300,0.708686279296875,-0.0002403142862021923,-0.0000015543773770332336,0.00035409629344940186
1746734677791652000,0.718652099609375,-0.00008348841220140457,-0.0011028354056179523,0.0009273029863834381
1746734677801619200,0.728619140625,-0.0002845572307705879,-0.0004303869791328907,-0.001398168969899416
1746734677811586000,0.7385859375,0.0002651102840900421,0.00011275708675384521,-0.0002134549431502819
1746734677821552400,0.748552490234375,-0.00038123875856399536,0.0004070363938808441,0.000028626061975955963
1746734677831519200,0.758519287109375,-0.0009238692000508308,-0.0014186622574925423,-0.0005026129074394703
1746734677841486300,0.768486328125,-0.00017552077770233154,0.0009869709610939026,-0.00107173016294837
1746734677851453200,0.778453125,0.0018031534273177385,-0.00016106897965073586,-0.0008217939175665379
1746734677861419300,0.788419189453125,-0.0006379000842571259,-0.000406079925596714,0.00027409661561250687
1746734677871386400,0.798386474609375,-0.000407311599701643,-0.0004573320038616657,-0.0015845936723053455
1746734677881353200,0.808353271484375,0.0010531661100685596,-0.00012283865362405777,0.00020425161346793175
1746734677891319300,0.8183193359375,0.00007290486246347427,-0.0003154459409415722,-0.0001187552697956562
1746734677901286100,0.8282861328125,-0.0009169918484985828,0.0002270401455461979,0.0005688732489943504
1746734677911253200,0.838253173828125,0.001048160484060645,0.0009923647157847881,0.0002338103950023651
1746734677921220400,0.848220458984375,0.0003568038810044527,-0.001062796451151371,-0.0000708550214767456
1746734677931186200,0.858186279296875,-0.00036388449370861053,0.00043998751789331436,-0.00010496750473976135
1746734677941153300,0.8681533203125,0.002954414114356041,-0.00008651940152049065,-0.00021921703591942787
1746734677951120100,0.8781201171875,-0.0010635266080498695,-0.00038972822949290276,-0.0004915040917694569
1746734677961086200,0.888086181640625,0.0004062717780470848,-0.0010757585987448692,-0.0010262667201459408
1746734677971053000,0.898052978515625,-0.0012109526433050632,-0.000616815872490406,0.0012865844182670116
1746734677981020200,0.908020263671875,-0.0005699298344552517,-0.0012482511810958385,-0.0004119798541069031
1746734677990987300,0.9179873046875,0.0016106038819998503,-0.0003231493756175041,0.00025537610054016113
1746734678000953000,0.927953125,-0.0012219343334436417,0.0014358684420585632,0.00030757393687963486
1746734678010920200,0.937920166015625,-0.002023655455559492,0.0014159688726067543,-0.000006075482815504074
1746734678020887000,0.947886962890625,0.0006941002793610096,0.00037786876782774925,-0.00031553488224744797
1746734678030853400,0.957853271484375,0.0007083888631314039,-0.00034704897552728653,0.00042503466829657555
1746734678040820200,0.9678203125,-0.0012732692994177341,-0.00013452861458063126,-0.0014745979569852352
1746734678050787300,0.977787353515625,-0.0005707740783691406,0.00013331882655620575,-0.00015718815848231316
1746734678060754200,0.987754150390625,-0.0012493478134274483,0.00043452251702547073,0.0006990181282162666
1746734678070720300,0.99772021484375,-0.000020631123334169388,-0.0002652793191373348,0.0008460730314254761
1746734678080687400,1.007687255859375,-0.0005093212239444256,-0.0008841981180012226,0.001416788436472416
1746734678090654200,1.017654296875,-0.00028181495144963264,-0.0005510617047548294,-0.0007521994411945343
1746734678100620300,1.027620361328125,0.00023723533377051353,-0.00033960677683353424,0.0009684693068265915
1746734678110587100,1.037587158203125,-0.0002191350795328617,0.001568418461829424,0.0003006700426340103
1746734678120554200,1.04755419921875,0.0018006064929068089,-0.00048780813813209534,-0.0006040059961378574
1746734678130521300,1.057521240234375,-0.00005292240530252457,-0.00019341520965099335,0.0001057768240571022
1746734678140487200,1.067487060546875,0.0008448292501270771,0.0006207134574651718,0.0021508182398974895
1746734678150454300,1.077454345703125,0.001610209234058857,-0.0010405262000858784,0.001756296493113041
1746734678160421000,1.087421142578125,0.0001361495815217495,-0.00038272561505436897,-0.0005843555554747581
1746734678170387200,1.09738720703125,-0.0006985049694776535,-0.0009009744971990585,-0.000011568423360586166
1746734678180354000,1.10735400390625,-0.0011248770169913769,-0.0013414612039923668,-0.000059505458921194077
1746734678190321200,1.117321044921875,-0.0011334195733070374,0.0002926127053797245,0.0013257521204650402
1746734678200288300,1.127288330078125,-0.00006123119965195656,-0.0009849052876234055,-0.00014031818136572838
1746734678210254000,1.137254150390625,0.0019916521850973368,-0.0013413936831057072,0.00014522764831781387
1746734678220221400,1.147221435546875,0.0020917870569974184,0.0003190874122083187,0.00011113891378045082
1746734678230188500,1.1571884765625,0.0017282362096011639,0.00024282140657305717,0.00008731288835406303
1746734678240154600,1.167154541015625,-0.0000379723496735096,-0.0008038007654249668,0.0001602834090590477
1746734678250121500,1.17712158203125,-0.0006696339696645737,-0.000022493768483400345,0.00011114543303847313
1746734678260088300,1.18708837890625,0.001019076444208622,0.000022780150175094604,0.0017481904942542315
1746734678270055400,1.197055419921875,0.00019769463688135147,0.00022654002532362938,-0.00012908177450299263
1746734678280021800,1.207021728515625,-0.0003490522503852844,0.00018073339015245438,0.0014469767920672894
1746734678289988600,1.216988525390625,-0.0011568893678486347,-0.0006758454255759716,-0.0005497890524566174
1746734678299955700,1.226955810546875,0.00033634528517723083,0.0009598680771887302,0.0013471809215843678
1746734678309921500,1.236921630859375,0.00011252518743276596,0.0004562963731586933,0.0002821004018187523
1746734678319888600,1.246888671875,0.0009447627235203981,0.00010555796325206757,0.0005196542479097843
1746734678329855500,1.25685546875,0.0012131943367421627,-0.00015445426106452942,0.0003168797120451927
1746734678339822600,1.266822509765625,0.002173264045268297,0.0010836492292582989,0.001807983499020338
1746734678349788700,1.27678857421875,-0.00006498349830508232,0.0008045993745326996,0.0008933283388614655
1746734678359755500,1.286755615234375,0.001578453229740262,0.0003987336531281471,0.0006520459428429604
1746734678369722600,1.29672265625,-0.00031510088592767715,-0.0007491735741496086,-0.000166197307407856
1746734678379688400,1.3066884765625,-0.0021537472493946552,-0.0005558277480304241,-0.000625592190772295
1746734678389655600,1.316655517578125,0.0002654178533703089,0.0005257264710962772,-0.0010765064507722855
1746734678399622400,1.326622314453125,-0.0012382026761770248,0.001071940641850233,0.0005472227931022644
1746734678409589500,1.336589599609375,-0.0002570520155131817,0.00008399737998843193,0.0007952917367219925
1746734678419555600,1.3465556640625,-0.0010911542922258377,0.0007146340794861317,-0.0006601256318390369
1746734678429522400,1.3565224609375,0.00039762863889336586,0.0009074877016246319,0.0014639312867075205
1746734678439489500,1.366489501953125,-0.0005496577359735966,-0.00024166656658053398,-0.0018035010434687138
1746734678449455600,1.37645556640625,0.00028196675702929497,0.0007658731192350388,0.0012850933708250523
1746734678459422500,1.38642236328125,0.0009227232076227665,0.00003936281427741051,-0.00018603680655360222
1746734678469389300,1.396389404296875,0.0009074960835278034,-0.0005033169873058796,-0.0015343171544373035
1746734678479356400,1.4063564453125,-0.001405459363013506,-0.00032168952748179436,-0.00030819792300462723
1746734678489322800,1.41632275390625,0.0006028609350323677,0.0006100460886955261,0.0015344151761382818
1746734678499289600,1.42628955078125,-0.0012885159812867641,-0.0010650819167494774,-0.00044830841943621635
1746734678509256700,1.436256591796875,0.0009534542914479971,0.00019218819215893745,0.001001422293484211
1746734678519222500,1.446222412109375,-0.0009768046438694,0.001094999723136425,0.00014787912368774414
1746734678529189600,1.456189697265625,-0.0008257394656538963,0.001010396983474493,-0.00019652489572763443
1746734678539156500,1.466156494140625,0.0001942513044923544,0.0005648504011332989,-0.00034326501190662384
1746734678549123600,1.47612353515625,0.00024217390455305576,0.0002319267950952053,0.000024615321308374405
1746734678559089700,1.486089599609375,-0.0008268188685178757,-0.00022666947916150093,-0.0021756887435913086
1746734678569056500,1.496056396484375,0.0001099640503525734,-0.000283821951597929,-0.001544533297419548
1746734678579023600,1.506023681640625,-0.00009509967640042305,0.0007577403448522091,0.0007151588797569275
1746734678588990500,1.515990478515625,-0.0006804447621107101,-0.00030694250017404556,-0.0000339653342962265
1746734678598956500,1.52595654296875,-0.0017254692502319813,-0.0007322495803236961,-0.0013588881120085716
1746734678608923600,1.535923583984375,0.0010222799610346556,-0.001710804644972086,0.0003509274683892727
1746734678618890500,1.545890380859375,-0.0011937362141907215,0.0007251887582242489,0.0009267027489840984
1746734678628856600,1.555856689453125,-0.00011328095570206642,-0.0011377516202628613,-0.00045204581692814827
1746734678638823400,1.565823486328125,-0.0011330051347613335,0.00010727578774094582,-0.00135059654712677
1746734678648790500,1.57579052734375,-0.001114342361688614,-0.00027785683050751686,-0.00012613506987690926
1746734678658757400,1.58575732421875,0.0006119185127317905,-0.00036307796835899353,-0.00004943599924445152
1746734678668723500,1.595723388671875,0.0005865651182830334,-0.0005309991538524628,0.0005638557486236095
1746734678678690600,1.605690673828125,0.0008504844736307859,-0.0005951812490820885,0.001030175480991602
1746734678688657400,1.615657470703125,0.0012689612340182066,-0.0012519066222012043,0.0011050952598452568
1746734678698623700,1.625623779296875,0.0017624448519200087,0.0006301496177911758,0.0005471627227962017
1746734678708590600,1.635590576171875,-0.00014902791008353233,0.0003877165727317333,0.000759931281208992
1746734678718557700,1.6455576171875,0.0010885430965572596,0.0001634783111512661,-0.00013995077461004257
1746734678728524500,1.655524658203125,0.00008110888302326202,-0.0004307525232434273,0.0005347952246665955
1746734678738490600,1.66549072265625,-0.00048694340512156487,-0.001873919740319252,0.0005193492397665977
1746734678748457700,1.675457763671875,0.0008642091415822506,0.000047657638788223267,-0.00008421950042247772
1746734678758424600,1.685424560546875,0.00012225238606333733,-0.00029855314642190933,0.00003775302320718765
1746734678768390700,1.695390625,0.002072046510875225,0.00009221583604812622,-0.00017534242942929268
1746734678778357500,1.705357421875,0.00035164435394108295,-0.001161067746579647,0.0012707537971436977
1746734678788324600,1.71532470703125,0.0005921372212469578,0.0007596756331622601,0.00048596877604722977
1746734678798291500,1.72529150390625,0.0005396727938205004,-0.00047150393947958946,-0.0006509348750114441
1746734678808257500,1.735257568359375,0.001515908632427454,-0.0007914234884083271,-0.0003234841860830784
1746734678818224600,1.745224609375,0.002089819870889187,0.00035453448072075844,0.00046800728887319565
1746734678828191500,1.75519140625,-0.0008636871352791786,0.0003469875082373619,-0.00012189336121082306
1746734678838157600,1.765157470703125,0.0002630960661917925,-0.00025435443967580795,0.0000304393470287323
1746734678848124400,1.77512451171875,-0.0005508805625140667,0.000010359100997447968,0.0013570329174399376
1746734678858091500,1.785091552734375,0.00028348807245492935,-0.0010288064368069172,-0.00013913074508309364
1746734678868058400,1.795058349609375,-0.00049207778647542,-0.0007211822085082531,-0.0015597953461110592
1746734678878024700,1.805024658203125,-0.0005203071050345898,-0.00035606278106570244,0.00045062461867928505
1746734678887991600,1.814991455078125,0.0013618555385619402,0.00021379580721259117,0.00015094364061951637
1746734678897958400,1.82495849609375,-0.0009809271432459354,0.0005629360675811768,0.0007000872865319252
1746734678907924700,1.8349248046875,-0.000423479825258255,0.00013255421072244644,0.0012095924466848373
1746734678917891600,1.8448916015625,0.0004955772310495377,-0.0002211136743426323,-0.0006050853990018368
1746734678927858700,1.854858642578125,0.0005908289458602667,0.0010502766817808151,-0.0006038793362677097
1746734678937825500,1.864825439453125,0.0011772571597248316,0.00044147809967398643,0.0008347602561116219
1746734678947791600,1.87479150390625,0.0008408371359109879,0.0010396610014140606,-0.000982167199254036
1746734678957758700,1.8847587890625,0.0013242007698863745,-0.00010816147550940514,-0.0007643206045031548
1746734678967725600,1.8947255859375,0.0004403977654874325,0.000500568188726902,0.0011944901198148727
1746734678977691600,1.904691650390625,7.101334631443024e-7,0.001303511206060648,-0.00004787463694810867
1746734678987658500,1.914658447265625,0.00040529249235987663,0.0010745534673333168,0.0007407478988170624
1746734678997625600,1.92462548828125,0.0011664240155369043,-0.00017606699839234352,-0.000762872863560915
1746734679007592400,1.934592529296875,0.0014195728581398726,-0.000351480208337307,-0.0006611514836549759
1746734679017558500,1.94455859375,-0.00003717653453350067,0.0003324197605252266,0.000706914346665144
1746734679027525600,1.954525634765625,-0.0010986612178385258,-0.00034516071900725365,0.0014006593264639378
1746734679037492500,1.964492431640625,-0.000026738736778497696,-0.00033184513449668884,0.0012621749192476273
1746734679047459600,1.97445947265625,-0.0006545125506818295,-0.000546320341527462,0.00025422265753149986
1746734679057425400,1.98442529296875,0.00023258640430867672,0.0002960376441478729,-0.0014736363664269447
1746734679067392500,1.994392578125,-0.00007707998156547546,0.0003332518972456455,-0.0003324691206216812
1746734679077359400,2.004359375,0.0004917711485177279,0.0017156987451016903,-0.0007042465731501579
1746734679087325700,2.01432568359375,0.0015049376524984837,0.0002947654575109482,-0.00011110818013548851
1746734679097292500,2.02429248046875,-0.001003227662295103,-0.0010080528445541859,0.0002199225127696991
1746734679107259400,2.03425927734375,0.0012684729881584644,0.0010344469919800758,-0.0008607115596532822
1746734679117226500,2.0442265625,-0.0012870961800217628,-0.00025132717564702034,-0.0006567137315869331
1746734679127192600,2.054192626953125,-0.0016107424162328243,0.0001039477065205574,0.0007436051964759827
1746734679137159700,2.06415966796875,-0.00004666810855269432,0.00019928906112909317,-0.00048650894314050674
1746734679147126500,2.07412646484375,0.0019292151555418968,-0.00019986974075436592,0.000613073818385601
1746734679157092600,2.084092529296875,-0.0006833458319306374,-0.0011016163043677807,0.0007883100770413876
1746734679167059700,2.094059814453125,0.00019396888092160225,-0.0010436899028718472,-0.0002021421678364277
1746734679177026600,2.104026611328125,0.0004941071383655071,0.0006934897974133492,0.001492427196353674
1746734679186993700,2.11399365234375,0.0004039783962070942,-0.0004398450255393982,0.0011349506676197052
1746734679196959500,2.12395947265625,0.00017974036745727062,0.0012302231043577194,0.0013490687124431133
1746734679206926600,2.133926513671875,-0.0006532575935125351,0.00033281976357102394,0.00011875247582793236
1746734679216893700,2.143893798828125,-0.0007632458582520485,0.00145241292193532,0.00008200062438845634
1746734679226859800,2.15385986328125,-0.00036273151636123657,0.00015771202743053436,0.000016403384506702423
1746734679236827000,2.163826904296875,-0.00034222519025206566,0.0001539834775030613,-0.00010317238047719002
1746734679246793700,2.173793701171875,0.0003221062943339348,-0.00007228273898363113,-0.0007955320179462433
1746734679256760800,2.1837607421875,-0.0001655183732509613,0.0007703411392867565,-0.0007017888128757477
1746734679266726700,2.1937265625,-0.00037726014852523804,0.0015445435419678688,0.0016984688118100166
1746734679276693800,2.20369384765625,-0.00023558037355542183,0.00007581012323498726,0.0006265463307499886
1746734679286660900,2.213660888671875,0.0008572291117161512,0.0002781962975859642,0.001069328747689724
1746734679296626700,2.223626708984375,-0.001064241398125887,-0.000748984981328249,0.0013311174698174
1746734679306593800,2.23359375,0.001550647895783186,0.0005956981331110001,0.0005185408517718315
1746734679316560600,2.243560546875,-0.0004057101905345917,0.00038264505565166473,0.00043039023876190186
1746734679326527700,2.25352783203125,0.00044207763858139515,-0.00033985916525125504,-0.0012826747260987759
1746734679336493800,2.263493896484375,0.0010207826271653175,-0.00031029805541038513,0.0016388129442930222
1746734679346461000,2.2734609375,-0.00007821666076779366,-0.0016130621079355478,0.0003011985681951046
1746734679356428000,2.283427978515625,-0.00022495677694678307,-0.0006452691741287708,0.00030492711812257767
1746734679366393900,2.293393798828125,0.0014127048198133707,-0.00022075045853853226,0.0009641409851610661
1746734679376361000,2.30336083984375,-0.0005585667677223682,0.00007273023948073387,-0.0009493404068052769
1746734679386327800,2.313327880859375,-0.00030928850173950195,0.0001585329882800579,0.0004687015898525715
1746734679396295000,2.323294921875,-0.00003045564517378807,-0.0007224404253065586,0.0008766977116465569
1746734679406260700,2.3332607421875,0.0006151094567030668,-0.00021651340648531914,-0.0007094517350196838
1746734679416227800,2.343227783203125,0.0005618464201688766,0.0011438294313848019,0.0016413202974945307
1746734679426195000,2.35319482421875,0.00005212239921092987,0.0008571213111281395,-0.0002119382843375206
1746734679436160800,2.363160888671875,-0.00012417882680892944,0.0005098455585539341,0.0013832952827215195
1746734679446127900,2.3731279296875,0.00027933530509471893,0.0002174251712858677,0.000032431911677122116
1746734679456094700,2.3830947265625,0.0008756169117987156,-0.0004667411558330059,0.0008297823369503021
1746734679466061800,2.393061767578125,-0.00042158737778663635,-0.0004464704543352127,0.0011444916017353535
1746734679476028000,2.40302783203125,0.0006785644218325615,-0.0010640574619174004,-0.0004627262242138386
1746734679485994800,2.412994873046875,0.0009512628894299269,-0.00032399455085396767,0.0001879376359283924
1746734679495961900,2.4229619140625,-0.0008237338624894619,-0.0007367846556007862,-0.000050681643187999725
1746734679505928700,2.4329287109375,-0.001048150472342968,-0.00042354827746748924,0.0010853242129087448
1746734679515894800,2.442894775390625,0.00008023111149668694,-0.0006208885461091995,-0.0010116486810147762
1746734679525861600,2.452861572265625,-0.00014440389350056648,0.0020279623568058014,-0.0011425591073930264
1746734679535828700,2.462828857421875,-0.0005364213138818741,-0.0010871370323002338,-0.00147944875061512
1746734679545795000,2.472795166015625,0.0003578606992959976,-0.0009119571186602116,0.00014749448746442795
1746734679555762000,2.482761962890625,0.00005985284224152565,-0.0019063812214881182,-0.00011509330943226814
1746734679565729000,2.49272900390625,-0.0006714444607496262,-0.002176424255594611,0.0004934757016599178
1746734679575694800,2.50269482421875,0.0006841046269983053,-0.00213061785325408,0.0006641843356192112
1746734679585662000,2.512661865234375,0.00008101621642708778,0.002177284564822912,0.0009580012410879135
1746734679595628800,2.52262890625,-0.0001296396367251873,0.0029115183278918266,0.0018224634695798159
1746734679605596000,2.532595947265625,0.0007568101864308119,0.0017764023505151272,0.0012533222325146198
1746734679615562000,2.54256201171875,0.0004670582711696625,0.004015321843326092,0.0016219036187976599
1746734679625528800,2.55252880859375,-0.00026704091578722,0.0006542140617966652,0.0010730447247624397
1746734679635496000,2.562495849609375,0.002339661121368408,-0.00026058172807097435,-0.001230323687195778
1746734679645462800,2.572462890625,0.00008162623271346092,-0.00023502670228481293,0.00020100735127925873
1746734679655428900,2.582428955078125,0.0006603312212973833,-0.002486729295924306,-0.001994236372411251
1746734679665395700,2.592395751953125,0.0008687477093189955,-0.0014891563914716244,-0.000983548816293478
1746734679675362800,2.60236279296875,0.0011819354258477688,0.0002863728441298008,0.0012822682037949562
1746734679685329000,2.612328857421875,-0.00005265558138489723,0.00031206756830215454,-0.0006097373552620411
1746734679695295700,2.622295654296875,0.0003343017306178808,0.0007493584416806698,0.00031837448477745056
1746734679705262800,2.632262939453125,-0.001537412405014038,-0.0005240663886070251,-0.0005314298905432224
1746734679715229700,2.642229736328125,0.000602437648922205,0.001256522722542286,-0.0011005471460521221
1746734679725195800,2.65219580078125,0.0002313610166311264,0.0005571013316512108,0.00045256875455379486
1746734679735162600,2.66216259765625,-0.0006362968124449253,-0.0006037703715264797,-0.0006896611303091049
1746734679745129700,2.672129638671875,0.000586698530241847,-0.00015525147318840027,0.0002618608996272087
1746734679755096000,2.682095947265625,0.0005536752287298441,-0.0008934796787798405,0.00015347031876444817
1746734679765063000,2.69206298828125,0.0012254423927515745,-0.0008689709939062595,-0.00021260883659124374
1746734679775030000,2.702030029296875,-0.0009239949285984039,-0.0002026483416557312,0.0006260205991566181
1746734679784996900,2.711996826171875,-0.0002783876843750477,-0.00008268700912594795,0.0008112508803606033
1746734679794963000,2.721962890625,-0.0000759870745241642,0.001256084069609642,0.00040005892515182495
1746734679804929800,2.7319296875,0.0024435739032924175,0.0011197254061698914,-0.0008379933424293995
1746734679814897000,2.74189697265625,-0.0004464886151254177,-0.0004456806927919388,-0.0015506553463637829
1746734679824863000,2.751863037109375,0.0003661336377263069,-0.0012666848488152027,-0.0009788577444851398
1746734679834829800,2.761829833984375,-0.0023891725577414036,-0.00026933103799819946,-0.000426251906901598
1746734679844797000,2.771796875,-0.0009564496576786041,0.0013551944866776466,0.001162164844572544
1746734679854763800,2.781763671875,-0.001559922005981207,0.00002414640039205551,0.00030942074954509735
1746734679864729900,2.791729736328125,-0.00007473491132259369,-0.00009017530828714371,-0.00026068370789289474
1746734679874696700,2.80169677734375,0.000671482877805829,-0.0012233504094183445,0.0006855376996099949
1746734679884663800,2.811663818359375,0.00008241226896643639,-0.00039791176095604897,0.00034022098407149315
1746734679894630000,2.8216298828125,-0.0013756686821579933,0.00029371120035648346,-0.00043449271470308304
1746734679904596700,2.8315966796875,0.0008251448161900043,0.0001064985990524292,-0.0013452409766614437
1746734679914563800,2.841563720703125,-0.00009258044883608818,0.00036748824641108513,0.0006587873212993145
1746734679924530700,2.85153076171875,0.0004732345696538687,0.000012466683983802795,0.0008669099770486355
1746734679934496800,2.861496826171875,-0.0006969585083425045,-0.00041443808004260063,0.00021070707589387894
1746734679944463600,2.871463623046875,0.0005630543455481529,-0.0006155860610306263,-0.0007786694914102554
1746734679954430700,2.8814306640625,0.0006011377554386854,0.00016045896336436272,0.0002490445040166378
1746734679964397000,2.89139697265625,0.0013821609318256378,-0.0011504790745675564,-0.0006371131166815758
1746734679974364000,2.901364013671875,-0.0007520965300500393,0.0007025483064353466,0.001415385166183114
1746734679984331000,2.9113310546875,0.0019343295134603977,-0.001075302716344595,-0.001351437997072935
1746734679994296800,2.921296875,-0.0012026079930365086,0.0010744007304310799,0.0008022603578865528
1746734680004264000,2.931263916015625,-0.0006177080795168877,-0.00021954765543341637,0.0004531838931143284
1746734680014230800,2.941230712890625,0.0003847056068480015,-0.0002696150913834572,-0.0014070337638258934
1746734680024198000,2.951197998046875,0.0000674673356115818,0.0006509311497211456,0.00030618859454989433
1746734680034164000,2.9611640625,0.0003851824440062046,0.000791545957326889,-0.0008189971558749676
1746734680044130800,2.971130859375,0.00006282143294811249,0.0013439464382827282,-0.0008891820907592773
1746734680054098000,2.981097900390625,0.000204501673579216,-0.00012105843052268028,0.0015127230435609818
1746734680064063700,2.991063720703125,-0.0007913550361990929,-0.0012100008316338062,-0.0011707437224686146
1746734680074030800,3.00103076171875,-0.0009596669115126133,-0.0011506127193570137,0.0005858773365616798
1746734680083998000,3.010998046875,0.0012734001502394676,-0.0006086165085434914,-0.000044438522309064865
1746734680093964800,3.02096484375,-0.0005601863376796246,0.000027612783014774323,-0.0006766729056835175
1746734680103931000,3.030930908203125,0.0011408892460167408,-0.0011030994355678558,0.0009635249152779579
1746734680113897700,3.040897705078125,0.00016697123646736145,0.0008961358107626438,0.0013680588454008102
1746734680123864800,3.05086474609375,0.0008562509901821613,0.0003369688056409359,0.00030511943623423576
1746734680133831000,3.060830810546875,-0.00002339109778404236,-0.000021758954972028732,-0.00013350322842597961
1746734680143797800,3.0707978515625,-0.0009657344780862331,0.00020630424842238426,-0.0006214780732989311
1746734680153764900,3.080764892578125,-0.0008991551585495472,0.000017752405256032944,0.0006744163110852242
1746734680163731700,3.090731689453125,-0.00011085020378232002,-0.0002986295148730278,0.0019425919745117426
1746734680173698000,3.100697998046875,0.00011418713256716728,0.002133368980139494,0.000059470999985933304
1746734680183665000,3.110664794921875,0.00023627490736544132,0.0015265545807778835,-0.0002774135209619999
1746734680193632000,3.120632080078125,-0.00032059196382761,-0.0015683048404753208,0.0008762679062783718
1746734680203597800,3.130597900390625,-0.0012388559989631176,-0.0001204460859298706,0.00097958417609334
1746734680213565000,3.14056494140625,0.0008176369592547417,-0.0006253817118704319,-0.000912591814994812
1746734680223531300,3.15053125,0.0013232019264250994,0.00044450676068663597,-0.0016535893082618713
1746734680233498400,3.160498291015625,-0.0014518117532134056,-0.0002559046261012554,-0.00028925202786922455
1746734680243464200,3.170464111328125,0.0011630065273493528,0.00008562672883272171,0.0001081596128642559
1746734680253431300,3.180431396484375,0.0001760388258844614,0.0003697858192026615,-0.0012969239614903927
1746734680263398400,3.1903984375,0.0007811964023858309,-0.0005228002555668354,0.0003203819505870342
1746734680273364200,3.2003642578125,0.0014704223722219467,-0.0004106815904378891,-0.0013294462114572525
1746734680283331300,3.210331298828125,0.000300124054774642,-0.001853324705734849,-0.0004002838395535946
1746734680293298200,3.220298095703125,-0.00024342723190784454,0.0009666965343058109,0.0006460719741880894
1746734680303264300,3.23026416015625,-0.0004520425572991371,-0.0006049401126801968,-0.00032960064709186554
1746734680313231000,3.240231201171875,0.0006837958935648203,0.0008643260225653648,-0.0001224069856107235
1746734680323198200,3.2501982421875,0.001481842016801238,-0.00028025731444358826,0.0008549196645617485
1746734680333165300,3.260165283203125,0.000053322408348321915,0.00001615239307284355,0.0004016496241092682
1746734680343131400,3.27013134765625,-0.0008785054087638855,0.0005007325671613216,0.00031866785138845444
1746734680353098500,3.280098388671875,0.00115535082295537,-0.00025294162333011627,0.0010651522316038609
1746734680363065300,3.2900654296875,-0.0012603881768882275,0.00039782142266631126,-0.0009708721190690994
1746734680373031400,3.300031494140625,0.0001628049649298191,-0.0003004590980708599,0.0015721803065389395
1746734680382998300,3.309998291015625,-0.00018246565014123917,-0.0011605420149862766,-0.00035862578079104424
1746734680392965400,3.31996533203125,-0.0018836930394172668,-0.00014933990314602852,-0.0016396059654653072
1746734680402932500,3.329932373046875,0.0008763598743826151,-0.0018354053609073162,0.0012097982689738274
1746734680412898300,3.339898193359375,-0.0007566907443106174,-0.0003078160807490349,0.000040937215089797974
1746734680422865400,3.349865478515625,-0.0000932919792830944,-0.0009592692367732525,-0.0008024205453693867
1746734680432832300,3.359832275390625,-0.00036440184339880943,-0.0014471604954451323,-0.0006053466349840164
1746734680442798300,3.36979833984375,0.001060164300724864,0.0011827186681330204,-0.0006833802908658981
1746734680452765400,3.379765380859375,0.0005927796009927988,-0.0006652483716607094,0.0008993363007903099
1746734680462732300,3.389732177734375,-0.002179608680307865,0.0008434816263616085,-0.00015137484297156334
1746734680472699400,3.399699462890625,-0.00026133377104997635,-0.0010580155067145824,0.000053954776376485825
1746734680482665200,3.409665283203125,-0.0008062804117798805,0.0001162816770374775,0.00044094352051615715
1746734680492632300,3.41963232421875,-0.0003436896950006485,-0.0005535036325454712,-0.000013391487300395966
1746734680502599200,3.42959912109375,-0.0010801292955875397,-0.00016260286793112755,-0.0007145404815673828
1746734680512565200,3.439565185546875,0.0005760905332863331,0.0014185155741870403,-0.0007792552933096886
1746734680522532400,3.449532470703125,-0.0010898159816861153,-0.00022987229749560356,-0.0021077627316117287
1746734680532499200,3.459499267578125,0.002335541881620884,-0.000991004053503275,-0.0005396935157477856
1746734680542466300,3.46946630859375,-0.0005448530428111553,-0.0005889101885259151,-0.0016502924263477325
1746734680552432400,3.479432373046875,-0.0005824035033583641,0.0006089797243475914,-0.0009032757952809334
1746734680562399500,3.4893994140625,0.0011786550749093294,-0.0004349183291196823,-0.0010276460088789463
1746734680572366300,3.499366455078125,-0.0010916898027062416,-0.0012367959134280682,0.0009694583714008331
1746734680582332400,3.50933251953125,0.0004288002382963896,-0.00031749624758958817,-0.00010813772678375244
1746734680592299500,3.519299560546875,-0.0010977238416671753,0.0007770629599690437,0.00018933741375803947
1746734680602266400,3.529266357421875,-0.0007699942216277122,-0.0007867049425840378,0.0002269740216434002
1746734680612232400,3.539232421875,0.0003709038719534874,-0.00022317981347441673,0.00002510659396648407
1746734680622199300,3.54919921875,-0.0001545310951769352,0.0010073655284941196,0.00009877420961856842
1746734680632166400,3.55916650390625,-0.0001931469887495041,0.000703499186784029,-0.0012368010357022285
1746734680642133200,3.56913330078125,-0.0007523335516452789,-0.0010594162158668041,-0.0006305240094661713
1746734680652099300,3.579099365234375,0.0011148087214678526,-0.0005600736476480961,0.00020970357581973076
1746734680662066400,3.58906640625,0.0010597847867757082,0.000814149621874094,0.0014683639165014029
1746734680672033300,3.599033203125,0.001775109674781561,0.0009885868057608604,0.001328814309090376
1746734680681999400,3.608999267578125,0.00011564884334802628,0.0002622981555759907,0.00017417129129171371
1746734680691966200,3.61896630859375,-0.0010236515663564205,-0.00016167713329195976,-0.0005030706524848938
1746734680701933300,3.628933349609375,-0.00018002977594733238,-0.00012326054275035858,-0.002143413759768009
1746734680711900200,3.638900146484375,0.0007707185577601194,0.0013617179356515408,0.0010209539905190468
1746734680721866500,3.648866455078125,-0.0008101984858512878,-0.0002428712323307991,-0.0005418439395725727
1746734680731833300,3.658833251953125,-0.0004882225766777992,0.0017012362368404865,-0.0007746042683720589
1746734680741800200,3.66880029296875,-0.0008476474322378635,0.0008571422658860683,0.0007432443089783192
1746734680751766500,3.6787666015625,0.00022161193192005157,-0.0010598013177514076,0.0005152774974703789
1746734680761733400,3.6887333984375,0.0006882066372781992,-0.00017748121172189713,-0.0004117465578019619
1746734680771700500,3.698700439453125,0.0005731580313295126,0.0001535499468445778,0.0007757567800581455
1746734680781666300,3.708666259765625,-0.001551124732941389,0.000757874920964241,0.0013685044832527637
1746734680791633400,3.71863330078125,-0.0016027898527681828,0.00020633451640605927,0.0016084553208202124
1746734680801600500,3.7286005859375,-0.0006175045855343342,-0.0013224193826317787,-0.0018063150346279144
1746734680811567400,3.7385673828125,0.0008821212686598301,0.00037880800664424896,-0.001130671240389347
1746734680821533400,3.748533447265625,0.0002788575366139412,-0.0007013692520558834,-0.00020614266395568848
1746734680831500300,3.758500244140625,0.000018932856619358063,-0.00040655722841620445,-0.00031160376965999603
1746734680841467400,3.76846728515625,-0.0006733047775924206,0.0013148300349712372,0.0004283157177269459
1746734680851433200,3.77843310546875,0.00010939780622720718,-0.00015683285892009735,0.0013135503977537155
1746734680861400300,3.788400390625,0.0019776958506554365,-0.0002202475443482399,0.001671109115704894
1746734680871367400,3.798367431640625,0.000496711814776063,-0.001008543185889721,-0.00019709859043359756
1746734680881334300,3.808334228515625,-0.0003395862877368927,0.0005540112033486366,0.00001031113788485527
1746734680891300400,3.81830029296875,0.0004212786443531513,0.00011725258082151413,0.0016806458588689566
1746734680901267200,3.82826708984375,0.0008586540352553129,0.0006718230433762074,-0.00004380475729703903
1746734680911234300,3.838234375,0.00015824241563677788,-0.001673622988164425,0.0011564819142222404
1746734680921200400,3.848200439453125,0.0003057881258428097,-0.00021791784092783928,0.0005785119719803333
1746734680931167500,3.85816748046875,-0.0008897050283849239,-0.0010272525250911713,-0.00018608151003718376
1746734680941134300,3.86813427734375,-0.00007311813533306122,-0.0010665524750947952,0.0010468927212059498
1746734680951100400,3.878100341796875,-0.0004938975907862186,0.0000802045688033104,0.0013166707940399647
1746734680961067500,3.888067626953125,0.0011721572373062372,0.000831319484859705,-0.0009252168238162994
1746734680971034400,3.898034423828125,-0.0005370592698454857,-0.0009511341340839863,-0.0011124368757009506
1746734680981001500,3.90800146484375,-0.001131176482886076,-0.0004369518719613552,-0.00036705564707517624
1746734680990967300,3.91796728515625,0.0001503368839621544,0.00041792308911681175,-0.0006916946731507778
1746734681000934400,3.927934326171875,-0.0014573941007256508,-0.00040272343903779984,-0.0003687627613544464
1746734681010901500,3.937901611328125,-0.0008619111031293869,0.0006889062933623791,0.00007944740355014801
1746734681020867300,3.947867431640625,0.0005098881665617228,-0.0006232401356101036,0.0005617989227175713
1746734681030834400,3.95783447265625,-0.00006002839654684067,-0.0003297599032521248,-0.0008901567198336124
1746734681040801300,3.96780126953125,-0.00022309599444270134,0.0007916106842458248,0.0006613852456212044
1746734681050768400,3.977768310546875,-0.000086209736764431,-0.00035354867577552795,-0.0011626137420535088
1746734681060734200,3.987734130859375,-0.0015574600547552109,0.000011469703167676926,0.0011068782769143581
1746734681070701300,3.997701416015625,0.0001967642456293106,0.0006839181296527386,0.0008874339982867241
1746734681080668400,4.00766845703125,-0.0005908384919166565,0.001208650879561901,0.001089494675397873
1746734681090634200,4.01763427734375,0.00037242681719362736,0.00004644738510251045,0.0007520723156630993
1746734681100601300,4.027601318359375,-0.0009904224425554276,-0.00018044980242848396,-0.0002039596438407898
1746734681110568200,4.037568115234375,-0.0012460863217711449,-0.0010987077839672565,-0.0018657720647752285
1746734681120534500,4.047534423828125,-0.00023309234529733658,0.00005021924152970314,-0.00034363195300102234
1746734681130501400,4.05750146484375,0.0003157851751893759,0.00016553420573472977,-0.0008602850139141083
1746734681140468500,4.067468505859375,0.0005368066485971212,0.00007071858271956444,0.0009703058749437332
1746734681150435300,4.077435302734375,-0.0009377854876220226,-0.00020385300740599632,-0.001146108377724886
1746734681160401400,4.0874013671875,-0.0004081055521965027,-0.0005778688937425613,-0.00008005695417523384
1746734681170368500,4.097368408203125,-0.0011125118471682072,0.00022507412359118462,0.00017028022557497025
1746734681180335400,4.10733544921875,-0.000006268732249736786,0.0006403578445315361,0.0006791041232645512
1746734681190301400,4.117301513671875,0.0007394165731966496,0.00043742498382925987,0.001647429307922721
1746734681200268300,4.127268310546875,0.00010657915845513344,0.0014616763219237328,0.0009937109425663948
1746734681210235400,4.1372353515625,-0.0009102160111069679,0.00007283780723810196,-0.0020779790356755257
1746734681220201200,4.147201171875,-0.001267008949071169,-0.0005937549285590649,-0.0007054079324007034
1746734681230168300,4.157168212890625,-0.0006981580518186092,0.0012933611869812012,0.0011894311755895615
1746734681240135400,4.167135498046875,-0.0011152541264891624,0.0017777709290385246,0.0010415851138532162
1746734681250102300,4.177102294921875,0.00020274450071156025,-0.0013722158037126064,-0.00022501451894640923
1746734681260068400,4.187068359375,0.0015526956412941217,0.000004678964614868164,-0.0013608438894152641
1746734681270035200,4.19703515625,0.0020994425285607576,0.00006353482604026794,-0.0018569906242191792
1746734681280002300,4.207002197265625,0.0003528196830302477,0.00027232011780142784,0.000371578149497509
1746734681289968000,4.216968017578125,0.0004124743863940239,-0.0013950848951935768,0.0010642665438354015
1746734681299935200,4.226935302734375,0.002044527092948556,-0.0012052692472934723,0.0012067272327840328
1746734681309902300,4.23690234375,0.00012385519221425056,-0.0010699806734919548,0.0008418741635978222
1746734681319869200,4.246869140625,-0.0006261724047362804,-0.0012637474574148655,-0.0013766936026513577
1746734681329835500,4.25683544921875,-0.0004171142354607582,0.00005425093695521355,0.0007663522846996784
1746734681339802400,4.26680224609375,0.00037869508378207684,0.0002271551638841629,0.0021034309174865484
1746734681349769500,4.27676953125,-0.00026312656700611115,0.0013765757903456688,-0.0012827785685658455
1746734681359735300,4.2867353515625,0.00046789715997874737,0.0010756622068583965,-0.0015655141323804855
1746734681369702400,4.296702392578125,-0.00016646785661578178,0.00009002629667520523,0.0004816576838493347
1746734681379669500,4.30666943359375,0.00024358532391488552,0.0003692065365612507,0.0005043731071054935
1746734681389635300,4.31663525390625,-0.0007356586866080761,0.00013085361570119858,0.0009443275630474091
1746734681399602400,4.3266025390625,0.0011787526309490204,0.0014566858299076557,0.0003996705636382103
1746734681409569300,4.3365693359375,0.0017388153355568647,-0.00048182904720306396,-0.000357732642441988
1746734681419536400,4.346536376953125,0.0007679008413106203,0.0008109095506370068,-0.0008917828090488911
1746734681429502200,4.356502197265625,0.0006901365704834461,0.000056702177971601486,-0.00023504719138145447
1746734681439469300,4.36646923828125,0.0008267320226877928,0.000015412922948598862,0.00028053857386112213
1746734681449436400,4.3764365234375,-0.0005695633590221405,-0.0009361347183585167,-0.0002805893309414387
1746734681459402200,4.38640234375,-0.0014712177217006683,0.0008042925037443638,-0.00018269801512360573
1746734681469369300,4.396369384765625,0.0004995213821530342,0.00023810472339391708,-0.00014088675379753113
1746734681479336200,4.406336181640625,-0.00008155824616551399,0.0005789413116872311,0.00104416161775589
1746734681489303300,4.41630322265625,-0.00011564651504158974,-0.0004277336411178112,0.0005815704353153706
1746734681499269000,4.42626904296875,0.0003667697310447693,-0.0005295346491038799,-0.0001336955465376377
1746734681509236200,4.436236328125,0.0011420159135013819,-0.0003345916047692299,0.000055122654885053635
1746734681519203300,4.446203369140625,-0.00013636285439133644,0.000864026602357626,0.0013194950297474861
1746734681529169400,4.45616943359375,-0.0013560904189944267,-0.0018436091486364603,-0.00008239271119236946
1746734681539136500,4.466136474609375,0.001851171487942338,0.0008602803573012352,-0.000013329554349184036
1746734681549103400,4.476103271484375,-0.0011422215029597282,0.0006259218789637089,0.00016057491302490234
1746734681559069400,4.4860693359375,-0.00040116580203175545,0.00038531748577952385,0.0007204106077551842
1746734681569036300,4.496036376953125,-0.0006259367801249027,0.0008843936957418919,0.0009827320463955402
1746734681579003400,4.50600341796875,-0.0007804986089468002,0.0005693440325558186,0.0009972224943339825
1746734681588970500,4.515970458984375,0.0013345838524401188,-0.00038167089223861694,0.00015326682478189468
1746734681598936300,4.525936279296875,0.0014472913462668657,-0.0007697409018874168,0.0011140815913677216
1746734681608903400,4.5359033203125,-0.00045500462874770164,0.0003732875920832157,-0.0003346777521073818
1746734681618870300,4.545870361328125,-0.0012695984914898872,-0.000693230889737606,0.0006115660071372986
1746734681628836400,4.55583642578125,0.000409524654969573,-0.000988841988146305,-0.00047234073281288147
1746734681638803200,4.56580322265625,-0.0009140567854046822,0.00007094955071806908,-0.0001736651174724102
1746734681648770300,4.575770263671875,0.00005986122414469719,0.00010530417785048485,-0.0003539612516760826
1746734681658736000,4.585736083984375,0.00006999820470809937,-0.0003604413941502571,-0.0005816551856696606
1746734681668703200,4.595703125,0.0004068880807608366,-0.0003939974121749401,-0.0002594129182398319
1746734681678670300,4.60567041015625,-0.0002545560710132122,0.0002820184454321861,-0.001383321825414896
1746734681688637200,4.61563720703125,-0.0013911928981542587,0.0007059937343001366,0.0004241657443344593
1746734681698603300,4.625603271484375,0.0017144870944321156,0.0007551419548690319,-0.0003469386138021946
1746734681708570400,4.6355703125,0.0008918365929275751,-0.0005487417802214622,-0.00036984169855713844
1746734681718537200,4.645537109375,-0.0003261500969529152,-0.0009743352420628071,0.0005987212061882019
1746734681728503300,4.65550341796875,-0.0006206957623362541,0.0003636367619037628,-0.0001546870917081833
1746734681738470400,4.665470458984375,-0.00003912718966603279,-0.0012080911546945572,-0.0010267100296914577
1746734681748437500,4.6754375,-0.000287600327283144,0.0006974004209041595,0.0012148725800216198
1746734681758404400,4.685404296875,0.0004934533499181271,0.0009436476975679398,-0.0009184433147311211
1746734681768370400,4.695370361328125,0.0010516520123928785,-0.0008249576203525066,0.00025973934680223465
1746734681778337300,4.705337158203125,0.00010738801211118698,-0.0013399566523730755,0.00019890069961547852
1746734681788304400,4.715304443359375,-0.00013735657557845116,-0.00015032291412353516,-0.0001310650259256363
1746734681798270500,4.7252705078125,0.0015102869365364313,0.0005338196642696857,-0.000576753169298172
1746734681808237300,4.7352373046875,-0.00043967971578240395,0.00038201920688152313,-0.00004651769995689392
1746734681818204400,4.745204345703125,-0.00021501770243048668,-0.000052333809435367584,0.000502255279570818
1746734681828170200,4.755170166015625,0.00011548027396202087,-0.00002756621688604355,-0.0007459679618477821
1746734681838137300,4.765137451171875,-0.000032033771276474,-0.0005472865886986256,0.00043224822729825974
1746734681848104200,4.775104248046875,-0.000874924473464489,0.00017709331586956978,0.000022920314222574234
1746734681858071300,4.7850712890625,-0.0013086195103824139,0.0009844698943197727,-0.0005518980324268341
1746734681868037400,4.795037353515625,0.00044214283116161823,0.00031069014221429825,-0.0008786679245531559
1746734681878004200,4.805004150390625,0.0007471309509128332,0.00040424894541502,-0.000578924547880888
1746734681887971300,4.814971435546875,0.0017098637763410807,0.0007989294826984406,0.0006405366584658623
1746734681897937400,4.8249375,-0.0008572232909500599,0.0007384195923805237,-0.0006063706241548061
1746734681907904500,4.834904541015625,0.0005614426918327808,-0.0002783755771815777,0.0003470410592854023
1746734681917871400,4.844871337890625,0.0010576052591204643,0.0011980840936303139,0.0007267892360687256
1746734681927837400,4.85483740234375,0.0011209885124117136,0.0008971472270786762,-0.0000055800192058086395
1746734681937804500,4.864804443359375,0.0008553960360586643,0.0003130463883280754,0.0010601244866847992
1746734681947771400,4.874771484375,0.0005608503706753254,0.000008114613592624664,-0.0008472311310470104
1746734681957738500,4.884738525390625,0.0000956803560256958,-0.0008332501165568829,-0.0008422373794019222
1746734681967704300,4.894704345703125,-0.0005490710027515888,-0.0002697254531085491,0.001012121792882681
1746734681977671400,4.90467138671875,0.0001296154223382473,-0.0003096815198659897,0.0007408121600747108
1746734681987638300,4.91463818359375,0.0001653018407523632,0.00011748960241675377,-0.00048291031271219254
1746734681997604400,4.924604248046875,-0.00029498059302568436,0.00034624384716153145,-0.00013430137187242508
1746734682007571500,4.934571533203125,0.00029277894645929337,-0.0007927902042865753,0.0007035289891064167
1746734682017538300,4.944538330078125,0.0008409034926444292,-0.00022662756964564323,0.00004130462184548378
1746734682027504400,4.95450439453125,0.0005711254198104143,-0.00019014254212379456,0.00010042684152722359
1746734682037471200,4.96447119140625,0.0004957662895321846,0.000016644597053527832,-0.0018737842328846455
1746734682047438300,4.974438232421875,0.0004776567220687866,-0.00003102608025074005,-0.0009347535669803619
1746734682057405200,4.9844052734375,0.0003313932102173567,0.00039162393659353256,0.0004303143359720707
1746734682067371300,4.994371337890625,0.0002174100372940302,0.00004594540223479271,0.0002287132665514946
1746734682077338400,5.00433837890625,0.0006155418232083321,0.0011926805600523949,0.0009096553549170494
1746734682087305200,5.01430517578125,-0.001768786460161209,0.00014312844723463058,-0.0008727982640266418
1746734682097271600,5.024271484375,-0.0009936559945344925,-0.0006072721444070339,-0.0009493660181760788
1746734682107238400,5.03423828125,0.0009126346558332443,-0.0019228735473006964,-0.00003430387005209923
1746734682117205500,5.04420556640625,-0.0010219416581094265,0.0002009398303925991,-0.00042335502803325653
1746734682127172400,5.05417236328125,-0.0000658668577671051,-0.00016417959704995155,0.0004008933901786804
1746734682137138400,5.064138427734375,0.0005669866222888231,-0.0008646701462566853,-0.0003951345570385456
1746734682147105500,5.07410546875,0.0001355544663965702,0.00018727825954556465,-0.00019885972142219543
1746734682157072400,5.084072265625,-0.0006102211773395538,-0.002244756557047367,-0.0007261261343955994
1746734682167038500,5.09403857421875,0.0011109800543636084,0.0004168064333498478,-0.0012827268801629543
1746734682177005300,5.10400537109375,0.0005611120723187923,-0.000009940005838871002,0.0003889533691108227
1746734682186972400,5.113972412109375,0.001038616755977273,-0.0007194061763584614,0.00038655661046504974
1746734682196938200,5.123938232421875,-0.0009614764712750912,-0.0003758487291634083,-0.0015394631773233414
1746734682206905300,5.1339052734375,0.00023241876624524593,0.00011550448834896088,-0.0004885797388851643
1746734682216872400,5.14387255859375,0.000727691687643528,-0.000937826931476593,-0.0009263926185667515
1746734682226839600,5.153839599609375,0.0001362035982310772,0.0014068200252950191,-0.0009540896862745285
1746734682236805400,5.163805419921875,-0.001129054930061102,0.0013132914900779724,0.00025550229474902153
1746734682246772500,5.1737724609375,-0.0002835015766322613,0.000563344918191433,-0.0005719419568777084
1746734682256739300,5.1837392578125,-0.00016168365254998207,0.00005425047129392624,0.0009435266256332397
1746734682266705400,5.193705322265625,-0.0006786035373806953,0.0002462645061314106,-0.00046075787395238876
1746734682276672300,5.20367236328125,0.0001784337218850851,-0.0003739800304174423,-0.000870914664119482
1746734682286639400,5.213639404296875,0.00008149491623044014,-0.0006243172101676464,-0.001666933298110962
1746734682296605400,5.22360546875,-0.0005200188606977463,0.00023872917518019676,-0.00004967348650097847
1746734682306572500,5.233572509765625,-0.0028561437502503395,-0.0006987033411860466,-0.000005997717380523682
1746734682316539600,5.24353955078125,-0.000237287487834692,0.00019532674923539162,0.0005241604521870613
1746734682326506500,5.253506591796875,-0.00036804890260100365,0.0006059864535927773,0.000034671276807785034
1746734682336472600,5.26347265625,-0.00036371033638715744,0.00043315766379237175,0.0007087485864758492
1746734682346439400,5.273439453125,-0.0001637069508433342,-0.0005229171365499496,0.00021872716024518013
1746734682356406500,5.283406494140625,0.0016368364449590445,0.0016630222089588642,0.0006992528215050697
1746734682366372400,5.293372314453125,-0.00002444349229335785,0.0008097453974187374,0.0010435995645821095
1746734682376339500,5.30333935546875,0.0003570541739463806,0.000751810148358345,-0.0013100365176796913
1746734682386306600,5.313306640625,-0.0009915702976286411,-0.00030599720776081085,-0.0004200078547000885
1746734682396272400,5.3232724609375,-0.0007713041268289089,-0.00100410683080554,-0.0007298365235328674
1746734682406239500,5.333239501953125,0.0014585605822503567,0.0005722180940210819,-0.0001553925685584545
1746734682416206300,5.343206298828125,0.0014185679610818624,-0.00110667385160923,-0.00016734562814235687
1746734682426173400,5.35317333984375,-0.00043419329449534416,-0.000006788410246372223,-0.0009029107168316841
1746734682436139300,5.36313916015625,-0.0002562296576797962,-0.0009374893270432949,-0.0011729099787771702
1746734682446106400,5.3731064453125,0.00006414856761693954,-0.0003428054042160511,0.0010670744813978672
1746734682456073500,5.383073486328125,0.00039525050669908524,-0.0003599165938794613,-0.0006109988316893578
1746734682466039300,5.393039306640625,-0.0006654867902398109,0.00008110282942652702,0.001039628405123949
1746734682476006400,5.40300634765625,0.0010823705233633518,-0.0012464695610105991,0.0001229001209139824
1746734682485973200,5.41297314453125,-0.0010928995907306671,0.0011812676675617695,0.0005468754097819328
1746734682495939600,5.422939697265625,0.00173625024035573,-0.0006101708859205246,0.000156535767018795
1746734682505906400,5.432906494140625,-0.000042475294321775436,0.00026707444339990616,-0.0003457367420196533
1746734682515873500,5.44287353515625,0.000713299261406064,-0.001462660264223814,-0.0006091739051043987
1746734682525840600,5.452840576171875,-0.00012426497414708138,0.00023563764989376068,0.0006078905425965786
1746734682535806500,5.462806396484375,0.001644383417442441,-0.0004477514885365963,0.00023091444745659828
1746734682545773600,5.472773681640625,0.0006824496667832136,-0.00007091416046023369,-0.001040212344378233
1746734682555740400,5.482740478515625,0.0017676705028861761,0.00018089590594172478,-0.0007251771166920662
1746734682565706500,5.49270654296875,-0.00014687608927488327,-0.00024228030815720558,-0.00011664489284157753
1746734682575673300,5.50267333984375,-0.0009202985092997551,0.0003785872831940651,0.0002705440856516361
1746734682585640400,5.512640380859375,0.00009969202801585197,0.0004214639775454998,0.0004897220060229301
1746734682595607600,5.522607666015625,-0.00010579405352473259,-0.0019481314811855555,-0.0008846125565469265
1746734682605573400,5.532573486328125,-0.0002655838616192341,-0.0011667599901556969,-0.000021482352167367935
1746734682615540500,5.54254052734375,-0.0008171265944838524,-0.00029653124511241913,0.00017946958541870117
1746734682625507300,5.55250732421875,0.0004049979615956545,0.0012560919858515263,0.0011166362091898918
1746734682635473400,5.562473388671875,0.0009960453025996685,-0.0002435632050037384,0.0004228311590850353
1746734682645440300,5.572440185546875,-0.00021995417773723602,0.00011676270514726639,-0.00022777915000915527
1746734682655407400,5.582407470703125,0.0002923815045505762,0.000058420002460479736,0.0008034487254917622
1746734682665373400,5.59237353515625,0.00022340565919876099,0.00022247107699513435,-0.000436252448707819
1746734682675340300,5.60234033203125,-0.0014425255358219147,0.000936893280595541,0.0012067542411386967
1746734682685307400,5.612307373046875,0.0010842818301171064,-0.00032331468537449837,-0.0004587867297232151
1746734682695274200,5.622274169921875,-0.00013124197721481323,0.0003884248435497284,0.0016759878490120173
1746734682705240600,5.632240478515625,-0.00015680817887187004,-0.00004859967157244682,-0.0015104841440916061
1746734682715207400,5.64220751953125,-0.0007251021452248096,0.0009815385565161705,0.0007250090129673481
1746734682725174500,5.652174560546875,-0.0001360108144581318,0.00029683997854590416,-0.00020310282707214355
1746734682735140400,5.662140380859375,-0.0002784011885523796,-0.0002581663429737091,0.0001787128858268261
1746734682745107500,5.672107421875,-0.0004323315806686878,0.000025460030883550644,0.0013758041895925999
1746734682755074600,5.682074462890625,-0.0005967714823782444,0.0011909385211765766,0.0001061074435710907
1746734682765040400,5.692040283203125,-0.00044230837374925613,0.00015709921717643738,0.0004552481696009636
1746734682775007500,5.702007568359375,0.00010722503066062927,0.0005966760218143463,0.0010569212026894093
1746734682784974300,5.711974365234375,0.0014617086853832006,-0.0009117387235164642,-0.0010009030811488628
1746734682794941400,5.72194140625,0.00031208223663270473,0.0013776295818388462,0.000582090113312006
1746734682804907300,5.7319072265625,0.0015235540922731161,-0.000392307061702013,0.0004958035424351692
1746734682814874400,5.741874267578125,0.00030168239027261734,-0.00011497875675559044,-0.0012445547617971897
1746734682824841500,5.751841552734375,-0.001470118761062622,-0.0009533418342471123,-0.0018283198587596416
1746734682834807300,5.761807373046875,0.001115257851779461,-0.0009097517468035221,0.0011874372139573097
1746734682844774400,5.7717744140625,-0.001240041572600603,0.0007845512591302395,-0.0003777025267481804
1746734682854741200,5.7817412109375,0.00013349624350667,-0.0008951663039624691,0.0006473003886640072
1746734682864707600,5.79170751953125,0.0006336378864943981,-0.00021126633509993553,0.0012113582342863083
1746734682874674400,5.80167431640625,0.0003040528390556574,0.0005806572735309601,0.0001062881201505661
1746734682884641500,5.8116416015625,-0.0010890467092394829,-0.00017248466610908508,0.00008072145283222198
1746734682894608400,5.8216083984375,0.0007772292010486126,-0.0009302939288318157,-0.0018420126289129257
1746734682904574500,5.831574462890625,-0.0006470293737947941,-0.0005473312921822071,0.0011753486469388008
1746734682914541600,5.84154150390625,-0.00039925286546349525,-0.0006057806313037872,0.000030314084142446518
1746734682924508400,5.85150830078125,0.00013231392949819565,0.0007593557238578796,0.00032379431650042534
1746734682934474500,5.861474609375,0.00036139856092631817,-0.0004859236069023609,0.00026974640786647797
1746734682944441300,5.87144140625,0.0010415699798613787,0.000007027294486761093,0.00012380536645650864
1746734682954408400,5.881408447265625,-0.00003816606476902962,0.000003114808350801468,0.0010991035960614681
1746734682964374500,5.89137451171875,0.0003746240399777889,0.00010271696373820305,-0.00020371470600366592
1746734682974341400,5.90134130859375,-0.001417319756001234,-0.0006108656525611877,-0.00020096777006983757
1746734682984308500,5.91130859375,-0.000378953292965889,-0.00046625640243291855,0.0005732132121920586
1746734682994275300,5.921275390625,0.0016964212991297245,-0.0013489103876054287,-0.00020571798086166382
1746734683004241400,5.931241455078125,-0.0008812523446977139,0.0008444692939519882,0.00038230791687965393
1746734683014208300,5.941208251953125,0.00046667037531733513,-0.001553407870233059,-0.0009251288138329983
1746734683024175400,5.95117529296875,0.0009303267579525709,-0.00011956179514527321,0.0006858170963823795
1746734683034141400,5.961141357421875,-0.00020219013094902039,0.0009714849293231964,-0.0005661263130605221
1746734683044108300,5.9711083984375,0.0011935727670788765,0.0005014371126890182,-0.0013882438652217388
1746734683054075400,5.981075439453125,-0.0008763251826167107,-0.00029217079281806946,-0.0009727301076054573
1746734683064041500,5.99104150390625,-0.0012520975433290005,-0.0008751368150115013,0.0017120025586336851
1746734683074008600,6.001008544921875,0.00013928953558206558,-0.0008808397687971592,0.0004904633387923241
1746734683083975400,6.010975341796875,-0.000200529582798481,-0.00029680831357836723,-0.0013178233057260513
1746734683093942500,6.020942626953125,-0.0017249411903321743,-0.0008068028837442398,-0.0013338425196707249
1746734683103908600,6.03090869140625,0.0007531300652772188,-0.00033808639273047447,0.0004731118679046631
1746734683113875500,6.04087548828125,-0.0003895675763487816,-0.0006077643483877182,0.001332082785665989
1746734683123842600,6.050842529296875,-0.0011813254095613956,-0.0009390618652105331,-0.00003438536077737808
1746734683133808400,6.060808349609375,0.0004694040399044752,-0.000251005869358778,-0.00039921700954437256
1746734683143775500,6.070775390625,0.001463295891880989,0.00020332960411906242,-0.00022078491747379303
1746734683153742300,6.080742431640625,0.000342255225405097,0.0006432249210774899,0.000034642405807971954
1746734683163708400,6.09070849609375,0.0011883415281772614,-0.00041564786806702614,0.00006846431642770767
1746734683173675500,6.100675537109375,-0.001062233466655016,-0.0007573855109512806,0.001570441760122776
1746734683183642400,6.110642333984375,-0.000056623946875333786,0.0013212114572525024,0.00001622084528207779
1746734683193609500,6.120609375,-0.00033460231497883797,0.000676959753036499,-0.001202654093503952
1746734683203575300,6.1305751953125,-0.0007005208171904087,-0.0010293275117874146,0.000018138904124498367
1746734683213542400,6.14054248046875,-0.0007749483920633793,-0.0005745193921029568,0.000038898084312677383
1746734683223509500,6.150509521484375,-7.674098014831543e-7,0.00021777069196105003,0.0011997702531516552
1746734683233475300,6.160475341796875,-0.00005547236651182175,-0.0011262167245149612,0.0008297599852085114
1746734683243442400,6.1704423828125,-0.0012815920636057854,0.0010794135741889477,-0.0006357776001095772
1746734683253409500,6.180409423828125,0.0013032958377152681,-0.0003862534649670124,0.0002514929510653019
1746734683263375600,6.190375732421875,-0.0002013901248574257,-0.0004602894186973572,0.0005785292014479637
1746734683273342700,6.2003427734375,0.00037145637907087803,-0.000058731064200401306,-0.0006551435217261314
1746734683283309600,6.2103095703125,0.0015070282388478518,0.00014846259728074074,-0.0014929738827049732
1746734683293276700,6.220276611328125,0.00016227597370743752,-0.0003051566891372204,0.000058650970458984375
1746734683303242500,6.230242431640625,0.0005377819761633873,0.0008016526699066162,0.000658128410577774
1746734683313209600,6.240209716796875,0.0007861426565796137,0.0005485336296260357,0.00006765453144907951
1746734683323176700,6.2501767578125,-0.0008210749365389347,0.00015065772458910942,-0.0006822920404374599
1746734683333142500,6.260142578125,0.00038166576996445656,-0.0005697268061339855,-0.0008986834436655045
1746734683343109600,6.270109619140625,0.001186473062261939,0.00041377823799848557,-0.0002107890322804451
1746734683353076500,6.280076416015625,0.0005060143303126097,0.00009756162762641907,0.00024703843519091606
1746734683363042600,6.29004248046875,-0.002130249049514532,-0.0008374741300940514,-0.0012318152002990246
1746734683373009400,6.300009521484375,-0.00033201510086655617,0.0000467812642455101,-0.00025069713592529297
1746734683382976500,6.3099765625,-0.0005962005816400051,-0.001925023039802909,-0.001078141387552023
1746734683392943600,6.319943603515625,0.0010751578956842422,0.0023068636655807495,0.00004935683682560921
1746734683402909400,6.329909423828125,-0.0003874502144753933,0.0001939116045832634,-0.0014273659326136112
1746734683412876500,6.33987646484375,0.001637372188270092,0.00007592281326651573,0.0005594473332166672
1746734683422843400,6.349843505859375,0.00028448645025491714,0.0009470428340137005,0.0006880778819322586
1746734683432809500,6.3598095703125,-0.0005194018594920635,-0.0011156047694385052,0.001113198697566986
1746734683442776300,6.3697763671875,0.0011754340957850218,-0.0007856390438973904,0.0007792385295033455
1746734683452743400,6.379743408203125,0.000313193304464221,-0.000026098918169736862,-0.0006239623762667179
1746734683462709800,6.389709716796875,0.0010231919586658478,0.0008775116875767708,-0.000002913177013397217
1746734683472676600,6.399676513671875,0.001595349283888936,-0.0011678477749228477,0.0008484884165227413
1746734683482643700,6.409643798828125,-0.001240651123225689,0.000014596153050661087,0.0008290475234389305
1746734683492610600,6.419610595703125,0.0009509797673672438,-0.0012525892816483974,-0.0006070579402148724
1746734683502576600,6.42957666015625,-0.001673032995313406,0.0017280206084251404,0.0008353102020919323
1746734683512543500,6.43954345703125,-0.0005609942600131035,0.00034253671765327454,0.0005141384899616241
1746734683522510600,6.449510498046875,0.0013887060340493917,-0.001092907041311264,0.0013240058906376362
1746734683532476700,6.4594765625,0.001896275207400322,-0.0010238238610327244,-0.0012141289189457893
1746734683542443500,6.469443603515625,0.00039638299494981766,0.0004169465973973274,0.0007534143514931202
1746734683552410600,6.47941064453125,-0.001270029228180647,-0.000040461309254169464,-0.00007866276428103447
1746734683562376400,6.48937646484375,0.0007566364947706461,-0.0003563119098544121,0.0009216205216944218
1746734683572343600,6.499343505859375,0.00017887074500322342,-0.0008319346234202385,0.0006561260670423508
1746734683582310400,6.509310302734375,0.0003501118626445532,-0.0012186253443360329,-0.0010906411334872246
1746734683592277500,6.519277587890625,-0.00015891389921307564,-0.000026756897568702698,0.0010399394668638706
1746734683602243600,6.52924365234375,0.00107066729106009,-0.0006187777034938335,-0.00006420677527785301
1746734683612210400,6.53921044921875,-0.000864706002175808,-0.0006239619106054306,0.00027179718017578125
1746734683622177500,6.549177490234375,0.0008660824969410896,0.0008788597770035267,0.00006140721961855888
1746734683632143600,6.5591435546875,0.00007178820669651031,-0.0006647570990025997,-0.0005580666474997997
1746734683642110500,6.5691103515625,-0.0007071862928569317,0.00021674903109669685,0.0019341192673891783
1746734683652077300,6.579077392578125,-0.0014719604514539242,0.001132706180214882,0.00034796399995684624
1746734683662044400,6.58904443359375,-0.000012015458196401596,-0.00013575749471783638,0.00048458436504006386
1746734683672010800,6.5990107421875,0.00043561914935708046,0.002390318550169468,0.00011020200327038765
1746734683681977600,6.6089775390625,0.0007370889652520418,0.00026564858853816986,0.0009973011910915375
1746734683691944700,6.61894482421875,0.0012695949990302324,0.0009980411268770695,-0.0000729970633983612
1746734683701910500,6.62891064453125,0.0004722445737570524,0.0013897917233407497,0.001185612753033638
1746734683711877600,6.638877685546875,0.00018966919742524624,0.00023886235430836678,0.0002536484971642494
1746734683721844700,6.6488447265625,0.00009299628436565399,0.00020930124446749687,0.0010107848793268204
1746734683731810600,6.658810546875,-0.002070474438369274,0.0012751193717122078,0.000156317837536335
1746734683741777700,6.668777587890625,-0.0011365036480128765,0.00047244271263480186,0.0010934844613075256
1746734683751744500,6.67874462890625,0.0010204208083450794,-0.0006531761027872562,0.0009643682278692722
1746734683761711600,6.688711669921875,-0.00042434409260749817,-0.0010411986149847507,-0.0010351329110562801
1746734683771677400,6.698677490234375,0.00025549368001520634,0.0005524870939552784,0.0006058467552065849
1746734683781644500,6.70864453125,0.0004565624985843897,0.0005753906443715096,-0.0014511789195239544
1746734683791611600,6.718611572265625,-0.0016511445865035057,-0.0005034101195633411,-0.0005175899714231491
1746734683801577500,6.728577392578125,-0.0007597845979034901,-0.00010846322402358055,0.0005894862115383148
1746734683811544600,6.738544677734375,0.0005723140202462673,-0.0013294434174895287,0.0012655109167099
1746734683821511400,6.748511474609375,-0.0002026660367846489,-0.0001283576712012291,0.002135033020749688
1746734683831477800,6.758477783203125,0.00024381163530051708,-0.0009199352934956551,0.00024830643087625504
1746734683841444600,6.768444580078125,-0.00030373409390449524,-0.0014187456108629704,0.0017697704024612904
1746734683851411500,6.778411376953125,-0.00008621904999017715,-0.0009034276008605957,-0.0011636074632406235
1746734683861378600,6.788378662109375,0.00016331905499100685,0.0008526607416570187,0.00019673537462949753
1746734683871344600,6.7983447265625,-0.0018844851292669773,0.00016147689893841743,-0.0023715696297585964
1746734683881311700,6.808311767578125,0.0002947794273495674,-0.0007093767635524273,-0.0000721961259841919
1746734683891278600,6.818278564453125,-0.0003993045538663864,-0.00019309204071760178,0.00112517224624753
1746734683901244700,6.82824462890625,0.00009391270577907562,0.000025020912289619446,0.00034193648025393486
1746734683911211500,6.83821142578125,0.0009218351915478706,-0.000020844396203756332,-0.00028769392520189285
1746734683921178600,6.8481787109375,-0.0011011017486453056,-0.0009143347851932049,0.0001413417048752308
1746734683931145700,6.858145751953125,0.0000607282854616642,0.00026043783873319626,-0.001749941147863865
1746734683941111600,6.868111572265625,-0.00029214052483439445,0.0002537798136472702,0.0007379837334156036
1746734683951078700,6.87807861328125,-0.0004869019612669945,0.0008248272351920605,-0.00004607439041137695
1746734683961045500,6.88804541015625,0.0014366991817951202,0.000051977578550577164,-0.00030999351292848587
1746734683971011600,6.898011474609375,0.0006435213144868612,-0.00047928420826792717,-0.0006908364593982697
1746734683980978400,6.907978515625,-0.0005844621919095516,-0.0006846138276159763,0.000039402395486831665
1746734683990945500,6.917945556640625,-0.0007992698810994625,0.00032103294506669044,0.0015101784374564886
1746734684000911400,6.927911376953125,-0.00034040724858641624,0.0012589981779456139,-0.001143129076808691
1746734684010878500,6.93787841796875,-0.000768949743360281,-0.0011376915499567986,0.0002854885533452034
1746734684020845600,6.947845458984375,0.0004132273606956005,-0.00010917894542217255,0.0005821646191179752
1746734684030812400,6.9578125,0.00006174575537443161,-0.0007043816149234772,0.0002822708338499069
1746734684040778800,6.96777880859375,0.0010069017298519611,0.0003246637061238289,0.0002790750004351139
1746734684050745600,6.97774560546875,0.0006344865541905165,0.00015292735770344734,0.00003344891592860222
1746734684060712400,6.98771240234375,-0.0004840409383177757,-0.0002446826547384262,0.0015562446787953377
1746734684070678500,6.997678466796875,0.0004374769050627947,-0.0000572805292904377,-0.0011430620215833187
1746734684080645600,7.007645751953125,-0.001382527407258749,-0.0017310772091150284,0.00005509424954652786
1746734684090612700,7.01761279296875,-0.00025432417169213295,-0.0007315310649573803,0.00030023232102394104
1746734684100578600,7.02757861328125,0.0003041406162083149,-0.0006929151713848114,0.0003718715161085129
1746734684110545700,7.037545654296875,-0.000018192455172538757,0.0006710314191877842,-0.00021082675084471703
1746734684120512500,7.047512451171875,-0.00020061898976564407,-0.0009913137182593346,0.0005495059303939342
1746734684130479600,7.057479736328125,-0.0011980198323726654,-0.0004073651507496834,-0.0006442745216190815
1746734684140445400,7.067445556640625,0.0008518153335899115,-0.00011814571917057037,0.000291293952614069
1746734684150412500,7.07741259765625,-0.001251161564141512,-0.0007615005597472191,0.00021500559523701668
1746734684160379600,7.087379638671875,0.0011659236624836922,0.000480863731354475,-0.00004198914393782616
1746734684170345500,7.097345458984375,-0.000027853529900312424,-0.0004228707402944565,0.0019017341546714306
1746734684180312600,7.1073125,0.0017633887473493814,-0.00021274760365486145,0.000173875130712986
1746734684190279400,7.117279541015625,-0.001093640923500061,-0.0008898163214325905,-0.0004627262242138386
1746734684200246500,7.12724658203125,0.0010416815057396889,-0.000744940247386694,-0.0001535331830382347
1746734684210212400,7.13721240234375,-0.00038969889283180237,0.0012833313085138798,-0.0017660013400018215
1746734684220179500,7.147179443359375,0.001673718448728323,0.0015669581480324268,-0.00014546746388077736
1746734684230147000,7.15714697265625,0.0007837836164981127,0.0007389192469418049,0.0011308752000331879
1746734684240113200,7.167113037109375,0.0001462227664887905,0.0013735503889620304,-0.0008827410638332367
1746734684250080000,7.177080078125,-0.0005196332931518555,0.0004548816941678524,-0.0004548770375549793
1746734684260047000,7.187047119140625,-0.0015875608660280704,0.0006319819949567318,-0.0010410388931632042
1746734684270014200,7.19701416015625,0.0019758641719818115,0.00018939096480607986,-0.0006685811094939709
1746734684279980300,7.206980224609375,0.00002589775249361992,0.0010416023433208466,0.0007013487629592419
1746734684289947400,7.216947509765625,0.0013522305525839329,-0.0012182332575321198,0.00010177399963140488
1746734684299914200,7.226914306640625,-0.0011990778148174286,0.0008443850092589855,-0.0006811954081058502
1746734684309880300,7.23688037109375,0.001777465222403407,-0.00017625093460083008,-0.0003346819430589676
1746734684319847200,7.24684716796875,0.001152421347796917,-0.0014955808874219656,0.0006538834422826767
1746734684329814300,7.256814208984375,0.0013062914367765188,-0.0007129996083676815,-0.0007344894111156464
1746734684339780000,7.266780029296875,-0.0008063940331339836,-0.000636034645140171,0.0009555527940392494
1746734684349747200,7.276747314453125,0.0007377178408205509,-0.0011913590133190155,0.0011399690993130207
1746734684359714300,7.28671435546875,-0.00006735604256391525,0.0008861729875206947,0.0005599325522780418
1746734684369681200,7.29668115234375,0.0013515986502170563,-0.00008586747571825981,-0.00040864525362849236
1746734684379647200,7.306647216796875,0.0002149615902453661,-0.001791355898603797,-0.00015537859871983528
1746734684389614000,7.316614013671875,-0.0005180272273719311,-0.00047209765762090683,-0.00000607222318649292
1746734684399581200,7.326581298828125,-0.00103654433041811,0.0010269959457218647,0.0006714360788464546
1746734684409547000,7.336547119140625,0.0003072693943977356,-0.0005205189809203148,-0.0003430219367146492
1746734684419514000,7.34651416015625,0.0004947558045387268,0.00015911972150206566,0.0018855109810829163
1746734684429481200,7.356481201171875,0.00023483182303607464,0.001107906922698021,-0.0006993371061980724
1746734684439448000,7.366447998046875,0.0004705216269940138,-0.00031555257737636566,-0.0004058568738400936
1746734684449414100,7.3764140625,0.0003233079332858324,-0.0010481392964720726,-0.0007762080058455467
1746734684459381000,7.386381103515625,-0.0013885721564292908,-0.0011722426861524582,-0.0003439770080149174
1746734684469348000,7.39634814453125,0.00041439151391386986,0.0014347722753882408,0.00042427750304341316
1746734684479314200,7.406314208984375,0.00007830047979950905,0.001168190035969019,0.0001212097704410553
1746734684489281300,7.41628125,-0.00025448529049754143,0.001448645256459713,0.001064123585820198
1746734684499248400,7.426248291015625,-0.00035328883677721024,0.0006859158165752888,0.00048062531277537346
1746734684509215200,7.43621533203125,-0.001573584508150816,0.00015496835112571716,0.0007993127219378948
1746734684519181300,7.446181396484375,-0.0012838328257203102,-0.00018005771562457085,-0.0007948554120957851
1746734684529148200,7.456148193359375,-0.0011035935021936893,0.0006966204382479191,0.001002805307507515
1746734684539115300,7.466115234375,0.0004684703890234232,0.00021884962916374207,0.000053388066589832306
1746734684549081000,7.4760810546875,0.002360622165724635,-0.0005860738456249237,-0.000011846888810396194
1746734684559048200,7.486048095703125,0.0012378334067761898,-0.0008345465175807476,0.00017004692927002907
1746734684569015300,7.496015380859375,-0.00007300777360796928,-0.0009908420033752918,-0.0008624894544482231
1746734684578982100,7.505982177734375,0.0007408540695905685,0.0008201072923839092,-0.0010936516337096691
1746734684588948200,7.5159482421875,-0.0015869680792093277,-0.00044612493366003036,-0.0003171204589307308
1746734684598915000,7.5259150390625,0.000479644862934947,-0.0005747554823756218,0.0004980731755495071
1746734684608882200,7.535882080078125,0.00014796340838074684,-0.001648313831537962,-0.0009461487643420696
1746734684618848000,7.545847900390625,0.000514680752530694,-0.0011239373125135899,0.0004754462279379368
1746734684628815000,7.555815185546875,-0.00003134924918413162,0.000539096537977457,-0.00020431028679013252
1746734684638782200,7.5657822265625,-0.00010911328718066216,-0.0006148512475192547,-0.00006928807124495506
1746734684648748000,7.575748046875,-0.000494000967592001,0.00007441919296979904,-0.0016276026144623756
1746734684658715100,7.585715087890625,-0.0004921364597976208,-0.002093926537781954,-0.000009465962648391724
1746734684668682000,7.595681884765625,0.002466317731887102,0.0005766344256699085,-0.0001754164695739746
1746734684678649000,7.605649169921875,0.00040343310683965683,0.0001100483350455761,-0.00009845104068517685
1746734684688615200,7.615615234375,-0.001070409081876278,-0.0001051025465130806,0.00025164894759655
1746734684698582300,7.625582275390625,-0.00003284169360995293,-0.00045158015564084053,-0.00016327155753970146
1746734684708549400,7.63554931640625,0.00015180464833974838,-0.00032402854412794113,0.0006232187151908875
1746734684718515200,7.64551513671875,-0.0003358200192451477,-0.0005040583200752735,-0.000847911462187767
1746734684728482300,7.655482421875,0.00017806701362133026,0.0004917788319289684,-0.00044755684211850166
1746734684738449200,7.66544921875,-0.0004525696858763695,0.0017943307757377625,0.0003617778420448303
1746734684748416300,7.675416259765625,0.0006826769094914198,-0.0005021980032324791,-0.0005547166801989079
1746734684758382000,7.685382080078125,0.0002824037801474333,0.00043922942131757736,-0.0001448565162718296
1746734684768349200,7.69534912109375,0.0014153325464576483,0.0009318254888057709,-0.00043256767094135284
1746734684778316300,7.70531640625,-0.00014021992683410645,-0.00024049822241067886,0.0008883601985871792
1746734684788282000,7.7152822265625,-0.002052190713584423,-0.0008541792631149292,0.000734320841729641
1746734684798249200,7.725249267578125,-0.00007186410948634148,0.0010611661709845066,0.00021899910643696785
1746734684808216000,7.735216064453125,0.0007671888452023268,0.00007908744737505913,0.0009892485104501247
1746734684818183200,7.74518310546875,0.001547761494293809,-0.0003893626853823662,-0.001016644760966301
1746734684828149000,7.75514892578125,-0.0015690391883254051,-0.0013627833686769009,-0.000002114567905664444
1746734684838116000,7.7651162109375,-0.001065968070179224,0.00014642998576164246,0.0003749891184270382
1746734684848083200,7.775083251953125,0.0007770082447677851,-0.0002576238475739956,-0.00012075528502464294
1746734684858049300,7.78504931640625,0.000818553613498807,-0.0002048932947218418,-0.00030025234445929527
1746734684868016000,7.79501611328125,-0.0007106945849955082,-0.0004968708381056786,-0.00031372858211398125
1746734684877983000,7.80498291015625,0.0006525777280330658,0.0002328353002667427,-0.0005171941593289375
1746734684887950000,7.8149501953125,-0.001135003287345171,-0.00012898771092295647,0.00006765266880393028
1746734684897916200,7.824916259765625,-0.0001965053379535675,-0.00012579187750816345,0.00035127904266119003
1746734684907883300,7.83488330078125,0.0002352686133235693,0.00041357800364494324,0.00005530007183551788
1746734684917850400,7.844850341796875,0.0010099820792675018,-0.0008977623656392097,0.0007913974113762379
1746734684927816200,7.854816162109375,-0.00008466187864542007,0.0004903338849544525,-0.0003302046097815037
1746734684937783300,7.864783203125,0.00006767082959413528,0.00003519980236887932,0.00035635847598314285
1746734684947750100,7.874750244140625,0.0002960867714136839,0.0010567400604486465,-0.0013596699573099613
1746734684957717200,7.88471728515625,-0.001430972944945097,-0.0003110594116151333,0.00046752486377954483
1746734684967683000,7.89468310546875,-0.000834338366985321,0.00007496587932109833,0.0012250007130205631
1746734684977650200,7.904650146484375,0.001286336686462164,0.0018520932644605637,0.0011741342023015022
1746734684987617300,7.9146171875,-0.001854489091783762,-0.0011725379154086113,-0.00013307388871908188
1746734684997583000,7.9245830078125,0.0005444861017167568,-0.0005078129470348358,-0.0022055460140109062
1746734685007550200,7.93455029296875,-0.0011669332161545753,0.00012897001579403877,0.00019184965640306473
1746734685017517000,7.94451708984375,-0.00014028465375304222,-0.0009429524652659893,-0.00008698320016264915
1746734685027484200,7.954484130859375,0.00031505851075053215,-0.000455652829259634,-0.0006526345387101173
1746734685037450000,7.964449951171875,0.00010546762496232986,-0.0000889357179403305,0.0003353985957801342
1746734685047417000,7.9744169921875,0.0005718118045479059,0.0008460357785224915,0.0010791094973683357
1746734685057384200,7.98438427734375,0.00008125742897391319,-0.0006554541178047657,-0.0014807209372520447
1746734685067350300,7.994350341796875,0.0002155571710318327,0.0001495969481766224,-0.0010260790586471558
1746734685077317000,8.004317138671874,-0.0011317362077534199,0.0002670423127710819,-0.00018558558076620102
1746734685087284000,8.014283935546874,0.00014066696166992188,-0.001141758169978857,-0.0004044906236231327
1746734685097250300,8.024250244140624,-0.0005528200417757034,0.0009288494475185871,0.00021123234182596207
1746734685107217200,8.034217041015625,0.001773347146809101,0.0001079430803656578,0.0000234958715736866
1746734685117184300,8.044184326171875,0.0003629368729889393,-0.0013317619450390339,0.0003992677666246891
1746734685127151400,8.0541513671875,-0.0007008174434304237,-0.00017399480566382408,0.00007485970854759216
1746734685137117200,8.0641171875,-0.0015570237301290035,0.00011868681758642197,0.00024982914328575134
1746734685147084300,8.074084228515625,-0.0005472749471664429,-0.0013026236556470394,0.0012699454091489315
1746734685157051100,8.084051025390625,-0.0006277021020650864,-0.0002506747841835022,0.0006648749113082886
1746734685167018200,8.094018310546875,0.00015918398275971413,-0.00007065990939736366,-0.0009320210665464401
1746734685176984000,8.103984130859375,0.0019221967086195946,0.0002774149179458618,-0.0003165644593536854
1746734685186951200,8.113951171875,0.00056863809004426,0.0013920352794229984,0.0001757461577653885
1746734685196918300,8.123918212890626,0.0008559932466596365,-0.0004612584598362446,-0.0005768630653619766
1746734685206884000,8.133884033203126,-0.0005059512332081795,0.0007536094635725021,-0.0002132924273610115
1746734685216851200,8.143851318359374,0.0011875529307872057,-0.0007327008061110973,0.0014341389760375023
1746734685226818000,8.153818115234374,0.0014866783749312162,0.0009105922654271126,-0.0006735241040587425
1746734685236783900,8.163783935546874,-0.00027233920991420746,0.00044107716530561447,0.0006719049997627735
1746734685246751000,8.1737509765625,-0.000753727275878191,-0.0008511669002473354,0.0004234304651618004
1746734685256718000,8.183718017578125,-0.000993411522358656,-0.00034143775701522827,-0.0013097547926008701
1746734685266685000,8.193684814453125,0.00031607248820364475,0.0010974248871207237,0.0003345124423503876
1746734685276651300,8.2036513671875,0.00019196909852325916,0.0001980750821530819,-0.0004138355143368244
1746734685286618000,8.2136181640625,-0.00040144240483641624,-0.0000437665730714798,-0.000377078540623188
1746734685296585000,8.2235849609375,-0.00028745923191308975,0.0009280205704271793,-0.0012149089016020298
1746734685306552000,8.233552001953125,-0.00016957474872469902,0.0004875063896179199,-0.0003456990234553814
1746734685316518100,8.24351806640625,0.000652543269097805,0.0006150715053081512,-0.0006479681469500065
1746734685326485200,8.2534853515625,0.00008276617154479027,-0.0002245921641588211,-0.0009418157860636711
1746734685336452000,8.2634521484375,0.001144835026934743,0.0007551847957074642,0.0010608816519379616
1746734685346418200,8.273418212890626,-0.0005423184484243393,-0.0003654961474239826,-0.0005060057155787945
1746734685356385000,8.283385009765626,-0.0002855900675058365,-0.001089609693735838,-0.0007302439771592617
1746734685366352100,8.29335205078125,0.0001133522018790245,0.0007538525387644768,0.00040111830458045006
1746734685376318000,8.30331787109375,0.0015642421785742044,0.0002744835801422596,0.0006234925240278244
1746734685386285000,8.31328515625,-0.002234028186649084,0.0006249137222766876,-0.0011998391710221767
1746734685396252200,8.323252197265624,-0.0008084378205239773,0.0022595622576773167,-0.0001484234817326069
1746734685406219000,8.333218994140625,-0.0004473058506846428,0.0004270658828318119,0.0008337004110217094
1746734685416185000,8.34318505859375,-0.0011903275735676289,-0.0006198226474225521,-0.000688562635332346
1746734685426152000,8.35315185546875,-0.0003509228117763996,-0.00022455211728811264,0.000509865116328001
1746734685436119000,8.363119140625,0.0002011507749557495,-0.0013542650267481804,0.0009921635501086712
1746734685446085000,8.373085205078125,0.001478514401242137,0.00009602541103959084,0.0012647281400859356
1746734685456052000,8.383052001953125,-0.0013068858534097672,-0.0001303432509303093,-0.00009161978960037231
1746734685466019000,8.39301904296875,-0.0006419518031179905,0.0008950624614953995,0.0017398663330823183
1746734685475986000,8.40298583984375,0.00042810640297830105,0.0008447286672890186,0.00011107698082923889
1746734685485952300,8.4129521484375,0.0008203382603824139,0.0003370228223502636,0.000162594486027956
1746734685495919000,8.422919189453125,0.0007979676593095064,-0.000843556597828865,0.0011876453645527363
1746734685505886000,8.432885986328126,-0.0002984614111483097,0.0013064616359770298,0.000825436320155859
1746734685515852300,8.442852294921876,-0.0002920697443187237,0.0003125700168311596,0.0003439364954829216
1746734685525819100,8.452819091796876,0.0008368236012756824,-0.00042906636372208595,0.00012098625302314758
1746734685535786200,8.4627861328125,-0.0007139351218938828,0.0021046651527285576,-0.0006417431868612766
1746734685545753000,8.472753173828124,-0.0001102653332054615,0.0005096737295389175,0.00046559469774365425
1746734685555719200,8.48271923828125,0.000180552015081048,-0.00020005879923701286,-0.001597822643816471
1746734685565686000,8.49268603515625,-0.0015522041358053684,0.00029801810160279274,-0.0005866223946213722
1746734685575653000,8.502653076171875,-0.000617168378084898,-0.00007935194298624992,-0.0011160587891936302
1746734685585619200,8.512619140625,0.0009861604776233435,-0.0007648244500160217,0.0008751275017857552
1746734685595586000,8.5225859375,0.00033794716000556946,-0.001473757904022932,-0.0011661853641271591
1746734685605553200,8.53255322265625,0.0013231616467237473,-0.0009274249896407127,0.0001311195082962513
1746734685615520000,8.54252001953125,-0.0008672885596752167,-0.0007553845643997192,-0.0003138948231935501
1746734685625486000,8.552486083984375,0.00035119825042784214,0.0006097746081650257,0.001164156012237072
1746734685635453000,8.562452880859375,0.0008444155100733042,-0.0002722642384469509,-0.00018420256674289703
1746734685645420000,8.572419921875,0.0003467951901257038,-0.000025042332708835602,0.0008466136641800404
1746734685655386000,8.58238623046875,0.00014838972128927708,0.0003376803360879421,0.0008114599622786045
1746734685665353000,8.59235302734375,-0.0013569542206823826,-0.0006185197271406651,-0.0003767479211091995
1746734685675320000,8.602320068359376,0.0006912830285727978,-0.001136238221079111,-0.0003631659783422947
1746734685685287000,8.612286865234376,0.00022189528681337833,-0.0011648330837488174,-0.0010639699175953865
1746734685695253200,8.622253173828126,-0.0007919701747596264,-0.0003445795737206936,-0.0010533174499869347
1746734685705220000,8.63222021484375,0.00040224893018603325,-0.0009118164889514446,0.0000766008161008358
1746734685715187200,8.642187255859374,0.0016459452454000711,0.0011092564091086388,0.00044145388528704643
1746734685725153300,8.6521533203125,0.0004994324408471584,-0.0002533448860049248,-0.00017946073785424232
1746734685735120100,8.6621201171875,0.00023764371871948242,0.00010458379983901978,0.00012360699474811554
1746734685745087200,8.672087158203125,-0.000567267183214426,-0.00046617258340120316,0.0010335957631468773
1746734685755054000,8.68205419921875,0.00019439705647528172,0.0005764546804130077,0.0007265331223607063
1746734685765020200,8.692020263671875,-0.0010448861867189407,0.00041413865983486176,0.000053273048251867294
1746734685774987000,8.701987060546875,-0.0018398398533463478,0.0005289209075272083,0.00044182827696204185
1746734685784954000,8.7119541015625,-0.0003528040833771229,0.00023264717310667038,-0.001299915835261345
1746734685794920200,8.721920166015625,-0.00027903448790311813,0.0005458346568048,-0.0006959112361073494
1746734685804887000,8.731886962890625,-0.0007319641299545765,0.00002501579001545906,0.0006794785149395466
1746734685814854100,8.741854248046875,0.000015585217624902725,0.0019219857640564442,0.002001737942919135
1746734685824821000,8.751821044921876,-0.0008049146272242069,0.0009624212980270386,-0.0010513258166611195
1746734685834787000,8.761787109375,0.0011330675333738327,0.0011352603323757648,-0.00043613556772470474
1746734685844754000,8.77175390625,-0.00038430001586675644,-0.000042603351175785065,0.00020868424326181412
1746734685854721000,8.781720947265624,0.00021704169921576977,-0.00031264778226614,-0.0003412584774196148
1746734685864687000,8.79168701171875,-0.00030002184212207794,0.0005265530198812485,-0.0007932456210255623
1746734685874654000,8.801654052734374,0.0005436677020043135,-0.00020581670105457306,-0.0005029607564210892
1746734685884621000,8.81162109375,0.000049007125198841095,-0.0008593881502747536,-0.0011778287589550018
1746734685894588000,8.821587890625,-0.0006633885204792023,-0.0005981321446597576,-0.0007171016186475754
1746734685904554200,8.83155419921875,0.0003177947364747524,-0.0005314387381076813,0.0009572315029799938
1746734685914521000,8.84152099609375,0.00008157221600413322,-0.0001263720914721489,0.00048824865370988846
1746734685924488200,8.85148828125,-0.0008135600946843624,-0.00040304334834218025,0.00030348822474479675
1746734685934454300,8.861454345703125,-0.00019996799528598785,-0.0009311484172940254,0.00028191693127155304
1746734685944421000,8.871421142578125,-0.0006145881488919258,0.0003226441331207752,-0.0005827527493238449
1746734685954388200,8.88138818359375,-0.0009498801082372665,-0.0000025276094675064087,-0.00004745740443468094
1746734685964355000,8.89135498046875,0.0006178971379995346,-0.00019285641610622406,-0.0008786823600530624
1746734685974321200,8.901321044921875,-0.0006172768771648407,0.0016631009057164192,0.00016580941155552864
1746734685984288300,8.911288330078126,0.0013785585761070251,-0.00011132098734378815,-0.0012474325485527515
1746734685994255000,8.921255126953126,-0.0005588913336396217,0.0004564649425446987,0.0008756397292017937
1746734686004221200,8.93122119140625,-0.0003302674740552902,-0.00041057681664824486,-0.0010327277705073357
1746734686014188000,8.94118798828125,-0.0011736908927559853,0.000031507574021816254,0.0008770250715315342
1746734686024155100,8.951155029296874,-0.00012778909876942635,-0.0007348679937422276,0.0008199191652238369
1746734686034121000,8.961120849609374,-0.0006428444758057594,-0.0002059643156826496,0.0006958162412047386
1746734686044088000,8.971088134765624,0.0003885480109602213,-0.0008698455058038235,0.0001552831381559372
1746734686054055200,8.98105517578125,0.0002236983273178339,-0.0006796959787607193,-0.00019252533093094826
1746734686064022000,8.99102197265625,0.000273706391453743,-0.000907672569155693,-0.0016792635433375835
1746734686073988000,9.000988037109375,0.0012316452339291573,0.00015040114521980286,-0.0007540811784565449
1746734686083955000,9.010954833984375,0.0020538601092994213,-0.0008284291252493858,-0.0008407137356698513
1746734686093922000,9.020922119140625,0.0009446535259485245,0.0000679907388985157,-0.0007749339565634727
1746734686103888100,9.03088818359375,0.0017998204566538334,-0.0009323949925601482,0.00041875243186950684
1746734686113855200,9.040855224609375,-0.0005640010349452496,-0.0009052306413650513,-0.0024771690368652344
1746734686123822300,9.050822265625,0.0010005151852965355,-0.00014471355825662613,-0.0005660583265125751
1746734686133789200,9.0607890625,0.0017435371410101652,-0.001263774000108242,-0.00064089335501194
1746734686143755300,9.07075537109375,-0.001226736232638359,-0.00035580992698669434,-0.0015505868941545486
1746734686153722000,9.08072216796875,-0.0007865158841013908,0.000039669219404459,-0.0010054376907646656
1746734686163689200,9.090689208984376,-0.00014515267685055733,0.0004826444201171398,0.0004396527074277401
1746734686173655000,9.100655029296876,0.0014279766473919153,0.0001209871843457222,-0.0006937887519598007
1746734686183622100,9.1106220703125,-0.0004928437992930412,0.00015579629689455032,-0.000004785135388374329
1746734686193589200,9.12058935546875,-0.0004190742038190365,0.0004383577033877373,0.00046526314690709114
1746734686203556000,9.13055615234375,-0.00032260455191135406,-0.0017422956880182028,-0.00048132939264178276
1746734686213522200,9.140522216796874,0.0006443890742957592,0.00014615152031183243,0.000006295274943113327
1746734686223489000,9.150489013671875,-0.00023773033171892166,0.000102256890386343,-0.0008222511969506741
1746734686233455400,9.160455322265625,-0.0008124406449496746,-0.00006046239286661148,-0.0005985456518828869
1746734686243421400,9.17042138671875,-0.0004161037504673004,-0.0015022240113466978,0.0003048945218324661
1746734686253388300,9.18038818359375,-0.000528489239513874,-0.0006281747482717037,-0.00003332691267132759
1746734686263355100,9.190355224609375,-0.001043795607984066,-0.00040924083441495895,-0.000706974882632494
1746734686273321500,9.200321533203125,0.000633196672424674,0.000630456954240799,0.0013399305753409863
1746734686283288300,9.210288330078125,0.0009899421129375696,-0.00026871124282479286,0.00008637458086013794
1746734686293255400,9.22025537109375,0.00130020035430789,0.0011273175477981567,0.0008152816444635391
1746734686303222500,9.230222412109375,0.0014467914588749409,0.00034684035927057266,-0.0013392260298132896
1746734686313188400,9.240188232421875,-0.0002645556814968586,-0.0006744819693267345,-0.00003054877743124962
1746734686323155500,9.250155517578126,-0.0006132163107395172,-0.0011351625435054302,-0.0009179697372019291
1746734686333122300,9.260122314453126,0.000566031550988555,-0.00010158959776163101,-0.0005994555540382862
1746734686343088400,9.27008837890625,0.0005848794244229794,-0.0010641342960298061,-0.00004458567127585411
1746734686353055200,9.28005517578125,-0.001978146843612194,0.0003566620871424675,0.001051571685820818
1746734686363022300,9.290022216796874,-0.0001771845854818821,0.001003773882985115,0.0005146418698132038
1746734686372989400,9.299989501953124,-0.00033883843570947647,0.0006192135624587536,0.0004957336932420731
1746734686382955300,9.309955322265624,-0.0013005416840314865,-0.0015616388991475105,0.0004841964691877365
1746734686392922400,9.31992236328125,0.0011897801887243986,0.0008780830539762974,-0.000014613848179578781
1746734686402889200,9.32988916015625,-0.0024774568155407906,-0.0005263509228825569,0.0013635638169944286
1746734686412855300,9.339855224609375,0.0005923688877373934,0.0006611524149775505,0.00010122545063495636
1746734686422822100,9.349822265625,0.002076121047139168,-0.00044863810762763023,-0.0002109990455210209
1746734686432789200,9.359789306640625,0.0006854182574898005,-0.00034211156889796257,-0.0016544321551918983
1746734686442756400,9.36975634765625,-0.000459298025816679,-0.0014481572434306145,-0.0012394767254590988
1746734686452722400,9.379722412109375,0.000005956273525953293,-0.0009176554158329964,-0.0004652957431972027
1746734686462689300,9.389689208984375,-0.0012860391288995743,0.0008100620470941067,-0.00011627702042460442
1746734686472656100,9.39965625,0.0001310287043452263,0.00013761408627033234,-0.0011413274332880974
1746734686482622500,9.40962255859375,-0.0005245357751846313,-0.0005650860257446766,-0.001462962944060564
1746734686492589300,9.41958935546875,0.00021955138072371483,0.000031461939215660095,-0.0013431203551590443
1746734686502556400,9.429556396484376,0.0007702514994889498,0.0008758683688938618,-0.0004888260737061501
1746734686512523500,9.4395234375,-0.0003533358685672283,0.0007373839616775513,0.0003386181779205799
1746734686522489300,9.4494892578125,-0.0014029508456587791,0.00009536324068903923,-0.0005360203795135021
1746734686532456400,9.45945654296875,-0.0004980084486305714,0.0005576880648732185,-0.0015213899314403534
1746734686542423300,9.46942333984375,-0.0012962287291884422,0.0006441664882004261,-0.00032197823747992516
1746734686552389400,9.479389404296874,-0.000012052245438098907,-0.00029592961072921753,0.002692453796043992
1746734686562356200,9.489356201171875,0.002150334184989333,-0.000605244655162096,-0.0012537883594632149
1746734686572323300,9.4993232421875,0.00041501852683722973,-0.00014132168143987656,0.0015153663698583841
1746734686582289200,9.5092890625,0.001194710610434413,-0.0004303627647459507,-0.0006684251129627228
1746734686592256300,9.51925634765625,0.001010153442621231,0.00010147038847208023,-0.00030570244416594505
1746734686602223400,9.529223388671875,-0.00036409031599760056,-0.00016100797802209854,-0.0009265374392271042
1746734686612190200,9.539190185546875,-0.0017119161784648895,-0.0002510226331651211,0.0013105180114507675
1746734686622156300,9.54915625,0.00048076873645186424,-0.0003564879298210144,0.00007753586396574974
1746734686632123100,9.559123046875,-0.001061467919498682,0.0005761510692536831,-0.0007139556109905243
1746734686642090200,9.56909033203125,-0.0017488808371126652,0.0013726940378546715,-0.0004948941059410572
1746734686652056300,9.579056396484376,0.00024289707653224468,-0.001722964458167553,0.0001607760787010193
1746734686662023400,9.5890234375,-0.001531810499727726,-0.0010597342625260353,-0.0006804089061915874
1746734686671990300,9.598990234375,-0.001060164999216795,-0.0007939506322145462,-0.0020450125448405743
1746734686681957000,9.60895703125,-0.0012201028876006603,0.0011950754560530186,-0.003098119515925646
1746734686691923500,9.61892333984375,-0.00018573133274912834,-0.0008438406512141228,-0.0002725054509937763
1746734686701890300,9.628890380859374,0.00037319445982575417,0.0003907843492925167,-0.0007340949960052967
1746734686711857400,9.638857421875,0.00007492024451494217,0.00033112941309809685,-0.0003633829765021801
1746734686721823200,9.6488232421875,0.000510350102558732,0.0016296557150781155,-0.0012414217926561832
1746734686731790300,9.658790283203125,0.0007473714649677277,-0.00009554019197821617,0.0007777870632708073
1746734686741757400,9.66875732421875,-0.00005049491301178932,0.00034612417221069336,0.0004346827045083046
1746734686751723300,9.67872314453125,0.0006136975716799498,0.00013520196080207825,-0.0005219248123466969
1746734686761690400,9.6886904296875,-0.0004947646521031857,-0.00025527505204081535,0.000021379906684160233
1746734686771657200,9.6986572265625,0.0002189625520259142,-0.00016366224735975266,-0.0004412112757563591
1746734686781624300,9.708624267578125,-0.0012078299187123775,0.00005837250500917435,-0.001047403085976839
1746734686791590100,9.718590087890625,0.0012862205039709806,0.00022854842245578766,-0.0006484612822532654
1746734686801557200,9.72855712890625,-0.0004421272315084934,-0.0011178567074239254,-0.0021207532845437527
1746734686811524400,9.7385244140625,0.00027799163945019245,0.00016631977632641792,0.00042789196595549583
1746734686821490200,9.748490234375,-0.0001994585618376732,0.0008633974939584732,0.001485838321968913
1746734686831457300,9.758457275390626,-0.0009265015833079815,-0.0005075978115200996,-0.00025427108630537987
1746734686841424100,9.768424072265624,0.0008809051942080259,-0.0009277216158807278,0.00037197163328528404
1746734686851390500,9.778390380859374,-0.0007460201159119606,-0.0005522160790860653,-0.0011500250548124313
1746734686861357300,9.788357421875,-0.00045660650357604027,-0.000027412548661231995,-0.0002224985510110855
1746734686871324400,9.798324462890625,0.0006299631204456091,0.0011640856973826885,-0.0009918860159814358
1746734686881291300,9.808291259765625,-0.0012883171439170837,-0.0004471247084438801,-0.0004975679330527782
1746734686891257300,9.81825732421875,-0.0001149284653365612,0.00021120905876159668,0.0018167190719395876
1746734686901224400,9.828224365234375,-0.00042532244697213173,-0.0011836853809654713,-0.0012363884598016739
1746734686911191300,9.83819140625,0.0012306312564760447,-0.00029658619314432144,-0.00046540331095457077
1746734686921157400,9.848157470703125,-0.0003281538374722004,0.0010979333892464638,0.0007417444139719009
1746734686931124200,9.858124267578125,0.0010782615281641483,0.00008353497833013535,-0.0001884973607957363
1746734686941091300,9.86809130859375,-0.0008983523584902287,0.0005739899352192879,0.0005027423612773418
1746734686951058400,9.878058349609375,-0.002644054591655731,-0.00022948533296585083,0.000497948843985796
1746734686961024300,9.888024169921875,-0.0006207111291587353,0.00027489056810736656,-0.0007077241316437721
1746734686970991400,9.897991455078126,0.0005252468399703503,0.00012309057638049126,0.00036206748336553574
1746734686980958200,9.907958251953126,-0.0005460511893033981,-0.0005869166925549507,-0.00011332100257277489
1746734686990924300,9.91792431640625,-0.0005881288088858128,0.0005593081004917622,0.0016765894833952188
1746734687000891100,9.92789111328125,0.0007399213500320911,-0.0007390519604086876,-0.0005939197726547718
1746734687010858200,9.937858154296874,0.001308506354689598,-0.0004993677139282227,-0.0006674230098724365
1746734687020824300,9.94782421875,-0.000794638879597187,0.002201993018388748,0.0007252609357237816
1746734687030791200,9.957791259765624,0.0009686399716883898,-0.00047608138993382454,-0.0001186947338283062
1746734687040758300,9.96775830078125,0.001054304651916027,0.0004640268161892891,0.0010787025094032288
1746734687050725000,9.97772509765625,-0.0004391958937048912,-0.00022173719480633736,-0.0008872430771589279
1746734687060691500,9.98769140625,-0.0018019243143498898,-0.001631466904655099,0.0009507220238447189
1746734687070658300,9.997658203125,0.0006657605990767479,0.0004916051402688026,0.0004196874797344208
1746734687080625400,10.00762548828125,-0.00005172332748770714,-0.00032618967816233635,0.0002631852403283119
1746734687090591200,10.01759130859375,0.0008271196857094765,-0.0011784015223383904,-0.0015248609706759453
1746734687100558300,10.027558349609375,-0.0011857785284519196,0.00048239389434456825,-0.00035689957439899445
1746734687110525400,10.037525390625,-0.0002472805790603161,-0.001022291835397482,-0.0002343938685953617
1746734687120492300,10.0474921875,-0.0009695887565612793,0.000047503504902124405,0.0010787327773869038
1746734687130458400,10.057458251953125,0.0017734672874212265,-0.0005447836592793465,0.0007503647357225418
1746734687140425200,10.06742529296875,-0.0002544415183365345,-0.0006413953378796577,-0.00021631130948662758
1746734687150392300,10.077392333984376,0.0005772635340690613,-0.0007593734189867973,0.0008122012950479984
1746734687160358100,10.087358154296876,-5.8673322200775146e-8,-0.0003253817558288574,-0.00014784140512347221
1746734687170325200,10.0973251953125,-0.00025545572862029076,0.0005137803964316845,-0.0015406743623316288
1746734687180292400,10.107292236328124,-0.00004064897075295448,0.00035331491380929947,0.001378845190629363
1746734687190258200,10.117258056640624,-0.0011282837949693203,-0.001912768930196762,-0.0012662066146731377
1746734687200225300,10.127225341796875,0.00013753422535955906,-0.00046839984133839607,-0.0009301467798650265
1746734687210192100,10.137192138671875,-0.0017554406076669693,-0.0015565676148980856,0.00015162955969572067
1746734687220159200,10.1471591796875,0.001634817337617278,0.0010220753028988838,0.0010144528932869434
1746734687230125300,10.157125244140625,-0.0020739007741212845,0.0018455246463418007,-0.000708612147718668
1746734687240092200,10.167092041015625,-0.0007707872427999973,0.00021485192701220512,-0.00038923975080251694
1746734687250059000,10.17705908203125,0.000610328046604991,-0.0003742389380931854,0.00046510249376296997
1746734687260025300,10.187025390625,0.0006196140311658382,0.0009757583029568195,0.0010705739259719849
1746734687269992200,10.1969921875,0.0003777989186346531,-0.000008013099431991577,-0.0009768642485141754
1746734687279959300,10.206959228515625,-0.00020947400480508804,-0.000008455011993646622,-0.00020086020231246948
1746734687289926400,10.216926513671876,-0.0004515554755926132,0.00017956411466002464,0.0003434899263083935
1746734687299892200,10.226892333984376,0.0007577391806989908,-0.0010054847225546837,-0.00004850374534726143
1746734687309859300,10.236859375,0.0005683884955942631,-0.0014632821548730135,-0.0011854073964059353
1746734687319826200,10.246826171875,0.0003778205718845129,-0.0011848811991512775,0.0005200086161494255
1746734687329792300,10.256792236328126,-0.0017857314087450504,-0.0003670244477689266,-0.000668560154736042
1746734687339759000,10.266759033203124,-0.00048530660569667816,0.0006262403912842274,-0.00019403127953410149
1746734687349726200,10.276726318359374,-0.000035765115171670914,-0.00022916728630661964,0.0006632399745285511
1746734687359692000,10.286692138671874,0.0014903568662703037,-0.00031707528978586197,-0.0011319909244775772
1746734687369659100,10.2966591796875,0.00046264310367405415,-0.0008031022734940052,-0.0007072165608406067
1746734687379626200,10.306626220703125,0.0007263040170073509,-0.00035253120586276054,0.0005461922846734524
1746734687389593000,10.316593017578125,-0.0013874471187591553,0.000087689608335495,0.00024152686819434166
1746734687399559200,10.32655908203125,0.0012048815842717886,0.0012147296220064163,-0.0006910716183483601
1746734687409526000,10.336526123046875,-0.000330963172018528,-0.00015227124094963074,0.0004010908305644989
1746734687419493000,10.3464931640625,0.001012597931548953,0.00033973436802625656,0.0009381063282489777
1746734687429459200,10.356459228515625,0.00005625654011964798,-0.00010368181392550468,-0.00019187293946743011
1746734687439426300,10.36642626953125,0.00086834910325706,-0.0007272069342434406,0.00009123608469963074
1746734687449393200,10.37639306640625,0.00042067188769578934,-0.00040150247514247894,-0.0002848021686077118
1746734687459359200,10.386359130859375,-0.0001639598049223423,0.0001735864207148552,-0.0009495108388364315
1746734687469326300,10.396326416015626,-0.002490497659891844,0.0007994296029210091,0.00032401271164417267
1746734687479293200,10.406293212890626,-0.0011437330394983292,0.0002711508423089981,0.000763320829719305
1746734687489260300,10.41626025390625,-0.00022547505795955658,-0.0011094319634139538,0.00007808953523635864
1746734687499226000,10.42622607421875,0.00020311307162046432,0.001435847021639347,-0.0008126483298838139
1746734687509193200,10.436193115234374,-0.00022086221724748611,0.00019774353131651878,0.00083584850654006
1746734687519160300,10.446160400390625,-0.00012493645772337914,0.0005927719175815582,0.000009888783097267151
1746734687529126100,10.456126220703124,-0.0001164143905043602,0.000022056512534618378,-0.00014670519158244133
1746734687539093200,10.46609326171875,0.0007359469309449196,0.0003581540659070015,-0.0004950333386659622
1746734687549060000,10.47606005859375,-0.0016113631427288055,0.00010195793583989143,0.0011207065545022488
1746734687559026200,10.486026123046875,-0.001585458405315876,-0.00018431991338729858,-0.001527255866676569
1746734687568993000,10.495992919921875,-0.000519927591085434,0.0012058503925800323,0.00007783109322190285
1746734687578960100,10.505960205078125,0.001820166828110814,-0.00041787559166550636,-0.00037531740963459015
1746734687588927200,10.51592724609375,0.0005466432776302099,0.001850338652729988,0.00030378904193639755
1746734687598893000,10.52589306640625,0.0006693736650049686,-0.0010636234655976295,-0.0005371216684579849
1746734687608860200,10.535860107421875,-0.001802039798349142,0.00038007600232958794,0.0004620966501533985
1746734687618827000,10.545826904296876,0.0006279859226197004,0.0005247234366834164,-0.0018280614167451859
1746734687628793300,10.55579345703125,-0.000222095288336277,0.0008312533609569073,0.0017994302324950695
1746734687638760200,10.56576025390625,-0.0004929038695991039,0.0009621484205126762,-0.00036780163645744324
1746734687648727300,10.575727294921874,0.0014099248219281435,0.0004162001423537731,-0.00011666584759950638
1746734687658694100,10.585694091796874,-0.0008866577409207821,-0.0013930841814726591,-0.00000245729461312294
1746734687668660200,10.59566015625,-0.0010709483176469803,-0.0017680572345852852,-0.00025412579998373985
1746734687678627300,10.60562744140625,0.00006211129948496819,0.0005279728211462498,0.0004015848971903324
1746734687688594200,10.61559423828125,0.0010285726748406887,0.0008592698723077774,0.0006734938360750675
1746734687698560300,10.625560302734375,0.00017742649652063847,0.00004363665357232094,0.0010384852066636086
1746734687708527000,10.635527099609375,0.0009257746860384941,-0.00109007116407156,-0.00033597229048609734
1746734687718494200,10.645494140625,0.0004574840422719717,0.001084949355572462,0.0005154157988727093
1746734687728460000,10.6554599609375,-0.00012707989662885666,0.0014668465591967106,0.000577201135456562
1746734687738427100,10.66542724609375,0.0007745374459773302,0.0011141737923026085,-0.00024223420768976212
1746734687748394200,10.675394287109375,0.00009809434413909912,-0.00033698277547955513,0.0011854865588247776
1746734687758361000,10.685361083984375,0.003138613421469927,-0.000026527326554059982,0.00036145420745015144
1746734687768327200,10.6953271484375,-0.0012188507243990898,0.00026721926406025887,0.0006293682381510735
1746734687778294000,10.7052939453125,0.0008274156134575605,0.000394982285797596,-0.0005357530899345875
1746734687788261000,10.71526123046875,-0.0005843262188136578,0.0010152324102818966,0.0013260627165436745
1746734687798227000,10.72522705078125,0.0010259414557367563,-0.00036267563700675964,0.0014059885870665312
1746734687808194000,10.735194091796876,0.00018118671141564846,0.000486073549836874,0.0003780084662139416
1746734687818161200,10.7451611328125,-0.000003552064299583435,0.00032779760658741,0.0006642695516347885
1746734687828127200,10.755127197265624,0.0011019259691238403,-0.0011558495461940765,0.0006767860613763332
1746734687838094300,10.76509423828125,0.0002969917841255665,-0.00044580036774277687,-0.0007995031774044037
1746734687848061200,10.775061279296875,0.00018700305372476578,-0.0003227619454264641,-0.0008900510147213936
1746734687858028300,10.7850283203125,0.00015589222311973572,-0.00004530604928731918,0.0021472054067999125
1746734687867994000,10.794994140625,0.000011815223842859268,-0.0006876606494188309,-0.0003465786576271057
1746734687877961200,10.804961181640625,0.00026991055347025394,0.000054644420742988586,0.0016292966902256012
1746734687887928300,10.81492822265625,-0.00015805941075086594,-0.0006990302354097366,-0.00047273654490709305
1746734687897894100,10.82489404296875,0.00035715289413928986,0.00011331029236316681,0.0008799126371741295
1746734687907861200,10.834861328125,-0.00009292131289839745,-0.0006616692990064621,0.0008665970526635647
1746734687917828000,10.844828125,-0.00034513697028160095,0.00030490243807435036,-0.0008044233545660973
1746734687927794200,10.854794189453125,0.00039389031007885933,-0.00025302963331341743,-0.000039297156035900116
1746734687937761000,10.864760986328125,-0.00016547413542866707,0.0007878737524151802,0.000958210788667202
1746734687947728100,10.87472802734375,-0.00015908246859908104,-0.001335198525339365,-0.0014255847781896591
1746734687957695200,10.8846953125,0.0011033224873244762,-0.001640564063563943,-0.0005935453809797764
1746734687967661000,10.8946611328125,0.0013299575075507164,-0.0005729026161134243,0.001867748098447919
1746734687977628200,10.904628173828126,-0.00012198789045214653,0.0003214804455637932,0.0012065395712852478
1746734687987595000,10.914594970703124,0.0013661864213645458,-0.0008644252084195614,-0.00031732115894556046
1746734687997561300,10.924561279296874,-0.0007121721282601357,-0.0011065928265452385,0.0014273340348154306
1746734688007528200,10.934528076171874,0.0005759985651820898,0.00004256097599864006,0.0005218591541051865
1746734688017495000,10.9444951171875,-0.0010524275712668896,0.0008266833610832691,-0.0005195988342165947
1746734688027461400,10.95446142578125,-0.0005613407120108604,-0.000019935425370931625,0.0013113243039697409
1746734688037428200,10.96442822265625,-0.0018201428465545177,0.0005071717314422131,-0.00002449285238981247
1746734688047395300,10.974395263671875,-0.0003524748608469963,-0.0009024394676089287,-0.0009507401846349239
1746734688057362200,10.984362060546875,0.002518978202715516,-0.00013442989438772202,0.0000867331400513649
1746734688067328300,10.994328369140625,-0.0004690885543823242,0.0010213819332420826,-0.0004211314953863621
1746734688077295000,11.004295166015625,-0.001435224898159504,0.0003038570284843445,0.00004111742600798607
1746734688087262200,11.01426220703125,-0.00035185087472200394,-0.0005014827474951744,-0.0013996530324220657
1746734688097228300,11.024228271484375,-0.0009801150299608707,0.0015506925992667675,0.00007172860205173492
1746734688107195100,11.034195068359375,-0.0004570703022181988,-0.0005998099222779274,-0.00032694684341549873
1746734688117162200,11.044162353515626,0.00016666576266288757,0.00011496897786855698,-0.0008195815607905388
1746734688127128000,11.054128173828126,0.00032166182063519955,0.0010782345198094845,0.00018389755859971046
1746734688137095200,11.06409521484375,0.0003307249862700701,0.0008317357860505581,0.000805155374109745
1746734688147062000,11.07406201171875,0.00022366573102772236,-0.0003818664699792862,-0.0007320214062929153
1746734688157029000,11.084029052734374,0.0012806251179426908,0.00014054914936423302,0.00040156999602913857
1746734688166995200,11.0939951171875,0.00027288496494293213,0.0012476248666644096,-0.0010048453696072102
1746734688176962000,11.103962158203124,-0.0007989690639078617,-0.00021566729992628098,-0.0008972915820777416
1746734688186929200,11.11392919921875,0.00017628050409257412,-0.0002446956932544708,-0.0007098051719367504
1746734688196895200,11.123895263671875,-0.0019181398674845695,0.0007366198115050793,-0.0004525757394731045
1746734688206862300,11.1338623046875,-0.00024381093680858612,0.00020904745906591415,-0.0007891994901001453
1746734688216829200,11.1438291015625,0.0014263761695474386,0.000008292961865663528,0.001428346149623394
1746734688226795500,11.15379541015625,0.002508684992790222,-0.0008662892505526543,-0.0000614263117313385
1746734688236762400,11.163762451171875,0.0012944818008691072,-0.000721256248652935,0.00049587432295084
1746734688246729500,11.1737294921875,-0.0010621496476233006,0.00018901238217949867,0.00011477572843432426
1746734688256696600,11.183696533203126,0.0002179006114602089,-0.00022321194410324097,-0.000002278480678796768
1746734688266662400,11.193662353515625,-0.00004708394408226013,0.0010929224081337452,0.000018494203686714172
1746734688276629500,11.20362939453125,-0.0015592658892273903,0.0001544104889035225,0.0009286724962294102
1746734688286596400,11.213596435546876,0.0006034872494637966,0.00017225369811058044,-0.0011627082712948322
1746734688296562400,11.2235625,0.0008914335630834103,-0.00006989482790231705,0.0005841553211212158
1746734688306529300,11.233529296875,-0.0011448194272816181,-0.0007926765829324722,-0.001069667749106884
1746734688316496400,11.243496337890624,-0.00002764863893389702,0.0005238950252532959,-0.0006426465697586536
1746734688326462200,11.253462158203124,0.000039196573197841644,0.000991279724985361,-0.0007281340658664703
1746734688336429300,11.26342919921875,-0.0003378470428287983,-0.000006307847797870636,-0.00012166472151875496
1746734688346396400,11.273396484375,0.001535952789708972,0.0009734691120684147,-0.00025801872834563255
1746734688356363300,11.28336328125,0.0003589207772165537,-0.0002211388200521469,0.0002632671967148781
1746734688366329300,11.293329345703125,0.0007006044033914804,0.00017487304285168648,-0.001059258822351694
1746734688376296200,11.303296142578125,0.0010703608859330416,-0.0004210472106933594,-0.0008507156744599342
1746734688386263300,11.31326318359375,-0.0003032973036170006,0.00029001664370298386,-0.0012776204384863377
1746734688396229400,11.3232294921875,-0.0003071236424148083,-0.0005844910629093647,-0.002006916329264641
1746734688406196500,11.333196533203125,-0.0018395069055259228,-0.0005741049535572529,-0.0005914461798965931
1746734688416163300,11.343163330078125,-0.0005275565199553967,0.00057227723300457,-0.00005813268944621086
1746734688426129400,11.35312939453125,0.00016486551612615585,0.001601322554051876,-0.0004871678538620472
1746734688436096500,11.363096435546876,0.0008159822318702936,0.0004548090510070324,-0.0006325920112431049
1746734688446063400,11.3730634765625,-0.00023490097373723984,0.0005341712385416031,-0.0007668151520192623
