time,seconds_elapsed,z,y,x
1746576066494094600,0.052094482421875,0.0005616594571620226,0.0033923452720046043,0.0037970617413520813
1746576066504058600,0.06205859375,-0.0018359844107180834,-0.00014300085604190826,-0.0003356318920850754
1746576066514023400,0.0720234375,-0.0005323670338839293,-0.00004073558375239372,0.0001234970986843109
1746576066523987500,0.081987548828125,0.00024749268777668476,0.000806417316198349,-0.00016986019909381866
1746576066533951500,0.091951416015625,-0.0010555919725447893,0.001875143963843584,0.0000762157142162323
1746576066543916800,0.101916748046875,0.0005505201406776905,0.0006561134941875935,0.0007973792962729931
1746576066553880600,0.111880615234375,-0.0004359146114438772,0.00035064900293946266,-0.000983476173132658
1746576066563845600,0.121845703125,0.0002689093817025423,0.0010808706283569336,-0.0005158153362572193
1746576066573809700,0.1318095703125,-0.0017601530998945236,0.0010278737172484398,-0.0012322058901190758
1746576066583774500,0.1417744140625,-0.0009468724019825459,-0.0002000550739467144,0.0014496841467916965
1746576066593738500,0.151738525390625,-0.0005082497373223305,0.001039113849401474,-0.00040254415944218636
1746576066603703600,0.16170361328125,-0.0005474896170198917,0.00012984732165932655,0.000657989177852869
1746576066613667800,0.171667724609375,-0.000982650090008974,0.00031387200579047203,-0.0016515040770173073
1746576066623631600,0.181631591796875,0.00007650628685951233,-0.00035629235208034515,-0.0011479314416646957
1746576066633596700,0.1915966796875,0.0011761253699660301,-0.0010985154658555984,-0.002161796670407057
1746576066643560700,0.201560791015625,-0.0011275652796030045,0.00060284323990345,-0.0005857311189174652
1746576066653525500,0.211525390625,0.0007861822377890348,-0.0012874684762209654,0.0005514384247362614
1746576066663489500,0.221489501953125,0.001043285010382533,-0.00010466296225786209,0.0005372338928282261
1746576066673454600,0.23145458984375,0.001956216525286436,-0.0011257189325988293,-0.0005496018566191196
1746576066683418600,0.241418701171875,-0.0002823795657604933,0.0009687291458249092,-0.0010249819606542587
1746576066693383700,0.2513837890625,0.0009120481554418802,0.0004637939855456352,0.0007260465063154697
1746576066703347700,0.26134765625,-0.001532615628093481,0.0013879751786589622,-0.00047550396993756294
1746576066713312500,0.2713125,-0.0003581615164875984,-0.00015692459419369698,-0.001257407944649458
1746576066723276500,0.281276611328125,0.0005573264788836241,-0.0007453071884810925,0.0022146464325487614
1746576066733240600,0.291240478515625,0.00005851639434695244,0.0011865501292049885,-0.00034145545214414597
1746576066743205600,0.30120556640625,-0.00018660840578377247,-0.0008627632632851601,0.0005914606153964996
1746576066753169700,0.311169677734375,-0.0025459029711782932,0.0009532463736832142,0.0005392627790570259
1746576066763134700,0.321134765625,-0.0007211668416857719,-0.001255776733160019,0.0007935198955237865
1746576066773098800,0.3310986328125,-0.000457247719168663,0.0001780693419277668,-0.0003108931705355644
1746576066783063600,0.3410634765625,0.0018295522313565016,0.0001827264204621315,-0.00007439777255058289
1746576066793027600,0.351027587890625,0.00047000846825540066,0.0018077874556183815,-0.0008003753609955311
1746576066802992600,0.36099267578125,0.00020015588961541653,0.0009846887551248074,-0.0006751762703061104
1746576066812956700,0.370956787109375,0.0005322520155459642,-0.00031280331313610077,-0.0009287092834711075
1746576066822921500,0.38092138671875,-0.0006535225547850132,-0.0006677508354187012,-0.0002139541320502758
1746576066832885500,0.390885498046875,0.0002713932190090418,0.0005716844461858273,-0.000044576823711395264
1746576066842849800,0.400849853515625,-0.000127049395814538,-0.0003217277117073536,-0.0015974091365933418
1746576066852814600,0.410814697265625,-0.0010868527460843325,0.0021174615249037743,0.001974954968318343
1746576066862778600,0.420778564453125,-0.0003114878199994564,0.00021816324442625046,-0.00011449167504906654
1746576066872743700,0.43074365234375,-0.0015751579776406288,-0.00015680957585573196,0.0011574341915547848
1746576066882707700,0.440707763671875,-0.00046476093120872974,0.00030922656878829,-0.0012730867601931095
1746576066892672500,0.450672607421875,-0.0010503900703042746,-0.0006870618090033531,-0.0009332671761512756
1746576066902636500,0.460636474609375,-0.00013882387429475784,-0.0008888514712452888,-0.001943080686032772
1746576066912601600,0.4706015625,-0.0010786531493067741,-0.00023131677880883217,0.00036321673542261124
1746576066922565600,0.480565673828125,0.0005251022521406412,-0.00012026308104395866,0.0003027631901204586
1746576066932530700,0.49053076171875,0.0014633338432759047,0.00009998027235269547,-0.0005936566740274429
1746576066942494700,0.50049462890625,-0.0008048240561038256,-0.00030095502734184265,0.0006654784083366394
1746576066952458500,0.51045849609375,0.0009147792588919401,-0.000005610287189483643,-0.0018232455477118492
1746576066962423600,0.520423583984375,0.00042100646533071995,-0.0007722829468548298,-0.0009766765870153904
1746576066972387600,0.5303876953125,0.0007637552917003632,-0.00023592263460159302,-0.0003995699808001518
1746576066982352400,0.540352294921875,0.0002700390759855509,0.0012393910437822342,-0.00014422927051782608
1746576066992316700,0.550316650390625,-0.0007366358768194914,0.0006694747135043144,-0.001284328754991293
1746576067002281700,0.56028173828125,0.000566776841878891,0.0000986885279417038,0.00016876636072993279
1746576067012245800,0.570245849609375,-0.0010865135118365288,0.0012377225793898106,-0.0012091533280909061
1746576067022210600,0.58021044921875,-0.0008642349857836962,0.0007225493900477886,-0.0005116886459290981
1746576067032174600,0.590174560546875,-0.001193401636555791,-0.0005432511679828167,-0.00020302832126617432
1746576067042139600,0.6001396484375,-0.0005334666930139065,0.00006293598562479019,0.00033820467069745064
1746576067052103400,0.610103515625,0.000441516749560833,0.0012616249732673168,-0.000626392662525177
1746576067062067500,0.6200673828125,-0.0009211539290845394,-0.0011406964622437954,-0.0006616590544581413
1746576067072032800,0.63003271484375,-0.0019235676154494286,0.00008196057751774788,0.00025979476049542427
1746576067081996800,0.639996826171875,-0.0004992240574210882,-0.00010073557496070862,0.0010998775251209736
1746576067091961600,0.649961669921875,-0.00015061651356518269,0.000571979209780693,-0.0009371740743517876
1746576067101925600,0.659925537109375,-0.00012528244405984879,0.0009665791876614094,-0.0012040804140269756
1746576067111890400,0.669890380859375,-0.00004165922291576862,-0.0007644752040505409,0.0015213987790048122
1746576067121854500,0.6798544921875,0.0004407998640090227,0.0001324792392551899,-0.0014334381558001041
1746576067131819800,0.68981982421875,0.00009352387860417366,0.00009253202006220818,0.0014086873270571232
1746576067141783800,0.69978369140625,-0.0006698798388242722,0.0005521015264093876,-0.0005881460383534431
1746576067151748600,0.70974853515625,0.0007844723295420408,0.0007425174117088318,0.0013943109661340714
1746576067161712600,0.719712646484375,-0.0009966613724827766,-0.000045237597078084946,0.0013364790938794613
1746576067171677700,0.729677734375,-0.0005103684961795807,-0.0004396517761051655,0.00016282405704259872
1746576067181641500,0.739641357421875,0.0010709317866712809,-0.0003963010385632515,0.0006470233201980591
1746576067191605500,0.74960546875,0.000533772399649024,0.001066573429852724,0.0005266480147838593
1746576067201570600,0.759570556640625,-0.0008677328005433083,-0.00007432559505105019,-0.00019872793927788734
1746576067211534600,0.76953466796875,0.0003935405984520912,0.000645526684820652,-0.00020831497386097908
1746576067221499600,0.779499755859375,0.00043756933882832527,-0.00008303765207529068,-0.000830190721899271
1746576067231463700,0.789463623046875,-0.0014492804184556007,0.0005515934899449348,-0.00032978272065520287
1746576067241428700,0.7994287109375,0.0008242630865424871,0.0011534984223544598,0.00003392202779650688
1746576067251392500,0.809392578125,-0.000031943200156092644,-0.0004731602966785431,-0.0009069726802408695
1746576067261357600,0.819357666015625,0.0002836701460182667,0.0010907221585512161,0.0006285212002694607
1746576067271321600,0.829321533203125,0.0009175024461001158,0.0006552953273057938,0.00010281335562467575
1746576067281286700,0.83928662109375,0.0009585968218743801,0.0012150364927947521,0.0005331705324351788
1746576067291250700,0.849250732421875,-0.0018209442496299744,0.0002800007350742817,-0.0001699039712548256
1746576067301214700,0.859214599609375,-0.0018215978052467108,-0.00003269407898187637,0.0007837144657969475
1746576067311179500,0.869179443359375,-0.00017896038480103016,-0.00033070193603634834,-0.0000072442926466465
1746576067321143600,0.8791435546875,-0.0015042962040752172,0.0008541005663573742,-0.0005170400254428387
1746576067331108600,0.889108642578125,-0.001033982029184699,0.00016833702102303505,-0.0006179739721119404
1746576067341072600,0.89907275390625,-0.00021035387180745602,0.00074037816375494,0.001134087797254324
1746576067351037400,0.909037353515625,-0.00007932656444609165,0.00016220565885305405,0.00008773151785135269
1746576067361001700,0.919001708984375,0.0007589834276586771,0.00009043281897902489,-0.00032238801941275597
1746576067370966800,0.928966796875,-0.0005696678999811411,0.0006374460645020008,0.000011039897799491882
1746576067380930800,0.938930908203125,0.000025103334337472916,-0.000874021090567112,-0.0004886663518846035
1746576067390895900,0.948895751953125,0.0003334973007440567,-0.000028201378881931305,-0.0013235672377049923
1746576067400860000,0.95885986328125,0.00014432123862206936,0.0008051064796745777,0.0001178160309791565
1746576067410824000,0.968823974609375,0.00018480117432773113,0.0011755521409213543,0.0008355379104614258
1746576067420788700,0.978788818359375,0.0002782805822789669,-0.0005531669594347477,0.0005025989376008511
1746576067430752800,0.988752685546875,-0.0012064315378665924,0.00040237512439489365,0.00105360709130764
1746576067440717800,0.9987177734375,0.00022585410624742508,-0.00029436592012643814,-0.0018253405578434467
1746576067450681900,1.008681884765625,-0.0017981482669711113,-0.0020323446951806545,0.0011773738078773022
1746576067460647000,1.01864697265625,-0.0009305719286203384,-0.0008502118289470673,0.0008436520583927631
1746576067470611000,1.02861083984375,0.00037917052395641804,0.0008792448788881302,0.0006862590089440346
1746576067480575700,1.03857568359375,-0.0009595691226422787,0.0007285946048796177,0.00021483609452843666
1746576067490539800,1.048539794921875,0.0005813357420265675,-0.00011695921421051025,-0.0008123451843857765
1746576067500504800,1.0585048828125,-0.00013630767352879047,0.00008479505777359009,0.00017442647367715836
1746576067510468600,1.068468505859375,0.00031642988324165344,0.0006722882390022278,0.0007075909525156021
1746576067520432600,1.0784326171875,0.00020304322242736816,0.000993254128843546,0.001076066866517067
1746576067530398000,1.08839794921875,-0.000948773929849267,0.0007783370092511177,0.000541037879884243
1746576067540362000,1.098362060546875,-0.00019965716637670994,-0.00026295240968465805,-0.00013368483632802963
1746576067550326800,1.108326904296875,0.0018895926186814904,0.00018525775521993637,0.00017683999612927437
1746576067560290800,1.118290771484375,0.000257943756878376,-0.0005320594646036625,0.0013681082054972649
1746576067570256000,1.128255859375,-0.00037801917642354965,-0.00003351597115397453,0.00017048465088009834
1746576067580219600,1.1382197265625,-0.00014257989823818207,-0.0006844508461654186,0.0004278416745364666
1746576067590185000,1.14818505859375,-0.0007338020950555801,-0.0012714113108813763,0.0008052117191255093
1746576067600149000,1.15814892578125,0.00039206258952617645,-0.000613928772509098,-0.0005716988816857338
1746576067610113800,1.16811376953125,0.0002312075812369585,0.0011059404350817204,-0.0008713044226169586
1746576067620077800,1.178077880859375,0.0001832200214266777,0.0005532372742891312,0.0005978578701615334
1746576067630043000,1.18804296875,0.00005165976472198963,0.00011115241795778275,0.000005304347723722458
1746576067640006700,1.198006591796875,0.00023241224698722363,-0.0010436936281621456,0.0005930899642407894
1746576067649970700,1.207970703125,0.0013679841067641973,-0.00004687253385782242,-0.00015792110934853554
1746576067659935700,1.217935791015625,0.00037398282438516617,-0.0011023487895727158,0.0005973158404231071
1746576067669900000,1.227900146484375,0.0010456321761012077,0.00014480948448181152,0.00042953668162226677
1746576067679864800,1.23786474609375,0.00045721489004790783,-0.0008079921826720238,0.0004222220741212368
1746576067689828900,1.247828857421875,0.00003537023440003395,-0.0006996016018092632,-0.0011517060920596123
1746576067699794000,1.2577939453125,0.00029143551364541054,-0.00029828213155269623,-0.000054480042308568954
1746576067709757700,1.2677578125,-0.0007368111982941628,-0.0006572762504220009,-0.000304284505546093
1746576067719722800,1.27772265625,0.0023124786093831062,-0.0015461139846593142,-0.0011499910615384579
1746576067729686800,1.287686767578125,0.000758524052798748,-0.0006904401816427708,0.0014881361275911331
1746576067739651800,1.29765185546875,-0.0020711813122034073,-0.000804566778242588,-0.0009475206024944782
1746576067749615900,1.307615966796875,0.00001647067256271839,0.0012157075107097626,0.00041362084448337555
1746576067759580000,1.317579833984375,-0.00022441730834543705,-0.000003994908183813095,0.0002121548168361187
1746576067769545000,1.327544921875,-0.00046783057041466236,-0.0006418218836188316,-0.0019394131377339363
1746576067779508700,1.3375087890625,0.0001409237738698721,-0.0009926054626703262,0.0007783896289765835
1746576067789473800,1.347473876953125,0.0005190926603972912,-0.00008233729749917984,0.0009472337551414967
1746576067799437800,1.357437744140625,-0.000759695190936327,0.00029722461476922035,-0.00031049828976392746
1746576067809402600,1.367402587890625,0.0015143780037760735,-0.00016510020941495895,-0.0011323494836688042
1746576067819367000,1.377366943359375,0.000547630712389946,-0.0006841737776994705,-0.0003944910131394863
1746576067829332000,1.38733203125,0.00009116483852267265,0.0013928255066275597,-0.00030713900923728943
1746576067839295700,1.397295654296875,-0.003478800877928734,0.0006818589754402637,-0.0016411221586167812
1746576067849259800,1.407259765625,0.0004685365129262209,0.0013487148098647594,-0.0010320572182536125
1746576067859224800,1.417224853515625,-0.00022243638522922993,-0.0005696979351341724,-0.00038596196100115776
1746576067869188900,1.42718896484375,0.0007378994487226009,-0.00047515565529465675,-0.000646685715764761
1746576067879153700,1.437153564453125,-0.0003216615878045559,0.002564332913607359,0.0009490624070167542
1746576067889117700,1.44711767578125,-0.0002942313440144062,-0.0009646224789321423,-0.0013116952031850815
1746576067899083000,1.4570830078125,0.0004750066436827183,0.00016645248979330063,-0.0012077316641807556
1746576067909046800,1.467046875,0.0012260179501026869,-0.00037709856405854225,0.0002383650280535221
1746576067919011800,1.47701171875,-0.0004362801555544138,-0.0008456632494926453,-0.0011361269280314445
1746576067928976000,1.486975830078125,-0.00021284096874296665,-0.0007734918035566807,-0.0017119022086262703
1746576067938940700,1.496940673828125,-0.000838201493024826,0.0018626810051500797,0.0011106515303254128
1746576067948904700,1.50690478515625,0.0006883223541080952,-0.0005203154869377613,0.00034685712307691574
1746576067958868700,1.51686865234375,-0.0010324809700250626,0.0006409892812371254,-0.001088960561901331
1746576067968834000,1.526833984375,-0.002072445582598448,-0.0006274743936955929,0.0015611513517796993
1746576067978797800,1.5367978515625,-0.002177546266466379,-0.0013992241583764553,-0.001016460359096527
1746576067988763000,1.546762939453125,-0.00045661116018891335,0.00039867591112852097,-0.0001101866364479065
1746576067998727000,1.556726806640625,-0.00045774434693157673,-0.0008388436399400234,0.0008883364498615265
1746576068008691700,1.566691650390625,0.0003244259860366583,-0.0005240580067038536,-0.0009399233385920525
1746576068018655700,1.57665576171875,-0.00036815041676163673,-0.0011568204499781132,-0.0006235488690435886
1746576068028620800,1.586620849609375,-0.00032953452318906784,0.0003742305561900139,-0.001103983260691166
1746576068038584800,1.596584716796875,-0.001589036313816905,0.00033363187685608864,-0.000925461295992136
1746576068048550000,1.6065498046875,0.0015124808996915817,-0.0006216438487172127,-0.0015694135800004005
1746576068058514000,1.616513916015625,0.0000966731458902359,-0.00044435029849410057,0.0012762141413986683
1746576068068478000,1.62647802734375,0.001278584124520421,0.00019427575170993805,-0.00009238440543413162
1746576068078442800,1.63644287109375,-0.0012802672572433949,0.00014935806393623352,0.0006401864811778069
1746576068088406800,1.64640673828125,-0.00011380272917449474,-0.0012328224256634712,-0.0001963120885193348
1746576068098371800,1.656371826171875,0.0002651214599609375,-0.0001384117640554905,-0.0003339070826768875
1746576068108335600,1.666335693359375,-0.00047470442950725555,0.0007473556324839592,-0.0005304482765495777
1746576068118301000,1.676301025390625,-0.0012397016398608685,0.00041449815034866333,0.002669469453394413
1746576068128265000,1.686264892578125,-0.0007145260460674763,0.0004520486108958721,-0.0015804031863808632
1746576068138229800,1.696229736328125,-0.001410165335983038,-0.00034714723005890846,-0.0006804270669817924
1746576068148193800,1.70619384765625,0.000807714881375432,-0.0004464834928512573,0.0009901737794280052
1746576068158158800,1.716158935546875,0.0005988797638565302,0.0010999110527336597,-0.00033295946195721626
1746576068168123000,1.726122802734375,0.0003546678926795721,0.0015811445191502571,-0.0004543997347354889
1746576068178086700,1.736086669921875,0.0013407659716904163,0.00017589982599020004,0.00019625015556812286
1746576068188052000,1.746052001953125,0.000013712793588638306,0.00007230276241898537,0.0011331504210829735
1746576068198016000,1.75601611328125,0.0009716909844428301,-0.0013560401275753975,0.0011082915589213371
1746576068207980800,1.765980712890625,0.0008305434603244066,0.001198730431497097,0.0014457139186561108
1746576068217944800,1.77594482421875,-0.0007505901157855988,-0.0003659334033727646,0.0011097234673798084
1746576068227910000,1.785909912109375,-0.00008000642992556095,0.0007145111449062824,0.0001901336945593357
1746576068237874000,1.7958740234375,-0.002145980717614293,0.0006415713578462601,0.001348627731204033
1746576068247838700,1.805838623046875,-0.002667427295818925,0.0007512937299907207,-0.00005805399268865585
1746576068257802800,1.815802734375,0.0008420140948146582,-0.00046944012865424156,-0.001510764006525278
1746576068267767800,1.825767822265625,-0.0008597457781434059,0.0005726548843085766,0.000617101788520813
1746576068277731800,1.83573193359375,0.00025857705622911453,0.0009556878358125687,0.0013481979258358479
1746576068287696000,1.84569580078125,0.000816243002191186,0.0017501087859272957,0.00006695091724395752
1746576068297661000,1.855660888671875,-0.00006486987695097923,0.0003887368366122246,-0.0002356208860874176
1746576068307624700,1.865624755859375,0.001923179836012423,-0.0007311222143471241,0.0007225843146443367
1746576068317589800,1.87558984375,0.0019044015789404511,-0.0005509224720299244,-0.0001375516876578331
1746576068327553800,1.8855537109375,-0.0012165566440671682,-0.00028487248346209526,0.001993243582546711
1746576068337518800,1.895518798828125,0.0006989338435232639,0.0004927013069391251,0.0009689414873719215
1746576068347483000,1.90548291015625,-0.00012131989933550358,0.0006775246001780033,0.0004725283943116665
1746576068357448000,1.915447998046875,-0.0007884844671934843,0.0005510733462870121,-0.0006733108311891556
1746576068367412000,1.925411865234375,-0.0006292273756116629,0.0009111324325203896,-0.0007995450869202614
1746576068377377000,1.935376953125,0.000373906921595335,0.0010625855065882206,-0.0012766653671860695
1746576068387341000,1.945341064453125,-0.0018229347188025713,0.00030331825837492943,0.0015731831081211567
1746576068397305000,1.95530517578125,-0.0004804413765668869,0.00007381802424788475,-0.00010029645636677742
1746576068407270000,1.965269775390625,-0.000042617786675691605,-0.0004793205298483372,0.00017028069123625755
1746576068417234200,1.975234130859375,-0.0004585476126521826,-0.00016782386228442192,-0.0004871850833296776
1746576068427199200,1.98519921875,0.0015271054580807686,-0.0007830141112208366,0.00015357136726379395
1746576068437163000,1.9951630859375,-0.000037097837775945663,-0.0005320701748132706,0.0005309330299496651
1746576068447128000,2.005128173828125,0.0010854245629161596,0.0003299950622022152,0.0000025620684027671814
1746576068457092000,2.015092041015625,-0.0008858221117407084,0.0008229021914303303,0.0012355344370007515
1746576068467057000,2.025056884765625,-0.0009723750408738852,0.000600794330239296,0.000025394372642040253
1746576068477021000,2.03502099609375,-0.0006486198399215937,0.0006331028416752815,0.00040061958134174347
1746576068486986200,2.044986328125,0.0015343732666224241,-0.0005022026598453522,-0.0005967342294752598
1746576068496950300,2.0549501953125,-0.0011325457599014044,-0.00044244108721613884,-0.0001319372095167637
1746576068506914000,2.0649140625,-0.0001817971933633089,0.00009072385728359222,0.0006915121339261532
1746576068516879000,2.074879150390625,0.00019491440616548061,0.000585904810577631,0.0013164649717509747
1746576068526843100,2.084843017578125,-0.0008767419494688511,0.00011319387704133987,0.0008874298073351383
1746576068536808000,2.094807861328125,0.00018985220231115818,0.0011671609245240688,0.00016137445345520973
1746576068546772000,2.10477197265625,0.0005885274149477482,0.0007759425789117813,-0.0007784548215568066
1746576068556737300,2.1147373046875,-0.0009266990236938,0.0009146453812718391,0.0004579792730510235
1746576068566701000,2.124701171875,-0.0000502527691423893,-0.00011147046461701393,-0.0003931671380996704
1746576068576666000,2.134666015625,0.0000415346585214138,0.0006911382079124451,0.0020285442005842924
1746576068586630100,2.144630126953125,-0.0004487533587962389,0.0010328218340873718,-0.0005989307537674904
1746576068596594200,2.15459423828125,0.0005975258536636829,0.0008939635008573532,0.0005316752940416336
1746576068606559000,2.16455908203125,0.00041376776061952114,0.00042471475899219513,0.0008765547536313534
1746576068616523000,2.17452294921875,0.0006688071880489588,0.0014203013852238655,0.0004031485877931118
1746576068626488000,2.184488037109375,-0.0012790288310498,0.0005992488004267216,0.0009879786521196365
1746576068636451800,2.194451904296875,0.00011867983266711235,0.0006580781191587448,-0.0002833767794072628
1746576068646417200,2.204417236328125,0.000047040870413184166,0.00029588863253593445,-0.0005331812426447868
1746576068656381200,2.214381103515625,-0.0014026642311364412,0.0005550449714064598,0.001374601386487484
1746576068666346000,2.224345947265625,0.00047726137563586235,0.0009294855408370495,0.0007719281129539013
1746576068676310000,2.23431005859375,-0.0014367839321494102,0.0005676089785993099,0.00017989613115787506
1746576068686275000,2.244275146484375,0.0011307697277516127,-0.00035650795325636864,0.000018508639186620712
1746576068696239000,2.254239013671875,-0.0005768404807895422,0.0004980815574526787,-0.0008611297234892845
1746576068706203000,2.264202880859375,-0.0005371591541916132,0.0014978325925767422,0.0011950968764722347
1746576068716168200,2.274168212890625,-0.0005897833034396172,-0.001404997194185853,0.0008847471326589584
1746576068726132200,2.28413232421875,-0.0013138968497514725,0.0008943760767579079,0.00047169066965579987
1746576068736097000,2.294096923828125,0.00043651298619806767,0.0004829699173569679,0.00025919079780578613
1746576068746061000,2.30406103515625,0.0001305157784372568,0.00042224954813718796,-0.00013469066470861435
1746576068756026000,2.314026123046875,0.001699905376881361,0.00039187679067254066,0.000731190200895071
1746576068765990100,2.323990234375,-0.001237295102328062,-0.0008385037072002888,0.0001484905369579792
1746576068775955000,2.333954833984375,0.000466423574835062,0.0007203058339655399,0.0005002031102776527
1746576068785919200,2.343919189453125,-0.001231607748195529,0.0000712936744093895,0.00023947982117533684
1746576068795884000,2.353884033203125,0.0008383295498788357,0.00014576641842722893,0.0007051080465316772
1746576068805848000,2.36384814453125,0.0013754891697317362,0.0007327273488044739,0.0003708815202116966
1746576068815812000,2.37381201171875,-0.0017405659891664982,0.0014171074144542217,0.0008712238632142544
1746576068825777200,2.383777099609375,-0.0004872819408774376,0.0009771534241735935,-0.0004755365662276745
1746576068835741000,2.393740966796875,0.00046435114927589893,-0.0001292899250984192,-0.000043744221329689026
1746576068845706000,2.4037060546875,0.0009362632408738136,-0.000967386644333601,0.0009112651459872723
1746576068855670000,2.413669921875,-0.0003723332192748785,-0.00020616035908460617,-0.00011337315663695335
1746576068865635000,2.423635009765625,-0.0006157460156828165,0.0005975817330181599,-0.0011120582930743694
1746576068875599000,2.43359912109375,-0.000304926885291934,-0.00028260983526706696,0.0004821089096367359
1746576068885564200,2.443564208984375,-0.001348885940387845,0.00009502610191702843,0.0005987551994621754
1746576068895528200,2.453528076171875,-0.00048466818407177925,-0.0014659019652754068,0.00045230286195874214
1746576068905493000,2.463492919921875,0.00024929875507950783,0.00024118414148688316,-0.00032853614538908005
1746576068915457000,2.47345703125,-0.0007180774118751287,0.0005531292408704758,-0.00029325904324650764
1746576068925421000,2.483421142578125,-0.0004435053560882807,0.001809875015169382,-0.0007569156587123871
1746576068935386000,2.49338623046875,0.0023931809701025486,0.0002578399144113064,0.00044514983892440796
1746576068945350100,2.50335009765625,0.0001308256760239601,0.0006117741577327251,-0.000440085306763649
1746576068955315200,2.513315185546875,0.0006140177138149738,-0.0007134713232517242,0.001634442713111639
1746576068965279000,2.523279052734375,-0.00016602221876382828,-0.0007472936995327473,0.002793982857838273
1746576068975244000,2.533244140625,-0.0002850242890417576,0.0011887853033840656,0.0006447164341807365
1746576068985208000,2.5432080078125,0.0010263160802423954,0.000330981332808733,-0.0006122952327132225
1746576068995172900,2.5531728515625,-0.000647273613139987,-0.000337907113134861,0.0008262987248599529
1746576069005137000,2.563136962890625,-0.0006403492297977209,0.0005731601268053055,-0.0005995575338602066
1746576069015102200,2.573102294921875,0.0030995607376098633,0.000033389776945114136,0.00017937598749995232
1746576069025066200,2.583066162109375,0.0006017819978296757,-0.000673679169267416,0.0004552793689072132
1746576069035030000,2.593030029296875,-0.0011657415889203548,-0.000033078715205192566,0.0009582494385540485
1746576069044995000,2.6029951171875,0.0013336350675672293,-0.0008333586156368256,-0.00030195852741599083
1746576069054959000,2.612958984375,-0.0014305268414318562,-0.0015011013019829988,0.00004145503044128418
1746576069064924000,2.622923828125,-0.0018060323782265186,-0.0005969582125544548,-0.0011053024791181087
1746576069074888000,2.632887939453125,-0.0006749825552105904,0.000038533471524715424,0.0010109879076480865
1746576069084853200,2.642853271484375,-0.001043297816067934,-0.0009750658646225929,0.0007766298949718475
1746576069094817300,2.6528173828125,-0.0005332222208380699,0.0008101235143840313,0.0001507890410721302
1746576069104782000,2.662781982421875,-0.0004959381185472012,-0.0009371768683195114,0.0019127363339066505
1746576069114746000,2.67274609375,0.0006543307099491358,-0.00010237237438559532,-0.0005740905180573463
1746576069124711000,2.6827109375,-0.0002583344466984272,0.0009453147649765015,-0.0013573262840509415
1746576069134675000,2.692675048828125,-0.00036176014691591263,0.0009930571541190147,-0.00018685217946767807
1746576069144639000,2.702638916015625,-0.0006352667696774006,-0.0011585108004510403,0.00003259209915995598
1746576069154604000,2.71260400390625,-0.0008661434985697269,0.0010300204157829285,0.0004873843863606453
1746576069164568000,2.722568115234375,-0.0005039535462856293,-0.0008160825818777084,0.0008695479482412338
1746576069174533000,2.732533203125,0.00041313166730105877,-0.000549019780009985,0.000998293049633503
1746576069184497200,2.7424970703125,-0.000616712961345911,-0.00022837519645690918,0.000518391840159893
1746576069194462000,2.7524619140625,-0.00044853868894279003,-0.00022325152531266212,-0.000888429582118988
1746576069204426000,2.762426025390625,-0.0011156608816236258,0.0006952728144824505,0.0005552703514695168
1746576069214391000,2.77239111328125,-0.0008186004124581814,0.00013571325689554214,0.0002699759788811207
1746576069224355000,2.78235498046875,-0.0009131426922976971,-0.0002384609542787075,0.00003934605047106743
1746576069234318800,2.79231884765625,-0.0003088016528636217,-0.00014589820057153702,-0.0008513107895851135
1746576069244284200,2.8022841796875,0.0018659356283023953,0.0005491864867508411,-0.0011828741990029812
1746576069254248200,2.812248291015625,0.0010651492048054934,-0.001944693736732006,0.0014129779301583767
1746576069264213000,2.822212890625,0.00206170417368412,-0.00034972652792930603,0.0018156478181481361
1746576069274177000,2.832177001953125,0.000696731498464942,0.0011765994131565094,0.0013627586886286736
1746576069284142000,2.84214208984375,0.0006783558055758476,-0.0012040003202855587,-0.00015843892470002174
1746576069294106000,2.852106201171875,0.0007950090803205967,-0.001115475781261921,0.00009963475167751312
1746576069304071200,2.8620712890625,-0.0007522876840084791,0.0004957364872097969,-0.0005411216989159584
1746576069314035200,2.87203515625,0.00020585698075592518,-0.0009510410018265247,0.0003657541237771511
1746576069324000000,2.882,-0.0008844409603625536,0.00003566034138202667,0.0000866549089550972
1746576069333964000,2.891964111328125,-0.0007457071915268898,0.0011174124665558338,0.00004521198570728302
1746576069343929000,2.90192919921875,-0.00228235125541687,0.0020521818660199642,0.0009280499070882797
1746576069353893000,2.91189306640625,-0.0008875802159309387,0.00010559661313891411,0.0006119017489254475
1746576069363857200,2.921857177734375,-0.00018237484619021416,-0.00033169426023960114,0.0006361366249620914
1746576069373821400,2.931821533203125,0.0009301682002842426,-0.0000904398038983345,0.0006193988956511021
1746576069383785500,2.941785400390625,0.0007919501513242722,0.0012651090510189533,0.00003856327384710312
1746576069393750500,2.95175048828125,0.0006404430605471134,-0.0004791230894625187,-0.0002809269353747368
1746576069403714300,2.96171435546875,-0.0011899475939571857,0.00021596206352114677,0.0005467836745083332
1746576069413679400,2.971679443359375,0.0030339008662849665,-0.0005885162390768528,0.0002393624745309353
1746576069423643400,2.981643310546875,0.00007752585224807262,-0.0009147534146904945,0.0010835849680006504
1746576069433608400,2.9916083984375,-0.0002847507130354643,-0.00038211606442928314,-0.0012465519830584526
1746576069443572500,3.001572509765625,-0.0012125957291573286,-0.0011235401034355164,-0.00013095373287796974
1746576069453536500,3.01153662109375,-0.0011627550702542067,-0.00034197745844721794,-0.0006730984896421432
1746576069463501600,3.02150146484375,-0.000794439809396863,0.000057762954384088516,-0.00040651625022292137
1746576069473465300,3.03146533203125,-0.0018506075721234083,-0.00005115009844303131,0.0006352579221129417
1746576069483430400,3.041430419921875,-0.0010207665618509054,-0.0007331855595111847,0.001547922845929861
1746576069493394400,3.05139453125,-0.0007250763010233641,0.0007248562760651112,-0.00048660626634955406
1746576069503359500,3.061359375,0.00006295298226177692,-0.0007952763698995113,-0.0001997840590775013
1746576069513323500,3.071323486328125,-0.0019730692729353905,0.0009931023232638836,0.001133020967245102
1746576069523288600,3.08128857421875,-0.0005757086910307407,-0.001324913464486599,-0.0005644778721034527
1746576069533252400,3.09125244140625,0.000970619497820735,-0.0009521320462226868,0.0010631978511810303
1746576069543217400,3.101217529296875,-0.00018758908845484257,0.0008979658596217632,0.00001098262146115303
1746576069553181400,3.111181396484375,0.00025933398865163326,-0.00040963059291243553,0.00044520245864987373
1746576069563145500,3.1211455078125,0.0010960991494357586,-0.00042933784425258636,0.0002148388884961605
1746576069573110300,3.1311103515625,0.0016069028060883284,-0.0007197810336947441,-0.00019481778144836426
1746576069583074300,3.14107421875,-0.0000621001236140728,0.0004677223041653633,-0.002314693760126829
1746576069593039600,3.15103955078125,0.00012381304986774921,0.0010304334573447704,0.0011536721140146255
1746576069603003400,3.16100341796875,-0.00015528639778494835,0.000582489650696516,-0.0010096137411892414
1746576069612968400,3.170968505859375,0.0007284281309694052,0.0005566678009927273,0.0007291664369404316
1746576069622932500,3.180932373046875,-0.00032804766669869423,0.0006807711906731129,0.00016537494957447052
1746576069632897300,3.190897216796875,-0.00025058374740183353,-0.00003222515806555748,-0.0008212458342313766
1746576069642861300,3.200861328125,-0.0005981263238936663,0.0002394169569015503,-0.0017277859151363373
1746576069652826600,3.21082666015625,-0.0009377941023558378,0.0005827751010656357,-0.00007123546674847603
1746576069662790700,3.220790771484375,-0.000090376241132617,-0.0012984820641577244,0.0013247937895357609
1746576069672754400,3.23075439453125,0.00006182328797876835,-0.0009500007145106792,0.0006781578995287418
1746576069682719500,3.240719482421875,0.00008818856440484524,-0.000211239792406559,-0.00013250857591629028
1746576069692683500,3.25068359375,-0.0009455527178943157,-0.000586346723139286,0.00006553623825311661
1746576069702648300,3.2606484375,-0.000342346727848053,0.00010421080514788628,-0.0009480630978941917
1746576069712612400,3.2706123046875,0.00019153347238898277,-0.00018172990530729294,-0.00037410203367471695
1746576069722577400,3.280577392578125,0.0005902086850255728,0.000606033019721508,-0.0008015395142138004
1746576069732541400,3.29054150390625,-0.0005714728031307459,0.0003034984692931175,-0.0005187252536416054
1746576069742506500,3.300506591796875,-0.000584522495046258,0.000961831770837307,-0.0007150000892579556
1746576069752470500,3.310470458984375,-0.00028314488008618355,-0.00024945056065917015,0.00005705002695322037
1746576069762435300,3.320435302734375,-0.0006999294273555279,-0.00011948822066187859,0.0012346995063126087
1746576069772399400,3.3303994140625,0.00025907554663717747,0.00016087153926491737,0.0004698457196354866
1746576069782363400,3.34036328125,0.00003989739343523979,-0.001321443822234869,-0.0007568062283098698
1746576069792328400,3.350328369140625,-0.00028724968433380127,0.00037061935290694237,-0.00011076545342803001
1746576069802292200,3.360292236328125,0.0014267610386013985,0.0011085812002420425,-0.0015086587518453598
1746576069812257500,3.370257568359375,0.0006988600362092257,0.0005602631717920303,-0.00044471630826592445
1746576069822221600,3.3802216796875,0.000607247231528163,0.001138435211032629,-0.0009531141258776188
1746576069832186400,3.390186279296875,-0.0000464173499494791,-0.0005460758693516254,0.0011059902608394623
1746576069842150400,3.400150390625,-0.0004107377026230097,0.000009725801646709442,-0.0011086948215961456
1746576069852115500,3.410115478515625,-0.0009468793869018555,0.0005547543987631798,0.0003220243379473686
1746576069862079500,3.42007958984375,0.0009612755384296179,0.000267932191491127,0.0001771482639014721
1746576069872044500,3.43004443359375,-0.0004838008899241686,0.0018054256215691566,0.00012828828766942024
1746576069882008600,3.440008544921875,0.002514119492843747,-0.0010955557227134705,-0.0006115376017987728
1746576069891972600,3.44997265625,0.0003438172861933708,0.0005333917215466499,-0.0001287553459405899
1746576069901937400,3.4599375,-0.0008210490923374891,0.00034910114482045174,-0.00037642940878868103
1746576069911901400,3.4699013671875,-0.0002089780755341053,0.0002409876324236393,-0.0011693337000906467
1746576069921866500,3.479866455078125,0.00013909675180912018,0.0009336755611002445,-0.0006446912884712219
1746576069931830500,3.48983056640625,-0.0005957854446023703,0.00027012918144464493,-0.0016987225972115993
1746576069941795300,3.49979541015625,-0.000632536830380559,0.00011886144056916237,-0.00008058547973632812
1746576069951759400,3.50975927734375,0.0007860250771045685,0.00029713474214076996,0.00004056701436638832
1746576069961724400,3.519724365234375,-0.0002491455525159836,-0.00028449995443224907,-0.00009339023381471634
1746576069971688400,3.5296884765625,-0.0002400756347924471,0.0005312040448188782,0.00009024469181895256
1746576069981653500,3.539653564453125,0.0019040354527533054,-0.000751907005906105,0.00032726582139730453
1746576069991617500,3.549617431640625,0.00032163201831281185,-0.00013653235509991646,-0.0003100014291703701
1746576070001581300,3.559581298828125,0.00046624173410236835,0.0006882487796247005,-0.0003070719540119171
1746576070011546400,3.56954638671875,-0.0005482425913214684,0.0006207400001585484,-0.0016640154644846916
1746576070021510400,3.579510498046875,-0.00004570372402667999,0.0007102219387888908,-0.0004879632033407688
1746576070031475500,3.589475341796875,-0.00002416851930320263,-0.00016473373398184776,0.0008603893220424652
1746576070041439500,3.599439453125,0.0018182063940912485,0.00029466161504387856,0.0007594553753733635
1746576070051404500,3.609404541015625,0.0024365740828216076,0.00024622585624456406,0.0004967255517840385
1746576070061368600,3.61936865234375,0.0010546597186475992,0.0003921668976545334,-0.0004990301094949245
1746576070071333400,3.62933349609375,0.0008198954164981842,0.00004960130900144577,0.0006640111096203327
1746576070081297400,3.63929736328125,-0.0004134145565330982,-0.0012524183839559555,0.0008059577085077763
1746576070091262500,3.649262451171875,0.0008320026099681854,-0.00046341633424162865,0.000047693029046058655
1746576070101226200,3.659226318359375,-0.0002881227992475033,-0.0003241333179175854,-0.00009984616190195084
1746576070111190500,3.6691904296875,0.00036100298166275024,0.00014576176181435585,0.0018317003268748522
1746576070121155600,3.679155517578125,-0.00005924375727772713,-0.0006497246213257313,0.0009920056909322739
1746576070131119600,3.68911962890625,-0.0008774127345532179,0.001643972471356392,0.0010474789887666702
1746576070141084400,3.69908447265625,0.0009226175025105476,0.00054941326379776,0.0002101808786392212
1746576070151048400,3.70904833984375,0.00129311578348279,0.00043781474232673645,0.0009434083476662636
1746576070161013200,3.71901318359375,0.000994841568171978,-0.00004475004971027374,0.0006595156155526638
1746576070170977300,3.728977294921875,-0.0005019144155085087,0.000053211115300655365,-0.0013427259400486946
1746576070180942600,3.738942626953125,-0.0007461262866854668,0.0007389751262962818,-0.0006516356952488422
1746576070190906600,3.74890673828125,-0.00007879221811890602,-0.0007835878059267998,-0.000369783490896225
1746576070200871400,3.758871337890625,0.0001036343164741993,0.0002505173906683922,0.0002478035166859627
1746576070210835500,3.76883544921875,-0.000026102177798748016,0.00025827158242464066,0.00041641388088464737
1746576070220799500,3.778799560546875,0.00011744210496544838,0.000046283937990665436,-0.000030730850994586945
1746576070230764300,3.788764404296875,-0.0011058745440095663,0.00006754789501428604,0.000679774209856987
1746576070240728300,3.798728271484375,0.002078467048704624,-0.0004115551710128784,0.0004811026155948639
1746576070250693600,3.808693603515625,-0.0013340329751372337,-0.0004896447062492371,0.00008539343252778053
1746576070260657700,3.81865771484375,-0.00040965015068650246,0.0006358074024319649,0.0001969803124666214
1746576070270622500,3.82862255859375,-0.00021908804774284363,-0.0003789123147726059,-0.001232297159731388
1746576070280586500,3.83858642578125,-0.00013306806795299053,0.0008245701901614666,0.0007954337634146214
1746576070290551600,3.848551513671875,-0.0016451193951070309,0.0007065664976835251,-0.001433174591511488
1746576070300515300,3.858515380859375,-0.0022224928252398968,0.0014522518031299114,-0.0010856320150196552
1746576070310480400,3.86848046875,-0.0015429968480020761,0.0005869418382644653,0.0001078522764146328
1746576070320444400,3.8784443359375,-0.0011808068957179785,0.0007613785564899445,0.0010245125740766525
1746576070330408400,3.888408447265625,-0.0017914981581270695,-0.0002590208314359188,0.0012124646455049515
1746576070340373500,3.89837353515625,0.0005315772723406553,-0.0010526427067816257,0.0005029989406466484
1746576070350337500,3.908337646484375,0.00020427978597581387,0.0002417643554508686,-0.00017877062782645226
1746576070360302300,3.91830224609375,-0.00044180313125252724,0.00022019259631633759,0.0011677234433591366
1746576070370266400,3.928266357421875,0.0008651465177536011,-0.000696185976266861,-0.0006722323596477509
1746576070380232400,3.938232421875,-0.0018427558243274689,-0.00034997519105672836,0.0003488236106932163
1746576070390196500,3.948196533203125,0.0012806321028620005,0.00023623090237379074,-0.0002544224262237549
1746576070400161500,3.95816162109375,0.00042735529132187366,0.00004448322579264641,0.0009282873943448067
1746576070410125600,3.96812548828125,-0.0013230834156274796,0.0006368723697960377,0.0006215875037014484
1746576070420090400,3.97809033203125,0.00020450586453080177,0.0002014455385506153,-0.00046152016147971153
1746576070430054400,3.988054443359375,-0.0001920042559504509,-0.0008770432323217392,0.000045933760702610016
1746576070440018400,3.998018310546875,0.0008458297234028578,0.0009450912475585938,-0.00006458722054958344
1746576070449983200,4.007983154296875,-0.001103182788938284,-0.0003882809542119503,-0.0005207057110965252
1746576070459947300,4.017947265625,0.000946652377024293,-0.0005752351135015488,0.00008356571197509766
1746576070469912600,4.02791259765625,-0.0003309929743409157,0.0008491240441799164,-0.0007287147454917431
1746576070479876600,4.037876708984375,-0.000248701311647892,-0.00042999209836125374,-0.0009303162805736065
1746576070489841400,4.04784130859375,-0.0013324087485671043,0.000015768222510814667,0.0015399097464978695
1746576070499805400,4.057805419921875,0.0004883946385234594,0.0002922043204307556,-0.00016983970999717712
1746576070509770500,4.0677705078125,-0.00040673138573765755,0.0009311200119554996,-0.0005835304036736488
1746576070519734300,4.077734375,-0.0003745071589946747,-0.00012162746861577034,-0.000335590448230505
1746576070529699600,4.087699462890625,-0.0002232012338936329,0.0005448916926980019,0.0010060886852443218
1746576070539663600,4.09766357421875,0.000034592580050230026,0.00018856069073081017,-0.00048341695219278336
1746576070549627600,4.107627685546875,-0.00039873947389423847,0.00003541167825460434,0.0001330268569290638
1746576070559592400,4.117592529296875,-0.00004640338011085987,0.0011294381693005562,0.00035646604374051094
1746576070569556500,4.127556396484375,0.0006488515064120293,0.00045899953693151474,-0.0003279140219092369
1746576070579521500,4.137521484375,-0.00024463911540806293,0.00011039199307560921,0.001500612124800682
1746576070589485300,4.1474853515625,0.0007368135266005993,-0.0003222385421395302,-0.00043705012649297714
1746576070599450400,4.157450439453125,-0.0009044925682246685,-0.0007150545716285706,0.0003810725174844265
1746576070609414400,4.167414306640625,-0.00026438687928020954,-0.0000910651870071888,-0.0006554438732564449
1746576070619379500,4.17737939453125,-0.0002436141949146986,0.00029615825042128563,-0.0002895258367061615
1746576070629343500,4.187343505859375,0.0007639667019248009,0.0016834130510687828,0.001044146716594696
1746576070639308500,4.19730859375,0.0001905879471451044,0.0012983200140297413,0.0007397476583719254
1746576070649272300,4.207272216796875,-0.0006419355049729347,0.00021949829533696175,0.0007284563034772873
1746576070659236400,4.217236328125,0.001120810629799962,-0.00005880231037735939,-0.0006555886939167976
1746576070669201400,4.227201416015625,-0.0009580350015312433,-0.0002584261819720268,-0.00036831386387348175
1746576070679165400,4.23716552734375,0.0008699586614966393,0.0012225573882460594,0.00046152714639902115
1746576070689130500,4.247130615234375,0.0009007290937006474,0.0006047827191650867,-0.0001325402408838272
1746576070699094500,4.257094482421875,0.001388353994116187,0.0007033199071884155,0.0006770608015358448
1746576070709059600,4.2670595703125,-0.0005910214968025684,-0.00023772288113832474,-0.000499342568218708
1746576070719023400,4.2770234375,-0.00005039991810917854,-0.0005453177727758884,0.0006591328419744968
1746576070728988400,4.286988525390625,-0.0014049515593796968,0.0006880499422550201,-0.0010599903762340546
1746576070738952400,4.296952392578125,0.0002957428805530071,-0.00024325726553797722,0.00011100154370069504
1746576070748917200,4.306917236328125,0.0017278322484344244,-0.0005497788079082966,0.0008567161858081818
1746576070758881300,4.31688134765625,-0.0009515741840004921,-0.00001315167173743248,-0.0009110900573432446
1746576070768845600,4.326845458984375,0.0006976691074669361,-0.0002604704350233078,-0.00041549280285835266
1746576070778810600,4.336810546875,0.0004454676527529955,-0.00098005635663867,0.00010701920837163925
1746576070788774400,4.3467744140625,-0.0009250142611563206,0.00037366338074207306,0.0002463855780661106
1746576070798739500,4.356739501953125,-0.0005689496174454689,-0.000631413422524929,-0.0015445901080965996
1746576070808703500,4.366703369140625,-0.0006825239397585392,0.0009253257885575294,0.0010765665210783482
1746576070818668300,4.376668212890625,-0.00009130220860242844,0.0009727301076054573,-0.0000014812685549259186
1746576070828632300,4.38663232421875,-0.0008998452685773373,-0.0008438164368271828,0.00033934274688363075
1746576070838597600,4.39659765625,-0.0005712108686566353,0.0007948265410959721,0.002400363329797983
1746576070848561400,4.4065615234375,0.0001558610238134861,0.0005832519382238388,-0.00003437697887420654
1746576070858526500,4.4165263671875,-0.0000920791644603014,-0.0006354106590151787,-0.00015768129378557205
1746576070868490500,4.426490478515625,-0.0016707736067473888,-0.00028387829661369324,-0.0005165953189134598
1746576070878454500,4.43645458984375,-0.00036875437945127487,-0.00031237397342920303,0.0005417452193796635
1746576070888419300,4.44641943359375,-0.00020737084560096264,0.0009078290313482285,-0.0008464735001325607
1746576070898383400,4.45638330078125,-0.0014449420850723982,0.0008873227052390575,0.00018390361219644547
1746576070908348700,4.4663486328125,-0.0007176073268055916,0.00017314590513706207,0.0009397948160767555
1746576070918312400,4.4763125,-0.0006963023915886879,-0.00039410730823874474,-0.0008692904375493526
1746576070928277500,4.486277587890625,-0.00011016521602869034,-0.00009746570140123367,0.00045018550008535385
1746576070938241500,4.496241455078125,-0.0020002108067274094,0.0003281072713434696,0.00033327285200357437
1746576070948206300,4.506206298828125,-0.0005158071871846914,0.0002675219438970089,0.0013641519472002983
1746576070958170400,4.51617041015625,-0.0012772048357874155,-0.0006339582614600658,-0.0005607805214822292
1746576070968135400,4.526135498046875,-0.00015590619295835495,0.0003019273281097412,-0.0010442659258842468
1746576070978099500,4.536099365234375,0.00002572149969637394,-0.0003638630732893944,-0.0005678264424204826
1746576070988063200,4.546063232421875,-0.0002570559736341238,0.0004754066467285156,-0.0007973616011440754
1746576070998028500,4.556028564453125,0.0014694714918732643,-0.00042740488424897194,0.0010985429398715496
1746576071007992600,4.56599267578125,0.00011341809295117855,-0.0002485644072294235,0.0005973870866000652
1746576071017957400,4.575957275390625,-0.0024658532347530127,-0.0008951802738010883,0.0001561013050377369
1746576071027921400,4.58592138671875,-0.00042599113658070564,0.0002961321733891964,0.0006845677271485329
1746576071037886500,4.595886474609375,-0.001090183388441801,0.0007225046865642071,0.000901348888874054
1746576071047850500,4.6058505859375,0.00006869714707136154,-0.000003909692168235779,-0.00013345852494239807
1746576071057815600,4.615815673828125,-0.0006588785909116268,-0.00003480259329080582,0.00012060720473527908
1746576071067779600,4.625779541015625,-0.00020799064077436924,0.0011709327809512615,0.0004825177602469921
1746576071077744400,4.635744384765625,-0.0012207904364913702,-0.0013247155584394932,0.00024416483938694
1746576071087708400,4.64570849609375,0.0010185197461396456,-0.00023703696206212044,-0.00046067172661423683
1746576071097672400,4.65567236328125,-0.0007551454473286867,-0.0006085480563342571,0.0007555936463177204
1746576071107637500,4.665637451171875,0.00164703163318336,-0.0013985182158648968,0.0005621705204248428
1746576071117601300,4.675601318359375,0.00014181318692862988,-0.0010246103629469872,-0.0012221471406519413
1746576071127566300,4.68556640625,0.0019241956761106849,-0.00034090597182512283,0.000610636081546545
1746576071137530600,4.695530517578125,-0.0005725179798901081,0.00046629831194877625,0.0007842741906642914
1746576071147495400,4.705495361328125,0.0005627388600260019,-0.001032770611345768,0.0005932808853685856
1746576071157459500,4.71545947265625,0.0006522210314869881,0.0005139932036399841,-0.0011026198044419289
1746576071167424500,4.725424560546875,0.0008571420330554247,0.00021953368559479713,0.0004401635378599167
1746576071177388500,4.735388427734375,0.0012137391604483128,-0.0008470620959997177,-0.0021761259995400906
1746576071187353300,4.745353271484375,-0.0009123894851654768,-0.0015852460637688637,-0.0006939009763300419
1746576071197317400,4.7553173828125,-0.0014849689323455095,-0.0005564666353166103,0.0009122514165937901
1746576071207281400,4.765281494140625,0.0006887093186378479,-0.0002339957281947136,-0.0007107807323336601
1746576071217246500,4.77524658203125,0.0017920569516718388,-0.0006310730241239071,0.0006133429706096649
1746576071227210500,4.78521044921875,0.0013912618160247803,0.0010310499928891659,-0.00047977641224861145
1746576071237175600,4.795175537109375,0.00044264388270676136,0.0000014719553291797638,0.0008099926635622978
1746576071247139300,4.805139404296875,0.0024800123646855354,0.0005531120114028454,0.0008403342217206955
1746576071257104400,4.8151044921875,0.0006765197031199932,-0.0004881839267909527,-0.0002488987520337105
1746576071267068400,4.825068359375,-0.0005500768311321735,-0.00034296978265047073,0.0008450420573353767
1746576071277033200,4.835033203125,0.0009263798128813505,-0.0012321993708610535,-0.00029026344418525696
1746576071286997500,4.84499755859375,0.0004696412943303585,-0.000003368128091096878,-0.00006662029772996902
1746576071296962600,4.854962646484375,-0.000067518325522542,-0.0004747477360069752,0.000043900683522224426
1746576071306926600,4.864926513671875,0.0010499227792024612,0.0003217211924493313,-0.00029088743031024933
1746576071316890400,4.874890380859375,0.0010384710039943457,-0.0004671071656048298,0.0018468317575752735
1746576071326855400,4.88485546875,0.0010756896808743477,0.0004142690449953079,0.0005682664923369884
1746576071336819500,4.8948193359375,0.0009052471723407507,-0.0005023912526667118,-0.0009731710888445377
1746576071346784300,4.9047841796875,-0.000624408945441246,-0.000384720042347908,0.0001686946488916874
1746576071356748300,4.914748291015625,-0.00064864382147789,-0.00006141234189271927,-0.00030108727514743805
1746576071366713600,4.924713623046875,-0.0006158987525850534,-0.0003586164675652981,0.00044599082320928574
1746576071376677400,4.934677490234375,-0.0003240162041038275,0.0010709683410823345,0.0011312221176922321
1746576071386642200,4.94464208984375,0.001153063029050827,0.0007060184143483639,-0.0002302471548318863
1746576071396606200,4.954606201171875,-0.0014136915560811758,0.0006149383261799812,0.0012251706793904305
1746576071406571300,4.9645712890625,-0.00041849887929856777,0.000177107285708189,0.0013194805942475796
1746576071416535000,4.97453515625,-0.0003252879250794649,0.001269536092877388,0.0008667432703077793
1746576071426499000,4.9844990234375,-0.0007127905264496803,-0.00018765032291412354,0.0012947013601660728
1746576071436464400,4.99446435546875,0.0006193227600306273,0.00008878577500581741,0.0010108081623911858
1746576071446428400,5.004428466796875,-0.00018434785306453705,-0.001035009976476431,-0.0015128636732697487
1746576071456393200,5.014393310546875,0.00043057603761553764,-0.0008629695512354374,0.0008632084354758263
1746576071466357200,5.024357177734375,0.0006249691359698772,-0.00017750589177012444,0.0007753749378025532
1746576071476322000,5.034322021484375,-0.00015480443835258484,-0.0008012182079255581,-0.0005921581760048866
1746576071486286000,5.0442861328125,0.0005601728335022926,-0.0003227745182812214,-0.0009018625132739544
1746576071496251400,5.05425146484375,0.0009066499769687653,-0.0017188037745654583,-0.0004792190156877041
1746576071506215400,5.06421533203125,0.00039463420398533344,-0.0008840113878250122,0.0002934429794549942
1746576071516180200,5.07418017578125,0.00011180667206645012,-0.00014897901564836502,-0.0002839299850165844
1746576071526144300,5.084144287109375,-0.001333216903731227,-0.00010435748845338821,-0.0007060985080897808
1746576071536109300,5.094109375,-0.0015252309385687113,0.00002453988417983055,-0.00017586303874850273
1746576071546073000,5.104072998046875,-0.0007964668329805136,0.0003355373628437519,-0.0008368990384042263
1746576071556037000,5.114037109375,0.0018592372070997953,-0.0005957703106105328,-0.00036179134622216225
1746576071566002200,5.124002197265625,0.001322395633906126,0.0002156258560717106,-0.0002756873145699501
1746576071575966200,5.13396630859375,0.0005484810099005699,0.0003940574824810028,0.0011749365366995335
1746576071585931300,5.14393115234375,-0.0006299479864537716,-0.00017928238958120346,0.0011542374268174171
1746576071595895300,5.153895263671875,0.0019589108414947987,0.0002827760763466358,0.00030815089121460915
1746576071605860400,5.1638603515625,-0.00010246853344142437,0.0008162651211023331,-0.0005688611418008804
1746576071615824100,5.17382421875,-0.0011621403973549604,-0.0005589914508163929,0.001681509893387556
1746576071625789200,5.1837890625,0.000822833739221096,0.000010757241398096085,0.0002533295191824436
1746576071635753200,5.193753173828125,0.0017437548376619816,0.0003407229669392109,-0.0009429627098143101
1746576071645718300,5.20371826171875,0.000506421085447073,0.00029963208362460136,-0.000793826300650835
1746576071655682300,5.213682373046875,-0.0009122448973357677,-0.00038187112659215927,-0.00029208697378635406
1746576071665646300,5.223646240234375,0.0008165694307535887,0.0007375497370958328,-0.0010671340860426426
1746576071675611100,5.233611083984375,-0.0008612219244241714,-0.0005700620822608471,-0.0014130789786577225
1746576071685575200,5.2435751953125,-0.0007522569503635168,-0.000382937490940094,0.0005903407000005245
1746576071695540200,5.253540283203125,0.0005068855825811625,-0.0005895989015698433,-0.0006847810000181198
1746576071705504300,5.263504150390625,0.0015551543328911066,-0.0007175318896770477,0.0009815492667257786
1746576071715469000,5.273468994140625,-0.00025259912945330143,-0.0007894369773566723,0.00038952846080064774
1746576071725433300,5.283433349609375,0.0010172640904784203,-0.0011787861585617065,0.00008209003135561943
1746576071735398400,5.2933984375,-0.0004410829860717058,-0.00007410673424601555,0.00020060082897543907
1746576071745362200,5.303362060546875,-0.0001275823451578617,0.0009416979737579823,-0.0007117725908756256
1746576071755327200,5.3133271484375,0.0007320859003812075,0.0016543599776923656,-0.0010111117735505104
1746576071765291300,5.323291259765625,0.00043435231782495975,0.0010139192454516888,-0.00017660250887274742
1746576071775255300,5.33325537109375,0.0006303610280156136,-0.00011233193799853325,-0.00021894695237278938
1746576071785220000,5.34322021484375,0.0007863321807235479,-0.00003257999196648598,-0.00007312465459108353
1746576071795184000,5.35318408203125,-0.00006721098907291889,0.000563702080398798,-0.0011453134939074516
1746576071805149400,5.3631494140625,0.0012805159203708172,0.0007837163284420967,-0.0007348516955971718
1746576071815113200,5.37311328125,0.0007058058399707079,-0.00005517946556210518,0.0008129775524139404
1746576071825078300,5.383078369140625,0.0002294450532644987,-0.001220162957906723,-0.0009160060435533524
1746576071835042300,5.393042236328125,0.0015213445294648409,-0.0005820696242153645,0.0002302182838320732
1746576071845007000,5.403007080078125,0.0003544553183019161,0.00021463586017489433,-0.0009890086948871613
1746576071854971100,5.41297119140625,-0.0002522130962461233,-0.0007201335392892361,-0.0009155054576694965
1746576071864936400,5.4229365234375,-0.0009762940462678671,0.0012978073209524155,-0.0004605851136147976
1746576071874900200,5.432900146484375,0.00044237170368433,0.0010312246158719063,-0.0006725722923874855
1746576071884864300,5.4428642578125,0.0009153978899121284,-0.0015793475322425365,-0.0010861754417419434
1746576071894829300,5.452829345703125,0.0020190118812024593,0.00003159837797284126,0.0010523428209125996
1746576071904793300,5.46279345703125,0.001181441592052579,0.0003545614890754223,-0.0006802338175475597
1746576071914758100,5.472758056640625,0.0011518807150423527,-0.0001085624098777771,-0.00003628106787800789
1746576071924722200,5.48272216796875,-0.0009742134716361761,0.0007326556369662285,-0.00009378930553793907
1746576071934687200,5.492687255859375,0.0011914691422134638,0.00037605827674269676,-0.0003198916092514992
1746576071944651000,5.502651123046875,0.000050388043746352196,-0.0007487540133297443,-0.0006802654825150967
1746576071954616300,5.5126162109375,0.0006349519826471806,-0.00012131361290812492,0.0008851406164467335
1746576071964580400,5.522580322265625,0.0006541511975228786,-0.0005501294508576393,-0.00015027588233351707
1746576071974545200,5.532545166015625,-0.00005478225648403168,0.001223269384354353,0.00039647147059440613
1746576071984509200,5.54250927734375,-0.0007426086813211441,0.00016577308997511864,0.0002186652272939682
1746576071994474200,5.55247412109375,-0.0009892173111438751,-0.0006760521791875362,-0.0010689729824662209
1746576072004438300,5.562438232421875,-0.0004067427944391966,-0.000029910355806350708,-0.000257034320384264
1746576072014402000,5.572402099609375,-0.001105290139093995,-0.00026986096054315567,-0.0002985796891152859
1746576072024367400,5.582367431640625,0.00010910513810813427,-0.0012917937710881233,0.00229146727360785
1746576072034331400,5.592331298828125,-0.0006488305516541004,0.0005266126245260239,-0.00039752619341015816
1746576072044296200,5.602296142578125,0.0004482087679207325,0.0005800724029541016,-0.0003512096591293812
1746576072054260200,5.61226025390625,-0.0011547477915883064,-0.0006830650381743908,0.00012150127440690994
1746576072064225300,5.622225341796875,-0.001201743260025978,-0.0005055833607912064,0.00009176414459943771
1746576072074189300,5.632189208984375,-0.0008398196659982204,0.001299773808568716,-0.0008826865814626217
1746576072084154000,5.642154052734375,-0.00010494166053831577,-0.00012080976739525795,0.0009591206908226013
1746576072094118400,5.652118408203125,-0.0005227914080023766,-0.0007607676088809967,0.0003857421688735485
1746576072104083200,5.662083251953125,-0.00023679458536207676,0.0011533265933394432,-0.0008110585622489452
1746576072114047200,5.672047119140625,-0.0004104326944798231,0.0003397306427359581,-0.0008222442120313644
1746576072124011300,5.68201123046875,0.000711461529135704,0.00105990469455719,0.0008318289183080196
1746576072133976300,5.691976318359375,0.0005085286684334278,-0.000296709593385458,0.00005445210263133049
1746576072143940000,5.701940185546875,-0.0006722670514136553,-0.0014204562176018953,-0.0003572325222194195
1746576072153905200,5.7119052734375,0.0007727639749646187,0.0012099477462470531,0.0005192137323319912
1746576072163869200,5.721869140625,-0.0014489078894257545,-0.00019767973572015762,0.0002568615600466728
1746576072173834200,5.731834228515625,0.0012688480783253908,-0.0004956871271133423,-0.0009090704843401909
1746576072183798300,5.74179833984375,0.00006383005529642105,-0.00024518417194485664,-0.00005228538066148758
1746576072193763300,5.751763427734375,0.00020923861302435398,0.00016627414152026176,-0.00010874448344111443
1746576072203727400,5.761727294921875,0.00004509906284511089,0.00109889917075634,-0.0002724691294133663
1746576072213692200,5.771692138671875,0.0017364725936204195,0.0002413610927760601,0.00011209119111299515
1746576072223656200,5.78165625,-0.0004505747929215431,0.0011411183513700962,0.0009556785225868225
1746576072233620200,5.7916201171875,-0.0006079678423702717,0.00023750774562358856,-0.0004504704847931862
1746576072243585300,5.801585205078125,-0.00026250467635691166,-0.0007213428616523743,0.0004117898643016815
1746576072253549300,5.81154931640625,-0.0009738351218402386,0.0003812056966125965,-0.0007504136301577091
1746576072263514400,5.821514404296875,0.0007124054245650768,-0.0013464982621371746,0.0010002609342336655
1746576072273478100,5.83147802734375,-0.0015307753346860409,0.00028415536507964134,-0.0007084235548973083
1746576072283443200,5.841443115234375,0.00027976627461612225,0.0001621120609343052,-0.0011390578001737595
1746576072293407200,5.8514072265625,-0.00003714999184012413,0.0010572001338005066,-0.0007704761810600758
1746576072303372000,5.8613720703125,0.00020366627722978592,-0.0008948766626417637,-0.0009133890271186829
1746576072313336000,5.871336181640625,-0.0021503018215298653,0.00039649009704589844,-0.000035078730434179306
1746576072323301400,5.88130126953125,-0.0021385732106864452,-0.00024225004017353058,-0.0007402682676911354
1746576072333265400,5.891265380859375,0.0011360496282577515,0.00028132740408182144,-0.00016369391232728958
1746576072343229200,5.901229248046875,-0.00029171397909522057,-0.0005185911431908607,0.0005845781415700912
1746576072353194200,5.9111943359375,-0.0005345940589904785,-0.00003416184335947037,-0.0008623171597719193
1746576072363158300,5.921158203125,-0.0008396490011364222,-0.0017145359888672829,-0.00016397610306739807
1746576072373123000,5.931123046875,-0.0020713608246296644,0.0002708504907786846,-0.00009153783321380615
1746576072383086600,5.941086669921875,-0.0001831024419516325,-0.00007029389962553978,-0.0001456933096051216
1746576072393051600,5.9510517578125,-0.0006502210162580013,0.0005638045258820057,-0.0009510335512459278
1746576072403015700,5.961015625,-0.0005869518499821424,0.00027678487822413445,-0.00006440654397010803
1746576072412980500,5.97098046875,0.00005513615906238556,-0.0003914022818207741,0.0013593193143606186
1746576072422944500,5.980944580078125,0.0014434687327593565,-0.0004726303741335869,-0.0006357771344482899
1746576072432909800,5.990909912109375,0.001543070888146758,0.00016333255916833878,-0.000314333476126194
1746576072442873600,6.00087353515625,-0.0008630123920738697,0.0012663803063333035,-0.000024036504328250885
1746576072452837600,6.010837646484375,0.000051783397793769836,-0.0002553495578467846,-0.0012597432360053062
1746576072462802700,6.020802734375,0.00027789268642663956,0.00002238154411315918,-0.00045259110629558563
1746576072472766700,6.0307666015625,0.0011024074628949165,0.00016778986901044846,0.000007869675755500793
1746576072482731500,6.0407314453125,0.00011707935482263565,-0.0009300615638494492,0.00043934257701039314
1746576072492695600,6.050695556640625,-0.00010236515663564205,-0.0005734642036259174,0.00019060354679822922
1746576072502660600,6.06066064453125,-0.002016318729147315,-0.0006890119984745979,-0.0009104060009121895
1746576072512624400,6.070624267578125,0.00019303965382277966,-0.0003651715815067291,0.0002938755787909031
1746576072522589700,6.080589599609375,-0.0004196842201054096,-0.0003957650624215603,-0.00003330828621983528
1746576072532553700,6.0905537109375,-0.0008955914527177811,0.0005307486280798912,0.0005046501755714417
1746576072542518500,6.1005185546875,-0.0008487077429890633,-0.00043993163853883743,-0.0003672945313155651
1746576072552482600,6.110482666015625,-0.000867083203047514,-0.0008154371753334999,-0.00042162276804447174
1746576072562447600,6.120447509765625,-0.0005188228096812963,0.0000051390379667282104,-0.00014307163655757904
1746576072572411600,6.13041162109375,-0.000305769732221961,-0.00042016804218292236,0.00019594887271523476
1746576072582375400,6.14037548828125,-0.00009208428673446178,-0.00007033813744783401,-0.0005486183799803257
1746576072592340700,6.1503408203125,-0.00015200534835457802,0.00036695320159196854,0.00048761768266558647
1746576072602304800,6.1603046875,0.0004795410204678774,-0.0009727017022669315,-0.0006598983891308308
1746576072612269600,6.17026953125,0.0003820692654699087,0.0004931017756462097,-0.0002569621428847313
1746576072622233600,6.180233642578125,-0.00007551535964012146,0.0009923772886395454,0.00010517193004488945
1746576072632198700,6.19019873046875,-0.00010507646948099136,0.000023519154638051987,0.0018356938380748034
1746576072642162700,6.20016259765625,-0.0009553732816129923,-0.00024421326816082,-0.00016512861475348473
1746576072652127500,6.21012744140625,-0.0004056969191879034,-0.0003430163487792015,0.00010331813246011734
1746576072662091800,6.220091796875,-0.0009687484707683325,-0.0008636051788926125,-0.00004178192466497421
1746576072672056600,6.230056640625,-0.0006760668475180864,0.0005348203703761101,0.00043545663356781006
1746576072682020600,6.2400205078125,-0.0005694685969501734,-0.000752708874642849,0.000776482280343771
1746576072691984600,6.249984619140625,0.00015810690820217133,0.00012746592983603477,-0.0003106198273599148
1746576072701949700,6.25994970703125,0.0010800953023135662,0.001085344236344099,-0.000988952349871397
1746576072711913500,6.26991357421875,-0.001154563156887889,0.0007620365358889103,-0.0006480677984654903
1746576072721878500,6.27987841796875,-0.0004569182638078928,0.0003717411309480667,0.00006116833537817001
1746576072731842600,6.289842529296875,-0.0005887446459382772,-0.0010067112743854523,-0.0002261865884065628
1746576072741807600,6.2998076171875,-0.0002623677719384432,0.001445832196623087,-0.0002502663992345333
1746576072751771600,6.309771728515625,0.000350691843777895,-0.0013720584101974964,0.0002924855798482895
1746576072761736700,6.31973681640625,0.00019527343101799488,-0.0010032500140368938,0.0006733010523021221
1746576072771700700,6.32970068359375,-0.0003621261566877365,0.00048519065603613853,-0.00035388022661209106
1746576072781665500,6.33966552734375,-0.0012806872837245464,-0.0008664894849061966,0.00031498493626713753
1746576072791629600,6.349629638671875,-0.0006260820664465427,-0.00015835510566830635,0.0004878239706158638
1746576072801594400,6.359594482421875,-0.0016204901039600372,-0.00028400449082255363,-0.0002607959322631359
1746576072811558700,6.36955859375,-0.0004878477193415165,-0.0003516487777233124,0.0004510669969022274
1746576072821522700,6.379522705078125,-0.00036344677209854126,-0.000432365108281374,-0.0010220776312053204
1746576072831487700,6.38948779296875,-0.0005874186754226685,0.00003235647454857826,0.00008952571079134941
1746576072841451500,6.399451416015625,-0.001673481659963727,0.00003501446917653084,0.0006215763278305531
1746576072851416600,6.40941650390625,-0.001464157598093152,-0.0014507630839943886,-0.0004937555640935898
1746576072861380600,6.419380615234375,-0.0008610961958765984,0.0004804953932762146,0.0010627522133290768
1746576072871345400,6.429345458984375,-0.0005026347935199738,-0.0011746594682335854,0.00154824648052454
1746576072881309400,6.439309326171875,0.0001284666359424591,-0.0009792759083211422,-0.0005261008627712727
1746576072891274800,6.449274658203125,-0.00020203180611133575,0.0004817345179617405,-0.0008755079470574856
1746576072901238800,6.45923876953125,0.0007730708457529545,0.0004452620632946491,0.00043790554627776146
1746576072911203600,6.46920361328125,-0.002451484790071845,0.001015711110085249,-0.00011416804045438766
1746576072921167600,6.479167724609375,0.0006501700263470411,-0.00010447856038808823,-0.00008365791290998459
1746576072931131600,6.489131591796875,0.0007873228751122952,0.0007104487158358097,-0.0005853972397744656
1746576072941096400,6.499096435546875,0.00020233960822224617,0.00021974043920636177,0.0005785347893834114
1746576072951060500,6.509060546875,0.0010114079341292381,-0.00024045351892709732,-0.00010616425424814224
1746576072961025800,6.51902587890625,-0.00010471674613654613,0.0004258211702108383,0.0006150472909212112
1746576072970989800,6.52898974609375,-0.00038807676173746586,-0.00005727633833885193,0.00009812740609049797
1746576072980954600,6.53895458984375,-0.000415972201153636,0.0013775266706943512,0.0007198741659522057
1746576072990918700,6.548918701171875,0.0011624833568930626,-0.0012640627101063728,0.0003057527355849743
1746576073000883500,6.558883544921875,0.000053792260587215424,0.0005172467790544033,-0.0003093997947871685
1746576073010847500,6.568847412109375,0.0008330333512276411,0.0008173850364983082,-0.0009323130361735821
1746576073020812500,6.5788125,-0.00044369418174028397,-0.00019783806055784225,-0.0006868760101497173
1746576073030776600,6.588776611328125,0.00031370879150927067,-0.0012362045235931873,0.0015443204902112484
1746576073040741600,6.59874169921875,-0.0011511310003697872,-0.0007530851289629936,0.0004114285111427307
1746576073050705700,6.60870556640625,-0.0007934686727821827,-0.0008127400651574135,0.0001720101572573185
1746576073060669700,6.618669677734375,0.0011813831515610218,-0.0006271335296332836,-0.001174943521618843
1746576073070634500,6.628634521484375,-0.000043937237933278084,-0.0015326084103435278,0.0003073718398809433
1746576073080598500,6.6385986328125,-0.00008016987703740597,-0.000826781615614891,-0.0010879267938435078
1746576073090563600,6.6485634765625,0.00004526483826339245,-0.0012329136952757835,0.001146731898188591
1746576073100527600,6.658527587890625,0.00022762315347790718,-0.0007605119608342648,-0.00006514973938465118
1746576073110492700,6.66849267578125,0.000837220810353756,0.0015955870039761066,-0.0003125574439764023
1746576073120456700,6.678456787109375,-0.0013744784519076347,0.00034520868211984634,0.00046283984556794167
1746576073130421800,6.688421875,0.000945401145145297,-0.00009980564936995506,0.00046763336285948753
1746576073140385500,6.698385498046875,0.0002063554711639881,0.0003378540277481079,-0.0002924199216067791
1746576073150350600,6.7083505859375,0.0004905147943645716,-0.0004136902280151844,0.000219705980271101
1746576073160314600,6.718314697265625,-0.0000985683873295784,-0.0002504335716366768,-0.0006633605808019638
1746576073170278700,6.728278564453125,-0.0002279980108141899,-0.0005476423539221287,0.00012067379429936409
1746576073180243700,6.73824365234375,0.0010461336933076382,0.00004818057641386986,-0.0015498697757720947
1746576073190207700,6.748207763671875,0.001530829118564725,0.00024232501164078712,0.0015620342455804348
1746576073200172500,6.758172607421875,-0.0005812430754303932,-0.00030322372913360596,0.0002319207414984703
1746576073210136600,6.768136474609375,0.0006805628072470427,-0.0002150731161236763,0.0006921146996319294
1746576073220101600,6.7781015625,0.0006133606657385826,0.00004857825115323067,0.00040125520899891853
1746576073230065700,6.788065673828125,0.000391785753890872,0.00012607639655470848,0.0009085871279239655
1746576073240030500,6.798030517578125,0.0003766734153032303,0.0009639072231948376,0.0001355963759124279
1746576073249994500,6.807994384765625,0.00018918677233159542,-0.0006177439354360104,-0.0012346003204584122
1746576073259959800,6.817959716796875,-0.00011206744238734245,-0.00035258615389466286,0.00006903987377882004
1746576073269923600,6.827923583984375,-0.00016160216182470322,0.00021946104243397713,0.00030845822766423225
1746576073279887600,6.8378876953125,0.0007325417827814817,-0.0009235860779881477,-0.0002860426902770996
1746576073289852700,6.847852783203125,-0.0005905164871364832,0.0000644465908408165,-0.001265819650143385
1746576073299816700,6.857816650390625,-0.0010215973015874624,0.00033261487260460854,-0.0008735107257962227
1746576073309781500,6.867781494140625,0.00006763567216694355,0.001268982421606779,-0.00021118251606822014
1746576073319745500,6.87774560546875,0.0007546711713075638,-0.0003094705753028393,-0.00042484840378165245
1746576073329710800,6.8877109375,0.0006950162351131439,-0.0002514137886464596,0.0009575984440743923
1746576073339674600,6.897674560546875,0.0005102383438497782,-0.0006162291392683983,0.00016662804409861565
1746576073349639700,6.9076396484375,0.001343008829280734,0.00007725786417722702,-0.00048318319022655487
1746576073359603700,6.917603759765625,0.0014608807396143675,-0.0005568466149270535,0.00033194199204444885
1746576073369568500,6.927568603515625,-0.0005740406922996044,0.0000993562862277031,0.00007494725286960602
1746576073379532500,6.937532470703125,0.00034899613820016384,0.0006249533034861088,-0.0008289399556815624
1746576073389497600,6.94749755859375,0.0003450014628469944,0.00018579792231321335,0.001150321215391159
1746576073399461600,6.957461669921875,0.001306647202000022,0.00006334111094474792,0.0013046604581177235
1746576073409425400,6.96742529296875,0.0010049110278487206,0.00016773724928498268,0.00026576127856969833
1746576073419390500,6.977390380859375,0.0008849115110933781,0.0008885348215699196,0.00023377593606710434
1746576073429354500,6.9873544921875,0.0005935616791248322,0.00009837467223405838,0.00019622547551989555
1746576073439319300,6.9973193359375,0.0014841810334473848,0.00011786678805947304,-0.0016948333941400051
1746576073449283600,7.00728369140625,-0.0010404959321022034,-0.00023713288828730583,-0.00035952450707554817
1746576073459248600,7.01724853515625,-0.0015967797953635454,0.0006330609321594238,0.0002582012675702572
1746576073469212400,7.02721240234375,0.0007071206346154213,-0.000524615403264761,0.001105885487049818
1746576073479177500,7.037177490234375,-0.001218145014718175,0.000950307585299015,0.0007155337370932102
1746576073489141500,7.0471416015625,-0.00017285416834056377,0.0005234028212726116,0.0008841119706630707
1746576073499106300,7.057106201171875,0.0008388599380850792,0.000521012581884861,-0.00062209228053689
1746576073509070300,7.0670703125,-0.0008325399830937386,0.0008248789235949516,-0.00005696946755051613
1746576073519034400,7.077034423828125,0.0015183109790086746,0.0007480243220925331,0.00015393178910017014
1746576073528999700,7.086999755859375,-0.0006116849835962057,-0.0007468080148100853,0.0005720481276512146
1746576073538963500,7.09696337890625,0.00016456912271678448,-0.001429263036698103,0.0010223262943327427
1746576073548928500,7.106928466796875,0.0004407388623803854,0.0017004837282001972,0.0012239273637533188
1746576073558892500,7.116892578125,-0.00025193789042532444,-0.0005241013132035732,0.0008716820739209652
1746576073568857300,7.126857421875,-0.0005326352547854185,0.0007478245534002781,0.0006005726754665375
1746576073578821400,7.1368212890625,-0.0008376282639801502,-0.0007945629768073559,-0.00013245316222310066
1746576073588786700,7.14678662109375,0.000783171271905303,0.00048242276534438133,-0.0001705363392829895
1746576073598750500,7.15675048828125,-0.0006699324585497379,-0.0008847950957715511,-0.0002629607915878296
1746576073608715500,7.166715576171875,0.000058442121371626854,-0.0007076947949826717,0.000008948147296905518
1746576073618679600,7.176679443359375,-0.0005733484867960215,-0.0010053575970232487,0.00009145122021436691
1746576073628644400,7.186644287109375,0.0007981795351952314,0.0009944099001586437,-0.0005170810036361217
1746576073638608400,7.1966083984375,0.000015882309526205063,-0.0005907174199819565,0.000326323788613081
1746576073648572400,7.206572509765625,0.001122425775974989,0.00024258578196167946,-0.0010739662684500217
1746576073658537500,7.216537353515625,0.0005452523473650217,0.0008299751207232475,0.0011155358515679836
1746576073668501500,7.22650146484375,0.00015030545182526112,0.001260342076420784,-0.00024240976199507713
1746576073678466600,7.236466552734375,-0.000962977297604084,-0.00016486411914229393,0.0007690126076340675
1746576073688430600,7.2464306640625,-0.000941405538469553,-0.001220541074872017,0.000679530669003725
1746576073698395400,7.2563955078125,-0.0011491640470921993,-0.0013041142374277115,-0.001928021665662527
1746576073708359400,7.266359375,0.00007668905891478062,0.0008506495505571365,-0.000645976047962904
1746576073718324500,7.276324462890625,0.0004242819268256426,-0.00018632179126143456,0.0005858964286744595
1746576073728288500,7.28628857421875,-0.00014749867841601372,-0.00008725188672542572,0.00016831280663609505
1746576073738253600,7.296253662109375,-0.00008390937000513077,0.00087759830057621,-0.00015087425708770752
1746576073748217600,7.306217529296875,-0.0012045677285641432,0.00037505989894270897,-0.00023183412849903107
1746576073758182400,7.316182373046875,0.0004193941131234169,0.0008084741421043873,0.0000031311064958572388
1746576073768146400,7.326146484375,-0.0007542609237134457,-0.00047783274203538895,-0.000030158087611198425
1746576073778110500,7.3361103515625,0.00011610332876443863,-0.00022473419085144997,-0.00019864225760102272
1746576073788075500,7.346075439453125,-0.000056735705584287643,0.0012554507702589035,-0.00015416741371154785
1746576073798039600,7.35603955078125,0.0006865984760224819,0.00038601644337177277,0.0009419810958206654
1746576073808004400,7.36600439453125,-0.0008814709726721048,0.001077905297279358,0.000238906592130661
1746576073817968600,7.37596875,0.00031106313690543175,0.0015099085867404938,-0.00017317617312073708
1746576073827933400,7.385933349609375,-0.0010791069362312555,-0.0002685501240193844,-0.0003457488492131233
1746576073837897500,7.3958974609375,0.0017566811293363571,-0.000205338466912508,0.00030827848240733147
1746576073847862500,7.405862548828125,0.00033694994635879993,-0.0005233194679021835,0.00011360133066773415
1746576073857826600,7.41582666015625,-0.000713359797373414,0.0009379112161695957,0.00044820504263043404
1746576073867791400,7.425791259765625,-0.0009096346329897642,0.00030061695724725723,0.0000894772820174694
1746576073877755400,7.43575537109375,0.000023739412426948547,-0.0007864334620535374,0.000025533605366945267
1746576073887720700,7.445720703125,0.0007617012597620487,0.00028176046907901764,-0.0016008587554097176
1746576073897684500,7.4556845703125,0.001693998696282506,0.00046660564839839935,-0.000812840647995472
1746576073907648500,7.4656484375,0.00035149906761944294,-0.0007648398168385029,0.0004449705593287945
1746576073917613600,7.475613525390625,-0.00008717039600014687,0.00006362423300743103,0.00000595487654209137
1746576073927577600,7.48557763671875,-0.00037132948637008667,0.00013925787061452866,-0.0004928554408252239
1746576073937542400,7.49554248046875,-0.0006001293659210205,-0.00007295887917280197,-0.0012441514991223812
1746576073947506400,7.50550634765625,0.002671297639608383,0.00030201440677046776,-0.0004611820913851261
1746576073957471500,7.515471435546875,-0.0008295478764921427,0.00017168698832392693,0.00008594244718551636
1746576073967435500,7.525435546875,-0.00008306372910737991,-0.0007164771668612957,-0.0015660165809094906
1746576073977400600,7.535400634765625,0.00030513061210513115,0.0008894405327737331,0.00011506350710988045
1746576073987364600,7.545364501953125,0.00036638323217630386,0.0008388403803110123,-0.0006111804395914078
1746576073997329400,7.555329345703125,-0.0005125037860125303,0.0006988975219428539,-0.00007524294778704643
1746576074007293400,7.56529345703125,0.00041400990448892117,-0.001141879241913557,-0.0007080100476741791
1746576074017257500,7.575257568359375,-0.001048058271408081,-0.001163457054644823,-0.00238110963255167
1746576074027222300,7.58522216796875,0.0018143074121326208,0.0005252533592283726,-0.0008655046112835407
1746576074037186300,7.595186279296875,-0.0003530527465045452,0.0007865065708756447,-0.0003481786698102951
1746576074047151600,7.605151611328125,0.0018368648597970605,0.00011991709470748901,0.00039670756086707115
1746576074057115600,7.61511572265625,-0.0005208132788538933,0.0009726216085255146,0.00015753693878650665
1746576074067080400,7.62508056640625,-0.0009884643368422985,-0.00007533235475420952,-0.00037216581404209137
1746576074077044500,7.63504443359375,-0.0010823896154761314,0.0005346690304577351,-0.0009321719408035278
1746576074087009500,7.645009521484375,-0.0005593444220721722,-0.0012603015638887882,-0.00029487721621990204
1746576074096973300,7.654973388671875,-0.00020755082368850708,0.00008985865861177444,0.0004011765122413635
1746576074106938600,7.664938720703125,0.0004939259961247444,0.0006768191233277321,0.00005656341090798378
1746576074116902700,7.674902587890625,0.0006479739677160978,0.00022977450862526894,-0.001032950822263956
1746576074126867500,7.684867431640625,-0.00030037760734558105,-0.000317238736897707,-0.0009948676452040672
1746576074136831500,7.69483154296875,-0.0000018004793673753738,-0.0008463063277304173,-0.00031383661553263664
1746576074146796500,7.704796630859375,-0.000908606918528676,-0.000047890469431877136,-0.0005284873768687248
1746576074156760600,7.714760498046875,0.0019252356141805649,0.0004683160223066807,0.0016758216079324484
1746576074166725400,7.724725341796875,0.0001475755125284195,0.0001263660378754139,0.0006909845396876335
1746576074176689400,7.734689453125,0.0006271505262702703,-0.00009780842810869217,-0.0007852725684642792
1746576074186653400,7.7446533203125,-0.001213360344991088,-0.0009851735085248947,0.00009277136996388435
1746576074196618500,7.754618408203125,-0.00008383928798139095,0.00009461585432291031,-0.0011306600645184517
1746576074206582500,7.76458251953125,-0.0005091461353003979,0.0008677314035594463,-0.0004992242902517319
1746576074216547600,7.774547607421875,0.0004885050002485514,0.0006734877824783325,-0.0015245736576616764
1746576074226511400,7.784511474609375,-0.0001924654934555292,-0.0003441059961915016,-0.001650807447731495
1746576074236476400,7.794476318359375,-0.0003964609932154417,-0.0003178007900714874,0.0004170704632997513
1746576074246440400,7.8044404296875,0.0005681358743458986,0.0004957951605319977,0.0009244028478860855
1746576074256405500,7.814405517578125,0.00042368704453110695,0.00016944482922554016,-0.002020386978983879
1746576074266369500,7.82436962890625,0.0012103847693651915,-0.0008111312054097652,0.00031360751017928123
1746576074276334600,7.83433447265625,0.00008262949995696545,0.0002149413339793682,-0.00035632168874144554
1746576074286298600,7.844298583984375,-0.0009424213785678148,-0.0006191604770720005,0.00015979865565896034
1746576074296263400,7.854263427734375,-0.000754019245505333,0.00019190087914466858,-0.0002348017878830433
1746576074306227500,7.8642275390625,-0.0008733286522328854,-0.0007367432117462158,-0.00054505979642272
1746576074316192500,7.874192626953125,0.00017159990966320038,-0.0007949168793857098,0.0003026239573955536
1746576074326156300,7.88415625,-0.00032747676596045494,-0.00008758110925555229,0.0006576236337423325
1746576074336121600,7.89412158203125,0.0011903499253094196,-0.00035247020423412323,-0.0006614746525883675
1746576074346085600,7.904085693359375,0.00006463192403316498,0.00010106619447469711,0.0001933998428285122
1746576074356049700,7.914049560546875,-0.0005047982558608055,-0.00010034209117293358,0.0007089283317327499
1746576074366014500,7.924014404296875,0.0012494258116930723,-0.00021086307242512703,-0.00006099138408899307
1746576074375978500,7.933978515625,-0.000029731541872024536,-0.0009025256149470806,-0.0005835867486894131
1746576074385943800,7.94394384765625,0.0003915803972631693,0.00000401446595788002,0.00034718820825219154
1746576074395907800,7.953907958984375,0.00020868703722953796,-0.0003586774691939354,0.0005300482735037804
1746576074405873000,7.963872802734375,-0.0001503070816397667,0.00016489997506141663,-0.0010777018032968044
1746576074415837000,7.9738369140625,-0.00003787246532738209,0.00036129914224147797,0.0002755559980869293
1746576074425801700,7.9838017578125,-0.000155583955347538,0.0009338785894215107,-0.0005923681892454624
1746576074435765800,7.993765869140625,-0.0005417701322585344,-0.000725490041077137,0.0007588574662804604
1746576074445730800,8.003730712890626,-0.0005409715231508017,0.00036960141733288765,-0.0002976185642182827
1746576074455694800,8.01369482421875,-0.0017186307813972235,0.0002498435787856579,-0.0002649952657520771
1746576074465660000,8.023659912109375,-0.0007732089143246412,0.001009110826998949,-0.0025209588930010796
1746576074475624000,8.0336240234375,-0.0004321236629039049,0.00015144236385822296,-0.00003804871812462807
1746576074485588700,8.043588623046874,-0.0005005670245736837,-0.00001500546932220459,0.0018586546648293734
1746576074495552800,8.053552734375,0.0000695579219609499,0.00027765659615397453,-0.0006938744336366653
1746576074505517800,8.063517822265625,-0.0011158152483403683,0.0013208165764808655,-0.0014723166823387146
1746576074515481600,8.073481689453125,-0.0005626506172120571,0.0003742980770766735,-0.00003138883039355278
1746576074525446000,8.08344580078125,0.0011007599532604218,0.0009130556136369705,0.00012973276898264885
1746576074535411000,8.093410888671874,0.00008604046888649464,0.00018030032515525818,-0.0007273503579199314
1746576074545375000,8.103375,0.0010463763028383255,-0.0003888169303536415,-0.001082083210349083
1746576074555339800,8.11333984375,-0.00128809898160398,-0.0005108891054987907,0.0005714562721550465
1746576074565303800,8.1233037109375,0.000386230181902647,-0.00019929884001612663,0.0004995507188141346
1746576074575268900,8.133268798828125,0.001650464255362749,0.00021070102229714394,-0.000014652498066425323
1746576074585232600,8.143232666015624,-0.0014595752581954002,0.0006631719879806042,-0.0003076004795730114
1746576074595198000,8.153197998046876,0.00029278011061251163,0.00047289254143834114,0.0002688276581466198
1746576074605162000,8.163161865234375,-0.000555702717974782,0.00014319317415356636,0.0015324978157877922
1746576074615126800,8.173126708984375,0.0012136255390942097,4.260800778865814e-7,-0.0003280686214566231
1746576074625090800,8.1830908203125,0.00043198768980801105,-0.0006677610799670219,0.00010176561772823334
1746576074635055900,8.193055908203124,-0.0008559024427086115,-0.0018043965101242065,-0.0005252999253571033
1746576074645019600,8.20301953125,-0.0004031651187688112,-0.00029544951394200325,-0.0008787014521658421
1746576074654984700,8.212984619140625,-0.00027735810726881027,0.000990807544440031,0.000554969534277916
1746576074664949000,8.222948974609375,0.0010859142057597637,0.00009518628939986229,-0.00046129245311021805
1746576074674913800,8.232913818359375,-0.0003621387295424938,-0.0007433975115418434,0.00047864438965916634
1746576074684877800,8.2428779296875,-0.0007307203486561775,0.00012612482532858849,-0.0010321666486561298
1746576074694843000,8.2528427734375,-0.0013848096132278442,0.00041980575770139694,-0.0001971847377717495
1746576074704807000,8.262806884765626,-0.0000020961742848157883,-0.00027634482830762863,0.0013035065494477749
1746576074714770700,8.272770751953125,-0.0003985757939517498,-0.0006411336362361908,-0.001051269005984068
1746576074724735700,8.28273583984375,-0.0007727500051259995,0.0002672704868018627,-0.0006800247356295586
1746576074734699800,8.29269970703125,-0.00021131965331733227,0.00008751032873988152,-0.0007135011255741119
1746576074744664800,8.302664794921874,0.0001508702989667654,-0.00026162993162870407,0.000013808254152536392
1746576074754628900,8.31262890625,0.0015101213939487934,0.00012741843238472939,0.0015753675252199173
1746576074764594000,8.322593994140625,-0.0005884494166821241,-0.0006201309151947498,-0.0006228056736290455
1746576074774558000,8.332557861328125,0.0007337536662817001,-0.001253714319318533,-0.0007034377194941044
1746576074784522800,8.342522705078125,0.0007707716431468725,-0.00019244477152824402,0.00030696578323841095
1746576074794486800,8.35248681640625,-0.0008101132698357105,-0.000260849017649889,0.0006051920354366302
1746576074804451600,8.36245166015625,0.0011710124090313911,-0.00006217742338776588,-0.00004914682358503342
1746576074814416000,8.372415771484375,-0.0013707156758755445,0.0006736782379448414,-0.0012978343293070793
1746576074824381000,8.382380859375,0.0012090886011719704,0.000009751878678798676,0.0007416144944727421
1746576074834345000,8.392344970703125,0.0002788701094686985,-0.00005542254075407982,0.0001972746104001999
1746576074844309800,8.402309814453124,-0.0008377933409065008,-0.0004189438186585903,0.00039647892117500305
1746576074854273800,8.412273681640626,0.0010627841111272573,0.00017098989337682724,-0.0008582775481045246
1746576074864238800,8.42223876953125,0.0018841029377654195,-0.000823434442281723,0.000303659588098526
1746576074874202600,8.43220263671875,-0.0000015033874660730362,-0.0006499392911791801,-0.0003140880726277828
1746576074884168000,8.44216796875,0.00014443788677453995,-0.00006217928603291512,-0.0004291366785764694
1746576074894132000,8.452132080078124,-0.00028271786868572235,-0.001140860840678215,0.0004692133516073227
1746576074904096000,8.462095947265626,0.00044272723607718945,-0.0005424483679234982,0.000106757041066885
1746576074914060800,8.472060791015625,0.00022601359523832798,0.0008834968321025372,0.0010015983134508133
1746576074924024800,8.48202490234375,-0.0006637484766542912,-0.0001026717945933342,-0.0004016212187707424
1746576074933990000,8.491989990234375,0.0009292669128626585,0.0003231610171496868,-0.0006706230342388153
1746576074943953700,8.50195361328125,0.0005055579822510481,0.0015330351889133453,-0.000537198968231678
1746576074953919000,8.5119189453125,-0.0015402373392134905,-0.0001781000755727291,0.000030706170946359634
1746576074963883000,8.521883056640625,-0.0009282429236918688,0.0013071452267467976,-0.0009967414662241936
1746576074973847800,8.531847900390625,0.0001341917086392641,0.00006353436037898064,-0.000971189234405756
1746576074983811800,8.541811767578125,0.0012354087084531784,0.0011389190331101418,0.0006402893923223019
1746576074993777000,8.55177685546875,-0.00011796294711530209,-0.0002746875397861004,0.0015271143056452274
1746576075003740700,8.56174072265625,-0.0007999984081834555,-0.0008134450763463974,0.0006812945939600468
1746576075013705700,8.571705810546876,-0.0005715398583561182,0.0009852256625890732,0.00030133454129099846
1746576075023669800,8.581669677734375,0.0014149120543152094,-0.000007334630936384201,-0.00040120771154761314
1746576075033634800,8.591634765625,-0.0009092490654438734,0.00042288098484277725,0.00048674503341317177
1746576075043598800,8.601598876953124,-0.001018172362819314,-0.0007976461201906204,-0.0001300428993999958
1746576075053564000,8.61156396484375,0.001955578103661537,0.0007525659166276455,-0.00015196669846773148
1746576075063528000,8.62152783203125,0.0006628797855228186,0.00020448723807930946,-0.0009903297759592533
1746576075073492700,8.63149267578125,0.0006683010142296553,0.00004462758079171181,0.0002714218571782112
1746576075083456800,8.641456787109375,-0.0008640817832201719,0.0012608934193849564,-0.0001472271978855133
1746576075093420800,8.6514208984375,0.00025738170370459557,-0.00036422722041606903,0.00011367583647370338
1746576075103385900,8.6613857421875,-0.0000752471387386322,0.00040143169462680817,-0.0015883506275713444
1746576075113350000,8.671349853515625,-0.0011578258126974106,0.0002979263663291931,0.00030441489070653915
1746576075123315000,8.68131494140625,-0.001054761465638876,0.0009432099759578705,0.001656501553952694
1746576075133278700,8.69127880859375,0.002486622193828225,-0.0001453803852200508,0.00044987117871642113
1746576075143243800,8.701243896484375,0.001593664288520813,0.0008692839182913303,0.00023335590958595276
1746576075153207800,8.711207763671876,-0.00052809645421803,-0.00044096028432250023,-0.0004909401759505272
1746576075163172600,8.721172607421876,0.0009789864998310804,0.0005398821085691452,-0.0010043978691101074
1746576075173136600,8.73113671875,-0.001046744640916586,0.0009226333349943161,0.00003421865403652191
1746576075183102000,8.74110205078125,0.0017306660301983356,0.0007636426016688347,-0.0017753993161022663
1746576075193066000,8.75106591796875,0.0012735638301819563,0.0010340875014662743,-0.00007923366501927376
1746576075203030800,8.76103076171875,0.0005188239738345146,0.00055711530148983,0.00020918669179081917
1746576075212994800,8.770994873046876,-0.0012454467359930277,-0.00041032349690794945,0.0001706443727016449
1746576075222959900,8.7809599609375,-0.0003671359736472368,-0.0006265724077820778,0.00018316088244318962
1746576075232923600,8.790923583984375,-0.00042565190233290195,0.00008313730359077454,0.0011449339799582958
1746576075242889000,8.800888916015625,0.0005546575412154198,0.00031323451548814774,0.00008872430771589279
1746576075252853000,8.81085302734375,-0.0002457099035382271,0.00043180258944630623,0.00025757402181625366
1746576075262817800,8.82081787109375,0.0001923802774399519,-0.0008718147873878479,-0.0005829199217259884
1746576075272781800,8.83078173828125,0.0012163762003183365,-0.0013725138269364834,0.0007304064929485321
1746576075282745900,8.840745849609375,-0.0011343962978571653,0.0005745231173932552,0.0006065694615244865
1746576075292710700,8.850710693359375,-0.0009244729299098253,-0.00012298254296183586,0.00039882492274045944
1746576075302674700,8.8606748046875,-0.00033431663177907467,-0.0012359172105789185,0.0004350440576672554
1746576075312639700,8.8706396484375,0.0012388210743665695,-0.00037981849163770676,0.0004390217363834381
1746576075322603800,8.880603759765625,0.00012029358185827732,-0.0004607788287103176,0.0009849700145423412
1746576075332568800,8.89056884765625,0.000702892430126667,-0.000501733273267746,-0.00044070230796933174
1746576075342532900,8.900532958984375,0.00008264207281172276,0.000042883213609457016,0.0011124531738460064
1746576075352498000,8.910497802734374,0.00023291120305657387,-0.0012347949668765068,0.00023507187142968178
1746576075362461700,8.920461669921876,0.0003421008586883545,-0.0009820610284805298,-0.000654690433293581
1746576075372426800,8.9304267578125,-0.0028113164007663727,0.00000904640182852745,0.000629267655313015
1746576075382390500,8.940390625,0.00034506176598370075,0.0002862815745174885,0.00014324067160487175
1746576075392355300,8.950355224609375,-0.00014492380432784557,-0.00000325031578540802,-0.000019781291484832764
1746576075402319400,8.9603193359375,-0.00008447002619504929,-0.00014093564823269844,0.0012343013659119606
1746576075412284400,8.970284423828126,-0.0005879045929759741,0.0008952110074460506,0.0009349850006401539
1746576075422248400,8.98024853515625,-0.001175398239865899,-0.0008201310411095619,-0.0013180491514503956
1746576075432213500,8.990213623046875,-0.0003898476716130972,-0.0006602560169994831,0.0007230699993669987
1746576075442177500,9.000177490234375,-0.00045376340858638287,-0.0000879424624145031,0.0012889918871223927
1746576075452142600,9.010142578125,0.0003443534951657057,-0.0009330697357654572,-0.0005860524252057076
1746576075462106400,9.0201064453125,-0.000429028645157814,0.0004965150728821754,0.0003929254598915577
1746576075472071400,9.030071533203126,-0.0005557348486036062,-0.0001863730140030384,0.0002055489458143711
1746576075482035500,9.040035400390625,-0.00008009420707821846,-0.0006865146569907665,0.0000414983369410038
1746576075491999500,9.04999951171875,0.000501526752486825,0.0008099926635622978,-0.0010510426945984364
1746576075501964300,9.05996435546875,-0.000316862715408206,0.0017958944663405418,0.00039691803976893425
1746576075511928600,9.069928466796876,0.0012144276406615973,0.0010711150243878365,0.0006256480701267719
1746576075521893400,9.079893310546876,0.00017606094479560852,0.0002540573477745056,0.0013284562155604362
1746576075531857400,9.089857421875,0.0005854200571775436,0.0012302175164222717,0.000599653460085392
1746576075541822500,9.099822509765625,0.000744144432246685,-0.00011148303747177124,0.0001881951466202736
1746576075551786500,9.109786376953124,0.0007676018867641687,-0.0005582156591117382,0.0005271146073937416
1746576075561751300,9.119751220703124,0.0009124779608100653,0.0002868054434657097,-0.000003919936716556549
1746576075571715300,9.12971533203125,0.0009174540173262358,0.0006746961735188961,-0.00039307819679379463
1746576075581680600,9.1396806640625,0.00021624378859996796,-0.0008177394047379494,-0.0013235867954790592
1746576075591644400,9.14964453125,-0.0028792722150683403,0.00021726638078689575,-0.0007960442453622818
1746576075601609500,9.159609375,-0.0004406156949698925,-0.0013305628672242165,0.00004471559077501297
1746576075611573500,9.169573486328124,0.00031720614060759544,-0.0006062346510589123,0.0003007901832461357
1746576075621538300,9.179538330078126,0.0010240089613944292,-0.0012677637860178947,-0.00018656812608242035
1746576075631502300,9.18950244140625,0.0002445213031023741,0.00012216949835419655,-0.0013845865614712238
1746576075641467400,9.19946728515625,-0.0004364487249404192,0.0007661222480237484,-0.0005883015692234039
1746576075651431700,9.209431640625,0.0003990582190454006,-0.00015580514445900917,0.00030588312074542046
1746576075661395500,9.2193955078125,0.00014738948084414005,-0.001267674844712019,-0.00009439000859856606
1746576075671360500,9.229360595703126,-0.0003783379215747118,-0.0006297370418906212,0.0009891088120639324
1746576075681324500,9.239324462890625,0.00009170989505946636,-0.0006254757754504681,0.00020107952877879143
1746576075691289300,9.249289306640625,0.0008779342751950026,-0.00031306641176342964,-0.0006111897528171539
1746576075701253400,9.25925341796875,0.0008952447678893805,-0.0014113541692495346,0.0007712570950388908
1746576075711218400,9.269218505859374,0.00022386782802641392,-0.0010751639492809772,0.00103716179728508
1746576075721182500,9.279182373046876,0.00028671836480498314,0.00009715929627418518,-0.0006400970742106438
1746576075731147500,9.2891474609375,-0.0003167358227074146,-0.00011673429980874062,0.001403522677719593
1746576075741111600,9.299111572265625,0.0013346904888749123,0.00018313759937882423,-0.0003440435975790024
1746576075751076400,9.309076416015625,-0.000250635901466012,-0.0021590562537312508,0.0004592188633978367
1746576075761040400,9.319040283203124,0.0006188859697431326,0.0006764112040400505,0.00020035961642861366
1746576075771005400,9.32900537109375,-0.0007284879684448242,-0.00014108559116721153,0.0003623915836215019
1746576075780969500,9.338969482421875,0.00020681414753198624,-0.0006723860278725624,0.001436710823327303
1746576075790934500,9.3489345703125,-0.0013858508318662643,-0.0004263925366103649,-0.00015076296404004097
1746576075800898600,9.358898681640625,0.0012842344585806131,0.0015467433258891106,-0.0011228169314563274
1746576075810863600,9.368863525390625,0.00059888930991292,0.001349160447716713,0.0012063034810125828
1746576075820827400,9.378827392578126,-0.000469304621219635,-0.00048362696543335915,-0.0007106396369636059
1746576075830792400,9.38879248046875,-0.0006565938238054514,0.0004143565893173218,0.0007489328272640705
1746576075840756500,9.398756591796875,-0.00037003797478973866,0.000614626333117485,0.0024589484091848135
1746576075850720500,9.408720458984375,0.0018795384094119072,-0.00010433606803417206,0.00023448001593351364
1746576075860685300,9.418685302734374,-0.0006198382470756769,-0.00018289964646100998,0.00016656937077641487
1746576075870649300,9.4286494140625,0.0000140403863042593,-0.0010535474866628647,-0.0004934403114020824
1746576075880614400,9.438614501953126,0.0007709106430411339,0.000626907218247652,0.00019205734133720398
1746576075890578400,9.448578369140625,0.0005532975774258375,0.0006288397125899792,-0.0004212125204503536
1746576075900543500,9.45854345703125,-0.0013175730127841234,-0.00040366780012845993,0.0006773415952920914
1746576075910507500,9.468507568359374,-0.0029494415502995253,0.00041658617556095123,0.0003919568844139576
1746576075920472300,9.478472412109374,0.0002586024347692728,-0.001075582578778267,0.0005741170607507229
1746576075930436400,9.488436279296875,-0.0007204816211014986,-0.0005853273905813694,-0.00019733700901269913
1746576075940401700,9.498401611328125,-0.0005116898100823164,-0.002016243990510702,0.000272444449365139
1746576075950365400,9.508365478515625,0.0006777311209589243,-0.0001288210041821003,-0.00020528165623545647
1746576075960330500,9.51833056640625,-0.0006996558513492346,0.00038570165634155273,0.0013702441938221455
1746576075970294500,9.52829443359375,0.0004716839175671339,0.0010663806460797787,0.000748171005398035
1746576075980259300,9.53825927734375,0.0007028463296592236,-0.0005490928888320923,0.00008637551218271255
1746576075990223400,9.548223388671875,0.0004175044596195221,-0.00043173693120479584,0.0003654062747955322
1746576076000188400,9.5581884765625,0.0015581364277750254,0.00010302569717168808,-0.00047854939475655556
1746576076010152400,9.56815234375,-0.0012930596712976694,-0.0005851839669048786,0.001536026131361723
1746576076020116200,9.5781162109375,0.0008878028020262718,0.0010209684260189533,-0.0009790631011128426
1746576076030081500,9.58808154296875,-0.0011198993306607008,0.00012351712211966515,-0.00033052871003746986
1746576076040045600,9.598045654296875,-0.0002583668101578951,0.0003980891779065132,0.00014617713168263435
1746576076050010400,9.60801025390625,-0.0013626685831695795,0.0005933810025453568,-0.000017791520804166794
1746576076059974400,9.617974365234375,-0.0007701155263930559,0.0007055001333355904,0.00020298408344388008
1746576076069939500,9.627939453125,-0.0013089946005493402,0.0004931092262268066,0.0002578827552497387
1746576076079903500,9.637903564453126,-0.00007195631042122841,0.00023185322061181068,-0.0007056491449475288
1746576076089868500,9.64786865234375,-0.0012509317602962255,-0.0004974110051989555,0.0008140020072460175
1746576076099832600,9.65783251953125,-0.00014838320203125477,0.0008224514313042164,0.0012438357807695866
1746576076109797400,9.66779736328125,-0.00007370160892605782,-0.0005242745392024517,0.0006430726498365402
1746576076119761400,9.677761474609374,-0.0006279055960476398,0.0005266088992357254,-0.0003191274590790272
1746576076129726500,9.6877265625,-0.0013612599577754736,-0.0005552801303565502,-0.0007710405625402927
1746576076139690500,9.6976904296875,0.00010267971083521843,0.0008545974269509315,0.0006561474874615669
1746576076149655300,9.7076552734375,0.0010969084687530994,-0.000024337787181138992,0.00022209202870726585
1746576076159619300,9.717619384765625,0.0013171518221497536,-0.0003053015097975731,0.0005733626894652843
1746576076169584600,9.727584716796875,0.0002511250786483288,0.0006348579190671444,-0.0001546512357890606
1746576076179548400,9.73754833984375,0.0007957415655255318,-0.00006715161725878716,0.0006773201748728752
1746576076189513500,9.747513427734376,0.00013164477422833443,0.00015222793444991112,-0.0022148885764181614
1746576076199477500,9.7574775390625,-0.0015557340811938047,0.0010624965652823448,-0.001721670851111412
1746576076209441500,9.767441650390625,-0.0008955628145486116,0.000026910565793514252,-0.0010321098379790783
1746576076219406300,9.77740625,-0.0009940995369106531,0.00010920222848653793,-0.0005103964358568192
1746576076229370400,9.787370361328126,-0.0013917717151343822,-0.00017137685790657997,-0.0002643140032887459
1746576076239335400,9.79733544921875,-0.00033902423456311226,0.0004099910147488117,-0.00111679220572114
1746576076249299500,9.807299560546875,-0.0006201176438480616,0.0003573130816221237,-0.0012795580551028252
1746576076259264500,9.817264404296875,-0.0009333055932074785,-0.0006610797718167305,-0.00012241490185260773
1746576076269228500,9.827228515625,0.00024763145484030247,0.001617882400751114,-0.0004987721331417561
1746576076279193300,9.837193359375,0.001308102160692215,-0.0002636406570672989,-0.0007075639441609383
1746576076289157400,9.847157470703126,-0.0014447695575654507,0.00014393683522939682,-0.0009073270484805107
1746576076299122400,9.857122314453125,-0.0006878990679979324,-0.0014747320674359798,0.0011915103532373905
1746576076309086500,9.86708642578125,0.0010897351894527674,-0.0002632071264088154,-0.0005832850001752377
1746576076319051500,9.877051513671875,0.000523547176271677,-0.0014959843829274178,0.0003671972081065178
1746576076329015600,9.887015625,-0.00284584891051054,0.0003179144114255905,-0.00029927026480436325
1746576076338980400,9.89698046875,-0.00015339301899075508,0.0012241881340742111,-0.0013115378096699715
1746576076348944400,9.9069443359375,0.0010378456208854914,-0.0011815871112048626,0.000559014268219471
1746576076358909400,9.916909423828125,0.0005603407043963671,-0.00044708698987960815,0.00139577966183424
1746576076368873500,9.92687353515625,0.0015901979058980942,-0.0010241703130304813,-0.00020036054775118828
1746576076378837200,9.936837158203126,0.0004738008137792349,0.00037079351022839546,-0.00005255499854683876
1746576076388802300,9.94680224609375,-0.0007552183233201504,0.0004997388459742069,-0.0004493948072195053
1746576076398766300,9.956766357421875,-0.000819134060293436,0.001090428326278925,-0.0006661764346063137
1746576076408731100,9.966731201171875,-0.0011773884762078524,-0.0005170423537492752,0.0006291428580880165
1746576076418695200,9.976695068359374,-0.00004847440868616104,0.0005642012692987919,0.00022354349493980408
1746576076428660500,9.986660400390624,0.0007852423004806042,0.0005540992133319378,0.0005260114558041096
1746576076438624300,9.996624267578126,-0.0005364846438169479,-0.0006821402348577976,0.0011675669811666012
1746576076448589300,10.00658935546875,-0.0005189529620110989,0.000004524365067481995,-0.0010782270692288876
1746576076458553300,10.01655322265625,0.001326351659372449,0.0019694045186042786,0.00021979771554470062
1746576076468518100,10.02651806640625,-0.0002609263174235821,-0.0007602381519973278,0.00017063412815332413
1746576076478482200,10.036482177734374,-0.001834055408835411,0.00020249467343091965,0.0011128601618111134
1746576076488447500,10.046447509765626,0.0004255401436239481,0.00026686349883675575,0.00119852926582098
1746576076498411500,10.05641162109375,-0.0008138951379805803,-0.0003019878640770912,-0.0008720788173377514
1746576076508376300,10.066376220703125,-0.00007889117114245892,0.0004318063147366047,-0.00007996894419193268
1746576076518340400,10.07634033203125,0.0010252553038299084,-0.0010670204646885395,-0.0001912890002131462
1746576076528305400,10.086305419921874,0.00016655935905873775,-0.0011212429963052273,0.002599351806566119
1746576076538269200,10.096269287109376,0.0001268782652914524,0.0005794516764581203,-0.0013360013253986835
1746576076548233200,10.106233154296875,-0.001375044696033001,-0.0001559089869260788,0.00003207288682460785
1746576076558198300,10.1161982421875,-0.0008597229607403278,-0.0004033166915178299,0.00022861408069729805
1746576076568162300,10.126162353515625,-0.0009771091863512993,0.0009730644524097443,0.00010144524276256561
1746576076578127400,10.13612744140625,-0.0006519374437630177,-0.0010517369955778122,0.00002448027953505516
1746576076588091400,10.14609130859375,0.00013114465400576591,-0.0006052879616618156,0.0007806862704455853
1746576076598056200,10.15605615234375,-0.0010976376943290234,-0.0009416448883712292,-0.0007644793950021267
1746576076608020200,10.166020263671875,0.0004972096066921949,0.0008390736766159534,0.00008677598088979721
1746576076617985300,10.1759853515625,0.0007219805847853422,0.000048114918172359467,-0.0006285491399466991
1746576076627949300,10.18594921875,0.0005048965103924274,-0.0010548350401222706,-0.0006600157357752323
1746576076637914400,10.195914306640624,-0.002993964357301593,0.00020936783403158188,0.0001304103061556816
1746576076647878400,10.20587841796875,0.000985736958682537,-0.0002223411574959755,0.000719824805855751
1746576076657843500,10.215843505859375,0.0004395225550979376,-0.001133142039179802,-0.0008522393181920052
1746576076667807200,10.22580712890625,-0.0004129402805119753,0.0007949345745146275,0.0014915787614881992
1746576076677772300,10.235772216796875,0.00032555428333580494,-0.0020549141336232424,-0.0004589203745126724
1746576076687736300,10.245736328125,0.0006306711584329605,0.000005781650543212891,-0.0006154063157737255
1746576076697701000,10.255701171875,-0.0010433916468173265,0.00014719553291797638,0.000020822975784540176
1746576076707665200,10.2656650390625,-0.0007115586195141077,-0.00013488298282027245,-0.0022485004737973213
1746576076717630500,10.27563037109375,-0.0014718908350914717,-0.0007639219984412193,-0.001289229840040207
1746576076727594500,10.285594482421875,-0.0012989649549126625,0.0003828182816505432,-0.0003214208409190178
1746576076737558300,10.295558349609376,0.0005881511606276035,0.00003873789682984352,-0.0007896046154201031
1746576076747523300,10.3055234375,-0.00040566478855907917,0.0005893292836844921,0.00008495571091771126
1746576076757487400,10.3154873046875,-0.00035373331047594547,-0.00014410540461540222,0.00028336141258478165
1746576076767452200,10.3254521484375,0.00010878383181989193,-0.0012253830209374428,0.00020094215869903564
1746576076777416200,10.335416259765625,0.0011974840890616179,-0.000005655456334352493,0.000161794014275074
1746576076787381500,10.345381591796874,0.0011183172464370728,-0.0001386771909892559,0.001219332218170166
1746576076797345300,10.35534521484375,-0.0003328390885144472,0.00219851266592741,-0.000886429101228714
1746576076807310300,10.365310302734375,-0.0005562885198742151,0.000657601747661829,0.00013915449380874634
1746576076817274400,10.3752744140625,-0.00039996090345084667,0.00032390793785452843,0.0009982902556657791
1746576076827239200,10.3852392578125,-0.0016286561731249094,-0.0006056167185306549,-0.0005125044845044613
1746576076837203200,10.395203125,0.0012944294139742851,-0.0005496903322637081,0.0008718064054846764
1746576076847168300,10.405168212890626,0.0009328103624284267,-0.0002865125425159931,-0.00035513006150722504
1746576076857132500,10.415132568359375,0.002087556989863515,-0.00012086378410458565,-0.00119748804718256
1746576076867097300,10.425097412109375,-0.00027072615921497345,0.00004996731877326965,-0.0008501606062054634
1746576076877061400,10.435061279296875,0.0009010648354887962,0.0008971188217401505,0.000142666045576334
1746576076887025400,10.445025390625,0.0011699555907398462,0.0005490207113325596,0.0011737360619008541
1746576076896990200,10.454990234375,0.0005294654984027147,-0.0007482049986720085,-0.000966113992035389
1746576076906954200,10.464954345703125,0.00042209564708173275,-0.00016098422929644585,-0.0008058594539761543
1746576076916919300,10.474919189453125,0.0004812176339328289,0.0009317109361290932,-0.0005656424909830093
1746576076926883300,10.48488330078125,-0.0006841693539172411,0.00004159519448876381,-0.00041324086487293243
1746576076936848400,10.494848388671874,0.00039467704482376575,0.0004895390011370182,-0.0000718235969543457
1746576076946812400,10.5048125,0.00022590626031160355,0.00048433057963848114,-0.00044259289279580116
1746576076956777200,10.514777099609375,0.0008397649507969618,-0.0007005101069808006,-0.0010543209500610828
1746576076966741200,10.5247412109375,-0.0008296370506286621,-0.0012119384482502937,0.0005362872034311295
1746576076976706300,10.534706298828125,0.00005240202881395817,0.0013998234644532204,-0.00032631028443574905
1746576076986670300,10.54467041015625,-0.000019837869331240654,-0.00055658258497715,-0.0006670947186648846
1746576076996635400,10.554635498046874,-0.000841955654323101,-0.0007677711546421051,-0.0010069143027067184
1746576077006599400,10.564599365234375,-0.0003827980253845453,-0.00024766847491264343,0.000581599771976471
1746576077016564500,10.574564453125,-0.0019199743401259184,0.0001384899951517582,0.0008750804699957371
1746576077026528300,10.5845283203125,0.0007146825082600117,-0.0001408662647008896,-0.001116512343287468
1746576077036493300,10.594493408203125,-0.0017719108145684004,0.0009220014326274395,0.0005708667449653149
1746576077046457300,10.604457275390626,-0.0012500588782131672,-0.000642689410597086,0.00010262569412589073
1746576077056421400,10.61442138671875,0.0010035079903900623,-0.0004275059327483177,0.0001734658144414425
1746576077066386200,10.62438623046875,0.0006139436736702919,0.0008347947150468826,-0.0012148767709732056
1746576077076350200,10.63435009765625,-0.0001567751169204712,0.0004840563051402569,-0.00003163423389196396
1746576077086315500,10.6443154296875,0.0005823555402457714,0.0014294344000518322,0.001057495828717947
1746576077096279300,10.654279296875,0.001961073838174343,-0.0005953670479357243,-0.0006439979188144207
1746576077106244400,10.664244384765626,-0.0001207888126373291,0.00007699010893702507,0.0006550410762429237
1746576077116208400,10.67420849609375,-0.00068244943395257,-0.000724088866263628,-0.00019024638459086418
1746576077126173200,10.684173095703125,-0.0013426197692751884,0.0011946754530072212,0.0003058789297938347
1746576077136137200,10.69413720703125,0.0007724626921117306,-0.00044210348278284073,-0.0011801649816334248
1746576077146102500,10.7041025390625,-0.0003610178828239441,0.00046472717076539993,-0.0006798864342272282
1746576077156066300,10.71406640625,-0.00011946912854909897,0.00047910865396261215,-0.0003472575917840004
1746576077166031400,10.72403125,0.00046801636926829815,0.0010111606679856777,-0.0004923720844089985
1746576077175995400,10.733995361328125,-0.0006222818046808243,0.0007541654631495476,-0.0001086108386516571
1746576077185960200,10.743960205078125,0.0008538381662219763,0.0012265653349459171,0.0005934690125286579
1746576077195924200,10.75392431640625,-0.0013773581013083458,-0.000028582755476236343,-0.0008989661000669003
1746576077205889300,10.76388916015625,-0.0008396063931286335,0.0015952703543007374,0.0005736709572374821
1746576077215853300,10.773853271484375,-0.0005786167457699776,-0.0006899884901940823,0.0007454450242221355
1746576077225818400,10.783818359375,-0.000797538785263896,0.0007102955132722855,-0.00118231400847435
1746576077235782400,10.793782470703125,-0.0004017932806164026,-0.0005118292756378651,-0.001435847021639347
1746576077245746400,10.803746337890624,0.00044384272769093513,-0.00011083623394370079,0.0009155557490885258
1746576077255711200,10.813711181640626,0.0009897907730191946,-0.0020024795085191727,-0.0008778171613812447
1746576077265675300,10.82367529296875,0.0008410194423049688,-0.0007575466297566891,-0.0013086791150271893
1746576077275640300,10.833640380859375,-0.0001387575175613165,0.0011498094536364079,0.00000985199585556984
1746576077285604400,10.843604248046875,0.0006675056647509336,-0.00064887385815382,-0.00030896952375769615
1746576077295569400,10.8535693359375,0.00014712405391037464,-0.0008789710700511932,0.0002404404804110527
1746576077305533400,10.863533447265626,0.00022650673054158688,0.0009734402410686016,0.00037828879430890083
1746576077315498200,10.873498291015625,-0.0005335593596100807,0.0001851445995271206,0.0010965433903038502
1746576077325462300,10.883462158203125,-0.0006390758790075779,-0.0011388328857719898,0.0009502824395895004
1746576077335427300,10.89342724609375,0.000010735355317592621,0.0014502923004329205,0.00028662290424108505
1746576077345391400,10.903391357421874,0.00041861552745103836,0.0012411666102707386,0.0011780420318245888
1746576077355356200,10.913356201171876,-0.00008072704076766968,0.0008576712571084499,-0.0008630044758319855
1746576077365320200,10.9233203125,0.0000414503738284111,-0.0002654171548783779,-0.0009865332394838333
1746576077375285500,10.933285400390625,-0.0010903929360210896,0.0000911797396838665,-0.0006384579464793205
1746576077385249300,10.943249267578125,-0.00013848021626472473,0.0007551619783043861,-0.000428082887083292
1746576077395214600,10.953214599609375,0.0008668629452586174,0.0005066893063485622,0.001245447900146246
1746576077405178600,10.9631787109375,0.0010545097757130861,0.0008299043402075768,0.0003103669732809067
1746576077415142700,10.973142578125,-0.0004176856018602848,0.00122485077008605,0.0009058495052158833
1746576077425107500,10.983107421875,0.0005733086727559566,-0.00014757271856069565,-0.0013415934517979622
1746576077435071500,10.993071533203125,0.0003464075271040201,-0.000568085815757513,0.0005673607811331749
1746576077445036300,11.003036376953125,-0.00021621049381792545,0.0009002117440104485,0.00007784692570567131
1746576077455000300,11.013000244140626,0.0016525296960026026,0.0012392322532832623,-0.0004699653945863247
1746576077464965400,11.02296533203125,-0.0014369122218340635,0.0001794826239347458,0.00026052771136164665
1746576077474929400,11.032929443359375,0.0017104113940149546,-0.0014327950775623322,0.00015799608081579208
1746576077484894500,11.04289453125,-0.000065195607021451,0.001589516643434763,0.000687718391418457
1746576077494858500,11.0528583984375,-0.001559229101985693,0.00004062242805957794,0.0012062359601259232
1746576077504823600,11.062823486328124,0.001277650473639369,-0.0006052241660654545,0.00039212824776768684
1746576077514787300,11.072787353515626,-0.0018177416641265154,0.0006155688315629959,-0.00017991848289966583
1746576077524752400,11.08275244140625,0.0014660651795566082,-0.0003479393199086189,-0.0006054509431123734
1746576077534716400,11.09271630859375,0.0011129300110042095,-0.0010422253981232643,-0.00005444325506687164
1746576077544681500,11.102681396484375,0.0013787702191621065,-0.00019732723012566566,0.00021030008792877197
1746576077554645500,11.1126455078125,0.0011478741653263569,0.00004155794158577919,0.0010803546756505966
1746576077564610600,11.122610595703126,-0.0004989332519471645,-0.0002844422124326229,0.001235172152519226
1746576077574574600,11.13257470703125,-0.000606791116297245,0.0006908075883984566,0.0004175817593932152
1746576077584539400,11.142539306640625,0.0007089895661920309,-0.0007431004196405411,-0.002259703353047371
1746576077594503400,11.15250341796875,-0.00015387451276183128,0.001362927258014679,-0.0006863083690404892
1746576077604467500,11.162467529296874,-0.000647436361759901,0.0007524928078055382,0.00010470813140273094
1746576077614432300,11.172432373046876,-0.0003752615302801132,-0.00039453059434890747,0.00039898743852972984
1746576077624396500,11.182396484375,-0.0008281972259283066,-0.00036694295704364777,-0.0013124821707606316
1746576077634361600,11.192361572265625,0.0013231041375547647,-0.0007304642349481583,-0.0018941168673336506
1746576077644325400,11.202325439453125,-0.0005974420346319675,-0.000010087154805660248,0.0012594382278621197
1746576077654290400,11.21229052734375,0.00004091765731573105,-0.0005323328077793121,0.0006748740561306477
1746576077664254500,11.22225439453125,-0.00022160750813782215,0.0005653863772749901,-0.00048579229041934013
1746576077674219300,11.23221923828125,0.0012838775292038918,0.00042051030322909355,0.00033259671181440353
1746576077684183300,11.242183349609375,0.0005056250374764204,-0.0005996711552143097,0.0008696331642568111
1746576077694148600,11.252148681640625,-0.00046882545575499535,0.0005098017863929272,-0.00018178299069404602
1746576077704112600,11.262112548828124,-0.0002689305692911148,-0.0001293267123401165,0.0002881302498281002
1746576077714077400,11.272077392578124,0.0010655794758349657,-0.0001343865878880024,-0.0004799254238605499
1746576077724041500,11.28204150390625,0.0001319688744843006,-0.0008682352490723133,0.0010072155855596066
1746576077734006500,11.292006591796875,0.0006371703930199146,-0.0003771483898162842,-0.000021297484636306763
1746576077743970300,11.30197021484375,0.0003724184352904558,-0.00010082870721817017,0.0006761923432350159
1746576077753935400,11.311935302734375,-0.0008276021108031273,0.0009756209328770638,0.0009851190261542797
1746576077763899600,11.321899658203124,0.0019566374830901623,-0.0007633576169610023,0.001243471633642912
1746576077773864400,11.331864501953126,0.00006179837509989738,0.0002909875474870205,-0.0005467054434120655
1746576077783828500,11.341828369140625,0.0003982887137681246,0.00014373613521456718,-0.0013669701293110847
1746576077793793500,11.35179345703125,0.00007205153815448284,0.00026837224140763283,-0.00005589565262198448
1746576077803757300,11.36175732421875,0.00003407546319067478,0.0003421977162361145,-0.0009240792132914066
1746576077813721300,11.371721435546876,0.0011347599793225527,-0.00006659748032689095,-0.002642084378749132
1746576077823686400,11.381686279296876,-0.0007984167896211147,-0.00011726375669240952,0.00031260866671800613
1746576077833650400,11.391650390625,0.000699611147865653,-0.00029702717438340187,0.00006147241219878197
1746576077843615500,11.401615478515625,0.00012258021160960197,0.0008966578170657158,0.0015196320600807667
