time,seconds_elapsed,z,y,x
1746734437453143000,0.01214306640625,-0.0009546861983835697,-0.0008763344958424568,-0.00017808331176638603
1746734437463109000,0.022109130859375,0.0005800935905426741,-0.0012896573171019554,0.00020461296662688255
1746734437473076200,0.032076171875,-0.001850237138569355,-0.0007616677321493626,-0.0006532873958349228
1746734437483043000,0.04204296875,0.0005727065727114677,-0.0004333001561462879,-0.00013024266809225082
1746734437493010000,0.052010009765625,-0.000029042363166809082,-0.0011722976341843605,0.001651825848966837
1746734437502977000,0.06197705078125,0.0000074426643550395966,0.0010133585892617702,-0.0004430166445672512
1746734437512943000,0.071943115234375,-0.0008343043737113476,-0.000018658582121133804,-0.00003191223368048668
1746734437522910200,0.08191015625,-0.00031259097158908844,0.0003541838377714157,-0.0018228879198431969
1746734437532877300,0.091877197265625,-0.0005813604220747948,-0.0003171865828335285,-0.0005349335260689259
1746734437542844200,0.10184423828125,-0.00002582510933279991,-0.000041282735764980316,0.0009079668670892715
1746734437552810200,0.111810302734375,-0.0004041176289319992,0.0006266701966524124,-0.00007722200825810432
1746734437562777000,0.121777099609375,0.00014875479973852634,0.00024503935128450394,0.0006080092862248421
1746734437572744200,0.131744140625,0.000738498754799366,0.00024142349138855934,-0.0001102047972381115
1746734437582711300,0.141711181640625,-0.0004607224836945534,0.00002224557101726532,0.000046655070036649704
1746734437592677000,0.151677001953125,0.0005293232388794422,-0.00021808408200740814,0.0012950189411640167
1746734437602644200,0.161644287109375,0.0004915064200758934,-0.0006734849885106087,0.0008824951946735382
1746734437612611000,0.171611083984375,0.00023670983500778675,-0.00028446316719055176,0.0009499681182205677
1746734437622578200,0.181578125,-0.0011484003625810146,0.0009134267456829548,0.0009257332421839237
1746734437632544000,0.1915439453125,-0.0015920349396765232,-0.000928536057472229,0.0009410260245203972
1746734437642511000,0.201510986328125,-0.001601621974259615,-0.0015282798558473587,-0.0003929510712623596
1746734437652478200,0.211478271484375,0.000023648608475923538,0.0005725780501961708,0.0018529749941080809
1746734437662445000,0.221445068359375,0.00029928586445748806,-0.000025035347789525986,-0.0013769068755209446
1746734437672412200,0.231412109375,-0.0011257827281951904,0.0004107733257114887,0.00045428285375237465
1746734437682378000,0.2413779296875,-0.0010136635974049568,0.0008177044801414013,0.0004825121723115444
1746734437692345000,0.251344970703125,-0.0018126163631677628,-0.0006641908548772335,-0.00006436090916395187
1746734437702312200,0.261312255859375,-0.0003915531560778618,0.00037603965029120445,-0.00009711785241961479
1746734437712279000,0.271279052734375,-0.001011781394481659,0.0004266751930117607,-0.0007599121890962124
1746734437722245000,0.2812451171875,0.0008212726097553968,0.0006535765714943409,0.000024388544261455536
1746734437732212000,0.2912119140625,-0.0001792600378394127,-0.0006927303038537502,0.000488529447466135
1746734437742179000,0.301178955078125,-0.00017100432887673378,0.0009645549580454826,0.00012048054486513138
1746734437752146000,0.31114599609375,0.0005688222590833902,0.00037477724254131317,-0.00015234015882015228
1746734437762112300,0.3211123046875,-0.0011904621496796608,-0.0012904973700642586,-0.00010253908112645149
1746734437772079000,0.3310791015625,0.00010866299271583557,-0.00013351067900657654,-0.0003180233761668205
1746734437782046000,0.3410458984375,-0.00037336908280849457,0.000060900114476680756,-0.0005076401866972446
1746734437792013000,0.351012939453125,0.000018825288861989975,0.0005806055851280689,0.0018359688110649586
1746734437801979100,0.360979248046875,0.000977563438937068,0.00010922644287347794,-0.000033303629606962204
1746734437811946200,0.3709462890625,-0.0011875135824084282,0.0003692256286740303,0.000692958477884531
1746734437821913300,0.380913330078125,0.0014239819720387459,-0.00029922788962721825,-0.0019172057509422302
1746734437831880200,0.390880126953125,-0.0007866173982620239,-0.0004865308292210102,0.0006743906997144222
1746734437841846300,0.40084619140625,0.0005252559203654528,0.0005443785339593887,-0.0018130014650523663
1746734437851813000,0.410813232421875,-0.0009054816327989101,0.00028769485652446747,-0.0006104265339672565
1746734437861780200,0.4207802734375,-0.001452761236578226,-0.00021111546084284782,-0.00003491761162877083
1746734437871747000,0.4307470703125,-0.0011715586297214031,0.0005177920684218407,-0.0007256600074470043
1746734437881714200,0.440714111328125,-0.0005640913732349873,-0.00033947965130209923,-0.0005986271426081657
1746734437891680300,0.45068017578125,0.0002486943267285824,0.0007366263307631016,-0.0011589154601097107
1746734437901647000,0.460647216796875,-0.0005329437553882599,0.0001573888584971428,-0.0011698342859745026
1746734437911614200,0.4706142578125,-0.00016619637608528137,0.0004320885054767132,-0.00005085719749331474
1746734437921581000,0.4805810546875,-0.0006876434199512005,-0.0005048117600381374,0.00014967890456318855
1746734437931547100,0.490547119140625,-0.000772377010434866,-0.0005274559371173382,-0.00047321617603302
1746734437941514000,0.500513916015625,-0.001076243817806244,-0.0006009591743350029,-0.0019137202762067318
1746734437951481000,0.510481201171875,0.00014988938346505165,0.0010070586577057838,-0.000942605547606945
1746734437961448200,0.5204482421875,0.00009582703933119774,-0.0002784496173262596,-0.0010805572383105755
1746734437971414000,0.5304140625,0.00037751556374132633,-0.00004763668403029442,0.0003302004188299179
1746734437981381000,0.540381103515625,-0.000717842485755682,-0.0008114310912787914,0.0008140965364873409
1746734437991347200,0.55034716796875,-0.00019796611741185188,-0.0004292256198823452,-0.0007920186035335064
1746734438001314300,0.560314208984375,-0.002034748438745737,0.001364413183182478,0.0008263844065368176
1746734438011280400,0.5702802734375,-0.0008172644302248955,-0.0006239665672183037,0.0005644047632813454
1746734438021247500,0.58024755859375,0.0011300391051918268,0.0009310529567301273,-0.00040205661207437515
1746734438031214300,0.59021435546875,0.0005683742929250002,-0.0013980325311422348,0.0015908931382000446
1746734438041181400,0.600181396484375,0.0006442745216190815,0.0007423502393066883,-0.0007207305170595646
1746734438051148300,0.610148193359375,0.0006815551314502954,-0.0009220410138368607,-0.001059381291270256
1746734438061114400,0.6201142578125,0.0002589114010334015,0.0002843709662556648,0.0008556977845728397
1746734438071081500,0.63008154296875,0.0005837106145918369,-0.0007165670394897461,0.0007988810539245605
1746734438081048300,0.64004833984375,-0.0010450785048305988,-0.00012587755918502808,-0.001213669776916504
1746734438091015400,0.650015380859375,-0.0004766881465911865,-0.0012605460360646248,-0.0004023546352982521
1746734438100981200,0.659981201171875,0.00038830656558275223,0.000712323933839798,0.0003249542787671089
1746734438110948400,0.6699482421875,-0.0015560011379420757,-0.001035952940583229,-0.0005133906379342079
1746734438120915500,0.67991552734375,-0.000676359049975872,0.00012625055387616158,-0.0006848983466625214
1746734438130882300,0.68988232421875,-0.001477053388953209,-0.0002520959824323654,-0.00010630348697304726
1746734438140848400,0.699848388671875,0.0008292440325021744,0.0006355359219014645,-0.0005212239921092987
1746734438150815200,0.709815185546875,0.0004014961887151003,0.0008077695965766907,0.0006933342665433884
1746734438160782300,0.7197822265625,-0.000053371768444776535,-0.0008343355730175972,-0.000774067360907793
1746734438170749400,0.72974951171875,0.001324160024523735,-0.0013130288571119308,-0.0005437787622213364
1746734438180716300,0.73971630859375,-0.00029983557760715485,-0.0005676099099218845,-0.0010226154699921608
1746734438190682400,0.749682373046875,0.0009592582937330008,0.000045252032577991486,-0.0018559489399194717
1746734438200649200,0.759649169921875,-0.0009086830541491508,0.0007238253019750118,-0.00008760998025536537
1746734438210616300,0.7696162109375,-0.0005383137613534927,-0.00046642497181892395,0.0002754572778940201
1746734438220583400,0.77958349609375,-0.001572952140122652,-0.0006339377723634243,-0.001277431845664978
1746734438230549200,0.78954931640625,-0.0004839729517698288,-0.00037948694080114365,-0.00030830036848783493
1746734438240516400,0.799516357421875,0.0018518853466957808,-0.0004442017525434494,-0.0005237502045929432
1746734438250483200,0.809483154296875,-0.0006527742370963097,-0.0003366009332239628,-0.00025576166808605194
1746734438260450300,0.8194501953125,0.0001533646136522293,0.0007805954664945602,0.0014103117864578962
1746734438270416400,0.82941650390625,-0.0007194322533905506,-0.00024502258747816086,0.0017780798953026533
1746734438280383200,0.83938330078125,0.0010009699035435915,0.00014779344201087952,-0.000674158800393343
1746734438290350300,0.849350341796875,-0.0013045012019574642,0.0013765119947493076,-0.0005613020621240139
1746734438300317200,0.859317138671875,-0.0007162089459598064,-0.0019481782801449299,-0.00044891703873872757
1746734438310283500,0.869283447265625,-0.0008638631552457809,-0.0003013298846781254,-0.0014010737650096416
1746734438320250400,0.87925048828125,-0.0018636141903698444,-0.0014185260515660048,-0.0008719037286937237
1746734438330217500,0.889217529296875,0.0005058601964265108,-0.00011517340317368507,-0.0014731334522366524
1746734438340184600,0.8991845703125,0.000297334510833025,-0.00017935549840331078,-0.0013817870058119297
1746734438350151400,0.9091513671875,0.0005040308460593224,0.00019144220277667046,-0.00015849340707063675
1746734438360117500,0.919117431640625,-0.0003465828485786915,-0.00007354235276579857,-0.000653308816254139
1746734438370084400,0.92908447265625,0.00018384307622909546,0.000564933754503727,-0.000049894675612449646
1746734438380051500,0.939051513671875,0.0007790597155690193,0.0007060812786221504,0.00002014636993408203
1746734438390018300,0.949018310546875,0.0001310110092163086,0.001933061983436346,-0.00050685228779912
1746734438399984400,0.958984375,-0.0011403821408748627,-0.00000784965232014656,-0.0014424207620322704
1746734438409951500,0.968951416015625,-0.00021272990852594376,0.0014083711430430412,0.001096818596124649
1746734438419918300,0.97891845703125,-0.0008665360510349274,0.0004909117706120014,0.0014222566969692707
1746734438429885400,0.988885498046875,0.0003814722876995802,0.00017473427578806877,0.00016337400302290916
1746734438439851300,0.998851318359375,0.0008280843030661345,0.0002106870524585247,-0.0011753970757126808
1746734438449818400,1.008818359375,0.0004611916374415159,-0.001303995493799448,-0.0019053937867283821
1746734438459785200,1.01878515625,-0.0005920887924730778,0.0002366434782743454,-0.0003168182447552681
1746734438469752300,1.02875244140625,-0.0007956540212035179,0.00047987978905439377,-0.0003426065668463707
1746734438479718400,1.038718505859375,-0.001073155552148819,-0.00022772233933210373,0.0009367759339511395
1746734438489685200,1.048685302734375,-0.002644437365233898,0.0002963622100651264,0.001734382938593626
1746734438499652400,1.05865234375,0.00038943556137382984,-0.0005566482432186604,-0.0005791052244603634
1746734438509619200,1.068619140625,-0.000787047203630209,-0.000005910638719797134,-0.0021399478428065777
1746734438519586300,1.07858642578125,-0.0016586999408900738,-0.0009537297300994396,0.00004783878102898598
1746734438529552100,1.08855224609375,0.0016973318997770548,0.0018384438008069992,0.0001682732254266739
1746734438539519200,1.098519287109375,0.00011754455044865608,0.0010829046368598938,0.00019064359366893768
1746734438549486300,1.108486328125,0.00007838546298444271,-0.0008304817602038383,0.0007405579090118408
1746734438559453200,1.118453125,0.000789982033893466,-0.0004666941240429878,0.00011924281716346741
1746734438569419300,1.128419189453125,0.00004196725785732269,-0.0005744071677327156,-0.0009026182815432549
1746734438579386000,1.13838623046875,0.0012387917377054691,-0.00037227338179945946,-0.00004215119406580925
1746734438589353200,1.148353271484375,0.0005447235889732838,0.0004348321817815304,-0.0006628711707890034
1746734438599320300,1.1583203125,-0.0011610309593379498,-0.0009279074147343636,0.0025225356221199036
1746734438609286400,1.168286376953125,0.00023778830654919147,0.00048261694610118866,-0.0006550191901624203
1746734438619253500,1.17825341796875,-0.0004671504721045494,-0.00024309474974870682,-0.0003021503798663616
1746734438629220400,1.188220458984375,0.000013867393136024475,-0.0007723965682089329,-0.0012695775367319584
1746734438639187500,1.1981875,-0.0012961416505277157,0.0010151173919439316,0.0013634897768497467
1746734438649153300,1.2081533203125,-0.000015279743820428848,0.0009549297392368317,-0.00003191549330949783
1746734438659120400,1.218120361328125,-0.0011732219718396664,0.0010422812774777412,0.0005140327848494053
1746734438669087500,1.22808740234375,0.001340579940006137,-0.00033341627568006516,0.0003518969751894474
1746734438679054300,1.238054443359375,0.0011245976202189922,-0.0008724401704967022,-0.0004608999006450176
1746734438689021400,1.248021484375,0.0013350823428481817,-0.00012842891737818718,-0.00004568509757518768
1746734438698987300,1.2579873046875,0.00047461502254009247,-0.00033482396975159645,-0.0004153316840529442
1746734438708954400,1.267954345703125,0.00044350395910441875,0.000460935290902853,-0.0029584448784589767
1746734438718921500,1.27792138671875,0.002057379577308893,-0.00047729630023241043,0.00016970420256257057
1746734438728888300,1.287888427734375,-0.0008163652382791042,0.00128569221124053,0.000927262008190155
1746734438738854400,1.2978544921875,0.0007663513533771038,-0.0006126086227595806,0.0008159419521689415
1746734438748821200,1.3078212890625,-0.0007962221279740334,0.0000442960299551487,0.0010579382069408894
1746734438758788400,1.317788330078125,-0.0011328458786010742,0.00031247641891241074,0.0007934863679111004
1746734438768755500,1.32775537109375,-0.0008762520737946033,0.0009267581626772881,-0.0009378334507346153
1746734438778721300,1.33772119140625,0.0006175150629132986,0.0006010537035763264,0.0012198598124086857
1746734438788688400,1.3476884765625,0.001012746011838317,0.0004084925167262554,0.001277412287890911
1746734438798655200,1.3576552734375,0.0005562801379710436,0.002114513423293829,-0.00030051032081246376
1746734438808622300,1.367622314453125,-0.0021131830289959908,-0.00010720081627368927,-0.0002658329904079437
1746734438818588200,1.377588134765625,0.002265319926664233,0.0006877528503537178,-0.00007808022201061249
1746734438828555300,1.38755517578125,-0.0019116741605103016,-0.0009530093520879745,0.00023022573441267014
1746734438838522400,1.3975224609375,0.0001597327645868063,-0.0001226356253027916,-0.0011106757447123528
1746734438848489200,1.4074892578125,-0.0020486866123974323,-0.0005388092249631882,0.0013799113221466541
1746734438858456300,1.417456298828125,0.000649894354864955,0.00023137684911489487,0.00010292557999491692
1746734438868422100,1.427422119140625,-0.001038257498294115,0.0013414807617664337,-0.0001466064713895321
1746734438878389200,1.43738916015625,0.000032333191484212875,-0.0004846486262977123,-0.0003016022965312004
1746734438888356400,1.4473564453125,-0.0012238919734954834,-0.00005988217890262604,0.00012841308489441872
1746734438898323200,1.4573232421875,0.00005016429349780083,-0.0001725340262055397,0.0010117837227880955
1746734438908289500,1.46728955078125,-0.0011174767278134823,0.00005453499034047127,0.0004637008532881737
1746734438918256400,1.47725634765625,0.0009019984863698483,-0.0006741057150065899,-0.000470802653580904
1746734438928223500,1.487223388671875,-0.0004129847511649132,0.0008702455088496208,-0.0000234176404774189
1746734438938190300,1.4971904296875,0.0007726545445621014,-0.00019129039719700813,0.0005552871152758598
1746734438948156400,1.507156494140625,-0.0013065286912024021,-0.0009356830269098282,-0.00043300073593854904
1746734438958123500,1.51712353515625,0.000049552880227565765,0.000010804738849401474,-0.0011813491582870483
1746734438968090400,1.52709033203125,-0.0003478880971670151,0.00039628148078918457,-0.0015990501269698143
1746734438978057500,1.537057373046875,-0.0000690552406013012,-0.0004617888480424881,0.00013972772285342216
1746734438988023600,1.5470234375,0.0003084898926317692,-0.000005936715751886368,-0.00015131337568163872
1746734438997990700,1.55699072265625,-0.0016310904175043106,0.00042469659820199013,0.00046520866453647614
1746734439007957800,1.566957763671875,0.0013648108579218388,0.00056050019338727,0.00029148953035473824
1746734439017924600,1.576924560546875,-0.000014440156519412994,-0.000799576286226511,-0.0005854894407093525
1746734439027891700,1.5868916015625,0.002094863448292017,-0.000420604832470417,-0.0003085331991314888
1746734439037857500,1.596857421875,0.0003073497209697962,-0.00041900714859366417,0.0002515297383069992
1746734439047824600,1.60682470703125,-0.0010196282528340816,-0.00011217407882213593,-0.0012982571497559547
1746734439057791700,1.616791748046875,-0.0017986027523875237,-0.0002503921277821064,0.001172889955341816
1746734439067758600,1.626758544921875,0.0009439308196306229,0.0008730711415410042,0.0001354818232357502
1746734439077724700,1.636724609375,0.0005575062241405249,0.0007748007774353027,-0.0010341783054172993
1746734439087691500,1.64669140625,-0.000807611271739006,0.0002758367918431759,0.0004171975888311863
1746734439097658600,1.65665869140625,0.00008374848403036594,0.0005525392480194569,0.0017684856429696083
1746734439107625700,1.666625732421875,-0.0009046974591910839,-0.0016683880239725113,-0.0004028468392789364
1746734439117591600,1.676591552734375,0.0012061239685863256,-0.0013530696742236614,0.0013220827095210552
1746734439127558700,1.68655859375,-0.00012427149340510368,-0.0005717650055885315,0.0005268123932182789
1746734439137525500,1.696525390625,-0.0004502427764236927,-0.0007387450896203518,0.0005257469601929188
1746734439147492600,1.70649267578125,-0.0007711951620876789,0.00042944587767124176,-0.0008423724211752415
1746734439157459700,1.716459716796875,-0.0004492192529141903,-0.000060043297708034515,0.001130497083067894
1746734439167425500,1.726425537109375,0.0011216036509722471,0.00024589570239186287,-0.00011208374053239822
1746734439177392600,1.736392578125,0.0005580787546932697,0.0008754669688642025,-0.0012226216495037079
1746734439187359500,1.746359375,0.0007546187844127417,-0.0007499414496123791,-0.0014355131424963474
1746734439197326600,1.75632666015625,-0.001859806478023529,-0.0007113255560398102,0.0013437620364129543
1746734439207292700,1.766292724609375,-0.0012750406749546528,0.00034160027280449867,0.0019991029985249043
1746734439217259500,1.776259521484375,0.0007931704167276621,0.0008372142910957336,-0.0009096013382077217
1746734439227226600,1.7862265625,0.00010850559920072556,0.0009347815066576004,0.00026242807507514954
1746734439237193500,1.796193359375,0.0003585764206945896,0.0008162711746990681,-0.0009932522661983967
1746734439247159800,1.806159912109375,-0.0011476683430373669,-0.00006274832412600517,-0.0013829455710947514
1746734439257126700,1.816126708984375,0.0004672727081924677,0.00028878916054964066,-0.0016860133036971092
1746734439267093800,1.82609375,-0.001098457258194685,0.00040401704609394073,-0.0005560005083680153
1746734439277060600,1.836060546875,-0.0007708887569606304,-0.0010673794895410538,-0.002493449952453375
1746734439287026700,1.846026611328125,-0.0004904763773083687,-0.00014207419008016586,-0.002891573589295149
1746734439296993800,1.855993896484375,0.0011441719252616167,-0.0009263749234378338,-0.0009844843298196793
1746734439306960600,1.865960693359375,0.0016968718264251947,-0.001050383783876896,0.0012437780387699604
1746734439316927700,1.875927734375,0.00047847582027316093,-0.00015955651178956032,0.00015800725668668747
1746734439326894600,1.88589453125,-0.001272509340196848,-0.00022503221407532692,-0.0003754179924726486
1746734439336860700,1.895860595703125,-0.00036783330142498016,-0.00022023869678378105,0.0003255261108279228
1746734439346827500,1.90582763671875,0.0012942051980644464,-0.00041864393278956413,-0.00006299745291471481
1746734439356794600,1.915794677734375,-0.0005487021990120411,0.0005611330270767212,-0.0022925962693989277
1746734439366761700,1.92576171875,-0.0023645730689167976,0.0000037159770727157593,0.0006409259513020515
1746734439376727600,1.9357275390625,-0.0012673507444560528,-0.00136967608705163,-0.00023791706189513206
1746734439386694700,1.945694580078125,0.0009133596904575825,0.0005087363533675671,0.0011851941235363483
1746734439396661500,1.95566162109375,-0.0010824133642017841,-0.00015226006507873535,0.0009292643517255783
1746734439406628600,1.965628662109375,0.000036842189729213715,-0.0013449005782604218,0.0002126717008650303
1746734439416594400,1.975594482421875,0.0008195452392101288,-0.00010866113007068634,0.0002638041041791439
1746734439426561500,1.9855615234375,0.0004010661505162716,0.00017747282981872559,0.00013028038665652275
1746734439436528600,1.995528564453125,-0.0015017623081803322,-0.0003913780674338341,-0.0008380450308322906
1746734439446495500,2.00549560546875,-0.00033831410109996796,0.00003543868660926819,-0.0003944854252040386
1746734439456462600,2.015462646484375,-0.0008778702467679977,0.0014019063673913479,-0.0007044770754873753
1746734439466428400,2.025428466796875,0.0013041316997259855,0.001080804504454136,-0.0007585370913147926
1746734439476395500,2.0353955078125,-0.0011891196481883526,0.00004163896664977074,0.0000012628734111785889
1746734439486362600,2.045362548828125,-0.0005804565735161304,0.0011948980391025543,0.001113923266530037
1746734439496329500,2.05532958984375,0.0006528531666845083,-0.0011835712939500809,-0.0002477508969604969
1746734439506295800,2.0652958984375,-0.0002873479388654232,-0.0003979029133915901,0.00029492471367120743
1746734439516262700,2.0752626953125,-0.0008538020774722099,0.00031662313267588615,0.00037135742604732513
1746734439526229500,2.0852294921875,0.0014273461420089006,0.0007436797022819519,0.0009144064970314503
1746734439536196600,2.095196533203125,0.000532523961737752,0.000464846845716238,0.00026779109612107277
1746734439546162700,2.10516259765625,0.0002581593580543995,0.0006832587532699108,-0.00017620064318180084
1746734439556129800,2.1151298828125,0.00031009106896817684,-0.0005383333191275597,0.00036841584369540215
1746734439566096600,2.1250966796875,-0.0009197439067065716,-0.00003822147846221924,0.0000431351363658905
1746734439576063700,2.135063720703125,-0.0010315966792404652,-0.0002374262548983097,0.0007928148843348026
1746734439586029600,2.145029541015625,0.0011863913387060165,0.0017044967971742153,0.00013603130355477333
1746734439595996700,2.15499658203125,-0.0011926102451980114,0.0017913160845637321,0.0015978403389453888
1746734439605963800,2.1649638671875,-0.000045289285480976105,0.0008365991525352001,-0.0008993307128548622
1746734439615930600,2.1749306640625,-0.0009313230402767658,0.0011058449745178223,0.00010920828208327293
1746734439625897700,2.184897705078125,0.00013006245717406273,-0.0005036396905779839,-0.000929822213947773
1746734439635863600,2.194863525390625,0.0007093001622706652,0.0013898680917918682,-0.0011330214329063892
1746734439645830700,2.20483056640625,0.0008693509735167027,-0.0002495571970939636,0.0007385117933154106
1746734439655797800,2.2147978515625,-0.000828946940600872,-0.0009864536114037037,0.0007337178103625774
1746734439665764600,2.2247646484375,0.0006741085089743137,-0.00057987030595541,0.0005592056550085545
1746734439675730700,2.234730712890625,0.0008014077320694923,-0.0004259394481778145,-0.000018966849893331528
1746734439685697500,2.244697509765625,-0.0008154558017849922,0.0005162032321095467,0.001012618187814951
1746734439695664600,2.25466455078125,-0.00018268870189785957,-0.0010433439165353775,-0.0005229604430496693
1746734439705631700,2.2646318359375,-0.00023344159126281738,0.0008393498137593269,0.000852550845593214
1746734439715597600,2.27459765625,-0.00014289375394582748,-0.0012083547189831734,0.001741513842716813
1746734439725564700,2.284564697265625,-0.00006428733468055725,-0.0002336660400032997,-0.00007433677092194557
1746734439735531500,2.294531494140625,-0.0005678911693394184,0.0010718153789639473,0.00005562556907534599
1746734439745498600,2.30449853515625,0.0003695639315992594,-0.0006400784477591515,0.000803390983492136
1746734439755465500,2.314465576171875,-0.0010831905528903008,-0.0000549820251762867,-0.0008152779191732407
1746734439765431600,2.324431640625,-0.00020872149616479874,0.0003755660727620125,0.0012165200896561146
1746734439775398700,2.334398681640625,-0.0013730558566749096,-0.000264924019575119,-0.0003086719661951065
1746734439785365500,2.344365478515625,0.0001416187733411789,-0.0005684895440936089,-0.0012248363345861435
1746734439795332600,2.35433251953125,-0.0014112703502178192,-0.00031575560569763184,-0.0007334831170737743
1746734439805298700,2.364298583984375,0.0004159242380410433,-0.00043651415035128593,0.0006405944004654884
1746734439815265500,2.374265625,-0.0004975399933755398,-0.0002479623071849346,0.0006352681666612625
1746734439825232400,2.384232421875,-0.0010790051892399788,-0.0009886985644698143,-0.0010393508709967136
1746734439835199500,2.394199462890625,-0.0005453075282275677,0.00023049674928188324,-0.002020459622144699
1746734439845165800,2.404165771484375,0.0015219305641949177,-0.001719172578305006,-0.0005186516791582108
1746734439855132700,2.414132568359375,0.00012696674093604088,-0.001207313034683466,-0.0005237115547060966
1746734439865099800,2.424099853515625,-0.0003798883408308029,0.00030859047546982765,-0.0009411959908902645
1746734439875066600,2.434066650390625,0.0007410359103232622,-0.00037770625203847885,0.001059104222804308
1746734439885033700,2.44403369140625,0.0001436078455299139,-0.00042710080742836,-0.0000490676611661911
1746734439894999800,2.453999755859375,0.0002639826852828264,-0.0004060622304677963,-0.002203298732638359
1746734439904966700,2.463966552734375,0.00018885917961597443,-0.0003562900237739086,-0.0004282761365175247
1746734439914933800,2.473933837890625,-0.0007935808971524239,0.0012461338192224503,-0.000043715815991163254
1746734439924900600,2.483900634765625,-0.0012743757106363773,0.0006039673462510109,0.0004992689937353134
1746734439934866700,2.49386669921875,-0.0006019272841513157,0.0014591086655855179,-0.00019075581803917885
1746734439944833500,2.50383349609375,-0.0014471267350018024,0.0009393533691763878,0.0007893769070506096
1746734439954800600,2.513800537109375,-0.000038314610719680786,0.0012224470265209675,0.000023984815925359726
1746734439964767700,2.523767822265625,0.00043514627031981945,0.00004729628562927246,-0.0009596310555934906
1746734439974734600,2.533734619140625,0.0003605776000767946,0.0006840578280389309,0.00045903492718935013
1746734439984700700,2.54370068359375,-0.00009943032637238503,-0.0004863613285124302,-0.00008208630606532097
1746734439994667500,2.55366748046875,0.000576480058953166,0.0009086020290851593,-0.0008059334941208363
1746734440004634600,2.563634521484375,0.0001796451397240162,-0.0008800206705927849,-0.0009228857234120369
1746734440014601500,2.5736015625,0.0005551509093493223,0.0009373207576572895,-0.00031355442479252815
1746734440024567600,2.583567626953125,0.0007691702339798212,0.00023240968585014343,-0.00030860258266329765
1746734440034534700,2.59353466796875,-0.0007794578559696674,-0.0005574836395680904,-0.00007637497037649155
1746734440044501500,2.60350146484375,-0.0005042301490902901,0.0008483552373945713,0.00017460854724049568
1746734440054468600,2.613468505859375,-0.0005740048363804817,-0.0008592638187110424,0.00012986734509468079
1746734440064434400,2.623434326171875,0.00032292725518345833,-0.0015736299101263285,-0.0008574840612709522
1746734440074401500,2.633401611328125,-0.002714940346777439,-0.00018985150381922722,-0.001214614138007164
1746734440084368400,2.643368408203125,-0.000849124975502491,-0.0009414255619049072,0.0012153605930507183
1746734440094335500,2.65333544921875,0.00012718955986201763,-0.0011038784869015217,-0.0000072964467108249664
1746734440104302600,2.663302490234375,-0.0008409530855715275,0.00021714018657803535,-0.0003480049781501293
1746734440114268400,2.673268310546875,0.0008360391948372126,0.000870946329087019,-0.0016612098552286625
1746734440124235500,2.683235595703125,0.000437325332313776,-0.0006787874735891819,-0.0013507879339158535
1746734440134202400,2.693202392578125,-0.0012961262837052345,-0.00039729150012135506,0.00010968977585434914
1746734440144169500,2.70316943359375,0.0008451060857623816,0.0008773831650614738,-0.0006184428930282593
1746734440154135600,2.713135498046875,0.00004695681855082512,0.00012690434232354164,-0.0013116635382175446
1746734440164102700,2.7231025390625,-0.000587820541113615,0.0013416619040071964,-0.0009680106304585934
1746734440174069800,2.73306982421875,-0.002515416592359543,-0.00037874002009630203,-0.0004614773206412792
1746734440184036600,2.74303662109375,0.0006110849790275097,0.000612801406532526,-0.0001448076218366623
1746734440194002700,2.753002685546875,0.0003072184044867754,-0.0005917465314269066,0.0003337622620165348
1746734440203969500,2.762969482421875,0.0011083092540502548,-0.00001558801159262657,-0.0015185251832008362
1746734440213936600,2.7729365234375,0.0009882007725536823,0.00026351120322942734,0.0007334435358643532
1746734440223903700,2.78290380859375,-0.0010167025029659271,0.00003348570317029953,-0.0007695714011788368
1746734440233870600,2.79287060546875,-0.001317107118666172,0.0008952845819294453,0.0006597475148737431
1746734440243836700,2.802836669921875,-0.00017741648480296135,0.00014507956802845,0.00005170004442334175
1746734440253803500,2.812803466796875,-0.00004958454519510269,-0.0002543944865465164,0.00020429911091923714
1746734440263770600,2.8227705078125,-0.001026134006679058,-0.000966120045632124,0.0004647066816687584
1746734440273737700,2.83273779296875,0.0014066635631024837,-0.000921378843486309,-0.000235704705119133
1746734440283703600,2.84270361328125,-0.0008959844708442688,0.0005140937864780426,-0.0016807219944894314
1746734440293670700,2.852670654296875,0.0005612969398498535,0.001421965193003416,0.0013656681403517723
1746734440303637500,2.862637451171875,-0.0010556080378592014,-0.000656613614410162,-0.00017330842092633247
1746734440313604600,2.8726044921875,0.0004903569351881742,-0.00020041409879922867,0.0009920909069478512
1746734440323570400,2.8825703125,0.0009881951846182346,0.0008460450917482376,-0.0004856465384364128
1746734440333537500,2.89253759765625,0.0005623558536171913,0.0001727980561554432,0.0014986749738454819
1746734440343504600,2.902504638671875,-0.00031179655343294144,0.00013542408123612404,0.00021742377430200577
1746734440353471500,2.912471435546875,0.00027543026953935623,-0.00016391510143876076,0.0024355705827474594
1746734440363438600,2.9224384765625,0.0009296259377151728,0.001321201678365469,0.0005451724864542484
1746734440373404400,2.932404296875,-0.0004400378093123436,-0.0005880184471607208,0.0005819238722324371
1746734440383371500,2.94237158203125,0.00028030225075781345,-0.00007484341040253639,-0.0006142710335552692
1746734440393338600,2.952338623046875,-0.000542081892490387,0.00021357648074626923,0.0004145079292356968
1746734440403305500,2.962305419921875,0.00005424395203590393,-0.001001844648271799,0.000821063295006752
1746734440413271600,2.972271484375,-0.00009968690574169159,0.0006370646879076958,-0.0006151795387268066
1746734440423238400,2.98223828125,-0.0005676364526152611,-0.00012138299643993378,-0.0003831842914223671
1746734440433205500,2.99220556640625,0.0013248058967292309,-0.0007227249443531036,0.0001646280288696289
1746734440443172600,3.002172607421875,0.0011581527069211006,0.0003763847053050995,0.0000376715324819088
1746734440453139500,3.012139404296875,-0.0016866358928382397,0.0017164871096611023,-0.00012238463386893272
1746734440463105800,3.022105712890625,-0.0001652045175433159,-0.00017969682812690735,-0.0009482367895543575
1746734440473072600,3.03207275390625,0.002371189882978797,-0.00015919050201773643,-0.000044626183807849884
1746734440483039700,3.042039794921875,-0.0001687919721007347,0.0004126443527638912,0.00043237442150712013
1746734440493006600,3.052006591796875,-0.0010630814358592033,-0.000030239112675189972,0.0007767211645841599
1746734440502972700,3.06197265625,-0.00022850790992379189,-0.0011153416708111763,0.0006390437483787537
1746734440512939800,3.071939697265625,0.00018161884509027004,-0.0010761930607259274,-0.0007093143649399281
1746734440522906600,3.08190673828125,0.00030325562693178654,-0.00046249059960246086,0.00041013816371560097
1746734440532873700,3.091873779296875,0.0004625124856829643,0.0008291425183415413,-0.000025288667529821396
1746734440542839600,3.101839599609375,0.000015247147530317307,-0.001239328645169735,-0.000829129945486784
1746734440552806700,3.111806640625,0.0002096579410135746,-0.0009338641539216042,0.00022388435900211334
1746734440562773500,3.1217734375,0.0007410545367747545,-0.000818176195025444,-0.000571585725992918
1746734440572740600,3.13174072265625,0.0005240070167928934,-0.000888217706233263,0.0005522682331502438
1746734440582707700,3.141707763671875,0.001816044095903635,-0.0003932858817279339,-0.00029338477179408073
1746734440592673500,3.151673583984375,-0.0001349877566099167,0.0018320512026548386,0.0008341977372765541
1746734440602640600,3.161640625,0.0013481732457876205,-0.001460748491808772,0.0009546391665935516
1746734440612607500,3.171607421875,-0.00003453996032476425,0.00019254162907600403,-0.00035483716055750847
1746734440622574600,3.18157470703125,0.00037078303284943104,0.0011409097351133823,0.00005373544991016388
1746734440632540400,3.19154052734375,0.00040939892642199993,-0.0006125154905021191,0.0008601406589150429
1746734440642507500,3.201507568359375,-0.0000813482329249382,-0.0014919284731149673,-0.000806011725217104
1746734440652474600,3.211474609375,-0.00018654298037290573,0.0008644363842904568,-0.00048723118379712105
1746734440662441500,3.22144140625,0.0003789020702242851,0.000020301900804042816,-0.0005429191514849663
1746734440672408600,3.23140869140625,-0.00017077429220080376,-0.0006947568617761135,0.0009316732175648212
1746734440682374400,3.24137451171875,-0.0003899098373949528,0.00021112943068146706,-0.0006177937611937523
1746734440692341500,3.251341552734375,0.0016332939267158508,0.0002510766498744488,0.000392343383282423
1746734440702308600,3.26130859375,0.0012356117367744446,0.0006416388787329197,0.0006411238573491573
1746734440712275500,3.271275390625,0.00043906038627028465,-0.0003314800560474396,0.00016281986609101295
1746734440722241500,3.281241455078125,-0.00041069742292165756,-0.0009045838378369808,-0.00023654010146856308
1746734440732208400,3.29120849609375,-0.0009036487899720669,-0.0005216216668486595,0.0008676066063344479
1746734440742175500,3.301175537109375,0.00015807547606527805,0.0005422495305538177,-0.0009226496331393719
1746734440752142600,3.311142578125,-0.0008272943086922169,-0.0012348778545856476,0.0008520809933543205
1746734440762108700,3.321108642578125,0.0013152738101780415,0.0011234497651457787,-0.0007949271239340305
1746734440772075800,3.33107568359375,0.0014580192510038614,0.00023448653519153595,0.0002714027650654316
1746734440782042600,3.341042724609375,0.0013052003923803568,-0.0005974997766315937,-0.00096533028408885
1746734440792009500,3.351009521484375,0.0013179834932088852,-0.000007876195013523102,0.00023282598704099655
1746734440801976600,3.3609765625,0.0004346938803792,-0.000053019728511571884,0.0001516127958893776
1746734440811942700,3.370942626953125,0.0009297756478190422,-0.0007459744811058044,-0.00009499583393335342
1746734440821909800,3.38090966796875,-0.0009194477461278439,-0.0008112932555377483,0.00004848139360547066
1746734440831876600,3.390876708984375,0.00020733592100441456,-0.00035722460597753525,0.00004208972677588463
1746734440841843700,3.40084375,-0.0011112913489341736,0.00023150723427534103,0.0009254808537662029
1746734440851809500,3.4108095703125,0.00017608050256967545,-0.0006779623217880726,0.000615488737821579
1746734440861776600,3.420776611328125,-0.0006951577961444855,0.001152409240603447,0.0004958165809512138
1746734440871743700,3.43074365234375,-0.0008746548555791378,-0.00008622696623206139,-0.0005840952508151531
1746734440881710600,3.440710693359375,-0.00018703099340200424,-0.0008951514028012753,-0.0009722495451569557
1746734440891677700,3.450677734375,0.0005133806262165308,0.00046119652688503265,0.0008195252157747746
1746734440901643500,3.4606435546875,0.00017288140952587128,0.0003707492724061012,-0.0006225276738405228
1746734440911610600,3.470610595703125,0.0014988693874329329,0.0011678333394229412,-0.001036116387695074
1746734440921577700,3.48057763671875,0.0004266505129635334,-0.0008216621354222298,0.0008458318188786507
1746734440931544600,3.490544677734375,-0.0005283588543534279,-0.0006964933127164841,0.0009853816591203213
1746734440941510700,3.5005107421875,0.00015439768321812153,-0.0009642736986279488,0.0000405176542699337
1746734440951477500,3.5104775390625,-0.0016895751468837261,0.0007745041511952877,0.0002647554501891136
1746734440961444600,3.520444580078125,0.00004108063876628876,0.000006029382348060608,0.0005940403789281845
1746734440971411500,3.530411376953125,-0.00008888170123100281,0.0009908662177622318,0.0004180055111646652
1746734440981377500,3.54037744140625,0.00011742673814296722,0.0006739706732332706,0.0018735637422651052
1746734440991345000,3.550344970703125,0.0005480600520968437,-0.001757761463522911,0.002994754584506154
1746734441001311700,3.560311767578125,-0.000973244197666645,0.0026025190018117428,0.0009147860109806061
1746734441011278800,3.57027880859375,0.0005564754828810692,-0.0008478728123009205,0.0010974789038300514
1746734441021246000,3.580245849609375,-0.0002574184909462929,-0.0011857901699841022,-0.0018091476522386074
1746734441031211800,3.590211669921875,-0.000812155194580555,-0.0013407859951257706,-0.00024347519502043724
1746734441041179000,3.600178955078125,0.0002829208970069885,0.00046328501775860786,0.00018557952716946602
1746734441051145700,3.610145751953125,-0.0015141800977289677,0.001750656869262457,0.0013323368038982153
1746734441061112800,3.62011279296875,0.000531455734744668,-0.0012407945469021797,0.00022791139781475067
1746734441071078700,3.63007861328125,-0.001949544996023178,0.0018841587007045746,0.0014124854933470488
1746734441081045800,3.640045654296875,-0.0011130557395517826,0.0024442849680781364,0.001695346087217331
1746734441091012900,3.650012939453125,-0.0003798874095082283,0.0022663860581815243,0.0008095786906778812
1746734441100979700,3.659979736328125,-0.0010256548412144184,0.0015317853540182114,-0.0010159574449062347
1746734441110946800,3.66994677734375,0.0014161975122988224,-0.0018070198129862547,-0.0010708183981478214
1746734441120913000,3.679912841796875,-0.001239163801074028,-0.00006408942863345146,-0.0015947711654007435
1746734441130880000,3.6898798828125,-0.00046152062714099884,-0.0009751566685736179,-0.0021359254606068134
1746734441140846800,3.699846923828125,0.0007925345562398434,-0.0005350555293262005,0.0006735012866556644
1746734441150813700,3.709813720703125,0.00020450842566788197,-0.0013593039475381374,-0.002160368487238884
1746734441160780000,3.719780029296875,0.0010999746154993773,0.0013587111607193947,0.0017867458518594503
1746734441170747000,3.729746826171875,0.0002711988054215908,0.002488689962774515,0.0026996773667633533
1746734441180714000,3.7397138671875,-0.001985304057598114,0.001629057340323925,0.0025015603750944138
1746734441190681000,3.74968115234375,0.00013004476204514503,-0.00231375265866518,-0.001071603037416935
1746734441200648000,3.75964794921875,0.001420863438397646,-0.0018852639477699995,-0.0022212318144738674
1746734441210614000,3.769614013671875,0.0008565397001802921,0.00021463865414261818,-0.0027163135819137096
1746734441220580900,3.779580810546875,-0.0003763907589018345,0.00005123484879732132,-0.00028422940522432327
1746734441230548000,3.7895478515625,-0.0008416450582444668,-0.00024783797562122345,0.002364018000662327
1746734441240514800,3.799514892578125,-0.00026906467974185944,-0.00016563618555665016,0.000903647392988205
1746734441250481000,3.80948095703125,-0.0016299402341246605,-0.0006282273679971695,0.0005622301250696182
1746734441260448000,3.819447998046875,-0.0008108252659440041,0.00044341757893562317,0.0007029082626104355
1746734441270414800,3.829414794921875,0.00035137799568474293,0.00018535740673542023,-0.0019285609014332294
1746734441280382000,3.8393818359375,0.0015054864343255758,0.00028384802863001823,-0.0009314459748566151
1746734441290348800,3.849348876953125,-0.0002772337757050991,-0.0014400160871446133,-0.0018891184590756893
1746734441300315000,3.85931494140625,-0.0015674764290452003,-0.0003256644122302532,0.001023904886096716
1746734441310282000,3.869281982421875,-0.0025778799317777157,0.00004850979894399643,-0.00014815200120210648
1746734441320248800,3.879248779296875,0.00028827786445617676,0.0006211311556398869,0.0008545061573386192
1746734441330216000,3.8892158203125,-0.00029415544122457504,0.000562008935958147,-0.00129253463819623
1746734441340181800,3.899181640625,-0.00152910640463233,-0.0005655898712575436,-0.0017637559212744236
1746734441350148900,3.90914892578125,-0.0006260285153985023,-0.0005107289180159569,-0.00005720229819417
1746734441360115700,3.91911572265625,0.0002717329189181328,-0.0006568944081664085,0.00005633058026432991
1746734441370082800,3.929082763671875,-0.000898194033652544,0.0005572405643761158,-0.0004275660030543804
1746734441380049000,3.939048828125,0.0004030033014714718,-0.002240245696157217,-0.0009529860690236092
1746734441390015700,3.949015625,0.0007361648604273796,0.00031718797981739044,-0.0015005320310592651
1746734441399982800,3.95898291015625,0.0009311328176409006,-0.0000750906765460968,-0.00002486538141965866
1746734441409949700,3.96894970703125,-0.0002638273872435093,0.0007954966276884079,-0.0002991710789501667
1746734441419916800,3.978916748046875,-0.0009248508140444756,-0.00004369858652353287,-0.0003510173410177231
1746734441429883000,3.9888828125,0.0008586684707552195,-0.0007318593561649323,-0.0014261351898312569
1746734441439849700,3.998849609375,0.0018661287613213062,0.0024008918553590775,0.0011748666875064373
1746734441449816800,4.00881689453125,0.0011846257839351892,-0.0002950257621705532,0.0003194594755768776
1746734441459783700,4.01878369140625,0.0000796811655163765,-0.0008245031349360943,-0.000836874358355999
1746734441469750000,4.02875,0.0011153845116496086,0.0001294407993555069,-0.0011543231084942818
1746734441479716900,4.038716796875,0.0007102268282324076,0.0014030109159648418,0.0010718666017055511
1746734441489684000,4.04868408203125,-0.0014466671273112297,0.00019713165238499641,-0.00040245940908789635
1746734441499651000,4.058651123046875,0.0004916205070912838,0.0007281173020601273,0.00034662336111068726
1746734441509618000,4.068617919921875,0.00006471574306488037,-0.0003251628950238228,9.44826751947403e-7
1746734441519584000,4.078583984375,-0.0008372333832085133,0.0005496288649737835,-0.00018375180661678314
1746734441529550800,4.08855078125,-0.0021264697425067425,-0.00013293931260704994,-0.0004162457771599293
1746734441539518000,4.09851806640625,0.000734592555090785,0.0016050566919147968,0.0016408038791269064
1746734441549485000,4.108485107421875,-0.0009735589846968651,0.000766959972679615,0.0018605147488415241
1746734441559451000,4.118450927734375,0.00016624131239950657,0.0011590016074478626,-0.0010815751738846302
1746734441569418000,4.12841796875,0.0005017996300011873,0.0006905519403517246,-0.001125783659517765
1746734441579384800,4.138384765625,-0.00019407086074352264,0.0006336662918329239,-0.0004492090083658695
1746734441589352000,4.14835205078125,-0.0004348205402493477,-0.0006433194503188133,0.0002892855554819107
1746734441599319000,4.158319091796875,-0.0017241332679986954,-0.0011845855042338371,-0.0007220599800348282
1746734441609284900,4.168284912109375,0.00025033438578248024,0.0016562086530029774,-0.001051492989063263
1746734441619252000,4.178251953125,-0.002512633800506592,-0.0008504041470587254,-0.0007666703313589096
1746734441629218800,4.18821875,-0.0005371007137000561,0.0002976846881210804,-0.0008052862249314785
1746734441639186000,4.19818603515625,0.00022024358622729778,-0.0009121806360781193,-0.0008114874362945557
1746734441649151700,4.20815185546875,-0.00043622590601444244,0.000559481792151928,0.0014018658548593521
1746734441659118800,4.218118896484375,-0.0016940617933869362,-0.0012744851410388947,0.0004247254692018032
1746734441669086000,4.2280859375,0.00023752893321216106,0.0003513745032250881,-0.000047186389565467834
1746734441679052800,4.238052734375,0.0009797732345759869,0.000486662145704031,-0.00001578405499458313
1746734441689020000,4.24802001953125,-0.00011478597298264503,-0.0003777998499572277,-0.0008035469800233841
1746734441698985700,4.25798583984375,0.0010655620135366917,-0.0004959269426763058,0.0006167739629745483
1746734441708952800,4.267952880859375,0.0005499739199876785,-0.0007587810978293419,-0.0002522156573832035
1746734441718920000,4.277919921875,0.00006689061410725117,-0.00037520891055464745,0.0008165854960680008
1746734441728886800,4.28788671875,-0.00008464325219392776,-0.0008777473121881485,0.0002615824341773987
1746734441738852900,4.297852783203125,-0.001139604952186346,-0.00009644078090786934,0.0003043501637876034
1746734441748819700,4.30781982421875,-0.0005220174789428711,-0.00004024803638458252,-0.0010972712188959122
1746734441758786800,4.317786865234375,-0.0005171904340386391,0.0003945608623325825,0.0007734722457826138
1746734441768753700,4.327753662109375,-0.000559268519282341,-0.00006376905366778374,-0.0001138933002948761
1746734441778720000,4.337719970703125,0.0014633468817919493,-0.000738990493118763,0.00037456024438142776
1746734441788687000,4.34768701171875,-0.0005627861246466637,0.0013617109507322311,-0.0011596865952014923
1746734441798654000,4.357654052734375,-0.00035476498305797577,0.00004742620512843132,0.0007106014527380466
1746734441808621000,4.36762109375,-0.0015417360700666904,-0.00026096776127815247,-0.0010532098822295666
1746734441818588000,4.377587890625,0.00013450603000819683,-0.00011699646711349487,-0.00039157643914222717
1746734441828554000,4.387553955078125,0.00046207476407289505,0.0003551822155714035,-0.0010304688476026058
1746734441838520800,4.397520751953125,-0.00043016672134399414,0.000985391903668642,-0.0020673656836152077
1746734441848488000,4.407488037109375,-0.00034388015046715736,0.00022878777235746384,-0.0014335336163640022
1746734441858455000,4.417455078125,0.000612365547567606,0.0003586234524846077,-0.000827237032353878
1746734441868420900,4.4274208984375,-0.0005114884115755558,0.00022147083654999733,-0.0014578737318515778
1746734441878388000,4.437387939453125,0.0008986685425043106,-0.0005995184183120728,0.0011918230447918177
1746734441888354800,4.447354736328125,0.0007442052010446787,0.0009962478652596474,-0.0005429601296782494
1746734441898322000,4.457322021484375,-0.0009368397295475006,-0.0004093875177204609,0.000357222743332386
1746734441908289000,4.4672890625,0.00145041779614985,-0.0008472115732729435,-0.0013583856634795666
1746734441918254800,4.4772548828125,-0.00025680288672447205,-0.0011892099864780903,-0.00045232800766825676
1746734441928222000,4.487221923828125,-0.0003193872980773449,-0.001223298255354166,-0.0010392884723842144
1746734441938188800,4.497188720703125,0.0011270137038081884,0.0011347513645887375,-0.00010204315185546875
1746734441948156000,4.507156005859375,-0.0000580931082367897,0.0007858769968152046,-0.0002471855841577053
1746734441958121700,4.517121826171875,0.000053513795137405396,-0.0005658073350787163,-0.0001978832297027111
1746734441968088800,4.5270888671875,0.001167247537523508,-0.00007152464240789413,-0.000270055141299963
1746734441978056000,4.537055908203125,-0.0019482043571770191,0.0009794887155294418,-0.0005317372269928455
1746734441988022800,4.547022705078125,-0.000662696547806263,0.0011693723499774933,-0.0005072364583611488
1746734441997990100,4.556990234375,0.0015247920528054237,-0.0002526012249290943,-0.00026297103613615036
1746734442007956000,4.5669560546875,-0.0015729968436062336,0.0006387592293322086,0.0012129528913646936
1746734442017923000,4.576923095703125,0.0002979128621518612,0.0005279537290334702,0.001325925812125206
1746734442027890000,4.586889892578125,-0.001516764983534813,0.0007572518661618233,-0.0008179186843335629
1746734442037857000,4.59685693359375,-0.0010097743943333626,0.0008193366229534149,-0.001305942889302969
1746734442047823000,4.606822998046875,0.001235270407050848,0.0014289342798292637,-0.00007822597399353981
1746734442057790000,4.6167900390625,-0.0009005684405565262,-0.0001727086491882801,0.0003657182678580284
1746734442067757000,4.626757080078125,-0.0007516979239881039,0.0000187726691365242,-0.0006324341520667076
1746734442077724000,4.636723876953125,0.001045117387548089,0.001670339610427618,-0.00103727076202631
1746734442087691000,4.64669091796875,-0.0007373364642262459,0.0006186575628817081,0.0003393171355128288
1746734442097657000,4.656656982421875,0.00015241862274706364,-0.0003529610112309456,-0.0010525984689593315
1746734442107624000,4.6666240234375,-0.000581015832722187,0.0005991188809275627,0.00031546736136078835
1746734442117591000,4.676591064453125,-0.00012930482625961304,-0.000006367918103933334,-0.000025735702365636826
1746734442127558000,4.686557861328125,0.00045446003787219524,0.0006735371425747871,-0.000012952368706464767
1746734442137524200,4.696524169921875,-0.0001757894642651081,-0.0004574395716190338,-0.0005998597480356693
1746734442147491000,4.706490966796875,-0.0014570364728569984,-0.0007884707301855087,0.00035514961928129196
1746734442157458200,4.716458251953125,-0.0015364591963589191,0.0002184482291340828,0.001302497461438179
1746734442167425300,4.72642529296875,-0.0011913133785128593,0.0007659941911697388,0.0003453576937317848
1746734442177392000,4.73639208984375,-0.0006397999823093414,-0.001062531489878893,-0.0017272154800593853
1746734442187358200,4.746358154296875,0.00010615144856274128,0.0011518867686390877,0.0000669560395181179
1746734442197325000,4.756324951171875,0.0012623339425772429,-0.00029753847047686577,-0.002456394024193287
1746734442207292200,4.766292236328125,-0.0012695332989096642,0.0009890343062579632,0.001750335330143571
1746734442217259300,4.77625927734375,0.0011400515213608742,0.0004728669300675392,0.00021477974951267242
1746734442227225000,4.78622509765625,-0.00009032897651195526,0.0002651400864124298,0.0005996064282953739
1746734442237192200,4.796192138671875,0.00006535742431879044,0.00021253759041428566,0.000014073681086301804
1746734442247159000,4.806158935546875,-0.001672887708991766,0.000016262754797935486,-0.0009555835276842117
1746734442257126100,4.816126220703125,0.0011720163747668266,-0.0003057476133108139,0.0002582971937954426
1746734442267093200,4.82609326171875,0.00003138463944196701,0.001075367908924818,-0.0010612988844513893
1746734442277059000,4.83605908203125,0.0009834403172135353,0.0009885476902127266,0.0013158854562789202
1746734442287026200,4.846026123046875,0.001961885718628764,0.0007022581994533539,-0.0011994699016213417
1746734442296993000,4.855992919921875,0.0007291371002793312,0.001089555211365223,-0.0007165903225541115
1746734442306960100,4.865960205078125,0.00047587044537067413,-0.00025427620857954025,-0.00323380995541811
1746734442316926000,4.875926025390625,-0.0006717382930219173,0.0013975435867905617,-0.0011749123223125935
1746734442326893000,4.88589306640625,0.00013653095811605453,0.00021376833319664001,0.0013971684966236353
1746734442336860200,4.895860107421875,-0.00004808185622096062,0.0000708242878317833,-0.00036167167127132416
1746734442346827000,4.905826904296875,-0.0004795142449438572,0.0015968154184520245,0.0002854764461517334
1746734442356794000,4.915794189453125,0.0009303814731538296,0.0007161512039601803,-0.0012503457255661488
1746734442366760000,4.925760009765625,-0.0007679164409637451,0.00030149705708026886,0.000012524891644716263
1746734442376727000,4.93572705078125,-0.0003467109054327011,-0.0008930964395403862,-0.0015004207380115986
1746734442386694100,4.945694091796875,-0.00034298235550522804,0.00016417820006608963,0.00007217610254883766
1746734442396661000,4.955660888671875,0.000991135137155652,-0.0009334273636341095,-0.0001405719667673111
1746734442406627000,4.965626953125,0.0010590455494821072,0.0008157370612025261,0.0006671645678579807
1746734442416594000,4.975593994140625,0.0013841495383530855,-0.0006439262069761753,-0.0007371269166469574
1746734442426561000,4.98556103515625,-0.0005775350145995617,0.0006820615381002426,-0.001070554368197918
1746734442436527900,4.99552783203125,0.0006889933720231056,0.0002050013281404972,-0.000003832858055830002
1746734442446495000,5.005494873046875,0.0010498515330255032,-0.0002429424785077572,0.0007924521341919899
1746734442456461300,5.01546142578125,-0.00032566627487540245,-0.000609405804425478,-0.0009122067131102085
1746734442466428200,5.02542822265625,-0.001954189036041498,-0.0008632051758468151,-0.0015297937206923962
1746734442476395000,5.03539501953125,-0.002101524267345667,0.00003267591819167137,-0.00017886236310005188
1746734442486361900,5.04536181640625,-0.0010391892865300179,-0.0007745278999209404,-0.0001351865939795971
1746734442496328200,5.055328125,-0.0008745677769184113,-0.0011922279372811317,-0.0009950264357030392
1746734442506295000,5.065294921875,-0.0004410054534673691,-0.0009887623600661755,-0.0007172585465013981
1746734442516262100,5.07526220703125,0.0010824052151292562,-0.0013352432288229465,-0.0010388237424194813
1746734442526229200,5.085229248046875,0.0005218097940087318,-0.0022284674923866987,0.000980384647846222
1746734442536196000,5.095196044921875,0.0004146017599850893,0.0010283398441970348,0.00017899926751852036
1746734442546162200,5.105162109375,-0.0010533328168094158,0.00013538217172026634,-0.00006627803668379784
1746734442556129000,5.11512890625,-0.0009684348478913307,-0.0011305883526802063,0.00011804886162281036
1746734442566096100,5.12509619140625,0.00021241093054413795,-0.00015587126836180687,0.0005473503842949867
1746734442576063200,5.135063232421875,-0.00017579365521669388,-0.0005319984629750252,-0.00009753182530403137
1746734442586029000,5.145029052734375,0.000021546613425016403,0.0017191716469824314,0.0021720139775425196
1746734442595996200,5.15499609375,-0.0008210400119423866,-0.001293540932238102,-0.0017692712135612965
1746734442605963000,5.164962890625,0.0009520924650132656,-0.0004306766204535961,-0.0001721736043691635
1746734442615930000,5.17493017578125,0.0008277264423668385,0.0007314016111195087,-0.0014565144665539265
1746734442625897200,5.184897216796875,0.00010467832908034325,-0.00022067874670028687,0.00004843762144446373
1746734442635863000,5.194863037109375,0.00006353668868541718,0.0003717890940606594,-0.00043144915252923965
1746734442645830100,5.204830078125,-0.0014254366979002953,-0.000621037557721138,0.0019257145468145609
1746734442655797000,5.214796875,-0.00014746468514204025,-0.00040049152448773384,-0.0008342703804373741
1746734442665764000,5.22476416015625,-0.000987958163022995,-0.0001648017205297947,-0.0011453274637460709
1746734442675730000,5.23472998046875,0.00026376801542937756,-0.0009630410932004452,-0.0003512054681777954
1746734442685697000,5.244697021484375,-0.00004063127562403679,-0.0020735792350023985,-0.0012481585144996643
1746734442695664000,5.2546640625,-0.0015148655511438847,-0.0003064465709030628,0.000031789764761924744
1746734442705631000,5.264630859375,0.00006518792361021042,0.00019555911421775818,-0.0007168245501816273
1746734442715598000,5.27459814453125,0.0009576382581144571,-0.00024667009711265564,-0.0006345496512949467
1746734442725564000,5.28456396484375,-0.0009459890425205231,-0.0005241716280579567,0.00008849846199154854
1746734442735531000,5.294531005859375,-0.0004942789673805237,-0.0007815547287464142,0.0001103677786886692
1746734442745498000,5.304498046875,0.0009949607774615288,0.0010054265148937702,-0.0015615648590028286
1746734442755465000,5.31446484375,-0.0009887497872114182,0.00004524970427155495,0.00012173084542155266
1746734442765432000,5.32443212890625,-0.00031363824382424355,-0.0005249329842627048,0.0016115030739456415
1746734442775398000,5.33439794921875,0.0004860514309257269,-0.00020472193136811256,-0.00006544729694724083
1746734442785365000,5.344364990234375,0.000593643169850111,-0.0001775575801730156,-0.0015243273228406906
1746734442795332000,5.35433203125,-0.0010867966338992119,0.000374441035091877,-0.0011505372822284698
1746734442805299000,5.364298828125,-0.0005914485082030296,-0.001195225864648819,-0.0008788947016000748
1746734442815265300,5.374265380859375,-0.000037264544516801834,-0.0002602068707346916,-0.0017546066083014011
1746734442825232100,5.384232177734375,0.0017001815140247345,-0.0004543513059616089,0.0013362583704292774
1746734442835199200,5.39419921875,0.00007891794666647911,-0.0003789071924984455,-0.0007023359648883343
1746734442845166000,5.404166015625,0.0016118334606289864,0.00009140698239207268,-0.0017388379201292992
1746734442855132200,5.414132080078125,0.0021173013374209404,-0.0015395402442663908,-0.00007714005187153816
1746734442865099300,5.424099365234375,-0.0009682369418442249,0.00013159355148673058,0.0011801382061094046
1746734442875066000,5.434066162109375,-0.0008069714531302452,-0.00014105020090937614,0.0003476245328783989
1746734442885033200,5.444033203125,-0.0005683521740138531,0.001123418565839529,0.0009846524335443974
1746734442895000000,5.454,-0.0009170365519821644,0.0011648554354906082,0.0005095857195556164
1746734442904966100,5.463966064453125,0.0003639440983533859,-0.0003656633198261261,0.000012373551726341248
1746734442914933000,5.47393310546875,0.00015706405974924564,0.0007141847163438797,0.0003114640712738037
1746734442924900000,5.483900146484375,0.00046892021782696247,0.00030725402757525444,-0.0009804354049265385
1746734442934867200,5.4938671875,0.0013973824679851532,-0.00012397347018122673,0.0005408935248851776
1746734442944834000,5.503833984375,-0.0010822867043316364,-0.0003263736143708229,-0.0003336886875331402
1746734442954800000,5.513800048828125,0.00100444327108562,-0.0005710544064640999,0.0001290976069867611
1746734442964767000,5.52376708984375,-0.00011142110452055931,-0.00041073234751820564,0.000007124617695808411
1746734442974734000,5.533734130859375,-0.0008036922663450241,0.00005561625584959984,0.00042297691106796265
1746734442984701200,5.543701171875,-0.0003637378104031086,-0.0005356054753065109,-0.00033975252881646156
1746734442994666800,5.553666748046875,-0.00018515530973672867,-0.00018091639503836632,-0.000526148360222578
1746734443004633600,5.563633544921875,-0.00042830174788832664,0.0014822278171777725,0.0004762653261423111
1746734443014600700,5.5736005859375,-0.00004937220364809036,0.0005186740309000015,-0.0007392824627459049
1746734443024567800,5.58356787109375,-0.0009513846598565578,-0.0015719071961939335,-0.0017731213010847569
1746734443034534700,5.59353466796875,0.0004682210274040699,0.0005776118487119675,-0.0007099700160324574
1746734443044500700,5.603500732421875,-0.001092657446861267,0.0006101024337112904,-0.00044125737622380257
1746734443054467600,5.613467529296875,-0.0010415553115308285,-0.0001826356165111065,-0.0015378906391561031
1746734443064434700,5.6234345703125,-0.0015315767377614975,-0.0010447008535265923,-0.0010550599545240402
1746734443074401800,5.63340185546875,-0.000192323699593544,-0.0016602105461061,-0.00020172912627458572
1746734443084368000,5.643367919921875,0.001146713737398386,-0.001146220602095127,0.0010930998250842094
1746734443094334700,5.653334716796875,-0.0004096119664609432,-0.0010695713572204113,0.00019529461860656738
1746734443104301600,5.663301513671875,-0.0008767303079366684,-0.0003356044180691242,-0.00016449857503175735
1746734443114268700,5.6732685546875,-0.0005800342187285423,0.0006140084005892277,0.0007136906497180462
1746734443124235500,5.683235595703125,0.0009906983468681574,-0.0003846772015094757,-0.00038033584132790565
1746734443134201900,5.693201904296875,-0.00021544378250837326,-0.0005116453394293785,-0.001187964342534542
1746734443144169000,5.7031689453125,0.00015207240357995033,0.0008425717242062092,-0.0002707717940211296
1746734443154135800,5.7131357421875,-0.0002228948287665844,0.0009908974170684814,-0.0005040271207690239
1746734443164103000,5.72310302734375,0.001515083946287632,-0.0003516017459332943,-0.0012438534758985043
1746734443174068700,5.73306884765625,-0.001557838637381792,-0.0009993729181587696,-0.0010114987380802631
1746734443184035800,5.743035888671875,0.0011260949540883303,-0.0013104300014674664,-0.0023452099412679672
1746734443194003000,5.7530029296875,-0.0005007297731935978,0.0007479842752218246,-0.0003382395952939987
1746734443203969800,5.7629697265625,-0.000207515899091959,0.0006214841268956661,0.00015923893079161644
1746734443213937000,5.77293701171875,-0.0007206955924630165,-0.00031546084210276604,0.0007993639446794987
1746734443223902700,5.78290283203125,-0.001334021333605051,-0.0014156126417219639,0.00022278958931565285
1746734443233869800,5.792869873046875,0.0004223487339913845,-0.0008038440719246864,-0.0006165443919599056
1746734443243836700,5.802836669921875,-0.0005158828571438789,0.0006622262299060822,-0.0009987079538404942
1746734443253803800,5.8128037109375,-0.0001552356407046318,0.0010204138234257698,0.0003429902717471123
1746734443263769900,5.822769775390625,0.001631479011848569,0.0006446419283747673,-0.00046261586248874664
1746734443273736700,5.83273681640625,-0.0009600468911230564,0.00025218306109309196,-0.00020986003801226616
1746734443283703800,5.842703857421875,0.000571537297219038,0.0006556520238518715,-0.0003744433633983135
1746734443293670700,5.852670654296875,0.0010976095218211412,-0.0002449159510433674,0.0005523161962628365
1746734443303637800,5.8626376953125,-0.00031599635258316994,0.00028079189360141754,0.0011685716453939676
1746734443313603600,5.872603515625,-0.000362662598490715,0.00025595957413315773,0.0003852015361189842
1746734443323570700,5.88257080078125,-0.001726733986288309,-0.0009712250903248787,-0.0005309255793690681
1746734443333537800,5.892537841796875,0.000518640736117959,0.00011952361091971397,0.00013377144932746887
1746734443343504600,5.902504638671875,0.0006121178157627583,0.00020101666450500488,-0.001492620911449194
1746734443353471700,5.9124716796875,-0.0006598019972443581,0.00020933989435434341,0.00024964241310954094
1746734443363437600,5.9224375,-0.0008105365559458733,0.001341183204203844,-0.0011905948631465435
1746734443373404700,5.93240478515625,0.0002967792097479105,0.0008658808656036854,-0.0007945667020976543
1746734443383371800,5.942371826171875,0.0013314173556864262,0.0014725485816597939,0.00011570146307349205
1746734443393338600,5.952338623046875,-0.00030300673097372055,-0.0005733915604650974,0.0004233289510011673
1746734443403304700,5.9623046875,-0.0008119367994368076,-0.00032305438071489334,0.0004254593513906002
1746734443413271600,5.972271484375,0.0008550591301172972,-0.0004195971414446831,0.0005812980234622955
1746734443423238700,5.98223876953125,-0.0007249941118061543,-0.0003402344882488251,-0.0012062154710292816
1746734443433205800,5.992205810546875,-0.0008006002753973007,0.0008500977419316769,-0.0003338530659675598
1746734443443172600,6.002172607421875,0.0009333835914731026,-0.00043700821697711945,0.00005789799615740776
1746734443453139000,6.012138916015625,0.000046168453991413116,-0.000298504251986742,0.00013427622616291046
1746734443463105800,6.022105712890625,0.0015806818846613169,-0.00037600239738821983,-0.00015574181452393532
1746734443473072600,6.03207275390625,0.001543043414130807,-0.0000878646969795227,-0.00015482259914278984
1746734443483039700,6.042039794921875,0.00027404725551605225,0.000009340699762105942,-0.0000035553239285945892
1746734443493006600,6.052006591796875,-0.0009481813758611679,0.0004191226325929165,0.0009340974502265453
1746734443502973000,6.061972900390625,-0.00012473156675696373,-0.00010125897824764252,-0.00034075789153575897
1746734443512939800,6.071939697265625,0.000337403966113925,-0.0011973348446190357,-0.0012717223726212978
1746734443522907000,6.081906982421875,0.0019451542757451534,0.00013291416689753532,-0.0010690554045140743
1746734443532873700,6.091873779296875,-0.0013717412948608398,-0.000285993330180645,0.0003335378132760525
1746734443542839800,6.10183984375,-0.00022125570103526115,-0.00000769319012761116,-0.0012118946760892868
1746734443552807000,6.111806884765625,0.0001330894883722067,-0.0013038096949458122,-0.00023929262533783913
1746734443562773800,6.121773681640625,-0.0005388259887695312,-0.0005722395144402981,-0.00035860249772667885
1746734443572740900,6.131740966796875,-0.0018850266933441162,-0.00016049854457378387,0.00024967407807707787
1746734443582707700,6.141707763671875,-0.0016687777824699879,-0.00013706274330615997,0.000208395067602396
1746734443592673800,6.151673828125,0.000678530428558588,-0.0008416413329541683,0.00002191169187426567
1746734443602641000,6.161640869140625,-0.0010850150138139725,0.00007821433246135712,-0.0012167245149612427
1746734443612607700,6.171607666015625,0.0016051139682531357,-0.0012505385093390942,-0.0009224391542375088
1746734443622574800,6.181574951171875,-0.00041223037987947464,-0.0012614578008651733,0.0003074086271226406
1746734443632540700,6.191540771484375,-0.0001973290927708149,-0.0010828953236341476,0.0018889231141656637
1746734443642507800,6.2015078125,0.0015166811645030975,0.00016452930867671967,-0.00039740046486258507
1746734443652474600,6.211474609375,0.000851538497954607,-0.0009730695746839046,-0.0010022534988820553
1746734443662441700,6.221441650390625,-0.0013564880937337875,0.0005015227943658829,0.00002359645441174507
1746734443672408800,6.231408935546875,0.000801152316853404,-0.001210321206599474,-0.00003308989107608795
1746734443682374700,6.241374755859375,-0.0006713094189763069,0.0006379126571118832,-0.0002972758375108242
1746734443692341800,6.251341796875,-0.000042655039578676224,-0.00024920515716075897,0.0006633740849792957
1746734443702308600,6.26130859375,0.00029396871104836464,-0.0004167179577052593,-0.0018953909166157246
1746734443712275700,6.271275634765625,0.00045724515803158283,-0.0011746850796043873,-0.0031756628304719925
1746734443722242800,6.281242919921875,0.001218909164890647,-0.0008836016058921814,-0.0012211687862873077
1746734443732208600,6.291208740234375,-0.00008357036858797073,-0.001614079112187028,-0.0009947544895112514
1746734443742175700,6.30117578125,-0.0002694586291909218,-0.001884656259790063,-0.0018930388614535332
1746734443752142600,6.311142578125,0.0014635191764682531,0.001574855763465166,-0.00041902437806129456
1746734443762109700,6.321109619140625,0.000042723026126623154,0.0006073289550840855,-0.0001029069535434246
1746734443772075800,6.33107568359375,0.0007081872317939997,0.0008485927246510983,-0.0002720644697546959
1746734443782042600,6.341042724609375,0.0006053892429918051,-0.0011256085708737373,0.0006946627981960773
1746734443792009700,6.351009765625,-0.0006776629015803337,0.0007969220168888569,0.0008898111991584301
1746734443801976600,6.3609765625,-0.003082497511059046,-0.0017293526325374842,0.0018426903989166021
1746734443811943700,6.370943603515625,0.0016162917017936707,-0.0009928629733622074,-0.0006576646119356155
1746734443821909800,6.38090966796875,-0.0003930632956326008,-0.0017129816114902496,-0.001379115041345358
1746734443831876900,6.390876953125,0.0006822145078331232,-0.0011854488402605057,0.0002972930669784546
1746734443841844000,6.400843994140625,0.002166394144296646,0.0011016740463674068,0.00014389492571353912
1746734443851810800,6.410810791015625,0.001230818685144186,0.0003193095326423645,0.00022994866594672203
1746734443861777000,6.42077685546875,0.00017540808767080307,0.0003946772776544094,-0.0004779193550348282
1746734443871743700,6.43074365234375,0.0003294136840850115,-0.0004571666941046715,-0.00002587912604212761
1746734443881710800,6.4407109375,-0.00026100920513272285,-0.00012294016778469086,-0.0007739611901342869
1746734443891678000,6.450677978515625,-0.0002959826961159706,-0.0008675996214151382,-0.0012247082777321339
1746734443901644800,6.460644775390625,0.0006816638633608818,0.0005204402841627598,-0.001226040069013834
1746734443911611000,6.47061083984375,0.0005292096175253391,0.0004006386734545231,-0.0006966548971831799
1746734443921577700,6.48057763671875,0.001337745226919651,-0.0009644976817071438,0.00004583457484841347
1746734443931544800,6.490544921875,-0.0011383653618395329,-0.0008137859404087067,-0.0007906570099294186
1746734443941511700,6.50051171875,-0.0001785620115697384,-0.00026570726186037064,-0.0005006385035812855
1746734443951478800,6.510478759765625,0.0018091776873916388,0.0009105950593948364,-0.0004131789319217205
1746734443961444900,6.52044482421875,0.0016270172782242298,0.0006738402880728245,0.0007002889178693295
1746734443971411700,6.53041162109375,0.0010429262183606625,0.000838177278637886,0.000891068484634161
1746734443981378800,6.54037890625,0.000984869198873639,-0.0007029939442873001,-0.0009310664609074593
1746734443991345200,6.55034521484375,-0.0005675517022609711,-0.0012644920498132706,0.0005631824024021626
1746734444001311200,6.560311279296875,0.0007168911397457123,0.00028253858909010887,-0.00009594997391104698
1746734444011278000,6.570278076171875,-0.000894512515515089,-0.0011121053248643875,-0.0008580987341701984
1746734444021245200,6.5802451171875,-0.00014296872541308403,0.0005401195958256721,-0.0007241419516503811
1746734444031212300,6.59021240234375,0.0015638426411896944,0.0001847241073846817,-0.0003529004752635956
1746734444041179100,6.60017919921875,-0.0010830732062458992,-0.0005788039416074753,-0.002361722756177187
1746734444051145200,6.610145263671875,0.0011178655549883842,0.0006341026164591312,-0.00009690597653388977
1746734444061112000,6.620112060546875,-0.00017536524683237076,0.0016559571959078312,-0.001304915640503168
1746734444071079200,6.6300791015625,0.0012844197917729616,0.0012369896285235882,0.0004876437596976757
1746734444081046300,6.64004638671875,0.0007403360214084387,0.001771752256900072,-0.0007326165214180946
1746734444091013000,6.65001318359375,0.0012398664839565754,-0.0004802490584552288,-0.002558853942900896
1746734444100979500,6.6599794921875,-0.001063767820596695,-0.0024304818361997604,-0.0002232617698609829
1746734444110946300,6.6699462890625,-0.0002780891954898834,0.0017491541802883148,0.0015795468352735043
1746734444120913200,6.6799130859375,-0.0018727900460362434,-0.0015955099370330572,0.0010258755646646023
1746734444130880300,6.68988037109375,-0.0005756965838372707,0.0003825537860393524,-0.0001744530163705349
1746734444140846300,6.699846435546875,0.00024642120115458965,-0.0008965623565018177,-0.0002527497708797455
1746734444150813400,6.7098134765625,0.00020565255545079708,-0.0013154945336282253,-0.0007599038071930408
1746734444160780300,6.7197802734375,0.0016791797243058681,-0.0020641088485717773,-0.00018119905143976212
1746734444170747400,6.729747314453125,-0.00017266860231757164,-0.00004197238013148308,0.0011016721837222576
1746734444180714200,6.73971435546875,-0.00028691859915852547,0.000813701655715704,0.0003714333288371563
1746734444190680300,6.749680419921875,-0.00002210726961493492,0.0015732459723949432,-0.001404501497745514
1746734444200647400,6.7596474609375,-0.0008335728198289871,-0.0004169344902038574,-0.0001823767088353634
1746734444210614300,6.7696142578125,0.0004029169213026762,0.0008414392359554768,-0.0002843695692718029
1746734444220581400,6.779581298828125,0.0011624502949416637,-0.00006430177018046379,-0.0009719976224005222
1746734444230547200,6.789547119140625,-0.0006157760508358479,-0.0006219781935214996,-0.0005719764158129692
1746734444240514300,6.799514404296875,0.00001619197428226471,-0.0007125260308384895,-0.0001219022087752819
1746734444250481400,6.8094814453125,0.00016972701996564865,0.00033768918365240097,0.00010230531916022301
1746734444260448300,6.8194482421875,0.00009569106623530388,-0.0001579253003001213,-0.0008290018886327744
1746734444270415400,6.829415283203125,0.0004948659334331751,0.0004977984353899956,0.000157203059643507
1746734444280381200,6.839381103515625,0.0018853023648262024,-0.00012538116425275803,-0.00015358813107013702
1746734444290348300,6.849348388671875,0.001732807606458664,-0.0004933634772896767,0.00013107247650623322
1746734444300315100,6.859315185546875,0.0024241642095148563,0.0003780229017138481,-0.00007292581722140312
1746734444310282200,6.8692822265625,-0.0006362516433000565,0.00017955666407942772,-0.00017764326184988022
1746734444320249300,6.879249267578125,0.0009909397922456264,0.0008709132671356201,-0.00041226763278245926
1746734444330215200,6.889215087890625,-0.0006706281565129757,-0.001306372694671154,-0.000993354246020317
1746734444340182300,6.899182373046875,0.0016495177987962961,0.0006196252070367336,0.00043969275429844856
1746734444350149000,6.909149169921875,0.0006647100672125816,0.001464796718209982,0.0007111956365406513
1746734444360116200,6.9191162109375,-0.0001145307905972004,0.0010991445742547512,-0.0006547397933900356
1746734444370082000,6.92908203125,-0.0008567292243242264,0.0003140582703053951,-0.000066347885876894
1746734444380049200,6.939049072265625,-0.0011584651656448841,-0.001230308786034584,0.0004007704555988312
1746734444390016300,6.949016357421875,0.00011230073869228363,0.0015222644433379173,-0.001431784126907587
1746734444399983000,6.958983154296875,0.0005125738680362701,-0.0001448742114007473,0.00037463800981640816
1746734444409950200,6.9689501953125,0.0001797925215214491,0.00016107596457004547,0.0003447234630584717
1746734444419916000,6.978916015625,0.0003121516201645136,0.00041567394509911537,-0.00029203854501247406
1746734444429883100,6.988883056640625,0.0007210427429527044,0.00038338545709848404,-0.00014031631872057915
1746734444439850200,6.998850341796875,-0.0011106794700026512,-0.0001862645149230957,-0.0019640489481389523
1746734444449817000,7.008817138671875,-0.00117929233238101,0.0010018670000135899,0.0010216301307082176
1746734444459784200,7.0187841796875,-0.0003103031776845455,-0.0001400965265929699,0.00010869838297367096
1746734444469750300,7.028750244140625,0.000773887149989605,0.00026934733614325523,0.000924271997064352
1746734444479717400,7.03871728515625,0.0012114443816244602,0.0004501761868596077,-0.00006748922169208527
1746734444489684200,7.048684326171875,-0.0007515372708439827,-0.000037313904613256454,-0.0014320695772767067
1746734444499651000,7.058651123046875,-0.0010735131800174713,-0.0012344052083790302,-0.0003721313551068306
1746734444509617400,7.068617431640625,0.00028494326397776604,0.0004264097660779953,-0.0017746370285749435
1746734444519584300,7.078584228515625,-0.000059936195611953735,0.0005899281240999699,0.00017479714006185532
1746734444529551400,7.08855126953125,0.00004024570807814598,-0.00018614530563354492,-0.0006263121031224728
1746734444539518500,7.0985185546875,-0.0008338033221662045,-0.0005246330983936787,0.000044271815568208694
1746734444549485300,7.1084853515625,-0.0008427617140114307,0.0006197849288582802,-0.0008536116220057011
1746734444559451400,7.118451416015625,0.00024913414381444454,-0.0005101943388581276,-0.00028316257521510124
1746734444569418200,7.128418212890625,-0.0010231845080852509,-0.00020767468959093094,-0.0015547466464340687
1746734444579385300,7.13838525390625,-0.00045726262032985687,0.0009382832795381546,-0.00036697695031762123
1746734444589352200,7.148352294921875,0.0004430697299540043,-0.0010414174757897854,0.000193718820810318
1746734444599319300,7.1583193359375,-0.0011763987131416798,-0.0005170414224267006,-0.0008241413161158562
1746734444609285400,7.168285400390625,-0.0010120314545929432,0.000867932103574276,0.00013846484944224358
1746734444619252200,7.178252197265625,-0.00009190943092107773,0.0003986833617091179,-0.0003864443860948086
1746734444629219300,7.18821923828125,-0.0006090174429118633,-0.00029487209394574165,-0.0006102500483393669
1746734444639186200,7.198186279296875,-0.000022855587303638458,0.0006731869652867317,-0.0017530126497149467
1746734444649153300,7.2081533203125,0.0020464996341615915,0.0007292767986655235,0.0002632378600537777
1746734444659119400,7.218119384765625,-0.000338094774633646,0.00002726726233959198,0.00025178631767630577
1746734444669086200,7.228086181640625,-0.0011405744589865208,0.0003538536839187145,0.0012932608369737864
1746734444679053300,7.23805322265625,-0.0006169970147311687,-0.00014895107597112656,-0.0004023737274110317
1746734444689020200,7.248020263671875,-0.0010087662376463413,-0.0008778446353971958,0.00023019500076770782
1746734444698986200,7.257986328125,-0.00030755577608942986,-0.0002634534612298012,-0.00017673615366220474
1746734444708953000,7.267953125,-0.00046735070645809174,0.0010568071156740189,0.00040270155295729637
1746734444718920200,7.277920166015625,0.0005952503997832537,-0.0014505588915199041,-0.001314770895987749
1746734444728887300,7.28788720703125,0.0005321085918694735,0.0005356539040803909,0.0005834149196743965
1746734444738854100,7.297854248046875,-0.0007211752235889435,-0.00005689961835741997,-0.001138052437454462
1746734444748820200,7.3078203125,0.00007400801405310631,0.00003510667011141777,-0.0010276762768626213
1746734444758787000,7.317787109375,0.0004524432588368654,-0.0007515908218920231,-0.0005419156514108181
1746734444768754200,7.327754150390625,0.0004709919448941946,-0.00031809788197278976,-0.0005990886129438877
1746734444778721300,7.33772119140625,-0.0005820221267640591,-0.00011170282959938049,0.0006033284589648247
1746734444788687000,7.34768701171875,-0.0002952972427010536,0.00008069118484854698,-0.00023511331528425217
1746734444798654200,7.357654296875,0.0007153723854571581,-0.001032776664942503,-0.00019117118790745735
1746734444808621000,7.36762109375,0.0015182411298155785,-0.001050423365086317,-0.002015567384660244
1746734444818588200,7.377588134765625,-0.0018682344816625118,0.00037410156801342964,-0.0012586968950927258
1746734444828555300,7.38755517578125,-0.0006002248264849186,0.0008667749352753162,0.00023913756012916565
1746734444838521300,7.397521240234375,-0.00025960616767406464,-0.0010115527547895908,0.0009110532701015472
1746734444848488400,7.407488525390625,0.00040347478352487087,-0.0008331378921866417,-0.0001796158030629158
1746734444858455300,7.417455322265625,0.00023809238336980343,-0.0011862730607390404,-0.0007013292051851749
1746734444868422100,7.427422119140625,0.0010784510523080826,0.00023154029622673988,-0.0011643036268651485
1746734444878389200,7.43738916015625,0.0013008250389248133,0.0007074475288391113,0.00042400555685162544
1746734444888355300,7.447355224609375,-0.0016383840702474117,0.0014034952037036419,-0.00023012282326817513
1746734444898322400,7.457322509765625,0.00038322131149470806,0.0009145387448370457,-0.001099645160138607
1746734444908289300,7.467289306640625,-0.0010395683348178864,0.0011295424774289131,-0.000975889153778553
1746734444918256400,7.47725634765625,-0.0005530086345970631,0.0005130209028720856,-0.000960709061473608
1746734444928223200,7.48722314453125,0.001005186466500163,-0.000356331467628479,-0.00039305025711655617
1746734444938189300,7.497189208984375,-0.0013269437476992607,-0.000359527301043272,0.0004935162141919136
1746734444948156400,7.507156494140625,-0.0010998737998306751,-0.0009532719850540161,-0.0010190103203058243
1746734444958123300,7.517123291015625,0.0007014884613454342,-0.0007503391243517399,-0.0003199302591383457
1746734444968090400,7.52709033203125,0.0019743985030800104,-0.0010455991141498089,-0.0016036066226661205
1746734444978056200,7.53705615234375,0.0006979452446103096,0.001062825322151184,-0.0008288929238915443
1746734444988023300,7.547023193359375,-0.0008364408276975155,0.0003907298669219017,0.00017760088667273521
1746734444997990700,7.55699072265625,0.00043388688936829567,0.00041975826025009155,-0.0003742063418030739
1746734445007957800,7.566957763671875,-0.0008722329512238503,0.0009201881475746632,-0.0003476780839264393
1746734445017924900,7.5769248046875,0.00031393906101584435,-0.000034022610634565353,-0.0011362400837242603
1746734445027890700,7.586890625,0.0008697458542883396,-0.0005016112700104713,0.0002326490357518196
1746734445037857800,7.59685791015625,0.0014111665077507496,0.00033222464844584465,0.0007583568803966045
1746734445047824600,7.60682470703125,0.0011480064131319523,-0.00021695764735341072,-0.00015977583825588226
1746734445057791700,7.616791748046875,-0.0005875756032764912,-0.000050776638090610504,0.001100165769457817
1746734445067758800,7.6267587890625,-0.0005938597023487091,0.0005297749303281307,-0.0007360246963799
1746734445077724700,7.636724609375,0.00012838956899940968,0.0005257800221443176,-0.000009780749678611755
1746734445087691800,7.64669189453125,-0.0017742826603353024,-0.001254672184586525,-0.0008397144265472889
1746734445097658600,7.65665869140625,-0.0003849114291369915,0.0010191346518695354,-0.0003121425397694111
1746734445107625700,7.666625732421875,0.00030884076841175556,0.00015953974798321724,0.00008706748485565186
1746734445117591600,7.676591552734375,0.0005530526395887136,-0.0004668356850743294,-0.00006260210648179054
1746734445127558700,7.68655859375,-0.0006345775909721851,0.00014834711328148842,0.00036304770037531853
1746734445137525800,7.69652587890625,0.0015425565652549267,0.0004668612964451313,-0.0009525539353489876
1746734445147492600,7.70649267578125,-0.0008590565994381905,-0.0006794850341975689,0.00009435974061489105
1746734445157459700,7.716459716796875,0.0010565549600869417,0.0004678047262132168,-0.0007669068872928619
1746734445167425500,7.726425537109375,0.0000951271504163742,0.00006844103336334229,-0.0013465071097016335
1746734445177392600,7.736392578125,0.0010749043431133032,-0.00008335895836353302,0.0003342139534652233
1746734445187359700,7.74635986328125,0.00017231889069080353,0.0006998865865170956,-0.0007694982923567295
1746734445197326600,7.75632666015625,0.0007518227212131023,-0.0002436712384223938,0.001170880626887083
1746734445207293700,7.766293701171875,-0.0003651389852166176,0.0009406781755387783,-0.0001255604438483715
1746734445217259500,7.776259521484375,-0.0007896469905972481,-0.000513940118253231,0.00042385002598166466
1746734445227226600,7.7862265625,-0.0002637747675180435,-0.0006963480263948441,-0.0006933012045919895
1746734445237193700,7.79619384765625,-0.0010161176323890686,-0.00041751516982913017,-0.00015507638454437256
1746734445247160600,7.80616064453125,0.0012095344718545675,0.0006619836203753948,0.0004372037947177887
1746734445257127000,7.816126953125,0.0005874200724065304,-0.00011672452092170715,-0.00017106207087635994
1746734445267093800,7.82609375,0.0007187365554273129,-0.0012653730809688568,0.001109317410737276
1746734445277060900,7.836060791015625,-0.0015657227486371994,-0.00006695045158267021,-0.0003045545890927315
1746734445287027700,7.84602783203125,-0.00012499699369072914,0.0007075131870806217,-0.0008055651560425758
1746734445296994600,7.85599462890625,-0.00012100255116820335,0.00007234932854771614,-0.00008251704275608063
1746734445306961000,7.8659609375,0.0001347155775874853,-0.0002141520380973816,-0.0007526674307882786
1746734445316927700,7.875927734375,-0.0008804816752672195,0.00019544223323464394,-0.00017742440104484558
1746734445326894800,7.885894775390625,-0.00003010965883731842,-0.0002187313511967659,0.00014245416969060898
1746734445336861700,7.89586181640625,-0.00014861999079585075,-0.0006565549410879612,0.00031822267919778824
1746734445346828800,7.905828857421875,-0.0002679238095879555,-0.0002567833289504051,-0.0006951089017093182
1746734445356794600,7.915794677734375,-0.0022194883786141872,0.0006164670921862125,-0.0006884508766233921
1746734445366761700,7.92576171875,-0.00021214084699749947,0.00006541702896356583,0.0008771601133048534
1746734445376728800,7.935728759765625,-0.000335711520165205,-0.00037107523530721664,-0.000088502187281847
1746734445386695700,7.94569580078125,-0.00019578682258725166,-0.0009241881780326366,0.00018115947023034096
1746734445396661800,7.955661865234375,0.0006202056538313627,-0.00018595997244119644,-0.000022571999579668045
1746734445406628600,7.965628662109375,0.00033106165938079357,0.0005290783010423183,0.001156873069703579
1746734445416595700,7.975595703125,0.0009377298410981894,0.00005024205893278122,0.0014508860185742378
1746734445426562800,7.985562744140625,0.001197130884975195,0.00025484710931777954,-0.00011048652231693268
1746734445436529700,7.99552978515625,0.0001893907319754362,-0.0012772693298757076,-0.00007213698700070381
1746734445446495700,8.005495849609375,0.001269148662686348,0.000614700373262167,-0.00019645597785711288
1746734445456462600,8.015462646484375,-0.0001876004971563816,-0.000471336767077446,0.0010898509062826633
1746734445466429700,8.0254296875,0.00017647934146225452,-0.0010464047081768513,0.0013113818131387234
1746734445476396800,8.035396728515625,-0.00008610822260379791,-0.0009430740028619766,0.0011100471019744873
1746734445486363600,8.04536376953125,0.001407677074894309,-0.000821081455796957,-0.00028746575117111206
1746734445496329700,8.055329833984375,-0.0004181861877441406,-0.00006021605804562569,0.0011775391176342964
1746734445506296600,8.065296630859375,0.0010238278191536665,0.0016052359715104103,-0.0010523498058319092
1746734445516263700,8.075263671875,0.00008719414472579956,-0.0007620477117598057,0.0007463488727807999
1746734445526230800,8.085230712890626,0.0014156971592456102,-0.0008309232071042061,-0.0018080943264067173
1746734445536196600,8.095196533203126,0.0017850776202976704,0.00006922567263245583,0.00007449416443705559
1746734445546163700,8.105163818359374,-0.0017027775757014751,-0.0007120934315025806,0.0003205137327313423
1746734445556130600,8.115130615234374,-0.0005546887405216694,-0.00004816707223653793,-0.0010139960795640945
1746734445566097700,8.12509765625,-0.00006640423089265823,0.00029586395248770714,0.000246463343501091
1746734445576064800,8.135064697265625,0.0014545272570103407,-0.0005187974311411381,-0.00004568509757518768
1746734445586030800,8.14503076171875,-0.00026197638362646103,-0.00020391540601849556,-0.000970243476331234
1746734445595997700,8.154997802734375,0.0020536421798169613,0.0004453635774552822,0.00008143903687596321
1746734445605964500,8.164964599609375,-0.0004297494888305664,0.00021400023251771927,0.0003447788767516613
1746734445615931600,8.174931640625,0.00019316375255584717,-0.0008949399925768375,-0.0002182135358452797
1746734445625898500,8.1848984375,-0.00008945353329181671,-0.0003938330337405205,0.00022684503346681595
1746734445635864800,8.19486474609375,0.00037074065767228603,0.0007433365099132061,-0.001066119410097599
1746734445645832000,8.20483203125,0.00009134691208600998,-0.00023339921608567238,0.000025643035769462585
1746734445655798800,8.214798828125,-0.0010394314303994179,-1.0617077350616455e-7,0.0013087540864944458
1746734445665766000,8.224765869140626,0.00028409482911229134,-0.00044569745659828186,-0.00006370246410369873
1746734445675732700,8.234732666015624,-0.0013052797876298428,-0.0005519576370716095,-0.0014115283265709877
1746734445685698800,8.24469873046875,0.0006394796073436737,0.00005756085738539696,0.000559746753424406
1746734445695665700,8.254665771484374,-0.000791170634329319,-0.00156377162784338,0.000044957734644412994
1746734445705632800,8.2646328125,-0.0007248139008879662,-0.00019976822659373283,0.0005636187270283699
1746734445715600000,8.274599853515625,0.0006898571737110615,-0.0005499739199876785,-0.00035250838845968246
1746734445725566700,8.284566650390625,0.000021066982299089432,-0.000263790600001812,0.0004907306283712387
1746734445735532800,8.29453271484375,-0.000039120204746723175,-0.0006310404278337955,0.0004901979118585587
1746734445745499600,8.304499755859375,0.001013017725199461,-0.0004237927496433258,-0.0006544296629726887
1746734445755466800,8.314466796875,0.0012308643199503422,0.0006356127560138702,-0.001331937499344349
1746734445765433900,8.324433837890625,-0.0008465312421321869,0.0006474028341472149,-0.000746843870729208
1746734445775399700,8.334399658203125,-0.0007730280049145222,0.000575230922549963,0.0006606364622712135
1746734445785366800,8.34436669921875,-0.00033446168527007103,0.00029834359884262085,0.00006715534254908562
1746734445795333600,8.354333740234376,-0.00011688144877552986,-0.00036744680255651474,-0.0012662895023822784
1746734445805300700,8.36430078125,0.00018570199608802795,-0.00037776073440909386,-0.0020400220528244972
1746734445815267800,8.374267822265624,0.0003257840871810913,-0.000003320164978504181,-0.0011340146884322166
1746734445825233700,8.384233642578126,-0.00038906466215848923,0.0012443242594599724,-0.0005613877438008785
1746734445835200800,8.39420068359375,0.0008551641367375851,-0.0003967154771089554,-0.0021185381338000298
1746734445845167600,8.404167724609374,-0.0005721687339246273,0.000303040724247694,-0.0010562138631939888
1746734445855134700,8.414134765625,-0.0006912117823958397,-0.0008511734195053577,-0.001294566784054041
1746734445865101800,8.424101806640625,0.0005869993474334478,-0.0005222861655056477,-0.0005725580267608166
1746734445875067600,8.434067626953125,0.000932677648961544,0.00042553292587399483,-0.0011123805306851864
1746734445885034800,8.44403466796875,0.0010128722060471773,0.00027733948081731796,-0.0010423436760902405
1746734445895001600,8.454001708984375,-0.0007810331881046295,-0.00003238627687096596,-0.00047775357961654663
1746734445904968700,8.46396875,-0.000059563200920820236,0.0011522332206368446,0.001318124821409583
1746734445914934500,8.4739345703125,0.0010480456985533237,-0.00018440745770931244,0.0010480806231498718
1746734445924901600,8.483901611328125,0.00019077491015195847,0.0006069168448448181,0.00029602646827697754
1746734445934868700,8.49386865234375,-0.0007346733473241329,-0.0015347974840551615,0.0005626091733574867
1746734445944835600,8.503835693359376,-0.0006560487672686577,-0.0013348781503736973,-0.00045057106763124466
1746734445954802700,8.513802734375,0.0007359855808317661,-0.0017015954945236444,-0.00003112340345978737
1746734445964768800,8.523768798828126,-0.0007242769934237003,-0.0003715432249009609,-0.0014344318769872189
1746734445974735600,8.533735595703124,0.00013299472630023956,-0.0001920461654663086,-0.0003595799207687378
1746734445984702700,8.54370263671875,-0.00024048564955592155,-0.0009380914270877838,0.0009674099273979664
1746734445994669600,8.553669677734375,0.00025193276815116405,0.0012108134105801582,-0.0012661833316087723
1746734446004636400,8.563636474609375,0.0005030499305576086,0.0008592954836785793,0.0007132920436561108
1746734446014602800,8.573602783203125,0.00002927333116531372,-0.0005287439562380314,-0.00029391516000032425
1746734446024569600,8.583569580078125,0.0008182988967746496,-0.00027510663494467735,0.0009333905763924122
1746734446034536700,8.59353662109375,0.00040630786679685116,-0.00040853116661310196,0.00015628011897206306
1746734446044503800,8.60350390625,-0.00005412055179476738,0.0012626731768250465,0.0002814885228872299
1746734446054469600,8.6134697265625,0.0002007440198212862,0.0004650563932955265,0.0003544590435922146
1746734446064436700,8.623436767578125,0.0007901615463197231,-0.0005172365345060825,-0.00048778951168060303
1746734446074403600,8.633403564453126,0.0008945574518293142,0.001540854573249817,-0.0017160396091639996
1746734446084370700,8.64337060546875,0.00003755651414394379,0.00008758995682001114,-0.000823488924652338
1746734446094337500,8.653337646484376,-0.0006852252408862114,-0.0006125550717115402,-0.0008280165493488312
1746734446104303600,8.6633037109375,0.002244307193905115,0.0003670826554298401,0.00016163894906640053
1746734446114270700,8.673270751953124,-0.0011309832334518433,0.001199054066091776,-0.00045088818296790123
1746734446124237600,8.683237548828124,-0.0003568124957382679,-0.0005762460641562939,0.0013306005857884884
1746734446134204700,8.69320458984375,0.0009670448489487171,0.00045120110735297203,-0.001493948046118021
1746734446144171500,8.703171630859375,0.0015814315993338823,0.0009159515611827374,0.0011768965050578117
1746734446154137600,8.7131376953125,-0.0000851745717227459,0.00028052134439349174,-0.00023404648527503014
1746734446164104700,8.723104736328125,0.00040301005356013775,0.000754880253225565,-0.0007990789599716663
1746734446174071600,8.733071533203125,-0.0007469425909221172,-0.00006510689854621887,0.0009093387052416801
1746734446184038700,8.74303857421875,0.00030469847843050957,0.0003398275002837181,-0.0004414529539644718
1746734446194005500,8.753005615234375,0.00046289036981761456,0.00047991005703806877,0.0007306039333343506
1746734446203971600,8.7629716796875,-0.00025526806712150574,-0.00014681322500109673,-0.0018361019901931286
1746734446213938400,8.7729384765625,-0.0005870978347957134,-0.000010725576430559158,0.0011266646906733513
1746734446223905500,8.782905517578126,0.0017116221133619547,-0.00002921139821410179,-0.0005265497602522373
1746734446233872600,8.79287255859375,-0.000634889118373394,-0.0007498627528548241,0.0003064870834350586
1746734446243839500,8.802839599609374,0.001001665834337473,0.00025160377845168114,0.0003966623917222023
1746734446253805600,8.8128056640625,0.00017235754057765007,-0.000529235228896141,0.00033913832157850266
1746734446263772400,8.8227724609375,-0.00035577453672885895,-0.0005788849666714668,-0.0009597530588507652
1746734446273739500,8.832739501953125,-0.0009211637079715729,0.0009170128032565117,-0.0012961099855601788
1746734446283706600,8.84270654296875,-0.0006180722266435623,-0.00005257222801446915,0.0008983723819255829
1746734446293672400,8.85267236328125,-0.0006766617298126221,0.0008614249527454376,-0.0009147077798843384
1746734446303639600,8.8626396484375,-0.00019148224964737892,0.00003532553091645241,-0.0010200468823313713
1746734446313606400,8.8726064453125,0.001867940416559577,0.0005144281312823296,-0.0010677175596356392
1746734446323573500,8.882573486328125,0.0006903575267642736,-0.0003223549574613571,0.00039474666118621826
1746734446333540600,8.89254052734375,0.0019359178841114044,0.000051818788051605225,0.00009753787890076637
1746734446343506700,8.902506591796875,0.0007566348649561405,-0.0010510669089853764,-0.000286781694740057
1746734446353473500,8.9124736328125,0.00002266746014356613,-0.0010976721532642841,-0.0008662855252623558
1746734446363440600,8.922440673828126,-0.001421213150024414,0.0003711460158228874,0.000619127880781889
1746734446373407500,8.932407470703126,-0.0005514244548976421,0.0006294730119407177,-0.001733508426696062
1746734446383374600,8.94237451171875,-0.0005997451953589916,0.00020406674593687057,0.0011600409634411335
1746734446393340700,8.952340576171874,0.00046045915223658085,0.00042670732364058495,0.00002020830288529396
1746734446403307800,8.962307861328124,-0.00023241620510816574,0.0002229367382824421,-0.00048135779798030853
1746734446413274600,8.972274658203125,0.00026532867923378944,-0.0003421860747039318,0.0013772621750831604
1746734446423241700,8.98224169921875,0.0006167239043861628,0.001639846246689558,0.0007031746208667755
1746734446433208600,8.99220849609375,-0.0004485403187572956,0.0005431566387414932,0.0011955932714045048
1746734446443174700,9.002174560546875,-0.0014612246304750443,0.00013334816321730614,0.00001330813392996788
1746734446453141800,9.012141845703125,0.0006080514285713434,-0.0015787978190928698,-0.0007725907489657402
1746734446463108600,9.022108642578125,-0.001705953385680914,-0.0017521753907203674,-0.0009776563383638859
1746734446473075700,9.03207568359375,0.00074016023427248,-0.0016581658273935318,-0.002049312461167574
1746734446483041500,9.04204150390625,0.000044284388422966003,-0.00009866664186120033,0.0015793105121701956
1746734446493008600,9.052008544921875,0.0014389820862561464,-0.0005974769592285156,-0.00017278315499424934
1746734446502975500,9.0619755859375,0.0015871133655309677,-0.000001607462763786316,0.00016139354556798935
1746734446512942600,9.071942626953126,0.0026928577572107315,-0.00020027905702590942,-0.0011305059306323528
1746734446522909700,9.08190966796875,-0.0005626482889056206,0.0009937980212271214,-0.001142012421041727
1746734446532875500,9.09187548828125,-0.0010430826805531979,0.00004651164636015892,-0.0005252244882285595
1746734446542842600,9.101842529296874,0.000037299469113349915,-0.0007049171254038811,-0.0012320647947490215
1746734446552809500,9.1118095703125,-0.001082027330994606,0.0007206727750599384,-0.00047679198905825615
1746734446562776600,9.121776611328125,-0.000414965208619833,0.00040356628596782684,-0.0003131893463432789
1746734446572743700,9.13174365234375,-0.0008775563910603523,-0.0016752975061535835,-0.0025233468040823936
1746734446582709500,9.14170947265625,0.00012177228927612305,0.0005469904281198978,0.00013583432883024216
1746734446592676600,9.151676513671875,0.0008837028872221708,0.0014383508823812008,-0.0002537863329052925
1746734446602643500,9.1616435546875,0.0007384589407593012,0.0008683875203132629,-0.00002868054434657097
1746734446612610600,9.171610595703125,-0.001685816328972578,0.0005024690181016922,-0.00022628717124462128
1746734446622577700,9.18157763671875,-0.0010202229022979736,-0.0008961749263107777,-0.0008112271316349506
1746734446632543500,9.19154345703125,0.0017185721080750227,0.0013533970341086388,-0.0006245397962629795
1746734446642510600,9.201510498046876,0.0003781071864068508,0.00008836016058921814,0.001803412800654769
1746734446652477400,9.2114775390625,-0.0010067364200949669,0.0009184675291180611,0.0009679789654910564
1746734446662444500,9.221444580078124,-0.000568675808608532,-0.0020936536602675915,-0.0006607300601899624
1746734446672411600,9.23141162109375,-0.0015545780770480633,-0.0012491652742028236,-0.001067927572876215
1746734446682377500,9.24137744140625,0.0023130374029278755,0.0013425173237919807,-0.0014229193329811096
1746734446692344600,9.251344482421874,-0.0009951414540410042,0.00034569622948765755,0.0003765788860619068
1746734446702311400,9.2613115234375,0.00016466202214360237,-0.0010584518313407898,0.0007939753122627735
1746734446712278500,9.271278564453125,0.001300233881920576,0.0006246659904718399,-0.00029206182807683945
1746734446722245600,9.28124560546875,-0.0014410004951059818,-0.000400003045797348,0.0005027707666158676
1746734446732211700,9.291211669921875,0.0009819434490054846,0.000042348168790340424,-0.00005409633740782738
1746734446742178600,9.301178466796875,-0.00011872360482811928,0.0005304701626300812,-0.000358059536665678
1746734446752145400,9.3111455078125,-0.00023217452690005302,-0.00011827610433101654,0.0007602018304169178
1746734446762112500,9.321112548828125,-0.0008115256205201149,0.00010014418512582779,0.0006413180381059647
1746734446772078600,9.33107861328125,-0.00041791051626205444,-0.0015158618334680796,-0.0005416581407189369
1746734446782045700,9.341045654296876,-0.0019607138819992542,0.0007103700190782547,-0.001880916766822338
1746734446792012800,9.3510126953125,-0.0006357915699481964,0.00015190523117780685,0.0017729401588439941
1746734446801979600,9.360979736328124,0.0008360305801033974,0.000730577390640974,-0.0002683466300368309
1746734446811946800,9.37094677734375,-0.0007994165644049644,0.0014078193344175816,-0.00034531205892562866
1746734446821912600,9.38091259765625,-0.00039609847590327263,-0.00007104966789484024,-0.00030816253274679184
1746734446831879700,9.390879638671874,0.0010774284601211548,-0.00045294687151908875,0.0000353851355612278
1746734446841846500,9.400846435546875,-0.0010579107329249382,-0.0015401854179799557,0.00008031260222196579
1746734446851813600,9.410813720703125,-0.0006443220190703869,-0.0007582814432680607,0.0003871088847517967
1746734446861780700,9.42078076171875,0.0007348349317908287,0.00005039246752858162,-0.0017979079857468605
1746734446871746600,9.43074658203125,0.0010142005048692226,0.000783827155828476,0.00042157014831900597
1746734446881713700,9.440713623046875,0.00044399197213351727,0.0016187098808586597,0.0003083399496972561
1746734446891680500,9.450680419921875,0.0006945955101400614,0.0003321371041238308,-0.0010594595223665237
1746734446901647600,9.460647705078125,-0.00016787555068731308,0.0001728287898004055,-0.0007813726551830769
1746734446911614700,9.47061474609375,0.0011863417457789183,-0.0003707222640514374,-0.0016405084170401096
1746734446921580500,9.48058056640625,-0.000035348813980817795,-0.00000455416738986969,-0.0008661267347633839
1746734446931547600,9.490547607421876,0.000004598405212163925,-0.0011443868279457092,0.0010755844414234161
1746734446941514500,9.500514404296876,-0.0016286056488752365,0.00027406029403209686,0.0003466387279331684
1746734446951481600,9.510481689453124,0.0007820879109203815,0.000977933406829834,0.0003668786957859993
1746734446961448700,9.52044873046875,-0.000329543836414814,0.0019729197956621647,-0.0008284803479909897
1746734446971414500,9.53041455078125,-0.000657911878079176,-0.0006447015330195427,-0.0005602999590337276
1746734446981381600,9.540381591796875,0.000761526171118021,-0.0003645871765911579,-0.0005015931092202663
1746734446991348500,9.550348388671875,-0.00035194167867302895,-0.0014860443770885468,0.0008667390793561935
1746734447001316400,9.56031640625,-0.00034037744626402855,-0.0006014127284288406,0.0008496311493217945
1746734447011282400,9.570282470703125,0.0006231539882719517,-0.0009545478969812393,0.0002099401317536831
1746734447021249300,9.580249267578125,-0.0005672085098922253,0.0003662602975964546,0.0010056514292955399
1746734447031216400,9.59021630859375,0.0005739559419453144,-0.0009770379401743412,0.0006021824665367603
1746734447041183500,9.60018359375,0.0007751889061182737,-0.00024124281480908394,0.000812167301774025
1746734447051150300,9.610150390625,-0.00020139245316386223,-0.0001869145780801773,-0.001044055912643671
1746734447061116400,9.620116455078126,-0.0021747867576777935,-0.00011405348777770996,-0.00016063498333096504
1746734447071083300,9.630083251953126,-0.001224304549396038,-0.0005436213687062263,-0.00011962233111262321
1746734447081050400,9.64005029296875,0.0013803960755467415,0.0005485368892550468,0.00045517878606915474
1746734447091017500,9.650017578125,0.00034975260496139526,0.0009107268415391445,-0.0001397714950144291
1746734447100984300,9.659984375,0.0003542101476341486,0.0002309810370206833,-0.0006057173013687134
1746734447110950400,9.669950439453125,-0.0003131781704723835,-0.00004332466050982475,0.0008893813937902451
1746734447120917200,9.679917236328125,0.00014010700397193432,-0.00034283194690942764,-0.0008333534933626652
1746734447130884400,9.68988427734375,-0.001458055805414915,0.000788478646427393,-0.00036170752719044685
1746734447140851200,9.699851318359375,0.0019451058469712734,-0.0012645358219742775,0.0004447847604751587
1746734447150818300,9.709818359375,0.0010723879095166922,-0.00034760963171720505,-0.0008710832335054874
1746734447160784400,9.719784423828125,-0.000604371540248394,0.0013789385557174683,-0.0007422431372106075
1746734447170751200,9.729751220703125,-0.00160252396017313,0.00013843830674886703,0.0016985442489385605
1746734447180718300,9.73971826171875,0.0009481518063694239,-0.0006924048066139221,-0.0004313299432396889
1746734447190685200,9.749685302734376,0.00023788679391145706,0.00011107092723250389,-0.000010284129530191422
1746734447200652300,9.75965234375,0.00044732214882969856,-0.0017056223005056381,-0.0003550499677658081
1746734447210618400,9.769618408203126,0.0003008481580764055,0.000100000761449337,0.0006159385666251183
1746734447220585500,9.77958544921875,-0.00004282267764210701,0.0003884555771946907,-0.0011784830130636692
1746734447230552300,9.78955224609375,-0.0007296516560018063,0.00025556376203894615,0.0010449900291860104
1746734447240519200,9.799519287109375,-0.0006544464267790318,0.00018048426136374474,0.00030724843963980675
1746734447250486300,9.809486328125,-0.00112529331818223,-0.00008742976933717728,-0.0002248510718345642
1746734447260452400,9.819452392578125,0.0007499794010072947,-0.0010644369758665562,0.0010977662168443203
1746734447270419500,9.82941943359375,0.0013478591572493315,0.0006064302287995815,-0.0008218400180339813
1746734447280386600,9.839386474609375,-0.0002330089919269085,-0.00017459644004702568,0.0006299302913248539
1746734447290353400,9.849353515625,0.001108425436541438,-0.0014164287131279707,-0.0014563901349902153
1746734447300319500,9.859319580078125,0.00021882634609937668,-0.00021926313638687134,0.0006203660741448402
1746734447310286300,9.869286376953125,-0.00006959401071071625,-0.0005982308648526669,0.0016736462712287903
1746734447320253400,9.87925341796875,0.000034335535019636154,-0.0008777687326073647,-0.0009312992915511131
1746734447330220500,9.889220458984376,-0.0002820482477545738,-0.0018956286367028952,0.0000902893953025341
1746734447340187400,9.8991875,-0.001469639129936695,-0.0000415584072470665,0.0003636712208390236
1746734447350153500,9.909153564453124,-0.00039878208190202713,0.0021278527565300465,0.00025181844830513
1746734447360120300,9.919120361328124,-7.557682693004608e-7,0.00098823057487607,-0.00020033586770296097
1746734447370087400,9.92908740234375,0.0005076415836811066,0.0008955528028309345,-0.0006794384680688381
1746734447380054500,9.939054443359375,-0.0006511793471872807,-0.00023667560890316963,-0.0006252746097743511
1746734447390021400,9.949021484375,-0.001887685153633356,-0.0001802169717848301,-0.00029983604326844215
1746734447399987500,9.958987548828125,0.0012751894537359476,0.0014998544938862324,-0.00038621947169303894
1746734447409954300,9.968954345703125,0.0008831722661852837,-0.0004509110003709793,0.00007530627772212029
1746734447419921400,9.97892138671875,0.0002553085796535015,0.000535889994353056,0.00026128534227609634
1746734447429888500,9.988888427734375,-0.00047945743426680565,-0.000005530659109354019,0.000010149087756872177
1746734447439855400,9.99885546875,0.0010296180844306946,-0.00019058212637901306,-0.00022865505889058113
1746734447449821400,10.008821533203125,0.0017923475243151188,-0.0008819387294352055,0.00020277686417102814
1746734447459788300,10.018788330078126,0.0018776233773678541,0.00011054845526814461,0.0003798091784119606
1746734447469755400,10.02875537109375,-0.0011767558753490448,-0.0005200882442295551,0.0005001840181648731
1746734447479722200,10.03872216796875,-0.0005974913947284222,-0.0002501518465578556,-0.0006645442917943001
1746734447489689300,10.048689453125,-0.00016552675515413284,-0.0014099585823714733,0.000018290244042873383
1746734447499655400,10.058655517578124,0.000023838598281145096,-0.0006781062111258507,-0.0019269781187176704
1746734447509622300,10.068622314453124,-0.00048455875366926193,0.0005586659535765648,-0.00012588221579790115
1746734447519589400,10.07858935546875,-0.0006871647201478481,-0.0006133937276899815,0.00009642820805311203
1746734447529556200,10.08855615234375,-0.00015719560906291008,0.00025825854390859604,0.0009579607285559177
1746734447539522300,10.098522216796875,0.0001222060527652502,0.0012231562286615372,0.00013951538130640984
1746734447549489200,10.1084892578125,0.00021701469086110592,-0.00017127487808465958,0.0007842667400836945
1746734447559456300,10.118456298828125,0.001516880001872778,-0.00041249487549066544,0.00034064799547195435
1746734447569423400,10.12842333984375,-0.00011137640103697777,-0.0000516367144882679,-0.000907042995095253
1746734447579390200,10.13839013671875,0.0012333944905549288,0.0004120711237192154,0.0014430212322622538
1746734447589356500,10.1483564453125,0.0002200617454946041,0.0011700065806508064,0.00042010098695755005
1746734447599323400,10.158323486328126,-0.00024776766076684,0.0002942979335784912,-0.001341110561043024
1746734447609290200,10.168290283203126,-0.0009266077540814877,0.000350224319845438,-0.0003821062855422497
1746734447619257300,10.17825732421875,0.000011486001312732697,0.00018528103828430176,-0.000053870026022195816
1746734447629224200,10.18822412109375,-0.0007509770803153515,-0.000664000865072012,0.0010595978237688541
1746734447639190500,10.1981904296875,0.0004938580095767975,-0.0009173429571092129,-0.000017622951418161392
1746734447649157400,10.208157470703124,0.000480275833979249,0.0003825458697974682,-0.00015850411728024483
1746734447659124500,10.21812451171875,-0.0006147166714072227,-0.0010955138131976128,0.001599795650690794
1746734447669091600,10.228091552734375,0.00009661377407610416,-0.0012489119544625282,-0.0003845253959298134
1746734447679058400,10.238058349609375,-0.0003977157175540924,0.0013270452618598938,-0.0019770036451518536
1746734447689024500,10.2480244140625,-0.00047654518857598305,-0.0011366447433829308,-0.0003663240931928158
1746734447698991400,10.257991455078125,0.0007040083874017,0.00041675521060824394,-0.001369480974972248
1746734447708958500,10.26795849609375,0.00012983079068362713,-0.000422406941652298,-0.0002554808743298054
1746734447718925600,10.277925537109375,0.0005136069376021624,-0.0005526011809706688,-0.0003431299701333046
1746734447728892400,10.287892333984376,-0.0008549918420612812,-0.0007211794145405293,-0.0007042544893920422
1746734447738858500,10.2978583984375,0.00013794400729238987,0.0010738507844507694,0.00004604179412126541
1746734447748825300,10.307825439453126,-0.0004841703921556473,-0.00005106814205646515,0.0013054506853222847
1746734447758792400,10.31779248046875,0.00006678677164018154,-0.0015511272940784693,0.00017273519188165665
1746734447768759600,10.327759521484374,-0.00031564291566610336,0.0002166791819036007,-0.0013601803220808506
1746734447778726400,10.337726318359374,0.00000859331339597702,0.00014520622789859772,-0.00023121992126107216
1746734447788692500,10.3476923828125,-0.0008345632813870907,0.00022589974105358124,-0.0017292480915784836
1746734447798659300,10.357659423828125,-0.0004496416077017784,0.000027496833354234695,0.0008733863942325115
1746734447808626400,10.36762646484375,-0.0009822738356888294,-0.0004540025256574154,0.001361809903755784
1746734447818593300,10.37759326171875,0.0007579892408102751,-0.0008595334365963936,0.0017497027292847633
1746734447828559400,10.387559326171875,0.00005890941247344017,-0.0005604606121778488,-0.0001456690952181816
1746734447838526500,10.3975263671875,-0.0009986916556954384,0.0003119334578514099,-0.0005919584073126316
1746734447848493300,10.407493408203125,0.000013043172657489777,0.00007784180343151093,-0.00018129916861653328
1746734447858460400,10.41746044921875,-0.0001926785334944725,0.00005316315218806267,0.000557837076485157
1746734447868427300,10.42742724609375,0.000025967136025428772,0.0011868705041706562,0.000030531082302331924
1746734447878393300,10.437393310546875,0.0001724669709801674,-0.0008166478946805,-0.00045021576806902885
1746734447888360200,10.447360107421876,0.00009230570867657661,0.0001591341570019722,0.0015751179307699203
1746734447898327300,10.457327392578126,-0.00004546996206045151,-0.0007026363164186478,0.0008179042488336563
1746734447908294400,10.46729443359375,0.00026452215388417244,-0.0008986452594399452,-0.0003083469346165657
1746734447918261200,10.47726123046875,0.0010639899410307407,-0.0005291271954774857,-0.0019470243714749813
1746734447928227300,10.487227294921874,-0.0012803906574845314,-0.00023564696311950684,0.000056471675634384155
1746734447938194200,10.497194091796874,-0.0008281669579446316,-0.0008397484198212624,-0.0007509593851864338
1746734447948161300,10.507161376953125,-0.00042656250298023224,0.000636175274848938,0.0007899454794824123
1746734447958128400,10.51712841796875,0.0005926140584051609,-0.00004369812086224556,0.00013016117736697197
1746734447968095200,10.52709521484375,-0.0006809094920754433,-0.00006207358092069626,0.0000521303154528141
1746734447978061300,10.537061279296875,-0.00038372213020920753,-0.00016434025019407272,-0.0007683802396059036
1746734447988028200,10.547028076171875,0.0002642250619828701,-0.0016437261365354061,-0.0016600065864622593
1746734447997995300,10.556995361328125,0.0002454645000398159,-0.0007242276333272457,-0.00025271810591220856
1746734448007962400,10.56696240234375,0.00012109498493373394,0.0007048249244689941,-0.0013430165126919746
1746734448017929200,10.57692919921875,0.0008114436641335487,0.00042799487709999084,-0.0012038224376738071
1746734448027895600,10.5868955078125,0.00030091567896306515,-0.0009560501202940941,0.0004936764016747475
1746734448037862400,10.5968623046875,-0.0012844465672969818,-0.00011029979214072227,-0.0005026166327297688
1746734448047829500,10.60682958984375,0.00020932056941092014,0.0005467021837830544,0.0018833093345165253
1746734448057796400,10.61679638671875,-0.0002527446486055851,-0.0002262340858578682,-0.000027919653803110123
1746734448067763500,10.626763427734375,0.0008612554520368576,-0.0007117283530533314,-0.0013073021546006203
1746734448077729500,10.6367294921875,0.00022494164295494556,-0.0006173430010676384,-0.00040723616257309914
1746734448087696400,10.6466962890625,-0.0007447153329849243,0.0007395376451313496,-0.000689264852553606
1746734448097663500,10.65666357421875,-0.000009187497198581696,0.0003643147647380829,-0.0003274576738476753
1746734448107630600,10.666630615234375,-0.0001966739073395729,0.0008106604218482971,-0.0003365124575793743
1746734448117597400,10.676597412109375,0.0008039760868996382,-0.00026315823197364807,-0.0002462710253894329
1746734448127563500,10.6865634765625,-0.0003334600478410721,-0.0006605018861591816,-0.0008361609652638435
1746734448137530400,10.6965302734375,0.0003936891444027424,0.00023908354341983795,-0.00023874780163168907
1746734448147497500,10.70649755859375,-0.00012935558333992958,0.00010885484516620636,-0.0014137346297502518
1746734448157464300,10.71646435546875,0.00035812356509268284,0.0009592417627573013,-0.001031407155096531
1746734448167431400,10.726431396484376,-0.001684787217527628,-0.0005201441235840321,-0.0010982523672282696
1746734448177397500,10.7363974609375,-0.00034724874421954155,-0.00005702022463083267,-0.00038789212703704834
1746734448187364400,10.7463642578125,0.0008072315249592066,0.00013020029291510582,0.00005898624658584595
1746734448197331500,10.75633154296875,0.0016967800911515951,-0.0001394958235323429,0.00003500189632177353
1746734448207298300,10.76629833984375,0.00015134760178625584,0.0012874258682131767,-0.000967678613960743
1746734448217265400,10.776265380859375,0.0004210597835481167,-0.00032307254150509834,0.0014043664559721947
1746734448227231200,10.786231201171875,0.00016965740360319614,-0.00035076914355158806,-0.0008984687738120556
1746734448237198300,10.7961982421875,0.000847692834213376,-0.00045653944835066795,0.002120792167261243
1746734448247165400,10.80616552734375,0.0008674000855535269,0.0003211037255823612,-0.0008017607033252716
1746734448257132300,10.81613232421875,-0.0007902719080448151,0.00010729813948273659,-0.00003281561657786369
1746734448267098400,10.826098388671875,0.0022585149854421616,0.001068965531885624,0.00013762665912508965
1746734448277065200,10.836065185546875,0.0002579200081527233,0.002121482975780964,-0.0006864559836685658
1746734448287032300,10.8460322265625,0.00038282223977148533,0.0001278403215110302,-0.0009152218699455261
1746734448296999400,10.85599951171875,0.0006256997585296631,0.0008635865524411201,0.00017355382442474365
1746734448306966300,10.86596630859375,-0.0005444930866360664,-0.00003895862028002739,-0.00008024554699659348
1746734448316932400,10.875932373046876,-0.002705737017095089,-0.00037149712443351746,-0.0006298781372606754
1746734448326899200,10.885899169921874,0.0004610277246683836,0.0009909761138260365,-0.00030310824513435364
1746734448336866300,10.8958662109375,0.00038128369487822056,-0.00017345556989312172,-0.0012191832065582275
1746734448346833400,10.90583349609375,-0.0004893038421869278,0.0003245556727051735,0.0006053484976291656
1746734448356800300,10.91580029296875,-0.0006313114427030087,-0.0017514387145638466,0.0002697594463825226
1746734448366766300,10.925766357421875,-0.0006837756372988224,-0.0005389014258980751,0.0012769668828696012
1746734448376733200,10.935733154296875,0.0031959384214133024,-0.0006712209433317184,0.000580458901822567
1746734448386700300,10.9457001953125,-0.0004978659562766552,0.0006345272995531559,-0.0006374046206474304
1746734448396667400,10.95566748046875,-0.00033100368455052376,-0.0013561125379055738,-0.00004035932943224907
1746734448406634200,10.96563427734375,-0.00005536666139960289,-0.0006194822490215302,0.0001588449813425541
1746734448416600600,10.9756005859375,0.0006019361317157745,-0.0009078802540898323,-0.0009716800414025784
1746734448426567400,10.9855673828125,0.0005279001779854298,-0.000165657140314579,-0.0004275962710380554
1746734448436534500,10.995534423828126,0.001838530646637082,-0.0005981274880468845,-0.0017880541272461414
1746734448446501400,11.00550146484375,-0.0011830921284854412,-0.0003014514222741127,-0.0002942867577075958
1746734448456468200,11.01546826171875,-0.00008276291191577911,0.000008689705282449722,0.001172366552054882
1746734448466434600,11.0254345703125,-0.001119797583669424,0.0009229532442986965,0.0012887464836239815
1746734448476401400,11.0354013671875,-0.0009578047320246696,-0.0004039593040943146,-0.0005013723857700825
1746734448486368500,11.045368408203124,0.0010584741830825806,-0.0005285954102873802,0.0005111615173518658
1746734448496335400,11.05533544921875,-0.0002509746700525284,-0.0015709318686276674,-0.0013897884637117386
1746734448506302500,11.065302490234375,0.00034317653626203537,-0.0005562677979469299,-0.0007037580944597721
1746734448516268500,11.0752685546875,-0.0007477221079170704,0.00037983478978276253,-0.000308056827634573
1746734448526235400,11.0852353515625,0.00011247885413467884,0.0011934302747249603,0.00046612368896603584
1746734448536202500,11.095202392578125,-0.0009807655587792397,0.0005394900217652321,-0.0005864189006388187
1746734448546169300,11.10516943359375,-0.0006782305426895618,-0.0013534848112612963,-0.001012258231639862
1746734448556136400,11.115136474609375,-0.0006113252602517605,-0.00012111477553844452,-0.0012632757425308228
1746734448566102300,11.125102294921875,-0.0008712494745850563,0.0001814202405512333,0.00004273885861039162
1746734448576069400,11.1350693359375,-0.0004887157119810581,0.001107152085751295,0.000829475000500679
1746734448586036500,11.145036376953126,-0.0012988494709134102,0.0007516201585531235,0.0005365274846553802
1746734448596003300,11.15500341796875,-0.0016100206412374973,0.000030819326639175415,0.0013474179431796074
1746734448605969400,11.164969482421874,0.0007700463756918907,-0.0002908906899392605,-0.0017314627766609192
1746734448615936300,11.174936279296874,0.00011625001206994057,-0.00022256700322031975,3.1851232051849365e-7
1746734448625903400,11.1849033203125,-0.0015402361750602722,0.00002963421866297722,-0.00028304150328040123
1746734448635870500,11.194870361328125,0.0017151192296296358,-0.0007742182351648808,0.00006842799484729767
1746734448645837300,11.20483740234375,0.0002125636674463749,0.0003147483803331852,-0.0011598221026360989
1746734448655803400,11.214803466796875,-0.0018735500052571297,-0.0016846123617142439,-0.0003169579431414604
1746734448665770200,11.224770263671875,0.0003038505092263222,0.00003712158650159836,-0.000425614882260561
1746734448675737300,11.2347373046875,-0.00025237444788217545,-0.0008857813663780689,-0.0012025665491819382
1746734448685704400,11.244704345703125,0.0006389855407178402,-0.0008924389258027077,-0.0006994954310357571
1746734448695671300,11.25467138671875,0.0006542298942804337,0.000548947136849165,-0.0008015595376491547
1746734448705637400,11.264637451171875,0.001384202390909195,0.0006003458984196186,-0.0004462939687073231
1746734448715604200,11.274604248046876,-0.00020810356363654137,0.0011049415916204453,0.0010197730734944344
1746734448725571300,11.2845712890625,-0.0006070449016988277,-0.0002396884374320507,-0.0003576138988137245
1746734448735538400,11.294538330078124,-0.0005869125016033649,0.0005302708595991135,0.0004983609542250633
1746734448745505300,11.30450537109375,-0.002949402667582035,0.00024797581136226654,0.0003849100321531296
1746734448755471400,11.314471435546874,-0.0003688898868858814,0.00015480071306228638,0.00015745870769023895
1746734448765438200,11.324438232421874,-0.0005590398795902729,0.001343635842204094,-0.0001903502270579338
1746734448775405300,11.3344052734375,-0.0017278995364904404,0.0005979100242257118,0.0005057505331933498
1746734448785372200,11.3443720703125,0.0005568261258304119,-0.0003235437907278538,0.000154213048517704
1746734448795339300,11.35433935546875,-0.000007925089448690414,-0.000006530433893203735,-0.001372573897242546
1746734448805305600,11.3643056640625,-0.0018447074107825756,0.0006251716986298561,0.00027112895622849464
