time,seconds_elapsed,z,y,x
1746738892395013000,0.01701318359375,0.004715737886726856,0.002801048569381237,-0.005744531285017729
1746738892405093000,0.027093017578125,0.0055173709988594055,0.0011223587207496166,-0.005769873503595591
1746738892415172600,0.037172607421875,0.005185807589441538,-0.0008329343982040882,-0.002998854499310255
1746738892425251800,0.047251953125,0.004009413532912731,0.003169461153447628,-0.0011449444573372602
1746738892435330600,0.05733056640625,0.0013140286318957806,0.00748191773891449,0.005546780303120613
1746738892445409500,0.067409423828125,-0.0032379007898271084,0.006139780860394239,0.007855251431465149
1746738892455488800,0.07748876953125,-0.007473924662917852,0.0047805034555494785,0.0069628264755010605
1746738892465567500,0.0875673828125,-0.0055338190868496895,-0.0012590675614774227,0.003927368205040693
1746738892475646700,0.097646728515625,-0.001865847036242485,-0.007303377613425255,0.0001890891435323283
1746738892485725700,0.1077255859375,0.0007779118604958057,-0.012740164995193481,-0.003465312533080578
1746738892495804700,0.1178046875,0.0004977472126483917,-0.025092704221606255,-0.0019513056613504887
1746738892505884700,0.127884765625,-0.0001305174082517624,-0.02890469878911972,0.0007075799512676895
1746738892515963600,0.137963623046875,0.00027454923838377,-0.031221648678183556,0.0006979925674386322
1746738892526042600,0.148042724609375,0.0024211870040744543,-0.02963310107588768,0.0038622342981398106
1746738892536121600,0.15812158203125,0.001250727567821741,-0.026595767587423325,0.010426393710076809
1746738892546200600,0.16820068359375,0.0014518434181809425,-0.021630190312862396,0.014021897688508034
1746738892556279600,0.178279541015625,-0.006247089244425297,-0.023894142359495163,0.008209548890590668
1746738892566358500,0.188358642578125,0.0015966515056788921,0.006219804286956787,0.006340346299111843
1746738892576437800,0.198437744140625,-0.0006696986965835094,0.009260335005819798,0.007438900414854288
1746738892586516700,0.208516845703125,0.001257050782442093,0.002700056415051222,0.003681209171190858
1746738892596595500,0.218595458984375,-0.001150979194790125,-0.0008488721214234829,0.003209297079592943
1746738892606675700,0.22867578125,-0.0016867388039827347,-0.0028933673165738583,-0.0017173546366393566
1746738892616754400,0.23875439453125,-0.002170901745557785,-0.010266329161822796,-0.004197822883725166
1746738892626833700,0.248833740234375,0.007911552675068378,-0.01201901026070118,-0.004855077713727951
1746738892636912600,0.25891259765625,0.012566225603222847,-0.013004379346966743,-0.008187757804989815
1746738892646991600,0.26899169921875,0.015628397464752197,-0.009736933745443821,-0.01332266815006733
1746738892657070600,0.279070556640625,0.01239638403058052,0.003981009125709534,-0.016294222325086594
1746738892667149600,0.289149658203125,0.007821653038263321,0.01330192107707262,-0.014162125065922737
1746738892677228800,0.299228759765625,0.0009943731129169464,0.01826711744070053,-0.0026143924333155155
1746738892687307500,0.3093076171875,-0.003856376279145479,0.013095244765281677,-0.00014610454672947526
1746738892697387800,0.3193876953125,-0.0067405798472464085,0.01515226997435093,-0.0003386510943528265
1746738892707466500,0.329466552734375,-0.006730309221893549,0.009376546368002892,0.00005319796036928892
1746738892717545500,0.33954541015625,-0.007355618756264448,0.006720309611409903,-0.002151366788893938
1746738892727624700,0.349624755859375,-0.0052842190489172935,-0.001379484310746193,-0.006154350470751524
1746738892737703700,0.35970361328125,-0.0002628290094435215,-0.005073821172118187,-0.008817777037620544
1746738892747782700,0.36978271484375,0.0010710721835494041,0.0006519053131341934,-0.004059690050780773
1746738892757861600,0.379861572265625,0.002311306307092309,0.007778790779411793,0.000644517713226378
1746738892767940600,0.389940673828125,0.004179877694696188,0.007243731524795294,0.009889556095004082
1746738892778019600,0.40001953125,0.00672186492010951,0.012739695608615875,0.011846980080008507
1746738892788098600,0.4100986328125,0.008787603117525578,0.013877063989639282,0.013779719360172749
1746738892798178600,0.420178466796875,0.006941499654203653,0.011490870267152786,0.010331724770367146
1746738892808257500,0.430257568359375,0.0030717363115400076,0.010043511167168617,0.000028403970645740628
1746738892818336800,0.440336669921875,-0.000053483061492443085,0.010248575359582901,-0.006464382633566856
1746738892828415700,0.450415771484375,-0.0029030870646238327,0.007351955398917198,-0.007004431448876858
1746738892838494500,0.460494384765625,-0.009336485527455807,-0.0009874668903648853,-0.0021281836088746786
1746738892848573700,0.47057373046875,-0.009083614684641361,-0.00383568974211812,0.0036049294285476208
1746738892858652700,0.480652587890625,-0.00618929136544466,0.000885828398168087,0.00822338368743658
1746738892868731600,0.490731689453125,0.003217047546058893,0.0004849247634410858,0.00799324456602335
1746738892878810600,0.500810546875,0.012396430596709251,0.009863779880106449,0.0007031072163954377
1746738892888890600,0.510890625,0.01634705439209938,0.008368594571948051,-0.006510175298899412
1746738892898969600,0.520969482421875,0.020350582897663116,0.003999412525445223,-0.015060520730912685
1746738892909048600,0.531048583984375,0.023094357922673225,-0.002903092186897993,-0.02498655766248703
1746738892919127800,0.5411279296875,0.02276359312236309,-0.006243761628866196,-0.03345674276351929
1746738892929206500,0.55120654296875,0.02960025519132614,-0.012683326378464699,-0.04004466161131859
1746738892939285500,0.561285400390625,0.03158963471651077,0.00017121899873018265,-0.049279969185590744
1746738892949364700,0.57136474609375,0.04719005152583122,0.02021190896630287,-0.05044660344719887
1746738892959443500,0.581443359375,0.019030319526791573,0.02309531345963478,-0.03642639145255089
1746738892969522700,0.591522705078125,-0.004392136353999376,0.010841692797839642,-0.016920628026127815
1746738892979601700,0.6016015625,-0.0014911550097167492,0.018463391810655594,-0.0053228274919092655
1746738892989681700,0.611681640625,-0.006525381468236446,0.005915207788348198,0.012077776715159416
1746738892999760600,0.6217607421875,-0.0039642201736569405,-0.0005304403603076935,0.023848949000239372
1746738893009839600,0.631839599609375,0.009886955842375755,-0.005369069520384073,0.01701492629945278
1746738893019918600,0.641918701171875,0.014135496690869331,0.0013769841752946377,0.006440579891204834
1746738893029997600,0.65199755859375,0.024014964699745178,-0.002257922198623419,-0.010595870204269886
1746738893040076800,0.662076904296875,0.02889680489897728,0.00019431626424193382,-0.02797992154955864
1746738893050155500,0.672155517578125,0.031737133860588074,-0.0007170033641159534,-0.04917076230049133
1746738893060234500,0.682234375,0.026694439351558685,-0.005079527385532856,-0.05500787869095802
1746738893070313700,0.692313720703125,0.021617375314235687,-0.0041845496743917465,-0.053691983222961426
1746738893080392700,0.702392822265625,0.01856592483818531,-0.006774473935365677,-0.047011978924274445
1746738893090472700,0.71247265625,0.012478949502110481,-0.016095707193017006,-0.04000888764858246
1746738893100551700,0.7225517578125,0.017792489379644394,-0.013805389404296875,-0.02550371363759041
1746738893110630400,0.73263037109375,0.022976400330662727,-0.013062352314591408,-0.021248850971460342
1746738893120709600,0.742709716796875,0.02828061766922474,-0.016961487010121346,-0.012398368678987026
1746738893130788600,0.75278857421875,0.0256660096347332,-0.02027992159128189,-0.0044348170049488544
1746738893140867600,0.76286767578125,0.02754274010658264,-0.013020677492022514,-0.0032265407498925924
1746738893150946600,0.772946533203125,0.027419937774538994,-0.012591869570314884,-0.010762165300548077
1746738893161025500,0.783025634765625,0.02161584421992302,-0.004008501768112183,-0.03060111775994301
1746738893171104800,0.793104736328125,0.02086104452610016,0.007983753457665443,-0.04653022438287735
1746738893181183500,0.80318359375,0.012574885040521622,0.014538591727614403,-0.05038195475935936
1746738893191263700,0.813263671875,0.011971145868301392,0.025364074856042862,-0.043504875153303146
1746738893201342500,0.823342529296875,0.01587693765759468,0.07080984860658646,-0.0047897035256028175
1746738893211421700,0.833421630859375,0.00878540426492691,0.07235101610422134,0.04174084961414337
1746738893221500700,0.843500732421875,-0.0018957355059683323,0.03451361879706383,0.07689670473337173
1746738893231579600,0.85357958984375,-0.0007278029806911945,0.017948517575860023,0.08661150932312012
1746738893241658600,0.86365869140625,0.0048539163544774055,0.027777979150414467,0.06683807075023651
1746738893251737600,0.873737548828125,0.006684314459562302,0.03418293967843056,0.049931515008211136
1746738893261816800,0.88381689453125,0.002541234716773033,0.03231579437851906,0.039633870124816895
1746738893271895600,0.8938955078125,-0.0016520339995622635,0.044603172689676285,0.030888427048921585
1746738893281974500,0.903974609375,-0.0056076268665492535,0.04405509680509567,0.015722258016467094
1746738893292054500,0.914054443359375,-0.007325060665607452,0.0195535346865654,-0.009956489317119122
1746738893302133500,0.924133544921875,-0.003922074101865292,0.018201183527708054,-0.03416861593723297
1746738893312212700,0.934212646484375,0.003654100699350238,0.011813968420028687,-0.051478125154972076
1746738893322291700,0.944291748046875,0.006496226415038109,0.0019317762926220894,-0.06444665789604187
1746738893332370400,0.954370361328125,0.00924861989915371,-0.008295712061226368,-0.06497398763895035
1746738893342449700,0.96444970703125,0.007992140017449856,-0.009888282045722008,-0.0604812353849411
1746738893352528600,0.974528564453125,0.005017236340790987,-0.00929560698568821,-0.0458238311111927
1746738893362607600,0.984607666015625,0.0013900110498070717,-0.005513918120414019,-0.019432170316576958
1746738893372686600,0.9946865234375,-0.003272712230682373,0.005585913080722094,0.010040291585028172
1746738893382765600,1.004765625,-0.008571870625019073,0.01722552441060543,0.031579937785863876
1746738893392845600,1.014845458984375,-0.006161799188703299,0.03117125667631626,0.03652527183294296
1746738893402924500,1.024924560546875,-0.007045169826596975,0.038286153227090836,0.02995525486767292
1746738893413003300,1.035003173828125,-0.0026033991016447544,0.027666669338941574,0.014603295363485813
1746738893423082200,1.045082275390625,0.004068352282047272,0.014399602077901363,0.000759917835239321
1746738893433161200,1.0551611328125,0.006934324279427528,0.007235785014927387,-0.009034277871251106
1746738893443240200,1.065240234375,0.002881525782868266,0.008617700077593327,-0.008727215230464935
1746738893453319400,1.0753193359375,0.00250794505700469,0.001190365757793188,-0.0024715051986277103
1746738893463398100,1.085398193359375,0.004579085391014814,-0.0016144751571118832,0.011520476080477238
1746738893473477000,1.09547705078125,-0.003019323106855154,0.0015908218920230865,0.027547799050807953
1746738893483556400,1.105556396484375,-0.0053392029367387295,0.004215100780129433,0.05279136821627617
1746738893493636000,1.115635986328125,0.0001999284140765667,0.009831078350543976,0.08583982288837433
1746738893503715300,1.12571533203125,0.007916703820228577,0.013442059978842735,0.11160164326429367
1746738893513794300,1.135794189453125,0.013232829049229622,0.002190929837524891,0.12418889999389648
1746738893523873000,1.145873046875,0.01288901548832655,0.0030079875141382217,0.11880159378051758
1746738893533952300,1.1559521484375,0.011218095198273659,0.01083884947001934,0.09393596649169922
1746738893544031200,1.16603125,0.0070931254886090755,0.01101834699511528,0.06925112754106522
1746738893554110200,1.176110107421875,0.00973894540220499,0.0007827919907867908,0.04389042779803276
1746738893564189200,1.186189208984375,0.009596733376383781,-0.0017610597424209118,0.015260114334523678
1746738893574268200,1.19626806640625,0.009464936330914497,-0.007585698738694191,-0.008103321306407452
1746738893584347100,1.20634716796875,0.0057969652116298676,-0.006783554330468178,-0.024172302335500717
1746738893594426000,1.216426025390625,0.0020258603617548943,-0.006406465545296669,-0.0404561311006546
1746738893604506400,1.22650634765625,-0.0012421044521033764,-0.008445115759968758,-0.05001235008239746
1746738893614585000,1.236585205078125,-0.0008183573372662067,-0.019901180639863014,-0.054052114486694336
1746738893624664300,1.246664306640625,-0.00014031678438186646,-0.014479784294962883,-0.04955776408314705
1746738893634743300,1.256743408203125,-0.0033393525518476963,-0.010070234537124634,-0.04643011838197708
1746738893644822000,1.266822021484375,-0.004270127508789301,-0.011921398341655731,-0.04539521411061287
1746738893654901200,1.2769013671875,-0.0036797476932406425,0.0027112383395433426,-0.0352376289665699
1746738893664980200,1.286980224609375,-0.0006485376507043839,-0.005775190889835358,-0.031783509999513626
1746738893675059200,1.29705908203125,0.0021695506293326616,-0.007836492732167244,-0.03426896780729294
1746738893685138200,1.30713818359375,0.002566095208749175,0.0020382418297231197,-0.03457123413681984
1746738893695217200,1.317217041015625,-0.0010689306072890759,-0.004669004585593939,-0.04079735279083252
1746738893705297200,1.327297119140625,-0.00022817077115178108,-0.011296014301478863,-0.04252893850207329
1746738893715376000,1.337376220703125,-0.0010279947891831398,-0.026677973568439484,-0.04625621438026428
1746738893725455400,1.347455322265625,-0.003161985892802477,-0.00962655246257782,-0.047062087804079056
1746738893735534000,1.3575341796875,-0.0036836378276348114,-0.012945426627993584,-0.04939613491296768
1746738893745613000,1.367613037109375,0.014391236007213593,0.015626030042767525,-0.06845878064632416
1746738893755692300,1.3776923828125,-0.0008500185795128345,-0.0009749336168169975,-0.03804497420787811
1746738893765771300,1.387771240234375,0.003712242469191551,-0.009892528876662254,0.0034313618671149015
1746738893775850200,1.397850341796875,0.019228342920541763,-0.00856926292181015,0.034966934472322464
1746738893785929200,1.40792919921875,0.02432403527200222,-0.02643481269478798,0.04914373904466629
1746738893796008200,1.41800830078125,0.019752979278564453,-0.038406841456890106,0.04545846953988075
1746738893806087200,1.428087158203125,0.013397610746324062,-0.006360494531691074,0.024847734719514847
1746738893816167200,1.438167236328125,0.009847504086792469,-0.005232765339314938,0.0015140112955123186
1746738893826246100,1.44824609375,0.006223208270967007,0.0059844693168997765,-0.009219059720635414
1746738893836325000,1.4583251953125,0.012561309151351452,0.00651134829968214,-0.01196666993200779
1746738893846404400,1.468404296875,0.030199958011507988,0.014869146049022675,-0.03445706516504288
1746738893856483300,1.4784833984375,0.019513757899403572,-0.005350104533135891,-0.03958364948630333
1746738893866562000,1.48856201171875,0.010574856773018837,-0.021463029086589813,-0.03560888022184372
1746738893876641300,1.498641357421875,0.020021827891469002,-0.01260877400636673,-0.031905170530080795
1746738893886720300,1.50872021484375,0.013462461531162262,-0.011110745370388031,-0.023050423711538315
1746738893896799200,1.51879931640625,0.008263465017080307,-0.011165695264935493,-0.011838294565677643
1746738893906878200,1.528878173828125,0.008694896474480629,-0.010247703641653061,-0.0032860860228538513
1746738893916958200,1.538958251953125,0.004210032522678375,-0.006182105280458927,0.0020081414841115475
1746738893927037200,1.549037109375,0.0018781684339046478,0.0001506255939602852,0.0012842942960560322
1746738893937116200,1.5591162109375,0.0009332424961030483,0.0023918948136270046,-0.004129368346184492
1746738893947195400,1.5691953125,0.0007468210533261299,0.00525053171440959,-0.011495405808091164
1746738893957274000,1.579274169921875,0.0027341770473867655,0.003380255773663521,-0.023325247690081596
1746738893967353000,1.58935302734375,-0.0002690698020160198,0.007631726562976837,-0.031276118010282516
1746738893977432300,1.599432373046875,0.0018538038711994886,-0.0041740527376532555,-0.03453962132334709
1746738893987511000,1.609510986328125,0.006373720709234476,-0.00820820964872837,-0.033716171979904175
1746738893997590300,1.61959033203125,0.0083739859983325,-0.012126829475164413,-0.03435106202960014
1746738894007669200,1.629669189453125,0.006842401809990406,-0.007590934168547392,-0.033104438334703445
1746738894017748200,1.639748291015625,0.006002811249345541,0.00047291070222854614,-0.030351871624588966
1746738894027828200,1.649828125,-0.0013903900980949402,0.010946590453386307,-0.023618867620825768
1746738894037907200,1.6599072265625,-0.004283426329493523,0.017516236752271652,-0.011637547053396702
1746738894047986200,1.669986083984375,-0.005785183049738407,0.01948777586221695,-0.0012546813813969493
1746738894058065200,1.680065185546875,-0.00597912073135376,0.0145833445712924,0.0052509428933262825
1746738894068144400,1.690144287109375,-0.005597223527729511,0.01518362108618021,0.008746874518692493
1746738894078223000,1.70022314453125,-0.004911287222057581,0.012438507750630379,0.012059164233505726
1746738894088302000,1.710302001953125,0.0011055930517613888,0.012896304950118065,0.010073510929942131
1746738894098381300,1.72038134765625,-0.000024386215955018997,0.01111757941544056,0.008644725196063519
1746738894108460300,1.730460205078125,0.0017551027704030275,0.010640565305948257,0.004781019873917103
1746738894118539000,1.7405390625,0.0011695935390889645,0.005781535990536213,-0.00015392646309919655
1746738894128619300,1.750619384765625,0.002421013079583645,0.0096505768597126,-0.004005390219390392
1746738894138698000,1.760697998046875,0.0015961029566824436,0.008256442844867706,-0.003131481586024165
1746738894148777200,1.770777099609375,0.00048023881390690804,0.00633790111169219,0.0012369015021249652
1746738894158856200,1.780856201171875,-0.0006944630295038223,0.008878946304321289,0.0021218364126980305
1746738894168935400,1.790935302734375,-0.00005264114588499069,0.012903248891234398,0.011356879957020283
1746738894179014100,1.80101416015625,-0.0016014166176319122,0.015307190828025341,0.01952282339334488
1746738894189093000,1.811093017578125,-0.001112726517021656,0.017414018511772156,0.017769398167729378
1746738894199172400,1.82117236328125,-0.004601260647177696,0.013823323883116245,0.022685647010803223
1746738894209251000,1.8312509765625,0.0010387818329036236,0.010959095321595669,0.017145739868283272
1746738894219330300,1.841330322265625,0.0014044246636331081,0.007414099294692278,0.0164051316678524
1746738894229409300,1.8514091796875,0.005918482318520546,0.004137612413614988,0.01626851223409176
1746738894239489300,1.8614892578125,0.0051664747297763824,0.0026380009949207306,0.011122681200504303
1746738894249568300,1.871568359375,0.004786175210028887,0.002574884332716465,0.001206666580401361
1746738894259647200,1.881647216796875,0.005981006659567356,0.004222080111503601,0.002966874511912465
1746738894269726200,1.891726318359375,0.003971118945628405,0.002308598719537258,0.002976195653900504
1746738894279805200,1.90180517578125,0.003437715582549572,0.001725352369248867,0.0032065638806670904
1746738894289884200,1.91188427734375,0.003934661392122507,-0.0002485821023583412,0.0011263687629252672
1746738894299963100,1.921963134765625,0.004687973763793707,-0.005490216892212629,-0.0014371240977197886
1746738894310042000,1.9320419921875,0.008919470012187958,-0.003966622054576874,0.0025680039543658495
1746738894320121300,1.942121337890625,0.010038342326879501,-0.0033092759549617767,0.0024789662566035986
1746738894330200300,1.952200439453125,0.009717164561152458,-0.0034685328137129545,0.005409775301814079
1746738894340280300,1.9622802734375,0.013490965589880943,-0.0031326566822826862,0.0034032731782644987
1746738894350359300,1.972359375,0.015284072607755661,-0.0017595309764146805,0.0019720904529094696
1746738894360438000,1.98243798828125,0.013987645506858826,0.0009049619548022747,-0.0012825587764382362
1746738894370517200,1.992517333984375,0.011635541915893555,0.0014570350758731365,-0.013030295260250568
1746738894380596200,2.00259619140625,0.008955234661698341,0.001648731529712677,-0.01252022385597229
1746738894390675200,2.01267529296875,0.0011758748441934586,0.005309245549142361,-0.006753946654498577
1746738894400754200,2.022754150390625,0.002929676789790392,0.0012781303375959396,0.00383948371745646
1746738894410834000,2.032833984375,0.0030923960730433464,-0.0009738383814692497,0.00748428562656045
1746738894420912600,2.04291259765625,0.0014249738305807114,-0.001888219267129898,0.0043551018461585045
1746738894430991600,2.05299169921875,0.0003053811378777027,0.0012844041921198368,-0.0019142458913847804
1746738894441070800,2.06307080078125,0.00232335296459496,0.00017352774739265442,-0.005928811617195606
1746738894451150600,2.073150634765625,0.001968619879335165,-0.0008965302258729935,-0.0052957781590521336
1746738894461229800,2.083229736328125,0.004198063630610704,-0.0023928447626531124,-0.00010377336002420634
1746738894471308800,2.093308837890625,0.005589032545685768,0.0024330690503120422,0.0052563706412911415
1746738894481387800,2.1033876953125,0.009241550229489803,-0.005766328889876604,0.011646107770502567
1746738894491466800,2.113466796875,0.011111089028418064,-0.0014104624278843403,0.010625317692756653
1746738894501545700,2.123545654296875,0.01058889552950859,-0.005251971073448658,0.006258968263864517
1746738894511624700,2.133624755859375,0.008225340396165848,-0.00875109899789095,0.0033587857615202665
1746738894521703700,2.14370361328125,0.004652201198041439,-0.006623262073844671,-0.001460457919165492
1746738894531783000,2.153782958984375,0.002252426464110613,-0.0025651371106505394,-0.0017467477591708302
1746738894541862000,2.16386181640625,0.0015362510457634926,0.0014909622259438038,0.0014629332581534982
1746738894551940600,2.173940673828125,-0.002587387338280678,0.0010933526791632175,-0.004903886001557112
1746738894562020900,2.184020751953125,-0.0029952554032206535,0.0010222159326076508,-0.01006042305380106
1746738894572099600,2.194099609375,-0.004208325408399105,-0.0008065770380198956,-0.013481253758072853
1746738894582178800,2.2041787109375,-0.0010334332473576069,-0.004087560810148716,-0.014081139117479324
1746738894592257800,2.2142578125,0.0005460875108838081,-0.009730799123644829,-0.00791831873357296
1746738894602336800,2.224336669921875,0.0012164567597210407,-0.016713712364435196,-0.006497561000287533
1746738894612415700,2.234415771484375,0.0015341718681156635,-0.01566256396472454,-0.007937798276543617
1746738894622494700,2.24449462890625,0.0017055426724255085,-0.007827572524547577,-0.014698890969157219
1746738894632574000,2.254573974609375,0.002706891158595681,-0.007556196302175522,-0.022904623299837112
1746738894642652700,2.264652587890625,-0.001088757999241352,-0.008382692001760006,-0.02667689509689808
1746738894652731600,2.274731689453125,0.00023403391242027283,-0.008532361127436161,-0.024186041206121445
1746738894662811000,2.284810791015625,-0.002837182953953743,-0.007700343616306782,-0.016113147139549255
1746738894672890600,2.294890625,-0.008971774019300938,-0.0027178353630006313,-0.007781181950122118
1746738894682969900,2.304969970703125,-0.0059037841856479645,0.0012778998352587223,0.0026117502711713314
1746738894693048800,2.315048828125,-0.002980697900056839,-0.004527259152382612,0.011055835522711277
1746738894703127800,2.3251279296875,0.0013607079163193703,-0.004220012575387955,0.014336406253278255
1746738894713206800,2.335206787109375,0.0010539116337895393,-0.008123939856886864,0.016166264191269875
1746738894723285800,2.34528564453125,0.00464251171797514,-0.002688226755708456,0.012644251808524132
1746738894733364700,2.35536474609375,0.004002021625638008,-0.00019391020759940147,0.007680652663111687
1746738894743443700,2.365443603515625,0.004376374185085297,-0.001460915431380272,0.0018148779636248946
1746738894753522700,2.375522705078125,0.004301805980503559,0.0010885288938879967,-0.0024552345275878906
1746738894763601700,2.3856015625,0.005877246614545584,0.004126263316720724,-0.004524676129221916
1746738894773680600,2.3956806640625,0.004146192222833633,0.010909335687756538,-0.005649861879646778
1746738894783761000,2.405760986328125,0.0038637605030089617,0.010527141392230988,-0.004937858786433935
1746738894793839600,2.415839599609375,0.0034565632231533527,0.00994683988392353,0.0023059393279254436
1746738894803918800,2.4259189453125,0.0021829442121088505,0.006347580812871456,0.007374530658125877
1746738894813997800,2.435997802734375,0.0038732525426894426,-0.0022962410002946854,0.008732477203011513
1746738894824076500,2.44607666015625,0.002286206465214491,-0.0016826647333800793,0.009446274489164352
1746738894834155800,2.45615576171875,0.0014363918453454971,-0.005234522745013237,0.004741267766803503
1746738894844234800,2.46623486328125,0.001923100557178259,0.002437146846204996,0.00523943779990077
1746738894854313700,2.476313720703125,0.0016959328204393387,0.0010624234564602375,0.0021283330861479044
1746738894864392700,2.486392822265625,0.0027528428472578526,-0.000565841794013977,0.002521218964830041
1746738894874471700,2.4964716796875,0.001557616051286459,0.00013749906793236732,0.006221414543688297
1746738894884551000,2.506551025390625,0.0014108344912528992,0.0018301084637641907,0.004144968930631876
1746738894894630700,2.516630615234375,-0.00236233277246356,0.003349175676703453,0.0030850309412926435
1746738894904710000,2.5267099609375,-0.0011976035311818123,0.004067132715135813,-0.00219454406760633
1746738894914788600,2.53678857421875,-0.0021584718488156796,0.006792610976845026,-0.006966396234929562
1746738894924867800,2.546867919921875,0.0010756016708910465,0.004764864221215248,-0.008839592337608337
1746738894934946800,2.55694677734375,0.002306514885276556,0.004980846308171749,-0.005135668441653252
1746738894945025800,2.56702587890625,0.003552686655893922,0.0034456136636435986,0.001252101268619299
1746738894955104800,2.577104736328125,0.0006447811610996723,-0.0009954734705388546,0.004177849739789963
1746738894965183700,2.587183837890625,0.0008989563211798668,-0.0013519618660211563,0.004916254431009293
1746738894975262700,2.5972626953125,0.0004885634407401085,0.0021327841095626354,-0.0011751941638067365
1746738894985341700,2.607341796875,-0.0011837733909487724,-0.0013349479995667934,-0.004547147545963526
1746738894995420700,2.617420654296875,0.002433065790683031,-0.001762385480105877,-0.006510962266474962
1746738895005500700,2.627500732421875,0.0025424621999263763,-0.003302711993455887,-0.008249418810009956
1746738895015579600,2.63757958984375,0.0030452669598162174,0.00040254415944218636,-0.010631084442138672
1746738895025659000,2.647658935546875,0.0011220695450901985,0.003121129237115383,-0.01060725748538971
1746738895035737900,2.65773779296875,0.0013005011714994907,-0.0008839983493089676,-0.007441291585564613
1746738895045816600,2.667816650390625,0.0018975320272147655,-0.0036138936411589384,-0.008507318794727325
1746738895055895800,2.677895751953125,0.00020828889682888985,-0.0006660404615104198,-0.009810669347643852
1746738895065974800,2.687974853515625,-0.000991662498563528,-0.000878011342138052,-0.0007615858921781182
1746738895076053800,2.6980537109375,-0.002336026169359684,-0.003077249974012375,0.004321056883782148
1746738895086132700,2.7081328125,-0.0021727639250457287,-0.001699531450867653,0.009767202660441399
1746738895096211700,2.718211669921875,-0.0009130886755883694,0.0014504552818834782,0.013521993532776833
1746738895106291000,2.728291015625,-0.0011509386822581291,-0.00035802414640784264,0.009883902966976166
1746738895116370700,2.73837060546875,0.001178528182208538,-0.00041395053267478943,0.008356047794222832
1746738895126450000,2.748449951171875,0.0005182023160159588,0.004000537097454071,0.010293887928128242
1746738895136528600,2.758528564453125,0.0012220758944749832,0.005037305876612663,0.0073819877579808235
1746738895146607600,2.768607666015625,0.001024194061756134,0.0019197463989257812,0.0007222375716082752
1746738895156686800,2.778686767578125,0.0008279192261397839,0.002543725073337555,-0.004354279953986406
1746738895166765600,2.788765625,0.00040013762190937996,0.005932522006332874,-0.006231189239770174
1746738895176844800,2.7988447265625,0.002768486738204956,0.0026011746376752853,-0.006210949271917343
1746738895186923800,2.808923828125,0.002470921026542783,-0.003889997722581029,-0.0060942466370761395
1746738895197002800,2.819002685546875,0.0025910295080393553,-0.010795574635267258,-0.005512612406164408
1746738895207081700,2.829081787109375,0.0036981962621212006,-0.009929264895617962,-0.0027999726589769125
1746738895217160700,2.83916064453125,0.0004944135434925556,-0.0037544595543295145,-0.004423702135682106
1746738895227240000,2.849239990234375,0.002824578434228897,-0.002984854858368635,-0.003803111147135496
1746738895237319700,2.859319580078125,-0.00010463222861289978,0.00098751625046134,-0.0029554269276559353
1746738895247399000,2.86939892578125,0.005736065097153187,-0.009419413283467293,-0.0015637658070772886
1746738895257478000,2.879477783203125,0.007870055735111237,-0.013126000761985779,-0.002648471388965845
1746738895267556600,2.889556640625,0.009845459833741188,-0.015853311866521835,-0.003959154710173607
1746738895277635800,2.8996357421875,0.008492840453982353,-0.01197095587849617,-0.01030014082789421
1746738895287714800,2.90971484375,0.0111377639696002,-0.007977515459060669,-0.018132638186216354
1746738895297793800,2.919793701171875,0.0071773771196603775,-0.002225087024271488,-0.02022375352680683
1746738895307872800,2.929872802734375,0.0015726075507700443,0.0033168569207191467,-0.02174212969839573
1746738895317951700,2.93995166015625,-0.0011158534325659275,0.0033980831503868103,-0.014293001033365726
1746738895328030700,2.95003076171875,-0.002159123308956623,0.002207543235272169,-0.007225947920233011
1746738895338110700,2.96011083984375,-0.002236887812614441,0.001929775346070528,0.0009246565750800073
1746738895348190000,2.97018994140625,-0.0038964003324508667,0.003949577454477549,0.005104343872517347
1746738895358268700,2.9802685546875,-0.0036138389259576797,0.0003050421364605427,0.008016776293516159
1746738895368347600,2.99034765625,-0.002957497723400593,-0.0023114834912121296,0.0071218134835362434
1746738895378427000,3.000427001953125,-0.0011686529032886028,0.0009349100291728973,0.005665330681949854
1746738895388505600,3.010505615234375,-0.001725688111037016,0.004963947460055351,0.0009713857434689999
1746738895398584800,3.020584716796875,-0.0018375408835709095,0.0030366182327270508,0.0018443699227645993
1746738895408663800,3.030663818359375,0.000422594603151083,0.002194914035499096,0.00402107834815979
1746738895418742800,3.04074267578125,0.0023762898053973913,0.004035424441099167,0.0011853445321321487
1746738895428821800,3.05082177734375,0.00413875188678503,0.005867822095751762,-0.0014479565434157848
1746738895438900700,3.060900634765625,0.0034577816259115934,0.004255012609064579,0.00048363429959863424
1746738895448980000,3.07097998046875,0.004163640551269054,0.0012197182513773441,0.002621775958687067
1746738895459059700,3.081059814453125,0.0038499198853969574,-0.003194204531610012,0.0005471734330058098
1746738895469139000,3.091138916015625,0.002726959530264139,-0.0031892149709165096,0.0013571892632171512
1746738895479217700,3.1012177734375,-0.003945324569940567,-0.0074180481024086475,0.002561737084761262
1746738895489296600,3.111296630859375,-0.0035145538859069347,-0.007689125835895538,0.0017615817487239838
1746738895499375900,3.1213759765625,-0.001837028656154871,-0.006180178839713335,0.0012404010631144047
1746738895509454800,3.131454833984375,-0.0008194143883883953,-0.005260460544377565,0.00004327409260440618
1746738895519533600,3.141533447265625,-0.002291077747941017,-0.0033981117885559797,-0.004349343478679657
1746738895529612800,3.15161279296875,0.001445189118385315,-0.0021324092522263527,-0.00235261139459908
1746738895539691800,3.16169189453125,0.0024942082818597555,-0.008449426852166653,-0.0015251673758029938
1746738895549770800,3.171770751953125,0.005620167590677738,-0.009080547839403152,0.00013376882998272777
1746738895559849700,3.181849609375,0.0029471528250724077,-0.009507718496024609,0.0030699039343744516
1746738895569929700,3.1919296875,0.0010603535920381546,-0.004553019534796476,0.00735862273722887
1746738895580008700,3.2020087890625,0.004928594920784235,-0.003722113324329257,0.01127027440816164
1746738895590087700,3.212087646484375,0.0038832444697618484,-0.007677392568439245,0.013493001461029053
1746738895600167000,3.2221669921875,0.004125325940549374,-0.005660048220306635,0.013154513202607632
1746738895610245600,3.23224560546875,0.003406340954825282,-0.006453387904912233,0.008630264550447464
1746738895620324900,3.242324951171875,0.002579163061454892,-0.0064001246355473995,0.007215327117592096
1746738895630403800,3.25240380859375,0.0012425915338099003,-0.00612100912258029,0.0005773273296654224
1746738895640482600,3.262482666015625,0.0016923993825912476,-0.007229682989418507,-0.003979341126978397
1746738895650561800,3.272561767578125,0.000011875759810209274,-0.006054446566849947,-0.005143071990460157
1746738895660640800,3.282640869140625,0.002057982375845313,0.000107575673609972,-0.00702352961525321
1746738895670719700,3.2927197265625,0.00021893205121159554,0.006074090022593737,-0.010729708708822727
1746738895680798700,3.302798828125,0.00007991492748260498,0.007153203245252371,-0.015443770214915276
1746738895690879000,3.31287890625,-0.0010397271253168583,0.01153315044939518,-0.019325291737914085
1746738895700957700,3.322957763671875,-0.005979891400784254,0.02081000618636608,-0.02158365212380886
1746738895711036700,3.33303662109375,-0.008768881671130657,0.02845836989581585,-0.023291414603590965
1746738895721116000,3.343115966796875,-0.016533326357603073,0.01366371288895607,-0.027612393721938133
1746738895731194600,3.353194580078125,-0.030963774770498276,-0.01811232976615429,-0.011970975436270237
1746738895741273600,3.363273681640625,-0.03690342232584953,-0.037040747702121735,0.027358319610357285
1746738895751352800,3.373352783203125,-0.04058288782835007,-0.03346395120024681,0.06510838866233826
1746738895761431800,3.383431884765625,-0.03970564156770706,-0.012190353125333786,0.06388812512159348
1746738895771510800,3.3935107421875,-0.02758817747235298,0.011439956724643707,0.0329974964261055
1746738895781589800,3.40358984375,-0.010294142179191113,0.026577897369861603,0.0023900517262518406
1746738895791668700,3.413668701171875,-0.0035684574395418167,0.01984359510242939,0.000025288391043432057
1746738895801748700,3.423748779296875,0.0017344285733997822,-0.0010358551517128944,0.010450499132275581
1746738895811827700,3.43382763671875,0.0024577139411121607,-0.01988350600004196,0.02477942407131195
1746738895821906700,3.44390673828125,0.0004648705944418907,-0.018203584477305412,0.023619618266820908
1746738895831985700,3.453985595703125,-0.0006310897879302502,-0.01803502067923546,0.016741542145609856
1746738895842065000,3.46406494140625,0.0061735534109175205,-0.026195745915174484,-0.0018300111405551434
1746738895852143900,3.474143798828125,0.01074946578592062,-0.030201923102140427,-0.018655400723218918
1746738895862222600,3.48422265625,0.01159715000540018,-0.021936271339654922,-0.027768472209572792
1746738895872301800,3.4943017578125,0.008498039096593857,-0.012670537456870079,-0.03634094074368477
1746738895882380800,3.504380859375,0.0060481964610517025,-0.0013856589794158936,-0.03506848216056824
1746738895892459800,3.514459716796875,0.004817531444132328,0.009371256455779076,-0.03314058482646942
1746738895902538800,3.524538818359375,0.0009215935133397579,0.011650389060378075,-0.029986867681145668
1746738895912617700,3.53461767578125,0.005884443409740925,0.014575129374861717,-0.021887484937906265
1746738895922697700,3.54469775390625,0.004665780812501907,0.013888301327824593,-0.012247642502188683
1746738895932776700,3.554776611328125,0.006370756309479475,0.010917236097157001,-0.006933818105608225
1746738895942856000,3.56485595703125,0.004678583703935146,0.013405694626271725,-0.008575390093028545
1746738895952934700,3.5749345703125,0.00531567120924592,0.018756737932562828,-0.010742725804448128
1746738895963013600,3.585013671875,0.0063010407611727715,0.021639609709382057,-0.018922625109553337
1746738895973092900,3.5950927734375,0.009876670315861702,0.012685544788837433,-0.0197709109634161
1746738895983171600,3.605171630859375,0.008818329311907291,0.007407959084957838,-0.019792748615145683
1746738895993250800,3.615250732421875,0.006009186618030071,-0.0004545855335891247,-0.025034097954630852
1746738896003329800,3.625329833984375,0.004139380995184183,0.00010387925431132317,-0.029638437554240227
1746738896013408800,3.63540869140625,-0.0005790977738797665,-0.001455558929592371,-0.038149990141391754
1746738896023487700,3.64548779296875,-0.006165077909827232,-0.00048297271132469177,-0.03483861684799194
1746738896033567700,3.655567626953125,-0.006306453607976437,0.006411408539861441,-0.035754282027482986
1746738896043646700,3.665646728515625,-0.00584785733371973,0.009948354214429855,-0.028054548427462578
1746738896053725700,3.6757255859375,-0.007426046766340733,0.009829310700297356,-0.0224738959223032
1746738896063805000,3.685804931640625,-0.004587116651237011,0.012678893283009529,-0.01983576826751232
1746738896073883600,3.695883544921875,-0.0031708767637610435,0.012568709440529346,-0.018455663695931435
1746738896083962600,3.705962646484375,-0.00036763353273272514,0.015102441422641277,-0.02047513797879219
1746738896094041900,3.716041748046875,-0.0023989249020814896,0.01854267343878746,-0.020980536937713623
1746738896104120800,3.726120849609375,-0.0043249232694506645,0.015578575432300568,-0.02282690815627575
1746738896114199600,3.736199462890625,-0.005805996712297201,0.007436877582222223,-0.026812219992280006
1746738896124278800,3.74627880859375,-0.008594859391450882,0.0011608717031776905,-0.027866298332810402
1746738896134357800,3.756357666015625,-0.011466871947050095,-0.010038470849394798,-0.03543947637081146
1746738896144436700,3.766436767578125,-0.009908122941851616,-0.0210059005767107,-0.040023308247327805
1746738896154516700,3.776516845703125,-0.0055593568831682205,-0.02526654116809368,-0.046132709830999374
1746738896164596000,3.786595947265625,-0.007326897233724594,-0.025424467399716377,-0.057565923780202866
1746738896174674700,3.7966748046875,-0.004813298583030701,-0.024137260392308235,-0.06773768365383148
1746738896184753700,3.806753662109375,-0.008078600279986858,-0.02345149591565132,-0.0630587786436081
1746738896194833000,3.8168330078125,-0.006159062497317791,-0.024062177166342735,-0.06142193451523781
1746738896204911600,3.82691162109375,-0.003216269426047802,-0.01717257872223854,-0.05005023628473282
1746738896214990800,3.836990966796875,-0.002675450872629881,-0.016347814351320267,-0.04211873933672905
1746738896225069800,3.84706982421875,-0.002190756145864725,-0.01613369584083557,-0.034258950501680374
1746738896235148500,3.8571484375,0.0007716165855526924,-0.01195303350687027,-0.030658764764666557
1746738896245227800,3.867227783203125,-0.001553056761622429,-0.010437694378197193,-0.026676008477807045
1746738896255306800,3.877306640625,0.000685675535351038,-0.00988047942519188,-0.019256263971328735
1746738896265386000,3.887385986328125,0.002857483457773924,-0.011449613608419895,-0.01729005202651024
1746738896275465700,3.8974658203125,0.0010162047110497952,-0.010625340044498444,-0.014076681807637215
1746738896285544700,3.907544677734375,-0.001897293608635664,-0.00660290103405714,-0.010316564701497555
1746738896295623700,3.917623779296875,-0.0017017298378050327,0.0022107060067355633,-0.006758154835551977
1746738896305702700,3.92770263671875,-0.0038522323593497276,0.002571031916886568,-0.008476425893604755
1746738896315782000,3.937781982421875,-0.003953678533434868,0.006523295305669308,-0.007528644520789385
1746738896325860900,3.94786083984375,-0.003369114361703396,0.015257131308317184,-0.002682223916053772
1746738896335939600,3.957939697265625,-0.002181275747716427,0.014180166646838188,-0.004178991541266441
1746738896346018800,3.968018798828125,-0.0028593167662620544,0.005483880639076233,-0.0004228695179335773
1746738896356097800,3.978097900390625,-0.0016571762971580029,0.0015375404618680477,-0.00009661313379183412
1746738896366176800,3.9881767578125,0.00021529244258999825,-0.00802693609148264,-0.0056130848824977875
1746738896376255700,3.998255859375,0.0010448475368320942,-0.010042546316981316,-0.008537199348211288
1746738896386334700,4.008334716796875,0.003183365799486637,-0.014829577878117561,-0.013822508975863457
1746738896396414700,4.018414794921875,0.0008046827279031277,-0.012973019853234291,-0.018124941736459732
1746738896406493700,4.02849365234375,0.0000850968062877655,-0.006789692677557468,-0.016227971762418747
1746738896416571600,4.038571533203125,0.00003586430102586746,-0.008148625493049622,-0.01465671882033348
1746738896426651000,4.04865087890625,-0.0007529640570282936,-0.0062884073704481125,-0.01928928680717945
1746738896436729600,4.0587294921875,0.0014370819553732872,-0.00010990677401423454,-0.01796635426580906
1746738896446808800,4.068808837890625,0.001456522848457098,0.004245959222316742,-0.016430774703621864
1746738896456887800,4.0788876953125,0.003611666150391102,0.008268957957625389,-0.014814653433859348
1746738896466966500,4.088966552734375,0.0011477097868919373,0.0056486730463802814,-0.01085053849965334
1746738896477045800,4.099045654296875,0.002076032804325223,0.00653649540618062,-0.004130751360207796
1746738896487124700,4.109124755859375,0.0038686064071953297,0.011615943163633347,-0.0013663897989317775
1746738896497203700,4.11920361328125,0.0011309562250971794,0.016036871820688248,0.0031819334253668785
1746738896507282700,4.12928271484375,-0.0018477896228432655,0.025571521371603012,0.0071748108603060246
1746738896517362700,4.13936279296875,-0.004347057547420263,0.024906100705266,0.0027741154190152884
1746738896527441700,4.149441650390625,-0.0024650017730891705,0.03978970646858215,-0.0030451577622443438
1746738896537520600,4.159520751953125,0.0041627101600170135,0.058854177594184875,-0.00540331844240427
1746738896547600000,4.169599853515625,0.014772477559745312,0.07125678658485413,-0.013195727951824665
1746738896557678600,4.1796787109375,0.01697290875017643,0.06429924070835114,-0.026334024965763092
1746738896567757600,4.189757568359375,0.008186074905097485,0.025473017245531082,-0.044832341372966766
1746738896577836800,4.1998369140625,0.0031323328148573637,0.02903050184249878,-0.04852655157446861
1746738896587915800,4.209915771484375,0.002893447410315275,0.028293337672948837,-0.039276063442230225
1746738896597994800,4.219994873046875,0.001752202631905675,0.034635305404663086,-0.029668619856238365
1746738896608073700,4.23007373046875,0.0010549873113632202,0.03870408236980438,-0.0207318514585495
1746738896618152700,4.240152587890625,-0.003554284106940031,0.04368096590042114,-0.012457266449928284
1746738896628231700,4.250231689453125,-0.0065530030988156796,0.021733056753873825,-0.01731753535568714
1746738896638311700,4.260311767578125,-0.007623524405062199,-0.009982511401176453,-0.029187848791480064
1746738896648390700,4.270390625,-0.008761227130889893,0.0024693645536899567,-0.03934035077691078
1746738896658469600,4.2804697265625,-0.0038576554507017136,0.006953764241188765,-0.04278187081217766
1746738896668548900,4.290548828125,-0.001392900012433529,-0.00007564947009086609,-0.04927891865372658
1746738896678627800,4.3006279296875,-0.0020283302292227745,-0.003313786815851927,-0.05138308182358742
1746738896688706600,4.31070654296875,-0.00422756839543581,-0.006201452575623989,-0.04908477142453194
1746738896698785800,4.320785888671875,-0.008529057726264,0.00023129349574446678,-0.054933905601501465
1746738896708864800,4.33086474609375,-0.0060842763632535934,0.0026161540299654007,-0.0642741471529007
1746738896718943500,4.340943603515625,-0.0037627192214131355,0.00683921342715621,-0.07264268398284912
1746738896729022700,4.351022705078125,-0.0035760318860411644,-0.0018493491224944592,-0.07415056973695755
1746738896739101700,4.361101806640625,-0.010060736909508705,-0.010240811854600906,-0.0779065415263176
1746738896749180700,4.3711806640625,-0.015248574316501617,-0.008217341266572475,-0.0793936476111412
1746738896759259600,4.381259765625,-0.01838114485144615,0.010105563327670097,-0.06957545131444931
1746738896769340000,4.39133984375,-0.013314749114215374,0.01903540827333927,-0.04711328446865082
1746738896779418600,4.401418701171875,-0.004730187356472015,-0.003304817480966449,-0.018995488062500954
1746738896789497600,4.41149755859375,0.007768293842673302,-0.013188607059419155,0.011437784880399704
1746738896799576800,4.421576904296875,0.010780110955238342,-0.009364157915115356,0.03130040317773819
1746738896809655600,4.431655517578125,0.015798039734363556,-0.009632871486246586,0.03689996898174286
1746738896819734800,4.44173486328125,0.013235913589596748,-0.007761514745652676,0.029529806226491928
1746738896829813800,4.451813720703125,0.009564213454723358,-0.005014197900891304,0.016710679978132248
1746738896839892700,4.461892822265625,0.003238640958443284,-0.003225822001695633,0.0029842741787433624
1746738896849971700,4.4719716796875,0.00241812109015882,0.005287504754960537,0.003333148080855608
1746738896860050700,4.48205078125,0.0033429190516471863,0.0026627937331795692,0.004022479057312012
1746738896870130000,4.4921298828125,0.004515509121119976,-0.004535730462521315,0.003198496997356415
1746738896880208600,4.502208740234375,0.0035640099085867405,-0.010178552940487862,0.008402280509471893
1746738896890288600,4.51228857421875,0.0043123578652739525,-0.006807257421314716,0.00820094533264637
1746738896900367600,4.52236767578125,0.008616234175860882,-0.009249859489500523,0.00905054621398449
1746738896910446600,4.532446533203125,0.007017804775387049,-0.005439674947410822,0.005050212144851685
1746738896920525800,4.54252587890625,0.004869581665843725,-0.0025135581381618977,0.01126799825578928
1746738896930604800,4.552604736328125,0.00363494036719203,-0.010688929818570614,0.008757968433201313
1746738896940683500,4.56268359375,0.0008138539269566536,-0.0023513715714216232,0.015399093739688396
1746738896950762800,4.5727626953125,0.0010442170314490795,0.007500726263970137,0.019876133650541306
1746738896960841700,4.582841796875,0.0008416092023253441,0.011960938572883606,0.014379051513969898
1746738896970920700,4.592920654296875,0.0030056938994675875,0.00904024951159954,0.007969355210661888
1746738896980999700,4.602999755859375,0.00478580966591835,0.007667338941246271,0.002232321072369814
1746738896991078700,4.61307861328125,0.00455757649615407,0.005217496771365404,-0.001399431494064629
1746738897001158000,4.623157958984375,0.005638297647237778,0.0006837993860244751,0.0019377564312890172
1746738897011236600,4.633236572265625,0.005097409710288048,-0.0021434128284454346,0.0085602393373847
1746738897021316900,4.64331689453125,-0.00193314952775836,0.00115656154230237,0.013721483759582043
1746738897031395600,4.6533955078125,-0.0003589550033211708,-0.0015169857069849968,0.013189117424190044
1746738897041474800,4.663474853515625,0.00046329153701663017,-0.001545383594930172,0.008719729259610176
1746738897051553800,4.6735537109375,-0.00019344408065080643,0.0005736933089792728,0.0019252061611041427
1746738897061632500,4.683632568359375,0.0012718373909592628,-0.0005362457595765591,-0.0032077892683446407
1746738897071711700,4.693711669921875,0.006153944414108992,-0.0003644721582531929,-0.0026599769480526447
1746738897081790700,4.703790771484375,0.0050307027995586395,0.004834902007132769,0.0020095189101994038
1746738897091869700,4.71386962890625,0.006570009980350733,0.0026255440898239613,0.006736629642546177
1746738897101948700,4.72394873046875,0.0011882716789841652,0.006292715203016996,0.011844293214380741
1746738897112027600,4.734027587890625,0.002821322064846754,0.0026966496370732784,0.01866384968161583
1746738897122107000,4.74410693359375,0.0017582331784069538,0.002062157727777958,0.014066672883927822
1746738897132185600,4.754185546875,-0.001504671759903431,-0.0014827759005129337,0.0095973564311862
1746738897142265900,4.764265869140625,-0.0004680417478084564,-0.0042980387806892395,0.0031419971492141485
1746738897152344600,4.774344482421875,-0.003504045307636261,0.002175306435674429,-0.006584133021533489
1746738897162423600,4.784423583984375,-0.003335848916321993,0.004125114530324936,-0.01493996661156416
1746738897172502800,4.794502685546875,-0.0012015914544463158,0.0027258899062871933,-0.013360179029405117
1746738897182581800,4.804581787109375,0.0006208228878676891,0.00002298504114151001,-0.01086902804672718
1746738897192660700,4.81466064453125,0.004355640150606632,-0.0016161906532943249,-0.0018765988061204553
1746738897202739700,4.82473974609375,0.0037268195301294327,-0.00081286346539855,-0.0035112141631543636
1746738897212818700,4.834818603515625,0.0010255752131342888,0.002136321272701025,-0.0030635367147624493
1746738897222897700,4.844897705078125,0.0008468665182590485,0.004753873683512211,-0.008469467982649803
1746738897232976600,4.8549765625,0.000694001093506813,0.007140864618122578,-0.010564310476183891
1746738897243055900,4.865055908203125,0.00003783125430345535,0.007645741105079651,-0.006723560392856598
1746738897253134800,4.875134765625,0.0023441286757588387,0.006302976049482822,0.003298979951068759
1746738897263213600,4.885213623046875,-0.0010701939463615417,0.008034457452595234,0.015732377767562866
1746738897273293800,4.8952939453125,0.000006788410246372223,0.00629807636141777,0.021624621003866196
1746738897283372500,4.90537255859375,0.0007962887175381184,0.00660730479285121,0.017778607085347176
1746738897293451800,4.91545166015625,0.00037337886169552803,0.005452824290841818,0.010918570682406425
1746738897303530800,4.92553076171875,-0.00016558775678277016,0.013576211407780647,-0.001544541330076754
1746738897313609700,4.935609619140625,0.002975344192236662,0.013341853395104408,-0.0006566434167325497
1746738897323688700,4.945688720703125,0.005167254246771336,0.007358496077358723,0.006173975300043821
1746738897333767700,4.955767578125,0.002044165274128318,0.0029999669641256332,0.011249960400164127
1746738897343847000,4.965846923828125,0.003304847050458193,0.00801368523389101,0.011493423953652382
1746738897353925600,4.975925537109375,0.001389501616358757,0.012876884080469608,0.005859507713466883
1746738897364004600,4.986004638671875,0.0011685402132570744,0.011929684318602085,0.0019919725600630045
1746738897374083800,4.996083740234375,0.002191993175074458,0.011904117651283741,-0.002286928240209818
1746738897384162600,5.00616259765625,0.0000850968062877655,0.013529160991311073,0.0017225324409082532
1746738897394241800,5.01624169921875,-0.0017412994056940079,0.007864350453019142,0.005049353465437889
1746738897404321800,5.02632177734375,-0.0005747065879404545,0.001687380950897932,0.011939892545342445
1746738897414401800,5.03640185546875,-0.002654103096574545,-0.004893556237220764,0.01485498994588852
1746738897424480800,5.046480712890625,-0.00464211730286479,-0.0006378763355314732,0.015000066719949245
1746738897434559700,5.056559814453125,-0.004443711135536432,-0.00026716431602835655,0.012129179202020168
1746738897444638700,5.066638671875,-0.003653101623058319,0.0021149422973394394,0.008929751813411713
1746738897454717700,5.0767177734375,-0.003428330644965172,0.00266062468290329,0.007092703133821487
1746738897464796700,5.086796630859375,-0.0010859970934689045,0.003181760199368,0.0054710628464818
1746738897474875600,5.096875732421875,0.005026490427553654,0.0004930328577756882,0.003022286109626293
1746738897484954600,5.10695458984375,0.0068305362947285175,-0.0038355346769094467,0.001749522634781897
1746738897495033900,5.117033935546875,0.010168010368943214,-0.0020309765823185444,-0.002234566491097212
1746738897505112600,5.127112548828125,0.009192772209644318,-0.0022921632044017315,-0.005049548111855984
1746738897515191800,5.13719189453125,0.008534970693290234,0.0002370406873524189,-0.006135052535682917
1746738897525271600,5.147271484375,0.006713081616908312,-0.0011523249559104443,-0.007181957364082336
1746738897535350800,5.157350830078125,0.0028714719228446484,0.006042737513780594,-0.002548323245719075
1746738897545429800,5.1674296875,0.0006288564763963223,0.0037157326005399227,-0.0008106157765723765
1746738897555508700,5.1775087890625,0.0014464468695223331,-0.0010491949506103992,0.0029167444445192814
1746738897565587700,5.187587646484375,0.0004976089112460613,-0.0024216449819505215,0.008031315170228481
1746738897575666700,5.197666748046875,-0.00017190957441926003,-0.0004232092760503292,0.005516758654266596
1746738897585746000,5.207745849609375,-0.004159368574619293,0.0021817879751324654,0.0009368066675961018
1746738897595824600,5.21782470703125,-0.0014101872220635414,0.0010512759909033775,-0.0024171783588826656
1746738897605903600,5.227903564453125,0.0001334967091679573,0.0010370546951889992,-0.0020545569714158773
1746738897615982800,5.23798291015625,0.002200908726081252,0.001348111778497696,0.00252448208630085
1746738897626061600,5.2480615234375,0.0036275058519095182,0.004806545563042164,0.001965801464393735
1746738897636140800,5.258140869140625,0.0036506755277514458,0.0030422015115618706,0.0000675003684591502
1746738897646219800,5.2682197265625,0.0029532399494200945,0.0028236997313797474,-0.004460436291992664
1746738897656298800,5.278298828125,0.0021423075813800097,0.0046290564350783825,-0.010458407923579216
1746738897666378800,5.288378662109375,0.0017874469049274921,0.005692490842193365,-0.010262010619044304
1746738897676457700,5.298457763671875,0.0013762549497187138,0.004026949871331453,-0.005798818077892065
1746738897686536700,5.30853662109375,0.0008154050447046757,-0.004149416461586952,0.003980288282036781
1746738897696615700,5.31861572265625,0.0013839900493621826,-0.00502399867400527,0.00932285562157631
1746738897706694700,5.328694580078125,0.001770280534401536,-0.003947159741073847,0.011900076642632484
1746738897716773600,5.338773681640625,-0.0021466966718435287,-0.0006640148349106312,0.010416429489850998
1746738897726852600,5.3488525390625,-0.00046218279749155045,0.000566490925848484,0.010752778500318527
1746738897736931800,5.358931884765625,-0.002711755223572254,0.008159428834915161,0.011318167671561241
1746738897747010800,5.3690107421875,-0.000023257452994585037,0.007191321346908808,0.01084539107978344
1746738897757089500,5.379089599609375,0.0036348605062812567,0.0010559302754700184,0.009436579421162605
1746738897767168800,5.389168701171875,0.0017532429192215204,-0.00343698519282043,0.009773585945367813
1746738897777247700,5.399247802734375,0.002570833545178175,-0.00006275996565818787,0.009266786277294159
1746738897787326700,5.40932666015625,0.0017838121857494116,0.003728835843503475,0.004473146516829729
1746738897797406700,5.41940673828125,0.0011619641445577145,0.00303694698959589,-0.005736347753554583
1746738897807485700,5.429485595703125,-0.00007062824442982674,0.004556190222501755,-0.003632090985774994
1746738897817564700,5.439564697265625,0.004351817071437836,-0.0017211465165019035,-0.002796923741698265
1746738897827643600,5.4496435546875,0.0037508918903768063,-0.0041988445445895195,-0.002523582661524415
1746738897837723000,5.459722900390625,0.004288317635655403,-0.009581359103322029,0.0016727601177990437
1746738897847801600,5.469801513671875,0.0007042479701340199,-0.005620898678898811,0.004055734258145094
1746738897857880600,5.479880615234375,-0.002324298955500126,-0.0012850062921643257,0.007460585795342922
1746738897867959800,5.489959716796875,-0.00043261004611849785,0.004052640404552221,0.005081023555248976
1746738897878038500,5.50003857421875,-0.002353282179683447,0.003214809577912092,0.00795191153883934
1746738897888117800,5.51011767578125,-0.0011069108732044697,0.0023648012429475784,0.006481025367975235
1746738897898196700,5.52019677734375,0.001671565230935812,-0.002313840202987194,0.00515796709805727
1746738897908275700,5.530275634765625,0.0032984090503305197,-0.0023213871754705906,0.0013398868031799793
1746738897918354700,5.540354736328125,0.002558849286288023,-0.00738805066794157,-0.003344080876559019
1746738897928434700,5.5504345703125,0.0014983336441218853,-0.0005787541158497334,-0.00437682680785656
1746738897938513700,5.560513671875,0.00025676749646663666,-0.001674111932516098,-0.0070402538403868675
1746738897948592600,5.570592529296875,-0.0022728778421878815,-0.0010477202013134956,-0.006708215922117233
1746738897958672000,5.580671875,-0.001799367368221283,-0.00554207107052207,-0.002173385117202997
1746738897968750600,5.59075048828125,-0.001370423473417759,-0.003272807691246271,0.005038246512413025
1746738897978829600,5.60082958984375,-0.0032253158278763294,-0.0006687687709927559,0.009988796897232533
1746738897988908800,5.61090869140625,-0.006162769161164761,-0.00335316127166152,0.012875639833509922
1746738897998987800,5.62098779296875,-0.003410925157368183,-0.0031640767119824886,0.009424982592463493
1746738898009066800,5.631066650390625,0.00038532866165041924,-0.001224322710186243,0.006660982966423035
1746738898019145700,5.641145751953125,0.000717424787580967,0.0019911774434149265,-0.00045072243665345013
1746738898029224700,5.651224609375,0.002552515361458063,0.000883141066879034,-0.0007275757379829884
1746738898039303700,5.6613037109375,0.0016568941064178944,0.0021119234152138233,-0.003967577591538429
1746738898049382700,5.671382568359375,0.0024178982712328434,0.002305038273334503,-0.002939741127192974
1746738898059461600,5.681461669921875,0.0019044408109039068,0.0037383511662483215,-0.005070536397397518
1746738898069541600,5.691541748046875,0.0019221685361117125,0.0029541589319705963,-0.0010139087680727243
1746738898079620600,5.70162060546875,0.0011764834634959698,-0.0009694765321910381,-0.0025414980482310057
1746738898089699800,5.711699951171875,0.0030458515975624323,-0.0001554465852677822,-0.0018942021997645497
1746738898099778600,5.721778564453125,0.003838674630969763,-0.0010215062648057938,-0.002124565653502941
1746738898109857800,5.73185791015625,0.0025984279345721006,-0.0005555287934839725,0.0007889560656622052
1746738898119936800,5.741936767578125,-0.002175820991396904,0.0021390574984252453,0.0018973636906594038
1746738898130015500,5.752015380859375,-0.0014892756007611752,0.00348732341080904,0.006989955436438322
1746738898140094700,5.7620947265625,-0.0030866400338709354,0.001675575040280819,0.00991357397288084
1746738898150173700,5.772173583984375,-0.0010411841794848442,-0.0009740833193063736,0.012818625196814537
1746738898160253000,5.7822529296875,-0.0034335018135607243,0.002226503100246191,0.009694737382233143
1746738898170331600,5.79233154296875,-0.00002484489232301712,0.0022818869911134243,0.0022336437832564116
1746738898180410600,5.80241064453125,0.001200208906084299,0.004269403871148825,-0.005135323386639357
1746738898190489900,5.81248974609375,0.0003571365959942341,0.001051045022904873,-0.012094451114535332
1746738898200569600,5.822569580078125,0.0039702472276985645,-0.0022294367663562298,-0.011739452369511127
1746738898210648800,5.83264892578125,0.0015449859201908112,-0.0022655148059129715,-0.006156961899250746
1746738898220727800,5.842727783203125,0.0022651045583188534,-0.00401414604857564,-0.002327603055164218
1746738898230806800,5.852806884765625,-0.00047214236110448837,-0.0010282215662300587,0.00009513027180219069
1746738898240885800,5.8628857421875,-0.0007653567008674145,0.0031883614137768745,0.0019763873424381018
1746738898250964700,5.87296484375,0.0007781218737363815,-0.0021418603137135506,0.0037331783678382635
1746738898261043700,5.883043701171875,-0.0010173814371228218,-0.0016102935187518597,0.006438683718442917
1746738898271122700,5.893122802734375,-0.0015664808452129364,0.0021744580008089542,0.015469970181584358
1746738898281201700,5.90320166015625,-0.0036306967958807945,0.005957478191703558,0.014386597089469433
1746738898291280600,5.91328076171875,-0.006452525500208139,0.004701743368059397,0.012971875257790089
1746738898301359600,5.923359619140625,-0.0029163802973926067,0.004481233190745115,0.006263372953981161
1746738898311438800,5.93343896484375,-0.001287831924855709,0.003756470512598753,0.001615311368368566
1746738898321517800,5.943517822265625,0.0024901283904910088,0.001947119366377592,-0.009691138751804829
1746738898331596500,5.953596435546875,0.00678486842662096,-0.0044247983023524284,-0.012917946092784405
1746738898341675800,5.96367578125,0.005255681462585926,-0.006317240186035633,-0.0196650642901659
1746738898351755500,5.973755615234375,0.004069993272423744,-0.004873299039900303,-0.02100720815360546
1746738898361834800,5.983834716796875,0.0026382780633866787,-0.0020175916142761707,-0.01666465774178505
1746738898371913700,5.993913818359375,-0.0008450746536254883,0.00011170655488967896,-0.010949893854558468
1746738898381992700,6.00399267578125,-0.002785187680274248,0.0001508546993136406,-0.003975873813033104
1746738898392071700,6.01407177734375,-0.004048363771289587,-0.0017287624068558216,0.005934883374720812
1746738898402150700,6.024150634765625,-0.0006272667087614536,0.0003943098708987236,0.012175467796623707
1746738898412230000,6.03422998046875,0.0016045449301600456,-0.004105541855096817,0.016674252226948738
1746738898422308000,6.04430810546875,0.00038694776594638824,0.0026405113749206066,0.01207763608545065
1746738898432387000,6.054386962890625,-0.003018436022102833,0.005322047974914312,0.012336228974163532
1746738898442466000,6.064466064453125,-0.0006245211698114872,0.008656591176986694,0.011484017595648766
1746738898452545300,6.074545166015625,-0.004214309621602297,0.009665777906775475,0.010752544738352299
1746738898462624000,6.0846240234375,-0.0010845628567039967,0.0062023368664085865,0.007803625892847776
1746738898472703000,6.094702880859375,0.0037208530120551586,0.0024658404290676117,0.005026255734264851
1746738898482783000,6.104782958984375,0.003231364069506526,0.0005869800224900246,-0.004451934713870287
1746738898492862000,6.114862060546875,0.0028050977271050215,0.0006127804517745972,-0.00801405031234026
1746738898502941200,6.124941162109375,0.0009635221213102341,-0.003242943901568651,-0.016872523352503777
1746738898513020200,6.135020263671875,0.0023839694913476706,-0.007203688845038414,-0.014490497298538685
1746738898523099100,6.14509912109375,0.00022814050316810608,-0.002190021798014641,-0.005908193998038769
1746738898533178000,6.15517822265625,-0.0029462650418281555,0.00046577397733926773,0.0042047989554703236
1746738898543257000,6.165257080078125,-0.004511404782533646,0.00281068729236722,0.010005163960158825
1746738898553336000,6.175336181640625,-0.003920841962099075,0.0034456225112080574,0.013303610496222973
1746738898563415000,6.1854150390625,-0.003436679020524025,0.0009909868240356445,0.012939555570483208
1746738898573494300,6.195494384765625,-0.0034251008182764053,0.0013270401395857334,0.009237375110387802
1746738898583573000,6.205572998046875,0.0012077339924871922,-0.004678121767938137,0.0025227463338524103
1746738898593652000,6.21565185546875,0.002928344998508692,-0.004953435622155666,0.004746268503367901
1746738898603731200,6.225731201171875,0.0006441515870392323,-0.0025640474632382393,0.009071508422493935
1746738898613810200,6.23581005859375,0.0003040092997252941,0.001739677507430315,0.004541253671050072
1746738898623889000,6.245888916015625,-0.00045765470713377,-0.0010888655669987202,0.0015182998031377792
1746738898633969200,6.25596923828125,-0.001169377937912941,0.0049072797410190105,-0.0035626241005957127
1746738898644048000,6.2660478515625,-0.0012998729944229126,0.002105367835611105,-0.0027687358669936657
1746738898654127000,6.276127197265625,0.0024341586977243423,0.005000035744160414,-0.010247449390590191
1746738898664206000,6.2862060546875,-0.00037734024226665497,0.006463708821684122,-0.010859177447855473
1746738898674285000,6.29628515625,0.001586264930665493,0.005617563612759113,0.00006133285933174193
1746738898684364000,6.306364013671875,-0.00039086584001779556,-0.0003330032341182232,0.009354433976113796
1746738898694443000,6.316443115234375,-0.0009823800064623356,0.00007164571434259415,0.01150578260421753
1746738898704522200,6.326522216796875,0.000030153896659612656,0.003940952476114035,0.013274653814733028
1746738898714601000,6.33660107421875,-0.001638753805309534,0.0028031542897224426,0.00834848452359438
1746738898724680200,6.34668017578125,-0.001105855219066143,0.0026960959658026695,0.004247482866048813
1746738898734759200,6.35675927734375,-0.0010923421941697598,0.004608226008713245,-0.0005674394778907299
1746738898744838000,6.366837890625,-0.0001804758794605732,0.001771959476172924,-0.001177835976704955
1746738898754917000,6.376917236328125,0.003529587294906378,-0.0008703507483005524,0.0037109036929905415
1746738898764996000,6.38699609375,0.0034925693180412054,-0.0060813575983047485,0.012219171039760113
1746738898775075000,6.397074951171875,0.002792314626276493,-0.005710362456738949,0.012596420012414455
1746738898785155000,6.407155029296875,0.0034043090417981148,-0.0014117546379566193,0.009393968619406223
1746738898795234000,6.417234130859375,-0.0005875728093087673,-0.0013864724896848202,0.003704729489982128
1746738898805313000,6.42731298828125,0.0015075360424816608,0.003816545009613037,-0.004351332318037748
1746738898815392000,6.43739208984375,0.000913847703486681,0.006070093717426062,-0.010130586102604866
1746738898825471200,6.44747119140625,0.0008347518742084503,0.007487161550670862,-0.008247997611761093
1746738898835550000,6.457550048828125,0.004634283948689699,0.0008151442743837833,-0.003502777311950922
1746738898845629000,6.46762890625,0.0037575713358819485,0.002060172613710165,0.0016794678522273898
1746738898855708200,6.477708251953125,0.0014380398206412792,0.001062911469489336,0.007389988750219345
1746738898865787100,6.487787109375,-0.0035114451311528683,0.004635009448975325,0.014283314347267151
1746738898875866000,6.4978662109375,-0.004835206083953381,0.003311325330287218,0.01879458874464035
1746738898885945000,6.507945068359375,-0.003802964463829994,0.0018332707695662975,0.020031360909342766
1746738898896024000,6.518024169921875,-0.00237853592261672,0.0028485613875091076,0.01680053398013115
1746738898906103000,6.52810302734375,-0.00024401256814599037,-0.003107332158833742,0.010075786150991917
1746738898916182000,6.53818212890625,0.0049210493452847,-0.004187281243503094,0.010243444703519344
1746738898926262000,6.548261962890625,0.0010775751434266567,-0.0011787083931267262,0.003451318247243762
1746738898936341000,6.558341064453125,0.00019759684801101685,-0.0007278546690940857,-0.004170842934399843
1746738898946420200,6.568420166015625,0.002640780759975314,0.0012908210046589375,-0.012111322954297066
1746738898956499200,6.578499267578125,-0.0022291005589067936,0.005790086928755045,-0.011851886287331581
1746738898966578000,6.588577880859375,-0.002134291920810938,0.005197001155465841,-0.01223431620746851
1746738898976657200,6.5986572265625,0.0004900377243757248,0.00041505973786115646,-0.005033754277974367
1746738898986736000,6.608736083984375,-0.0012564635835587978,-0.0031189550645649433,-0.0018374283099547029
1746738898996814800,6.61881494140625,-0.0004886174574494362,-0.0008076545782387257,0.0008176947012543678
1746738899006894000,6.62889404296875,-0.0020537571981549263,-0.0021576108410954475,0.006852684076875448
1746738899016973000,6.63897314453125,-0.004021862521767616,0.0035012871958315372,0.007017265539616346
1746738899027052300,6.64905224609375,-0.0028071943670511246,0.0018655736930668354,0.005428956355899572
1746738899037131000,6.659131103515625,-0.0029639811255037785,0.0015919883735477924,0.006001512054353952
1746738899047210000,6.6692099609375,-0.003305398393422365,0.007967330515384674,0.008822864852845669
1746738899057289200,6.679289306640625,-0.0014572786167263985,0.0017241938039660454,0.010526055470108986
1746738899067368000,6.689367919921875,0.0025995143223553896,-0.0003373594954609871,0.00940513052046299
1746738899077448200,6.6994482421875,0.0027945723850280046,-0.004028346389532089,0.004075247328728437
1746738899087527000,6.70952685546875,0.0007474003359675407,-0.0036650914698839188,-0.004214107524603605
1746738899097606100,6.719606201171875,0.0014995154924690723,-0.0023513934575021267,-0.006502632983028889
1746738899107685000,6.72968505859375,-0.0013684430159628391,-0.0006485683843493462,-0.005589435342699289
1746738899117764000,6.73976416015625,-0.000678360927850008,-0.0075424849055707455,-0.0030530886724591255
1746738899127843000,6.749843017578125,0.0009371126070618629,-0.008799763396382332,-0.0052041239105165005
1746738899137922000,6.759922119140625,-0.0021018628031015396,-0.006832083687186241,-0.004209143575280905
1746738899148001300,6.770001220703125,0.0008004498668015003,-0.006897597573697567,0.0008450032910332084
1746738899158080000,6.780080078125,-0.00019442057237029076,0.00032649096101522446,0.00152805563993752
1746738899168159000,6.790158935546875,0.002821343019604683,0.0029174801893532276,0.003484946209937334
1746738899178238200,6.80023828125,-0.0031310180202126503,0.00683101499453187,0.001359671470709145
1746738899188317200,6.810317138671875,-0.0014439057558774948,0.010623356327414513,0.0007308991625905037
1746738899198396000,6.82039599609375,0.000632713083177805,0.003915232606232166,0.0038202637806534767
1746738899208475100,6.83047509765625,0.0007301848381757736,0.0027812588959932327,0.004782730247825384
1746738899218554000,6.84055419921875,0.005002275574952364,-0.001709476113319397,0.004618581850081682
1746738899228634000,6.850634033203125,0.0012429575435817242,-0.00439101317897439,0.0019253268837928772
1746738899238713000,6.860713134765625,0.0022265452425926924,-0.0020041940733790398,0.0028336350806057453
1746738899248792000,6.8707919921875,-0.000971644651144743,0.001789212692528963,0.0033108736388385296
1746738899258871000,6.88087109375,0.0006275833584368229,0.0000022314488887786865,-0.0016191701870411634
1746738899268950000,6.890949951171875,-0.0021828929893672466,0.000027134548872709274,-0.0007629404426552355
1746738899279029200,6.901029296875,-0.0022185049019753933,0.0009450512006878853,-0.0007978543289937079
1746738899289108000,6.91110791015625,-0.0030880277045071125,-0.001334614586085081,0.0011342690559104085
1746738899299187200,6.921187255859375,-0.0026087891310453415,-0.003105483017861843,0.0005854654591530561
1746738899309266200,6.93126611328125,-0.002121696714311838,0.001700191292911768,0.0015058539574965835
1746738899319345000,6.941344970703125,-0.004038331098854542,0.00026194704696536064,0.006124551873654127
1746738899329424100,6.951424072265625,-0.0038822703063488007,-0.0030211983248591423,0.008724329993128777
1746738899339503000,6.961503173828125,-0.0022119483910501003,-0.0032348595559597015,0.009452462196350098
1746738899349582000,6.97158203125,-0.0001557222567498684,0.001337787602096796,0.012679148465394974
1746738899359661000,6.9816611328125,-0.0008260398171842098,0.004992177244275808,0.004677413962781429
1746738899369740000,6.991739990234375,0.0008512190543115139,0.006401788908988237,-0.0036691990680992603
1746738899379820000,7.001820068359375,0.0015857457183301449,0.00198642211034894,-0.008212334476411343
1746738899389899000,7.01189892578125,0.0029982866253703833,-0.0021707722917199135,-0.009013679809868336
1746738899399978200,7.021978271484375,0.007093389518558979,-0.00527731329202652,-0.008235963992774487
1746738899410057000,7.032056884765625,0.004681098274886608,-0.0028511732816696167,-0.008120649494230747
1746738899420136000,7.042135986328125,0.003137600142508745,-0.0005810768343508244,-0.011899215169250965
1746738899430215000,7.05221484375,0.001568998210132122,0.006355925463140011,-0.015500606968998909
1746738899440294100,7.062294189453125,0.0015381178818643093,0.0053221615962684155,-0.011122926138341427
1746738899450372900,7.072372802734375,-0.00014979345723986626,0.001030744519084692,-0.00714416429400444
1746738899460452000,7.0824521484375,-0.00025828322395682335,-0.0002561667934060097,0.003461413085460663
1746738899470531000,7.092531005859375,-0.0010361922904849052,-0.004010691307485104,0.007698236033320427
1746738899480609800,7.10260986328125,-0.001868906430900097,0.002102003898471594,0.008803666569292545
1746738899490689000,7.11268896484375,-0.0040902490727603436,0.002637831959873438,0.008071297779679298
1746738899500768000,7.12276806640625,-0.0019034012220799923,0.0024614911526441574,0.0020532316993921995
1746738899510847000,7.132846923828125,-0.0007039131596684456,0.003963513299822807,-0.004669918213039637
1746738899520926000,7.142926025390625,0.00003148335963487625,0.0035080257803201675,-0.00943976454436779
1746738899531006200,7.153006103515625,0.0020304520148783922,0.0009689675644040108,-0.0100949015468359
1746738899541085000,7.1630849609375,0.0058850692585110664,0.0004590018652379513,-0.011486327275633812
1746738899551164000,7.173163818359375,0.007076301146298647,0.0024638292379677296,-0.011950249783694744
1746738899561243100,7.1832431640625,0.005076463799923658,0.006639380939304829,-0.010527783073484898
1746738899571321900,7.19332177734375,0.004399754572659731,0.002162073738873005,-0.0031428372021764517
1746738899581401000,7.203401123046875,0.00237031327560544,0.0031233257614076138,0.001466391608119011
1746738899591480000,7.21347998046875,-0.000549043994396925,0.004983543884009123,0.0019859743770211935
1746738899601559000,7.22355908203125,-0.0028854915872216225,0.00372712267562747,0.0038459734059870243
1746738899611638000,7.233637939453125,-0.001377875916659832,0.0014748875983059406,0.0046177576296031475
1746738899621717000,7.243717041015625,-0.003015075344592333,0.001981303095817566,0.009503231383860111
1746738899631796000,7.2537958984375,-0.004154641646891832,0.0021131299436092377,0.009183119982481003
1746738899641875000,7.263875,-0.006549705285578966,0.0045620775781571865,0.005836155265569687
1746738899651954000,7.273953857421875,-0.005194156896322966,0.005480069201439619,-0.004032188095152378
1746738899662033200,7.284033203125,-0.00007693562656641006,0.004692440386861563,-0.009033847600221634
1746738899672111900,7.29411181640625,0.00473433081060648,-0.00618524057790637,-0.010157435201108456
1746738899682190800,7.30419091796875,0.005065294448286295,-0.005461028777062893,-0.015203578397631645
1746738899692271000,7.31427099609375,0.002536623040214181,-0.00645252363756299,-0.014861096628010273
1746738899702349800,7.324349853515625,0.0011059842072427273,-0.00623658113181591,-0.006654531229287386
1746738899712429000,7.334428955078125,-0.0009726132266223431,-0.0009573968127369881,-0.0010517729679122567
1746738899722508000,7.344508056640625,-0.002921681385487318,0.0017839772626757622,0.005612395703792572
1746738899732587000,7.3545869140625,-0.002619944978505373,0.0002651764079928398,0.005644353572279215
1746738899742666000,7.364666015625,-0.004215193446725607,0.002602551132440567,0.0026243552565574646
1746738899752745000,7.374744873046875,-0.0014489679597318172,0.0018342286348342896,0.0017524365102872252
1746738899762824000,7.384823974609375,0.000857063103467226,-0.0008835271000862122,-0.00742028933018446
1746738899772903000,7.39490283203125,-0.0006582755595445633,-0.0036657315213233232,-0.011026741936802864
1746738899782982100,7.404982177734375,0.00047913240268826485,-0.004080011509358883,-0.009439713321626186
1746738899793061000,7.41506103515625,0.0008117612451314926,-0.0035708153154700994,-0.008588300086557865
1746738899803139800,7.425139892578125,-0.0008397344499826431,-0.0015969006344676018,-0.009127517230808735
1746738899813219000,7.435218994140625,-0.0021564015187323093,-0.0014706668443977833,-0.005171391647309065
1746738899823298000,7.445298095703125,-0.0003083362244069576,-0.0010837968438863754,-0.004027954768389463
1746738899833376800,7.455376708984375,-0.001760824117809534,0.0035919146612286568,0.0021146265789866447
1746738899843456000,7.4654560546875,-0.0020228084176778793,0.002334123943001032,0.0036336202174425125
1746738899853536000,7.475535888671875,-0.00043769506737589836,0.0070809428580105305,0.009256885387003422
1746738899863615000,7.485614990234375,0.0011012465693056583,0.002013034652918577,0.00868229940533638
1746738899873694000,7.49569384765625,-0.0003512413240969181,0.004245029296725988,0.00771930068731308
1746738899883773200,7.505773193359375,0.001839181175455451,0.0035216682590544224,0.008029021322727203
1746738899893852000,7.515851806640625,-0.0019137454219162464,0.005568840075284243,0.004978104028850794
1746738899903931000,7.525930908203125,-0.0014623389579355717,0.003839009441435337,0.0017988757463172078
1746738899914010000,7.536010009765625,-0.0007158545777201653,-0.0000015348196029663086,-0.003326643956825137
1746738899924088800,7.5460888671875,0.0022529803682118654,-0.0022300109267234802,-0.006038492079824209
1746738899934168000,7.55616796875,0.0033747039269655943,-0.001780469436198473,-0.00936557911336422
1746738899944247000,7.5662470703125,0.003701657522469759,0.0013233497738838196,-0.010355646722018719
1746738899954326000,7.576325927734375,0.0012384997680783272,0.0022317543625831604,-0.009388652630150318
1746738899964405000,7.586405029296875,0.00041975779458880424,0.0028277733363211155,-0.00713344058021903
1746738899974484000,7.59648388671875,-0.0017501860857009888,0.0018112449906766415,-0.004134721122682095
1746738899984563200,7.606563232421875,-0.00079296063631773,0.0027770078741014004,-0.003901261370629072
1746738899994642000,7.616641845703125,-0.0018654153682291508,0.003898464608937502,-0.0008775081369094551
1746738900004721000,7.626720947265625,-0.001983548980206251,0.0029555861838161945,0.0037179484497755766
1746738900014801200,7.63680126953125,-0.00045649241656064987,-0.002008280251175165,0.005830368027091026
1746738900024879900,7.6468798828125,0.0011257762089371681,-0.0015378659591078758,0.006577818188816309
1746738900034959000,7.656958984375,-0.0024204892106354237,-0.000924539752304554,0.00417431490495801
1746738900045038000,7.6670380859375,-0.0031619416549801826,0.0033435500226914883,0.0002107841137330979
1746738900055116800,7.67711669921875,-0.0019249031320214272,0.0021813460625708103,-0.005838319659233093
1746738900065196000,7.687196044921875,0.0037063509225845337,-0.002460010815411806,-0.009526532143354416
1746738900075275000,7.69727490234375,0.002870917087420821,-0.004056043457239866,-0.016750089824199677
1746738900085354000,7.70735400390625,0.001124710775911808,-0.0016896659508347511,-0.019436204805970192
1746738900095433000,7.717432861328125,0.003350847167894244,-0.0037916989531368017,-0.01858638972043991
1746738900105512000,7.727511962890625,0.005583556834608316,-0.004995015449821949,-0.017650723457336426
1746738900115591200,7.737591064453125,0.0032357138115912676,-0.0031696846708655357,-0.011860745027661324
1746738900125670000,7.747669921875,0.001840231940150261,0.0027745701372623444,-0.007627143524587154
1746738900135749000,7.7577490234375,-0.0031611844897270203,0.006392475217580795,-0.00570567324757576
1746738900145828000,7.767828125,-0.005403285380452871,0.004454307723790407,-0.0028646390419453382
1746738900155906800,7.77790673828125,-0.004479701165109873,0.006750219035893679,-0.001858763163909316
1746738900165986000,7.787986083984375,-0.005415842402726412,0.0030618859454989433,0.0019703484140336514
1746738900176065000,7.79806494140625,-0.000791529193520546,0.0028933072462677956,0.0031045887153595686
1746738900186145000,7.80814501953125,0.00013721082359552383,-0.002528561744838953,-0.00009792775381356478
1746738900196224000,7.81822412109375,0.001825122395530343,0.00041982391849160194,0.00037718017119914293
1746738900206303200,7.82830322265625,0.00214287918061018,-0.003543098922818899,0.0012032713275402784
1746738900216382000,7.8383818359375,0.006056927144527435,-0.00401607621461153,0.001895427005365491
1746738900226461000,7.8484609375,0.0022607597056776285,-0.0018392745405435562,0.0015974873676896095
1746738900236540200,7.8585400390625,0.0015712673775851727,0.0008707582019269466,0.0033522441517561674
1746738900246619000,7.868618896484375,0.0019894952420145273,0.004333012271672487,0.00202909205108881
1746738900256697900,7.87869775390625,0.00023500481620430946,0.005626776721328497,0.003020320553332567
1746738900266777000,7.888777099609375,0.0025854965206235647,0.004466624464839697,-0.0006002213340252638
1746738900276856000,7.89885595703125,0.003333312226459384,0.0036503649316728115,-0.000672393012791872
1746738900286935000,7.90893505859375,0.003567866515368223,0.0014170189388096333,-0.005420469678938389
1746738900297014000,7.919013916015625,0.0002453066408634186,-0.0009974027052521706,-0.003191137919202447
1746738900307093000,7.929093017578125,0.0016933251172304153,0.0003574034199118614,-0.006682115141302347
1746738900317172000,7.939171875,-0.00218796543776989,0.00030786870047450066,-0.0008660374442115426
1746738900327251000,7.9492509765625,-0.0006986996158957481,-0.0018452545627951622,-0.001326490892097354
1746738900337330200,7.959330078125,-0.0006267940625548363,-0.004134507849812508,0.0007153546903282404
1746738900347410000,7.969409912109375,0.0007534944452345371,-0.00400097481906414,0.0014895861968398094
1746738900357489200,7.9794892578125,0.0009130178950726986,-0.00004644738510251045,0.0021742847748100758
1746738900367568100,7.989568115234375,0.0021250091958791018,0.0009496081620454788,0.0017063373234122992
1746738900377646800,7.999646728515625,0.001083979383111,-0.002744195982813835,0.0038658943958580494
1746738900387726000,8.00972607421875,0.0018384798895567656,-0.002263982780277729,0.0048038652166724205
1746738900397805000,8.01980517578125,0.0014709634706377983,0.0009682956151664257,0.0007649150211364031
1746738900407883800,8.0298837890625,-0.0011224038898944855,0.004766170401126146,-0.0001427796669304371
1746738900417963300,8.03996337890625,-0.002620432060211897,0.0038774735294282436,-0.0038997011724859476
1746738900428042200,8.050042236328125,0.00016325386241078377,0.0074639455415308475,-0.004278244916349649
1746738900438121200,8.060121337890624,-0.002298572566360235,0.0011682328768074512,-0.006805052049458027
1746738900448200200,8.0702001953125,0.0034993260633200407,-0.0010035946033895016,-0.004900818690657616
1746738900458279200,8.080279052734374,0.00028702104464173317,-0.00008293986320495605,-0.007042532786726952
1746738900468358400,8.0903583984375,-0.0024268249981105328,0.0023500225506722927,-0.008233665488660336
1746738900478437000,8.10043701171875,0.0029170741327106953,0.0029590879566967487,-0.011647570878267288
1746738900488516000,8.11051611328125,0.0030481715220957994,0.003665377851575613,-0.010318460874259472
1746738900498595300,8.12059521484375,0.003858837764710188,0.0064478483982384205,-0.009643616154789925
1746738900508674000,8.130674072265625,0.003829964902251959,0.0075132353231310844,-0.009165484458208084
1746738900518754300,8.14075439453125,0.0038049311842769384,0.003892933949828148,-0.007264520972967148
1746738900528833000,8.1508330078125,0.0055893599055707455,0.0016901115886867046,-0.001986228860914707
1746738900538912300,8.160912353515625,0.0022510874550789595,-0.004639689810574055,0.0025829565711319447
1746738900548991200,8.1709912109375,-0.00034620892256498337,-0.010543816722929478,0.004602864850312471
1746738900559070200,8.1810703125,-0.00007749581709504128,-0.005581814795732498,0.005267856176942587
1746738900569149200,8.191149169921875,0.002550511620938778,-0.007198886480182409,0.005071580875664949
1746738900579228200,8.201228271484375,-0.0005129226483404636,-0.0025569964200258255,0.005215924233198166
1746738900589307400,8.211307373046875,-0.0017955154180526733,-0.000280607957392931,0.00916089117527008
1746738900599386000,8.22138623046875,-0.0014069601893424988,0.0009708115831017494,0.008842643350362778
1746738900609465000,8.231465087890625,-0.0007763789035379887,0.003857739269733429,0.007067693397402763
1746738900619544300,8.24154443359375,-0.00040753139182925224,0.0018529118970036507,0.006549708545207977
1746738900629623300,8.251623291015624,0.000291312113404274,-0.00012911390513181686,0.0002286409871885553
1746738900639702300,8.261702392578124,-0.0006972532719373703,-0.0015504430048167706,-0.002496305387467146
1746738900649781200,8.27178125,-0.0001826602965593338,0.0005769114941358566,-0.004323574248701334
1746738900659860200,8.281860107421876,-0.0012809480540454388,0.0014333836734294891,-0.006186721380800009
1746738900669939200,8.291939208984376,-0.0009146258234977722,-0.0008578146807849407,-0.005261092446744442
1746738900680018200,8.30201806640625,0.0007365341298282146,0.0006639156490564346,-0.0012895201798528433
1746738900690097200,8.31209716796875,0.0006778617389500141,-0.0022154762409627438,0.004947909153997898
1746738900700177200,8.32217724609375,0.0011423174291849136,-0.0011089327745139599,0.004797174595296383
1746738900710256000,8.332256103515626,0.0009121350012719631,0.0006281440146267414,0.0022004269994795322
1746738900720335400,8.34233544921875,0.0008511482737958431,0.0000475752167403698,0.0038430646527558565
1746738900730414000,8.3524140625,0.002218079287558794,0.0004126741550862789,0.004963263403624296
1746738900740493300,8.362493408203125,0.003256712108850479,-0.003712828503921628,0.00023641897132620215
1746738900750572300,8.372572265625,0.005816261284053326,-0.00035812612622976303,-0.0006751547334715724
1746738900760651000,8.382651123046875,0.0031472411938011646,-0.0020795934833586216,-0.0037068973761051893
1746738900770730200,8.392730224609375,0.005906571634113789,-0.0015899413265287876,-0.006101665087044239
1746738900780809200,8.402809326171875,0.0019701533019542694,0.0005642897449433804,-0.007279847748577595
1746738900790888200,8.41288818359375,0.00041192350909113884,0.003971190191805363,-0.0061762067489326
1746738900800967200,8.42296728515625,0.00043163076043128967,0.003185558132827282,0.00029980219551362097
1746738900811046100,8.433046142578124,-0.0018176836892962456,-0.0001995381899178028,0.005845264066010714
1746738900821125400,8.44312548828125,-0.0028781546279788017,-0.001458947081118822,0.008288980461657047
1746738900831204000,8.4532041015625,-0.0024413960054516792,-0.00034654466435313225,0.011248284950852394
1746738900841283300,8.463283447265624,-0.0014821253716945648,0.000012715347111225128,0.011330043897032738
1746738900851362300,8.4733623046875,-0.00030442140996456146,0.0020142835564911366,0.00999815296381712
1746738900861441000,8.48344091796875,0.002236500848084688,0.000031293369829654694,0.010739843361079693
1746738900871521300,8.493521240234376,-0.0006543509662151337,-0.0010981983505189419,0.010346797294914722
1746738900881600300,8.503600341796876,0.0012854957021772861,-0.004238598048686981,0.011436030268669128
1746738900891679200,8.51367919921875,0.0013012932613492012,-0.0018243398517370224,0.0054281046614050865
1746738900901758200,8.52375830078125,0.002788935322314501,-0.0031860140152275562,0.0019359018187969923
1746738900911837200,8.533837158203125,0.005115472711622715,-0.0018962454050779343,-0.002570433309301734
1746738900921916200,8.543916259765625,0.004364993888884783,-0.00006319163367152214,-0.007290353532880545
1746738900931995100,8.5539951171875,0.002939379308372736,0.0005277274176478386,-0.0014098378596827388
1746738900942074400,8.564074462890625,0.002097554039210081,0.0032542720437049866,0.002330571645870805
1746738900952153000,8.574153076171875,0.0008055530488491058,0.001957655418664217,0.00442075077444315
1746738900962232000,8.584232177734375,-0.0029750708490610123,0.00233742268756032,0.010841632261872292
1746738900972311300,8.594311279296875,-0.0013725608587265015,0.001030980609357357,0.01124473288655281
1746738900982390300,8.604390380859375,-0.003143562935292721,0.002582005225121975,0.01226738654077053
1746738900992469200,8.61446923828125,-0.004383123014122248,-0.000971674919128418,0.009843762964010239
1746738901002548200,8.62454833984375,0.00022867275401949883,0.0006810827180743217,0.011306903325021267
1746738901012627200,8.634627197265624,0.0028098479378968477,0.001977895852178335,0.0049464586190879345
1746738901022706200,8.6447060546875,0.004395227879285812,0.0016215643845498562,0.0041341944597661495
1746738901032785200,8.65478515625,0.0024423087015748024,0.00006997352465987206,-0.0019447479862719774
1746738901042864400,8.664864501953126,0.0027546973433345556,-0.0011979574337601662,-0.005437217652797699
1746738901052944100,8.674944091796876,0.004717807285487652,-0.0014200108125805855,-0.006966200657188892
1746738901063023000,8.685023193359376,0.005112221464514732,-0.006377751473337412,-0.005796806886792183
1746738901073102300,8.695102294921876,0.0015494595281779766,-0.002700640819966793,-0.005171524360775948
1746738901083181000,8.70518115234375,0.00026901159435510635,-0.005488438066095114,-0.0017869127914309502
1746738901093260300,8.71526025390625,0.0007958165369927883,0.0005491194315254688,0.0011702034389600158
1746738901103339300,8.72533935546875,-0.003095061983913183,-0.000791515689343214,0.005741785746067762
1746738901113418000,8.73541796875,-0.0037073539569973946,-0.0024111554957926273,0.007863317616283894
1746738901123497200,8.745497314453125,-0.004267949610948563,-0.0013000844046473503,0.007259046193212271
1746738901133576200,8.755576171875,-0.005196186248213053,0.002243293449282646,0.007846125401556492
1746738901143655400,8.765655517578125,-0.004378329496830702,-0.0001452961005270481,0.011504510417580605
1746738901153734100,8.775734130859375,-0.002950734458863735,0.0006789956241846085,0.00804278627038002
1746738901163813000,8.785813232421875,-0.002384546212852001,0.0013924557715654373,0.00009378285176353529
1746738901173892400,8.795892333984375,0.0009673037566244602,0.0006815241649746895,-0.002944021951407194
1746738901183971000,8.80597119140625,0.005288016051054001,-0.0016828300431370735,-0.005570963956415653
1746738901194050300,8.81605029296875,0.0027089142240583897,-0.002800892572849989,-0.005931755527853966
1746738901204129300,8.82612939453125,0.003994688391685486,-0.003143641632050276,-0.0016669692704454064
1746738901214208000,8.8362080078125,0.0008773487061262131,-0.003449343843385577,-0.0012058848515152931
1746738901224287200,8.846287353515624,0.0007407283410429955,-0.0006825858727097511,-0.0000657855998724699
1746738901234367200,8.8563671875,-0.00026051048189401627,0.000593322329223156,0.0036361832171678543
1746738901244446200,8.8664462890625,-0.0020445617847144604,0.0036690067499876022,0.007507088128477335
1746738901254525200,8.876525146484376,-0.0012526321224868298,0.0015788623131811619,0.007816609926521778
1746738901264604200,8.886604248046876,-0.0018385276198387146,-0.00001876847818493843,0.006865595001727343
1746738901274683100,8.89668310546875,-0.0016967374831438065,-0.0002743704244494438,0.007442079484462738
1746738901284762000,8.90676220703125,0.0008897241204977036,0.0024921209551393986,0.0035522659309208393
1746738901294841300,8.91684130859375,0.002030859002843499,0.0020024552941322327,0.00029181272839196026
1746738901304920300,8.92692041015625,0.0017597491387277842,-0.00023486651480197906,-0.000948421424254775
1746738901314999000,8.9369990234375,0.005323989316821098,0.0002448312006890774,-0.002681526355445385
1746738901325078300,8.947078369140625,0.0007713153026998043,0.0006424407474696636,-0.0003581846540328115
1746738901335157200,8.9571572265625,0.0014316774904727936,-0.0004305383190512657,-0.002802568953484297
1746738901345236200,8.967236328125,-0.0003419877029955387,0.0007119579240679741,-0.001330639817751944
1746738901355315200,8.977315185546875,-0.0018951273523271084,0.00102699501439929,-0.0019599732477217913
1746738901365394200,8.987394287109375,0.0017315654549747705,0.0012898496352136135,-0.0012840628623962402
1746738901375473200,8.99747314453125,0.0015290556475520134,0.0012165969237685204,-0.0022227377630770206
1746738901385552100,9.00755224609375,0.0013399715535342693,-0.000022571999579668045,0.0038804286159574986
1746738901395631400,9.01763134765625,0.004320315085351467,0.00007636751979589462,0.007726565934717655
1746738901405710300,9.02771044921875,0.0018952405080199242,0.000749348197132349,0.004907876253128052
1746738901415789000,9.0377890625,0.0033011934719979763,0.00004950817674398422,-0.0009514186531305313
1746738901425868500,9.04786865234375,-0.00031724339351058006,0.005522304214537144,0.0008709825342521071
1746738901435948500,9.057948486328126,0.000594231765717268,0.004007597453892231,0.00007082078082021326
1746738901446027500,9.068027587890626,-0.0003956649452447891,-0.0007245731540024281,-0.0003092123079113662
1746738901456106800,9.078106689453126,-0.0012013898231089115,0.0010511260479688644,0.0010893746512010694
1746738901466185500,9.088185546875,0.00004550209268927574,-0.003950557205826044,0.0003641959046944976
1746738901476264400,9.098264404296875,-0.0004728422500193119,-0.00443131010979414,-0.001818469725549221
1746738901486343700,9.10834375,-0.000991359818726778,-0.005100828595459461,-0.0037149067502468824
1746738901496422700,9.118422607421875,0.00035587139427661896,-0.004896902479231358,-0.0023850772995501757
1746738901506501600,9.128501708984375,0.00012071430683135986,-0.0036425532307475805,0.0001656985841691494
1746738901516580600,9.13858056640625,0.0020780579652637243,-0.004034009762108326,0.00006160347402328625
1746738901526659600,9.14865966796875,0.0016815136186778545,0.002913910895586014,-0.000685413193423301
1746738901536738600,9.158738525390625,-0.00041941553354263306,0.0036005908623337746,0.0037034598644822836
1746738901546817500,9.168817626953125,0.00013239169493317604,0.0054839784279465675,0.00436419015750289
1746738901556896800,9.178896728515625,0.00485204579308629,0.002227199263870716,0.0062166848219931126
1746738901566975500,9.1889755859375,0.0032624048180878162,0.002412554807960987,0.009561881422996521
1746738901577054500,9.199054443359374,0.0019864842761307955,0.0031438590958714485,0.005282980389893055
1746738901587133700,9.2091337890625,0.0018594516441226006,-0.0015861811116337776,0.007487278897315264
1746738901597212700,9.219212646484374,-0.0003659948706626892,-0.001375929918140173,0.001944266026839614
1746738901607291600,9.229291748046874,-0.001707961317151785,-0.004520057700574398,0.0029027375858277082
1746738901617371600,9.23937158203125,-0.0004350799135863781,-0.0028466633521020412,0.004385674372315407
1746738901627450400,9.249450439453126,0.0014869235455989838,-0.0009243935346603394,0.006993974559009075
1746738901637529600,9.259529541015626,-0.0015556998550891876,0.00030690012499690056,0.004286057315766811
1746738901647608600,9.269608642578126,-0.0008566202595829964,0.0014246287755668163,0.004360093269497156
1746738901657687600,9.2796875,0.0014039967209100723,0.0028371266089379787,0.005720849614590406
1746738901667766500,9.2897666015625,0.0002503152936697006,0.0015114047564566135,0.003627871396020055
1746738901677845500,9.299845458984375,-0.0016100667417049408,0.0039406693540513515,0.001889759791083634
1746738901687924700,9.3099248046875,-0.00034506525844335556,0.00010225502774119377,0.0017645913176238537
1746738901698003500,9.32000341796875,-0.0004261275753378868,-0.0007557440549135208,0.0017564680892974138
1746738901708082700,9.330082763671875,-0.0005204034969210625,0.0004722396843135357,-0.0026547920424491167
1746738901718161700,9.34016162109375,-0.0004987460561096668,-0.0038462348747998476,-0.007700253743678331
1746738901728240400,9.350240478515625,-0.0038005332462489605,-0.004089914262294769,-0.008412648923695087
1746738901738319600,9.360319580078125,-0.0048811184242367744,-0.003500067163258791,-0.008626885712146759
1746738901748398600,9.370398681640625,-0.0014698747545480728,-0.002676617819815874,-0.009607461281120777
1746738901758477600,9.3804775390625,-0.004459151066839695,0.0011417153291404247,-0.007096797227859497
1746738901768556500,9.390556640625,-0.00506235659122467,0.001588860061019659,-0.0043287076987326145
1746738901778635500,9.400635498046874,-0.006207961589097977,0.0021298551000654697,-0.0017055962234735489
1746738901788714800,9.41071484375,-0.00318900216370821,-0.002122413832694292,-0.0016331583028659225
1746738901798793500,9.42079345703125,0.0015336899086833,0.000342479906976223,0.0003532033006194979
1746738901808872700,9.430872802734376,0.0024673943407833576,-0.0004037376493215561,0.004059790633618832
1746738901818951700,9.44095166015625,0.003862227313220501,-0.0001240023411810398,0.0051999641582369804
1746738901829030400,9.451030517578126,0.0022097360342741013,0.002864331007003784,0.005010080989450216
1746738901839110700,9.461110595703126,-0.00015275413170456886,0.003392701968550682,0.005076127126812935
1746738901849189600,9.471189697265626,-0.0004417402669787407,0.006860226392745972,0.005226922687143087
1746738901859268600,9.4812685546875,-0.0013339309953153133,0.0023486092686653137,0.004220898728817701
1746738901869347600,9.49134765625,0.00045518064871430397,-0.00003758305683732033,0.003297314513474703
1746738901879426600,9.501426513671875,-0.0010369252413511276,0.0009322529658675194,0.0007308558560907841
1746738901889505500,9.511505615234375,-0.0029402868822216988,-0.0031303996220231056,0.0026837517507374287
1746738901899584500,9.52158447265625,0.000102256890386343,-0.0035768942907452583,-0.0004785018682014197
1746738901909663700,9.531663818359375,0.003954253159463406,-0.003453856101259589,0.0017228670185431838
1746738901919742500,9.541742431640625,0.001446909736841917,-0.001348765566945076,0.004493443761020899
1746738901929821400,9.551821533203125,-0.0012026694603264332,0.003191924188286066,0.0022284253500401974
1746738901939900700,9.561900634765625,-0.005435711704194546,0.007187241688370705,0.001102559152059257
1746738901949979600,9.571979736328124,-0.0004215114749968052,0.004786401987075806,0.0027023202273994684
1746738901960058600,9.58205859375,-0.001192206982523203,0.006640451494604349,-0.001060578622855246
1746738901970137600,9.5921376953125,0.0005441741086542606,-0.00018842611461877823,0.001099777640774846
1746738901980216600,9.602216552734374,-0.00022679194808006287,-0.004479439463466406,0.005667541176080704
1746738901990295600,9.612295654296876,-0.0011312011629343033,-0.006291187833994627,0.0006261772941797972
1746738902000374500,9.62237451171875,0.0020775445736944675,-0.005390975624322891,-0.0009839246049523354
1746738902010453800,9.632453857421876,0.0013584909029304981,-0.003084145486354828,-0.004222594667226076
1746738902020532700,9.64253271484375,0.0016536884941160679,0.0003766496665775776,-0.0014583967858925462
1746738902030611500,9.652611572265625,-0.0003053327091038227,0.001928740181028843,-0.000523627270013094
1746738902040691700,9.662691650390625,-0.0010189800523221493,0.000264930073171854,0.0029224155005067587
1746738902050770400,9.6727705078125,-0.001155600417405367,0.0015379213728010654,0.004779437556862831
1746738902060849700,9.682849609375,0.0011581606231629848,-0.0012395549565553665,0.007216718513518572
1746738902070928600,9.6929287109375,0.0017973191570490599,-0.002231316175311804,0.007351474370807409
1746738902081007400,9.70300732421875,-0.0010743560269474983,0.004106409847736359,0.002290091710165143
1746738902091086600,9.713086669921875,0.00047826720401644707,0.005931474268436432,-0.0033630002290010452
1746738902101165600,9.72316552734375,-0.002709942404180765,0.006411039736121893,-0.005718432832509279
1746738902111244800,9.733244873046875,-0.004242058377712965,0.0061484514735639095,-0.004355693235993385
1746738902121323500,9.743323486328125,-0.0020493590272963047,0.0022660954855382442,-0.0018105104099959135
1746738902131402500,9.753402587890625,-0.0015287110581994057,0.0016253390349447727,0.004693994298577309
1746738902141481700,9.763481689453124,-0.0021404274739325047,-0.0005364147946238518,0.004868387244641781
1746738902151560400,9.773560546875,0.001385597512125969,-0.007163691334426403,0.0011074711801484227
1746738902161639700,9.7836396484375,0.0038214726373553276,-0.004627629183232784,0.00499182241037488
1746738902171718700,9.79371875,0.0017921437975019217,-0.005303805693984032,0.005167590919882059
1746738902181797600,9.803797607421876,0.0014763753861188889,-0.00008558481931686401,0.005884797777980566
1746738902191876600,9.813876708984376,-0.0009457697160542011,0.002176503650844097,0.0031151100993156433
1746738902201955600,9.82395556640625,-0.0011290321126580238,0.005882673431187868,0.001822746591642499
1746738902212034800,9.834034912109376,0.000013464130461215973,0.004258944187313318,0.0014831935986876488
1746738902222113500,9.844113525390625,0.0005622999742627144,0.0024239113554358482,-0.0012796383816748857
1746738902232192500,9.854192626953125,0.002014787867665291,0.0019184434786438942,-0.0020711298566311598
1746738902242271700,9.864271728515625,0.002149533713236451,0.0029802462086081505,-0.003583006327971816
1746738902252351500,9.8743515625,0.0016967961564660072,0.0029988884925842285,-0.0017345063388347626
1746738902262430700,9.8844306640625,-0.0021069967187941074,0.005617574788630009,0.004198484122753143
1746738902272509700,9.894509765625,-0.0028598723001778126,0.002754676155745983,0.011144540272653103
1746738902282588400,9.90458837890625,-0.0031438027508556843,0.0010418849997222424,0.01347615197300911
1746738902292667600,9.914667724609375,-0.002671357709914446,-0.0005445596762001514,0.012938725762069225
1746738902302746600,9.92474658203125,-0.00039075128734111786,0.000026998575776815414,0.012459740974009037
1746738902312825600,9.93482568359375,-0.00007889512926340103,0.002820388413965702,0.008470858447253704
1746738902322904600,9.944904541015624,0.003936389926820993,0.0017198151908814907,0.011470896191895008
1746738902332983600,9.954983642578124,0.0018655159510672092,0.0012862528674304485,0.0044785006903111935
1746738902343062500,9.9650625,0.0028246785514056683,0.00005680369213223457,-0.0017470835009589791
1746738902353141500,9.9751416015625,0.0037756934762001038,-0.0009549311362206936,-0.0034706813748925924
1746738902363220700,9.985220703125,0.0015578889288008213,0.00593489408493042,-0.005161019042134285
1746738902373299700,9.9952998046875,0.0011035539209842682,0.004088790155947208,-0.0006024862523190677
1746738902383378400,10.00537841796875,-0.001895969733595848,0.003048621118068695,-0.0007460755296051502
1746738902393457700,10.015457763671876,-0.0005228440277278423,0.00235726498067379,0.0014299934264272451
1746738902403536600,10.02553662109375,-0.0006532995030283928,-0.0018618684262037277,0.0007569069275632501
1746738902413615400,10.035615478515625,0.0016332906670868397,-0.000686615239828825,-0.0024617896415293217
1746738902423694600,10.045694580078125,-0.0006780619733035564,-0.0045109824277460575,-0.0007246526656672359
1746738902433773600,10.055773681640625,-0.002273562364280224,-0.0015974841080605984,-0.0018844592850655317
1746738902443852500,10.0658525390625,-0.0028884541243314743,-0.003002012614160776,-0.0022596814669668674
1746738902453931500,10.075931640625,-0.001421585213392973,-0.002502137329429388,0.0015771344769746065
1746738902464011800,10.08601171875,0.0027803266420960426,-0.0029500159434974194,-0.0013946426333859563
1746738902474090500,10.096090576171875,0.0014815027825534344,-0.0031257844530045986,-0.0009179367916658521
1746738902484169500,10.10616943359375,0.0017609319183975458,0.001403456088155508,-0.0009198938496410847
1746738902494248700,10.116248779296875,0.00045145582407712936,-0.0017665047198534012,0.0017728282837197185
1746738902504327400,10.126327392578125,-0.003426617942750454,-0.00039788661524653435,0.0013046633685007691
1746738902514406700,10.13640673828125,-0.004406128078699112,0.0008878870867192745,0.0028711347840726376
1746738902524485600,10.146485595703124,-0.003244494553655386,0.0025115064345300198,-0.00006125925574451685
1746738902534564600,10.156564697265624,-0.0024599269963800907,0.00013383664190769196,0.0026346587110310793
1746738902544643600,10.1666435546875,-0.0024050287902355194,-0.0030203014612197876,0.004524691496044397
1746738902554722600,10.17672265625,-0.00430466141551733,-0.002356109209358692,0.004888745490461588
1746738902564801800,10.1868017578125,-0.0026352880522608757,0.0015818416140973568,0.0011442049872130156
1746738902574880500,10.196880615234376,-0.002079486381262541,-0.0022730836644768715,0.0010430049151182175
1746738902584959500,10.20695947265625,0.0012038913555443287,-0.0018056114204227924,-0.0010704179294407368
1746738902595038700,10.217038818359375,0.0012947050854563713,-0.0022554192692041397,-0.0011079683899879456
1746738902605117400,10.227117431640625,0.0021961303427815437,0.0006081555038690567,-0.0021684488747268915
1746738902615196400,10.237196533203125,0.00393597362563014,0.0006425101310014725,-0.004940799903124571
1746738902625275600,10.247275634765625,0.0007981844246387482,-0.0013684523291885853,-0.00500994548201561
1746738902635354600,10.257354736328125,0.0009116348810493946,0.0009021586738526821,-0.0037582593504339457
1746738902645433600,10.26743359375,-0.0033297156915068626,0.002584824338555336,-0.004716786090284586
1746738902655512600,10.2775126953125,-0.0008399263024330139,0.00031474605202674866,-0.002396906726062298
1746738902665591600,10.287591552734375,-0.0010039941407740116,-0.0009674699977040291,0.0015851379139348865
1746738902675670500,10.29767041015625,0.0008871168829500675,-0.0031749638728797436,0.004395572002977133
1746738902685749500,10.30774951171875,-0.0022599236108362675,-0.005559202749282122,0.0038650392089039087
1746738902695829500,10.31782958984375,-0.003496695775538683,-0.007694791536778212,0.004280758555978537
1746738902705908500,10.327908447265624,-0.0014378014020621777,-0.003939265385270119,-0.0005315273301675916
1746738902715987700,10.33798779296875,-0.0016724257729947567,-0.00125559838488698,-0.005592598579823971
1746738902726066700,10.348066650390624,0.0014065210707485676,-0.002625974826514721,-0.0032850902061909437
1746738902736145400,10.3581455078125,-0.0018044523894786835,-0.0002677454613149166,-0.0046523567289114
1746738902746224600,10.368224609375,-0.0017002876847982407,0.0006720009259879589,-0.005359756760299206
1746738902756303600,10.3783037109375,0.000237960834056139,-0.0013003358617424965,-0.0019756779074668884
1746738902766382600,10.388382568359376,0.0020507224835455418,-0.00323433056473732,0.0006082161562517285
1746738902776461600,10.398461669921875,0.0011228770017623901,0.0006890380755066872,0.0021110379602760077
1746738902786540500,10.40854052734375,0.0008988520130515099,0.003328565042465925,0.004328428767621517
1746738902796619800,10.418619873046875,0.0004319995641708374,0.0058998470194637775,0.004426965955644846
1746738902806698500,10.428698486328125,-0.002125220838934183,0.004886582028120756,0.005751399323344231
1746738902816777500,10.438777587890625,-0.004095161333680153,0.0035403543151915073,0.006893895100802183
1746738902826856700,10.448856689453125,-0.0022055241279304028,0.0007628980092704296,0.007433334365487099
1746738902836935400,10.458935302734375,-0.0017546508461236954,-0.00003392016515135765,0.007602711208164692
1746738902847014700,10.4690146484375,-0.0037705395370721817,-0.00202680891379714,0.00424301577731967
1746738902857093600,10.47909375,-0.0025225821882486343,-0.0040177879855036736,0.0017532267374917865
1746738902867172400,10.48917236328125,-0.0011263578198850155,-0.0008161580190062523,-0.001081101130694151
1746738902877251600,10.49925146484375,0.00027606263756752014,-0.004323008470237255,-0.0019040179904550314
1746738902887330600,10.50933056640625,0.0021615808364003897,-0.003272657748311758,-0.0038665011525154114
1746738902897409800,10.519409912109374,0.0027922173030674458,-0.002991161774843931,-0.00211360864341259
1746738902907488500,10.529488525390626,0.0028623470570892096,-0.0008836891502141953,0.0014962004497647285
1746738902917567500,10.5395673828125,-0.0006801900453865528,-0.0019052778370678425,0.0010879378532990813
1746738902927647500,10.5496474609375,-0.0010646260343492031,0.005096126813441515,0.00258078845217824
1746738902937726500,10.5597265625,0.0026645984034985304,0.0033988947980105877,0.003122741589322686
1746738902947805700,10.5698056640625,0.0012913481332361698,0.0028668404556810856,0.004597451537847519
1746738902957884700,10.579884765625,0.0026503594126552343,-0.0018887659534811974,0.007972209714353085
1746738902967963600,10.589963623046875,0.002846191870048642,0.0007571266032755375,0.0068208687007427216
1746738902978042600,10.600042724609375,-0.0022851871326565742,0.003202174324542284,0.006790508981794119
1746738902988121600,10.61012158203125,-0.002758430317044258,-0.0004788469523191452,0.008450190536677837
1746738902998200600,10.62020068359375,-0.0034236880019307137,-0.0016072280704975128,0.005183291155844927
1746738903008279600,10.630279541015625,-0.001682870090007782,-0.0003433339297771454,0.0019007346127182245
1746738903018358500,10.640358642578125,-0.0018575731664896011,-0.001737232320010662,0.0018506671767681837
1746738903028437500,10.6504375,-0.0016585630364716053,0.0013561379164457321,0.00047527882270514965
1746738903038516500,10.6605166015625,-0.00003643147647380829,0.00013188272714614868,-0.0008696175063960254
1746738903048595700,10.670595703125,-0.0011189887300133705,0.0018692626617848873,-0.00006100568862166256
1746738903058674700,10.6806748046875,0.0011204634793102741,-0.00016299588605761528,-0.0033923538867384195
1746738903068753400,10.69075341796875,0.0030300726648420095,-0.0010703080333769321,-0.004661784041672945
1746738903078832600,10.70083251953125,0.001945367082953453,0.00104983476921916,-0.004418104887008667
1746738903088911600,10.71091162109375,0.0031335102394223213,-0.0045357500202953815,-0.0017353222938254476
1746738903098990600,10.720990478515626,-0.0022844248451292515,0.00034768832847476006,-0.0027704930398613214
1746738903109069600,10.731069580078126,0.0038328731898218393,-0.0035878405906260014,-0.0007577073411084712
1746738903119148500,10.7411484375,0.001113253179937601,-0.0010999157093465328,-0.002220581751316786
1746738903129227500,10.7512275390625,-0.0010607913136482239,0.0006808135658502579,0.0030581546016037464
1746738903139306500,10.761306396484375,-0.0034629623405635357,0.0010211654007434845,0.007489388342946768
1746738903149385700,10.7713857421875,-0.0029420466162264347,0.00038779014721512794,0.005041995085775852
1746738903159464700,10.781464599609375,-0.0009302948601543903,0.0027100667357444763,0.006847085431218147
1746738903169544700,10.791544677734375,-0.0023709586821496487,0.0010259058326482773,0.0015618485631421208
1746738903179623700,10.801623779296875,0.00041603948920965195,0.0009832950308918953,-0.005035866517573595
1746738903189702400,10.811702392578125,-0.0013273018412292004,0.0011497433297336102,-0.007082918658852577
1746738903199781600,10.82178173828125,0.00191749376244843,-0.003149930387735367,-0.003399766981601715
1746738903209860600,10.831860595703125,0.0017940641846507788,-0.0015124962665140629,-0.00017940872930921614
1746738903219939600,10.841939697265625,0.0002584857866168022,-0.000028849579393863678,0.005965303163975477
1746738903230018600,10.8520185546875,-0.0005289223045110703,0.0006750593893229961,0.008525081910192966
1746738903240097500,10.86209765625,-0.0059934621676802635,0.0007957001216709614,0.006191886030137539
1746738903250176800,10.8721767578125,-0.0038974308408796787,0.000611630268394947,0.005450877360999584
1746738903260255500,10.88225537109375,-0.0028790379874408245,-0.0001585562713444233,0.0035429883282631636
1746738903270334500,10.89233447265625,-0.0029227673076093197,-0.0006274706684052944,0.004906836431473494
1746738903280413700,10.90241357421875,-0.0018372628837823868,0.0017573903314769268,0.004442913457751274
1746738903290492400,10.912492431640626,-0.0012619663029909134,0.002966663334518671,0.0006571871927008033
1746738903300571600,10.922571533203126,0.0012595145963132381,0.002798618283122778,0.0016627968288958073
1746738903310650600,10.932650634765626,0.0006865616887807846,0.005409985315054655,-0.0011632642708718777
1746738903320729600,10.9427294921875,0.002202166710048914,0.007966354489326477,-0.00504535436630249
1746738903330808600,10.95280859375,0.0002044234424829483,0.005111850798130035,-0.0038716152776032686
1746738903340887600,10.962887451171875,0.00003051897510886192,0.0026140715926885605,-0.001109118340536952
1746738903350966800,10.972966796875,0.0009786044247448444,0.004309972748160362,0.0013151572784408927
1746738903361045500,10.98304541015625,-0.0010350118391215801,0.00580214150249958,-0.0007426673546433449
1746738903371124500,10.99312451171875,-0.00007043126970529556,0.003738291095942259,0.0016278969123959541
1746738903381203700,11.00320361328125,-0.001526114996522665,0.001640253234654665,0.0022774417884647846
1746738903391282400,11.013282470703125,-0.00007417937740683556,0.0006620557978749275,-0.0027551527600735426
1746738903401361400,11.023361328125,0.0003458014689385891,0.0032301414757966995,-0.005460658110678196
1746738903411440600,11.033440673828125,-0.0013255439698696136,-0.00596627127379179,-0.005046635400503874
1746738903421519600,11.04351953125,-0.0019758879207074642,-0.003873026929795742,-0.0023480544332414865
1746738903431598600,11.0535986328125,-0.002327443566173315,-0.003943429794162512,-0.006775259505957365
1746738903441678600,11.0636787109375,-0.0019889562390744686,0.0020263120532035828,-0.001983966678380966
1746738903451757600,11.073757568359374,-0.0017767022363841534,0.0011711707338690758,-0.004796264693140984
1746738903461836500,11.08383642578125,-0.0012818868272006512,0.00378319900482893,-0.0015003366861492395
1746738903471915500,11.09391552734375,-0.00268803583458066,0.004066825844347477,0.0003827845794148743
1746738903481994800,11.103994873046876,0.0017226915806531906,0.00033174268901348114,0.00548540148884058
1746738903492073500,11.114073486328126,-0.0027611111290752888,-0.005401367321610451,0.00406442116945982
1746738903502152700,11.124152587890626,0.000958259217441082,-0.0012335199862718582,-0.00003338493115734309
1746738903512231700,11.134231689453125,0.0023151736240833998,0.004714749753475189,-0.0035389114636927843
1746738903522310400,11.144310302734375,-0.0016920845955610275,-0.003743716049939394,-0.008083862252533436
1746738903532389600,11.1543896484375,-0.005201846826821566,0.002034557517617941,-0.013217615894973278
1746738903542468600,11.164468505859375,0.0007143653929233551,0.0026806402020156384,-0.0071562607772648335
1746738903552547600,11.174547607421875,-0.0023259506560862064,-0.001020733267068863,-0.0009812039788812399
1746738903562626600,11.18462646484375,-0.001749909482896328,0.00031404290348291397,0.003311012638732791
1746738903572705500,11.19470556640625,-0.0027295993641018867,0.0007601515389978886,0.0036883330903947353
1746738903582784800,11.20478466796875,-0.0014981534332036972,-0.0004127044230699539,-0.00001505865657236427
1746738903592863500,11.214863525390625,0.0008860682137310505,0.0005914485082030296,0.005643176846206188
1746738903602942500,11.2249423828125,0.0001856568269431591,-0.0016043279320001602,0.006913238205015659
1746738903613021700,11.235021728515624,-0.003441000822931528,0.0016288524493575096,0.004595746751874685
1746738903623100400,11.245100341796874,0.00041419127956032753,0.001709013245999813,0.0018660067580640316
1746738903633179600,11.2551796875,0.002723578829318285,-0.0005702460184693336,-0.0038064427208155394
1746738903643258600,11.265258544921876,0.0031733866780996323,0.004842362366616726,-0.00818015169352293
1746738903653337600,11.275337646484376,0.002179246861487627,0.00393245555460453,-0.006915716920047998
1746738903663416600,11.28541650390625,0.002481781877577305,0.008271544240415096,-0.008857427164912224
1746738903673495600,11.29549560546875,0.0017241474706679583,0.0058257970958948135,-0.002211251063272357
1746738903683574800,11.30557470703125,0.0009622168727219105,0.004475042223930359,-0.0007406533695757389
1746738903693653500,11.315653564453125,0.00001072511076927185,0.005470285192131996,0.0027999174781143665
1746738903703732500,11.325732421875,-0.0030697532929480076,0.001977282576262951,0.002927483059465885
1746738903713812500,11.3358125,-0.003205949440598488,-0.002102895174175501,0.003179028630256653
1746738903723891500,11.345891357421875,-0.0021553323604166508,-0.0016901050694286823,0.0025393373798578978
1746738903733970700,11.355970703125,-0.0008986047469079494,-0.003982115536928177,0.0008530570194125175
1746738903744049700,11.366049560546875,-0.0016216528601944447,0.0006840089336037636,0.0015057978453114629
1746738903754128600,11.376128662109375,-0.001452363096177578,0.005228930618613958,-0.005283881910145283
1746738903764207600,11.38620751953125,-0.0018145530484616756,0.0013196761719882488,-0.003091035410761833
1746738903774286600,11.39628662109375,-0.001568513922393322,0.0010750079527497292,-0.0052206977270543575
1746738903784365600,11.406365478515625,0.0004901094362139702,-0.0008997265249490738,-0.0047610364854335785
1746738903794444500,11.416444580078124,-0.004524515010416508,-0.000650506466627121,-0.004697529133409262
1746738903804523500,11.4265234375,-0.0032286206260323524,-0.0024489392526447773,-0.00437209103256464
1746738903814602500,11.4366025390625,-0.00007872376590967178,-0.0007366458885371685,0.004016443155705929
1746738903824681500,11.446681396484376,-0.0017605097964406013,-0.0007725986652076244,0.006149102468043566
1746738903834760700,11.4567607421875,0.0005981805734336376,-0.00029431888833642006,0.007229621987789869
1746738903844839700,11.466839599609376,-0.00023725302889943123,0.0005730725824832916,0.0021091620437800884
1746738903854918400,11.47691845703125,-0.0043326616287231445,0.0008524376899003983,-0.0028770745266228914
1746738903864997600,11.48699755859375,-0.0015555177815258503,-0.0020006061531603336,-0.011000248603522778
1746738903875076600,11.49707666015625,0.0007348386570811272,0.004014600999653339,-0.011748665012419224
1746738903885155600,11.507155517578125,-0.00017383182421326637,-0.0039264122024178505,-0.012527107261121273
1746738903895234600,11.517234619140625,0.0025045243091881275,-0.005333622917532921,-0.012747589498758316
1746738903905313500,11.5273134765625,0.002711718436330557,-0.000809977762401104,-0.006410864647477865
1746738903915392500,11.537392578125,-0.00005892617627978325,0.0009615048766136169,-0.00497396569699049
1746738903925471500,11.547471435546875,0.0003519994206726551,0.0029165316373109818,0.0014698191080242395
1746738903935550700,11.55755078125,-0.00012886244803667068,0.003434905782341957,0.001652696169912815
1746738903945629700,11.567629638671875,-0.0012050457298755646,0.005751589313149452,-0.00046851160004734993
1746738903955708400,11.57770849609375,-0.002886831760406494,0.007173450663685799,0.0015552245313301682
1746738903965787600,11.58778759765625,-0.0014268872328102589,0.0022676419466733932,0.0012050188379362226
1746738903975866600,11.59786669921875,0.0001311865635216236,-0.0004885108210146427,0.0013345982879400253
1746738903985946600,11.607946533203124,0.0015037795528769493,-0.0003508254885673523,-0.002001277171075344
1746738903996025600,11.618025634765624,0.0010216529481112957,0.0008981972932815552,-0.0036268706899136305
1746738904006104600,11.6281044921875,0.0007998119108378887,0.0017690509557724,-0.008455182425677776
1746738904016183600,11.63818359375,-0.00024026213213801384,-0.0005366187542676926,-0.008709280751645565
1746738904026262500,11.648262451171876,-0.0031660106033086777,0.003605129662901163,-0.012306146323680878
1746738904036341800,11.658341796875,-0.0017026625573635101,0.0030650636181235313,-0.011013256385922432
1746738904046420500,11.66842041015625,0.0024281663354486227,0.004743387922644615,-0.008010275661945343
1746738904056499500,11.67849951171875,0.0017768084071576595,-0.002214942593127489,-0.002504382049664855
1746738904066578700,11.68857861328125,-0.0010996717028319836,-0.0026418473571538925,-0.0026830800343304873
1746738904076657400,11.698657470703125,-0.0005186065100133419,0.001489199697971344,-0.0016871740808710456
1746738904086736600,11.708736572265625,-0.002352458890527487,0.0017272867262363434,-0.003682680893689394
1746738904096815600,11.718815673828125,-0.0008171172812581062,-0.0009733531624078751,-0.002666110871359706
1746738904106894600,11.72889453125,-0.00300570297986269,-0.0014183674938976765,-0.003911937586963177
1746738904116973600,11.7389736328125,-0.003457494080066681,0.001978328451514244,-0.0016943314112722874
1746738904127052500,11.749052490234375,-0.003958168439567089,0.003585279919207096,-0.00014517054660245776
1746738904137131800,11.7591318359375,0.0017515472136437893,-0.00015324587002396584,0.0010576775530353189
1746738904147210500,11.76921044921875,0.0011091926135122776,0.00020628096535801888,-0.0014976253733038902
1746738904157289500,11.77928955078125,0.0021948860958218575,-0.0016072094440460205,-0.0055622230283916
