time,seconds_elapsed,z,y,x
1746575992017511200,0.06051123046875,0.0008284717332571745,0.0002700719051063061,-0.0015989725943654776
1746575992027526100,0.070526123046875,0.0012868016492575407,0.0007156189531087875,-0.0028631750028580427
1746575992037542100,0.080542236328125,-0.00007460638880729675,-0.0010846778750419617,-0.0020916571374982595
1746575992047557000,0.09055712890625,0.00032843276858329773,-0.002222801325842738,0.0015835100784897804
1746575992057573400,0.100573486328125,-0.0003660800866782665,-0.00012278789654374123,0.0011108582839369774
1746575992067588400,0.11058837890625,-0.00024384120479226112,-0.0034205804113298655,0.0019628037698566914
1746575992077604400,0.120604248046875,0.0008574165403842926,0.0025917189195752144,-0.0011463756673038006
1746575992087619300,0.130619384765625,0.0008680692408233881,-0.00031458865851163864,-0.00029576197266578674
1746575992097635300,0.14063525390625,0.0008926326408982277,-0.0006156889721751213,0.0010509586427360773
1746575992107650300,0.150650390625,-0.00021364446729421616,-0.0011874698102474213,-0.0002710346598178148
1746575992117666300,0.160666259765625,0.00034545594826340675,0.0009224005043506622,-0.0029578746762126684
1746575992127681300,0.170681396484375,-0.00034989556297659874,0.0006845798343420029,0.003421461209654808
1746575992137697300,0.180697265625,-0.0015213191509246826,0.0005514714866876602,-0.001535729505121708
1746575992147712300,0.190712158203125,0.0005857739597558975,-0.0004504099488258362,-0.0014007072895765305
1746575992157728300,0.200728271484375,-0.0014338423497974873,-0.000023500528186559677,0.00033799256198108196
1746575992167743200,0.2107431640625,0.00047963857650756836,-0.0021702744998037815,-0.001145654357969761
1746575992177759200,0.22075927734375,0.0015250924043357372,0.001288791187107563,-0.001140617998316884
1746575992187774200,0.230774169921875,-0.0008605672046542168,-0.00048247724771499634,-0.0024450344499200583
1746575992197790200,0.240790283203125,-0.001130571123212576,0.0016713324002921581,0.0015644163358956575
1746575992207805200,0.25080517578125,-0.0006653172895312309,-0.00007303804159164429,0.0008490912150591612
1746575992217821200,0.2608212890625,-0.0017802990041673183,-0.002178006339818239,0.0006252429448068142
1746575992227836200,0.270836181640625,0.0007435784209519625,-0.002364960266277194,-0.00043070060200989246
1746575992237852200,0.28085205078125,0.0019801033195108175,0.0022948281839489937,-0.0008127018809318542
1746575992247867100,0.2908671875,-0.0026298286393284798,-0.000994708389043808,-0.0017067254520952702
1746575992257883100,0.300883056640625,0.002189427614212036,-0.000027981121093034744,-0.0004425225779414177
1746575992267898000,0.310898193359375,0.0001606317237019539,-0.0016956524923443794,-0.000953317154198885
1746575992277914000,0.3209140625,0.0018343264237046242,0.0009124330244958401,-0.00009286892600357533
1746575992287929000,0.33092919921875,0.00013336539268493652,0.0010959245264530182,-0.002817815402522683
1746575992297945000,0.340945068359375,-0.0018416349776089191,-0.0013368730433285236,-0.0009019372519105673
1746575992307960000,0.3509599609375,-0.0018634726293385029,0.0005342639051377773,-0.0013357663992792368
1746575992317976000,0.36097607421875,-0.0008995020762085915,-0.0003721206448972225,-0.001072651008144021
1746575992327991000,0.370990966796875,-0.0007498320192098618,-0.0003340374678373337,-0.001948032295331359
1746575992338007300,0.38100732421875,-0.0011581024155020714,0.0005220649763941765,-0.00022258306853473186
1746575992348022000,0.39102197265625,0.0010768224019557238,0.0003572152927517891,0.00280489819124341
1746575992358038300,0.401038330078125,0.0005326969549059868,-0.0017863092944025993,0.00019573699682950974
1746575992368053200,0.41105322265625,-0.0028159613721072674,-0.0007178490050137043,-0.00044528604485094547
1746575992378069200,0.4210693359375,0.0019239562097936869,-0.0003035692498087883,0.00038019707426428795
1746575992388084200,0.431084228515625,0.0006858524866402149,0.003116728737950325,-0.00015003839507699013
1746575992398100200,0.441100341796875,0.0009273146279156208,0.0029332414269447327,-0.0006449841894209385
1746575992408115200,0.451115234375,0.00009773997589945793,-0.00023751799017190933,-0.0009611016139388084
1746575992418131200,0.461131103515625,0.0002012164331972599,-0.0010657650418579578,0.0021197288297116756
1746575992428146200,0.471146240234375,-0.0011625881306827068,-0.001581086777150631,-0.001864360412582755
1746575992438162200,0.481162109375,0.00008464977145195007,0.00019050529226660728,-0.000683661550283432
1746575992448177200,0.49117724609375,-0.0033228653483092785,-0.0017325631342828274,0.0007746855262666941
1746575992458193200,0.501193115234375,0.0017632257658988237,-0.0003000013530254364,-0.0012939446605741978
1746575992468208000,0.5112080078125,0.0009706688579171896,0.00032664043828845024,-0.0034889220260083675
1746575992478224100,0.52122412109375,-0.0008339355699717999,0.0014429879374802113,-0.000631687929853797
1746575992488239000,0.531239013671875,0.0004987102001905441,-0.0016675840597599745,0.0005803166422992945
1746575992498255000,0.541255126953125,-0.0020529679022729397,-0.0008774739690124989,0.0035582424607127905
1746575992508270000,0.55127001953125,-0.00016771629452705383,0.00008206302300095558,0.0010791057720780373
1746575992518286000,0.5612861328125,-0.0006511369720101357,-0.00031890906393527985,-0.0006500380113720894
1746575992528301000,0.571301025390625,0.00017231237143278122,-0.00016817403957247734,0.0019995407201349735
1746575992538317300,0.5813173828125,0.00034029874950647354,-0.0017205316107720137,0.0019002507906407118
1746575992548332000,0.59133203125,-0.00010231882333755493,0.00243027089163661,0.00042485957965254784
1746575992558348300,0.601348388671875,-0.003205125220119953,0.0011761351488530636,-0.0007210362236946821
1746575992568363300,0.61136328125,0.002736387075856328,-0.0002095075324177742,0.00017378595657646656
1746575992578379300,0.621379150390625,-0.0009427350014448166,0.0006169811822474003,0.00111872679553926
1746575992588394200,0.631394287109375,0.0008738071192055941,0.0007914183661341667,0.0006257756613194942
1746575992598410200,0.64141015625,-0.0009038294665515423,0.002380684483796358,-0.00017353659495711327
1746575992608425200,0.65142529296875,-0.0004164711572229862,-0.0014207116328179836,-0.0020207050256431103
1746575992618441200,0.661441162109375,-0.001933104358613491,-0.0010064798407256603,0.00014716293662786484
1746575992628456200,0.671456298828125,-0.0006183013319969177,-0.0006940909661352634,0.0007277319673448801
1746575992638472200,0.68147216796875,-0.0009364131838083267,0.00024788547307252884,-0.0010329291690140963
1746575992648487200,0.691487060546875,-0.0011627818457782269,0.0002231183461844921,0.00013806275092065334
1746575992658503200,0.701503173828125,0.0005680681206285954,0.0022636186331510544,-0.00016035349108278751
1746575992668518100,0.71151806640625,0.0002479562535881996,-0.0006978162564337254,-0.0015353437047451735
1746575992678534100,0.7215341796875,-0.00009900843724608421,-0.001760121202096343,-0.0008739214390516281
1746575992688549000,0.731549072265625,0.00019047735258936882,-0.001689014956355095,0.0006113233976066113
1746575992698565000,0.741565185546875,-0.00018058810383081436,-0.0018494941759854555,0.001695204759016633
1746575992708580000,0.751580078125,-0.002384620252996683,-0.0018433688674122095,0.0001750723458826542
1746575992718596000,0.76159619140625,0.00013408763334155083,-0.0002932446077466011,-0.00015046005137264729
1746575992728611000,0.771611083984375,-0.000038751401007175446,0.000763764139264822,0.0008977602701634169
1746575992738627000,0.781626953125,0.00024104490876197815,0.0007772012613713741,0.004387828055769205
1746575992748642300,0.791642333984375,-0.0010796166025102139,-0.001976773841306567,-0.0011001480743288994
1746575992758658000,0.801657958984375,-0.0007543745450675488,-0.0012771254405379295,0.000014408957213163376
1746575992768673300,0.81167333984375,-0.0008808746933937073,0.0000030561350286006927,0.0008559678681194782
1746575992778689000,0.82168896484375,-0.0021552378311753273,0.0023451726883649826,0.0006857153493911028
1746575992788704300,0.831704345703125,-0.0004082042723894119,-0.0006024139001965523,0.0021067780908197165
1746575992798720000,0.841719970703125,-0.0006479532457888126,0.000047989655286073685,-0.0008383453823626041
1746575992808735200,0.8517353515625,0.000056453049182891846,-0.0009371135383844376,0.0023582465946674347
1746575992818751000,0.8617509765625,-0.0006875675171613693,0.0010601035319268703,0.0009902259334921837
1746575992828766200,0.87176611328125,0.000821912195533514,-0.0005061016418039799,-0.0007679928094148636
1746575992838782000,0.881781982421875,0.00013301754370331764,0.0012702764943242073,0.0019376266282051802
1746575992848797200,0.891797119140625,0.0003788270987570286,0.00021593132987618446,0.00038979738019406796
1746575992858813000,0.90181298828125,0.001772196963429451,0.0011570146307349205,-0.0014385217800736427
1746575992868828200,0.911828125,0.0016856442671269178,0.0001814989373087883,0.00014818948693573475
1746575992878844000,0.921843994140625,0.0015470478683710098,-0.0003520897589623928,0.0002834268379956484
1746575992888859100,0.931859130859375,0.0003491579554975033,0.00038054585456848145,-0.001086503267288208
1746575992898875000,0.941875,0.0016084250528365374,-0.004634845070540905,-0.0017519877292215824
1746575992908890000,0.95189013671875,0.0006502196192741394,0.0005186377093195915,0.0013053212314844131
1746575992918906000,0.961906005859375,0.00012606382369995117,-0.0004532216116786003,0.001476917415857315
1746575992928921000,0.971921142578125,0.00003018975257873535,-0.0004662713035941124,0.001035631401464343
1746575992938937000,0.98193701171875,0.00190454488620162,-0.000060706865042448044,-0.0029243198223412037
1746575992948953000,0.991953125,-0.00014795362949371338,-0.00035844836384058,-0.0006563719362020493
1746575992958968000,1.001968017578125,-0.0011732238344848156,0.0004951669834554195,-0.00047336192801594734
1746575992968984000,1.011984130859375,-0.00018732203170657158,-0.0008768932893872261,-0.0007266285829246044
1746575992978999000,1.0219990234375,-0.0006388588808476925,-0.0010653664357960224,0.002951850648969412
1746575992989015000,1.03201513671875,0.000716690206900239,0.0025019380263984203,0.000555005855858326
1746575992999030000,1.042030029296875,0.00032741809263825417,-0.0005597011186182499,0.0022387891076505184
1746575993009046000,1.0520458984375,0.00022675050422549248,-0.00010110484436154366,-0.000318111851811409
1746575993019061000,1.06206103515625,0.0011602374725043774,0.001088739838451147,0.0027170656248927116
1746575993029077000,1.072076904296875,-0.002039550803601742,0.00013506179675459862,0.001188943861052394
1746575993039092000,1.082092041015625,0.00012465985491871834,0.0009600748308002949,0.0017316059675067663
1746575993049108000,1.09210791015625,-0.0011890777386724949,0.0003291722387075424,0.0018815419171005487
1746575993059123000,1.102123046875,0.0003711455501616001,0.001282546203583479,-0.00048459088429808617
1746575993069139000,1.112138916015625,-0.001245393417775631,-0.001821368234232068,0.0007761497981846333
1746575993079154000,1.12215380859375,0.0011806897819042206,-0.002038479782640934,-0.00016405247151851654
1746575993089170000,1.132169921875,-0.00028910860419273376,0.00006781425327062607,0.0032666316255927086
1746575993099185000,1.142184814453125,0.00007353071123361588,0.0011255997233092785,-0.0002925582230091095
1746575993109201200,1.152201171875,-0.001254587434232235,0.000910948496311903,-0.0015261340886354446
1746575993119216000,1.162216064453125,0.0018518215510994196,0.00034599006175994873,-0.0015289215371012688
1746575993129232100,1.172232177734375,-0.0009575472213327885,-0.0026921438984572887,0.00017443648539483547
1746575993139247000,1.1822470703125,0.001963885733857751,-0.0011877194046974182,0.0009422090370208025
1746575993149263000,1.19226318359375,0.0012112765107303858,-0.00007798010483384132,-0.0006277244538068771
1746575993159278000,1.202278076171875,0.0018798965029418468,0.0016087121330201626,0.00028706248849630356
1746575993169294000,1.212294189453125,0.00117016420699656,-0.001141534186899662,0.0022439532913267612
1746575993179309000,1.22230908203125,-0.0008751377463340759,-0.0013301982544362545,-0.0004710438661277294
1746575993189325000,1.232324951171875,0.0002575046382844448,0.0008509303443133831,-0.000029225368052721024
1746575993199340000,1.242340087890625,0.0005602431483566761,0.0024198428727686405,-0.0009043002501130104
1746575993209356000,1.25235595703125,-0.00010714540258049965,0.0023426110856235027,-0.001555709633976221
1746575993219371000,1.26237109375,-0.0011637532152235508,0.0005954727530479431,0.0006364344153553247
1746575993229387000,1.272386962890625,0.0004972601309418678,-0.0016375877894461155,0.0005086027085781097
1746575993239402200,1.28240234375,0.0006903563626110554,0.00031627388671040535,0.001381332753226161
1746575993249418500,1.29241845703125,-0.0007461528293788433,0.0009077619761228561,0.0015206162352114916
1746575993259433200,1.30243310546875,0.0001378525048494339,-0.0004766853526234627,0.00008949451148509979
1746575993269449500,1.312449462890625,0.0011423968244343996,-0.0016585963312536478,0.0015150844119489193
1746575993279464400,1.32246435546875,0.00026650913059711456,0.0003051753155887127,-0.0005106781609356403
1746575993289480400,1.33248046875,0.000020166859030723572,0.0003887987695634365,-0.001919490285217762
1746575993299495400,1.342495361328125,-0.001286868005990982,-0.001664536539465189,-0.0005866708233952522
1746575993309511400,1.352511474609375,0.00021622003987431526,0.0006007482297718525,-0.00005670171231031418
1746575993319526400,1.3625263671875,-0.0009146244265139103,-0.00278320605866611,0.0013128167483955622
1746575993329542400,1.37254248046875,0.0020057978108525276,0.0009276424534618855,0.0018824669532477856
1746575993339557400,1.382557373046875,-0.0010487758554518223,0.000010960735380649567,-0.000012947246432304382
1746575993349573400,1.392573486328125,-0.0008477070368826389,0.0003758138045668602,0.0008579064160585403
1746575993359588400,1.40258837890625,-0.0004406399093568325,0.0004649120382964611,-0.0026356237940490246
1746575993369604400,1.412604248046875,0.00009731855243444443,-0.00012710876762866974,-0.0006084255874156952
1746575993379619300,1.422619384765625,-0.00048555294051766396,0.00006463751196861267,-0.0020361170172691345
1746575993389635300,1.43263525390625,-0.002053355798125267,0.001300344243645668,-0.00038362573832273483
1746575993399650300,1.442650390625,-0.0005629062652587891,-0.0010307114571332932,0.0019068112596869469
1746575993409666300,1.452666259765625,-0.00020577618852257729,-0.00011431798338890076,-0.0009563532657921314
1746575993419681300,1.462681396484375,0.0011134909000247717,0.000030400697141885757,-0.0019234265200793743
1746575993429697300,1.472697265625,-0.0004977216012775898,-0.0008668182417750359,-0.0018949308432638645
1746575993439713500,1.482713623046875,0.0015094068367034197,-0.0005953740328550339,-0.0011523482389748096
1746575993449728500,1.492728515625,-0.0017897170037031174,0.001010512001812458,0.0022503724321722984
1746575993459744500,1.50274462890625,0.0013780093286186457,0.00023155100643634796,-0.0003589470870792866
1746575993469759500,1.512759521484375,-0.0011064535938203335,-0.002337334444746375,0.0012266989797353745
1746575993479775500,1.522775390625,0.0005557965487241745,-0.0017889379523694515,0.0013631966430693865
1746575993489790500,1.53279052734375,-0.0024333354085683823,-0.002005186630412936,-0.0003169914707541466
1746575993499806500,1.542806396484375,-0.000326620414853096,-0.0021769078448414803,-0.00013628695160150528
1746575993509821400,1.552821533203125,-0.0003375392407178879,0.00029557058587670326,-0.0004979441873729229
1746575993519837400,1.56283740234375,-0.001142317894846201,-0.0014763842336833477,0.0006351298652589321
1746575993529852400,1.572852294921875,-0.0007420447655022144,-0.0012779785320162773,0.000819420674815774
1746575993539868400,1.582868408203125,-0.00006819795817136765,-0.001716460334137082,0.00006697094067931175
1746575993549883400,1.59288330078125,0.00112063717097044,0.0012548286467790604,0.0001748290378600359
1746575993559899400,1.6028994140625,0.0010910944547504187,0.000030889641493558884,0.00155390496365726
1746575993569914400,1.612914306640625,0.0003099893219769001,0.0006178505718708038,0.0011586917098611593
1746575993579930400,1.622930419921875,-0.0017371363937854767,-0.00005962420254945755,-0.0015693164896219969
1746575993589945300,1.6329453125,0.0002562394365668297,0.0010383971966803074,-0.003519283374771476
1746575993599961300,1.64296142578125,-0.0012550149112939835,-0.0007266877219080925,0.0007073567248880863
1746575993609976300,1.652976318359375,-0.0008283765055239201,0.00022699031978845596,0.002398730255663395
1746575993619992600,1.66299267578125,0.00037260353565216064,-0.0003591901622712612,-0.0014520795084536076
1746575993630007300,1.67300732421875,-0.0003001107834279537,-0.00034001516178250313,-0.0017404998652637005
1746575993640023600,1.6830234375,0.0015189317055046558,0.0009986958466470242,0.0007061343640089035
1746575993650038500,1.69303857421875,0.0015953644178807735,0.0009321165271103382,0.0003055951092392206
1746575993660054500,1.703054443359375,0.0004045134410262108,0.0005855457857251167,-0.002535221865400672
1746575993670069500,1.713069580078125,-0.0003771241754293442,0.002145359292626381,-0.0015751526225358248
1746575993680085500,1.72308544921875,0.0009101864416152239,-0.0006012860685586929,0.0007160799577832222
1746575993690100500,1.7331005859375,0.0007855505682528019,-0.0009802537970244884,-0.0016362904570996761
1746575993700116500,1.743116455078125,0.0005260244943201542,0.0022039231844246387,0.002073950134217739
1746575993710131500,1.75313134765625,0.0010621189139783382,0.0010153544135391712,-0.0010099904611706734
1746575993720147500,1.7631474609375,-0.0022124256938695908,-0.00036254338920116425,-0.0013717699330300093
1746575993730162400,1.773162353515625,-0.0010233242064714432,-0.0010451115667819977,-0.0017600588034838438
1746575993740178400,1.783178466796875,-0.00008374406024813652,-0.001842715311795473,-0.002023647539317608
1746575993750193400,1.793193359375,0.00044409441761672497,0.0013179243542253971,0.0028531330171972513
1746575993760209400,1.80320947265625,-0.0009269034489989281,-0.005910423584282398,0.002431536093354225
1746575993770224400,1.813224365234375,-0.0005157114937901497,0.0008587990887463093,0.0003635913599282503
1746575993780240400,1.823240478515625,0.0037867287173867226,0.0005030850879848003,0.0026790390256792307
1746575993790255400,1.83325537109375,0.002891640178859234,0.0004892367869615555,0.0005437163636088371
1746575993800271400,1.843271240234375,-0.0012315991334617138,-0.000003152061253786087,0.0013160367961972952
1746575993810286300,1.853286376953125,-0.0007490343414247036,-0.0006633494049310684,0.0006651601288467646
1746575993820302600,1.863302490234375,-0.0011227293871343136,-0.003224004525691271,-0.002445752965286374
1746575993830317600,1.873317626953125,-0.002586935181170702,-0.001986966235563159,0.0006365897133946419
1746575993840333600,1.88333349609375,-0.0015400014817714691,-0.0011411281302571297,0.0012321921531111002
1746575993850348500,1.8933486328125,-0.0005402509123086929,0.001132945530116558,0.00351052638143301
1746575993860364500,1.903364501953125,-0.0008578235283493996,-0.00021607102826237679,0.0016427910886704922
1746575993870380300,1.91338037109375,-0.0002697976306080818,-0.00022299494594335556,0.0024569195229560137
1746575993880395500,1.9233955078125,-0.0002650078386068344,-0.0006821961142122746,0.0014969503972679377
1746575993890411300,1.933411376953125,-0.000367805827409029,-0.00020389212295413017,-0.002105241408571601
1746575993900426500,1.943426513671875,-0.0009714076295495033,-0.0013301530852913857,-0.0017149278428405523
1746575993910442200,1.953442138671875,0.0016006736550480127,-0.0008092387579381466,0.0013556969352066517
1746575993920457500,1.96345751953125,0.00015418417751789093,0.0015376792289316654,0.0016593129839748144
1746575993930473200,1.97347314453125,-0.00012784451246261597,-0.0015739579685032368,-0.0007905287202447653
1746575993940488400,1.983488525390625,-0.0013221539556980133,-0.0000665825791656971,0.0003968209493905306
1746575993950504200,1.993504150390625,0.0001146215945482254,0.0003011999651789665,0.0018450478091835976
1746575993960519400,2.00351953125,-0.0017595472745597363,0.00012720096856355667,0.0011968114413321018
1746575993970535200,2.01353515625,0.0012162686325609684,0.00010775960981845856,-0.00040294951759278774
1746575993980550400,2.02355029296875,-0.00019044801592826843,0.0015298109501600266,0.0008270328398793936
1746575993990566400,2.03356640625,0.0012607083190232515,-0.0007376042194664478,0.0032481125090271235
1746575994000581400,2.043581298828125,-0.0012849420309066772,0.0012304005213081837,-0.0008037385996431112
1746575994010597400,2.053597412109375,-0.0025539379566907883,0.0003060172311961651,-0.0010133290197700262
1746575994020612400,2.0636123046875,-0.002240528352558613,0.004393366165459156,0.0008576167747378349
1746575994030628400,2.07362841796875,0.000056181568652391434,0.0018098335713148117,0.003056322457268834
1746575994040643300,2.083643310546875,-0.0005421494133770466,-0.00036773644387722015,-0.002598400926217437
1746575994050659300,2.093659423828125,0.0004714496899396181,0.000918037723749876,-0.0016668273601680994
1746575994060674300,2.10367431640625,-0.0024740989319980145,-0.0007819649763405323,-0.000534804305061698
1746575994070690300,2.113690185546875,0.0014178445562720299,0.00006465381011366844,-0.0002937882672995329
1746575994080705300,2.123705322265625,-0.0008154390379786491,-0.0012608985416591167,0.00217506499029696
1746575994090721300,2.13372119140625,0.00023757480084896088,0.0010310178622603416,0.0009382930584251881
1746575994100736300,2.143736328125,-0.0012149261310696602,0.0016292976215481758,0.0020629880018532276
1746575994110752300,2.153752197265625,-0.0014807097613811493,-0.0024770305026322603,-0.0005961779970675707
1746575994120767200,2.163767333984375,-0.0008606249466538429,0.0012577441520988941,0.0015634712763130665
1746575994130783200,2.173783203125,0.0022299736738204956,-0.0012312461622059345,0.0021400456316769123
1746575994140798200,2.183798095703125,-0.0006145061925053596,-0.0018793572671711445,-0.001001003198325634
1746575994150814200,2.193814208984375,0.00039403303526341915,-0.0009973184205591679,-0.00015704752877354622
1746575994160829200,2.2038291015625,-0.0005344618111848831,0.001362435519695282,0.0005829273723065853
1746575994170845200,2.21384521484375,0.0002596927806735039,-0.00033639464527368546,0.0008859951049089432
1746575994180860200,2.223860107421875,-0.0003055557608604431,-0.0006908774375915527,0.0025422172620892525
1746575994190876400,2.23387646484375,-0.0007716086693108082,-0.0005164407193660736,0.002156325150281191
1746575994200891400,2.243891357421875,-0.00044607650488615036,0.0014035562053322792,0.0013729610946029425
1746575994210907400,2.253907470703125,-0.00009853392839431763,-0.001488903071731329,-0.0007423874922096729
1746575994220922400,2.26392236328125,-0.002041539642959833,0.0004713856615126133,-0.0004855270963162184
1746575994230938400,2.2739384765625,-0.00005269097164273262,0.00035260850563645363,0.001045258017256856
1746575994240953900,2.283953857421875,0.0002493946813046932,0.0003382568247616291,0.001401206711307168
1746575994250969900,2.293969970703125,-0.00039162812754511833,0.00003492273390293121,-0.0021959247533231974
1746575994260984800,2.30398486328125,0.0016724220477044582,-0.002562333596870303,0.0010575077030807734
1746575994271000800,2.314000732421875,0.0016742863226681948,-0.0017631191294640303,0.0003371227066963911
1746575994281015800,2.324015869140625,0.0011324470397084951,-0.0013739517889916897,0.0015839291736483574
1746575994291031800,2.33403173828125,0.0005774442106485367,-0.0007023024372756481,0.0004688636399805546
1746575994301047800,2.3440478515625,0.001588866114616394,-0.0003042807802557945,-0.0014807921834290028
1746575994311062800,2.354062744140625,0.0010549023281782866,-0.0006678025238215923,-0.0017926483415067196
1746575994321078800,2.364078857421875,0.0007814357522875071,0.00011062761768698692,0.0005866594146937132
1746575994331093800,2.37409375,-0.0018763989210128784,0.0015697735361754894,0.0002678788732737303
1746575994341109800,2.38410986328125,0.0002712355926632881,-0.002394868293777108,0.0007091443985700607
1746575994351124700,2.394124755859375,0.0009391563944518566,-0.0007785959169268608,-0.0017462901305407286
1746575994361140700,2.404140625,-0.0019195890054106712,-0.0014279913157224655,-0.0011805843096226454
1746575994371155700,2.41415576171875,0.0005933698266744614,0.0020532929338514805,0.00023062457330524921
1746575994381172000,2.424171875,-0.001601560041308403,0.0024260790087282658,0.002492461819201708
1746575994391187000,2.43418701171875,0.0007204499561339617,-0.00040779123082756996,-0.00043887970969080925
1746575994401203000,2.444202880859375,0.0005608121864497662,0.0005516964010894299,0.0015363350976258516
1746575994411218000,2.454218017578125,0.0004614763893187046,0.0005804584361612797,0.0016343393363058567
1746575994421234000,2.46423388671875,-0.0012836991809308529,-0.0016421866603195667,-0.00011346768587827682
1746575994431249000,2.474248779296875,-0.0000527859665453434,-0.001815025694668293,-0.0006815199740231037
1746575994441265000,2.484264892578125,-0.0010453932918608189,0.0017619938589632511,-0.0005255686119198799
1746575994451280000,2.49427978515625,0.002188749611377716,-0.00011100759729743004,-0.004847879055887461
1746575994461295900,2.5042958984375,-0.0028916397131979465,-0.002553864847868681,-0.0009652473963797092
1746575994471310800,2.514310791015625,0.00032093143090605736,0.000646455679088831,-0.002050751820206642
1746575994481326800,2.524326904296875,-0.0022190664894878864,-0.0006978237070143223,-0.001665480900555849
1746575994491341800,2.534341796875,-0.0011788359843194485,0.0042207688093185425,0.0004916794132441282
1746575994501357800,2.54435791015625,-0.00021594157442450523,0.0017079068347811699,-0.00046381354331970215
1746575994511372800,2.554372802734375,0.000903118634596467,0.00012199440971016884,0.000054969917982816696
1746575994521388800,2.564388916015625,-0.0013215779326856136,-0.0018072058446705341,0.003991424106061459
1746575994531403800,2.57440380859375,0.00014848727732896805,0.0023041819222271442,0.0004475556779652834
1746575994541419800,2.584419677734375,0.0017544804140925407,-0.0008162381127476692,-0.0019148264545947313
1746575994551434800,2.594434814453125,-0.0008008223958313465,-0.00021036900579929352,-0.0029076531063765287
1746575994561451000,2.604450927734375,0.0017422190867364407,-0.0007601901888847351,0.002042790874838829
1746575994571465700,2.6144658203125,-0.0017643650062382221,0.0003527449443936348,0.00045661209151148796
1746575994581482000,2.62448193359375,0.001795187359675765,-0.0001942059025168419,0.0026719849556684494
1746575994591497000,2.6344970703125,0.0006273912731558084,0.001715280581265688,0.0015886109322309494
1746575994601513000,2.644512939453125,0.001774981152266264,0.0018681883811950684,-0.0029140603728592396
1746575994611528000,2.65452783203125,-0.0015952493995428085,-0.0009129508398473263,-0.0006714123301208019
1746575994621544000,2.6645439453125,0.00020174821838736534,0.0001476961188018322,0.0020515001378953457
1746575994631559000,2.674558837890625,0.0016449152026325464,0.0010973797179758549,-0.0007693199440836906
1746575994641575000,2.684574951171875,-0.000197588000446558,-0.0007027979008853436,0.0026185933966189623
1746575994651590000,2.69458984375,0.0012383884750306606,0.0013054916635155678,0.0006830077618360519
1746575994661606000,2.70460595703125,0.0007020821794867516,-0.00038294028490781784,0.0002096765674650669
1746575994671620900,2.714620849609375,0.00004241708666086197,0.0004500965587794781,-0.0002473217900842428
1746575994681636900,2.724636962890625,-0.001391308382153511,0.0015493766404688358,0.00003810902126133442
1746575994691652900,2.73465283203125,0.0014896993525326252,-0.001692222896963358,-0.0036058942787349224
1746575994701667800,2.744667724609375,-0.001314613502472639,-0.0002943649888038635,0.0003702517133206129
1746575994711683800,2.754683837890625,0.00016930000856518745,0.00013946369290351868,0.000997958704829216
1746575994721698800,2.76469873046875,-0.000918918289244175,-0.00043122749775648117,-0.0013661833945661783
1746575994731714800,2.77471484375,-0.000971382949501276,-0.00003388384357094765,0.0006927063222974539
1746575994741729800,2.784729736328125,0.0006813912186771631,-0.0010995366610586643,0.0019654263742268085
1746575994751746000,2.79474609375,0.0006915112026035786,-0.0027770616579800844,-0.00021543633192777634
1746575994761761000,2.804760986328125,-0.0009235492907464504,0.0010112365707755089,-0.0008258530870079994
1746575994771777000,2.814777099609375,-0.0014529861509799957,-0.0006503094919025898,-0.00015233969315886497
1746575994781792000,2.8247919921875,-0.0005482630804181099,-0.0011007534340023994,0.002329347189515829
1746575994791808000,2.83480810546875,0.0012999705504626036,0.0008864970877766609,0.0023072431795299053
1746575994801823000,2.844822998046875,0.0008801503572613001,0.0000676233321428299,0.003021941753104329
1746575994811839000,2.8548388671875,-0.0006935116834938526,0.000008501112461090088,0.0016354999970644712
1746575994821854000,2.86485400390625,-0.0009596985764801502,-0.00007026409730315208,-0.0017175439279526472
1746575994831870000,2.874869873046875,-0.0003588893450796604,0.00026529422029852867,0.0004428122192621231
1746575994841885000,2.884885009765625,0.00039225583896040916,-0.0001451442949473858,-0.0038867928087711334
1746575994851901000,2.89490087890625,-0.0007939161732792854,0.0009254463948309422,0.0004043583758175373
1746575994861916000,2.904916015625,-0.0006137830205261707,-0.00002661021426320076,-0.00010709371417760849
1746575994871932000,2.914931884765625,-0.0011895583011209965,0.00003970274701714516,-0.0016756956465542316
1746575994881947000,2.92494677734375,-0.0003757174126803875,-0.0009127967059612274,-0.00010108738206326962
1746575994891963000,2.934962890625,-0.0005552144721150398,0.0006608651019632816,0.0007955990731716156
1746575994901977900,2.944977783203125,0.0024729156866669655,-0.00022123148664832115,0.00102160032838583
1746575994911993900,2.954993896484375,-0.0016057156026363373,0.0013843881897628307,-0.0012138572055846453
1746575994922008800,2.9650087890625,-0.001776757650077343,0.001675548031926155,0.0012229944113641977
1746575994932024800,2.97502490234375,-0.0002576904371380806,0.0004800548776984215,0.0022648232989013195
1746575994942039800,2.985039794921875,0.0009091547690331936,-0.00019752560183405876,-0.0019643702544271946
1746575994952055800,2.995055908203125,0.0007011620327830315,0.0022619036026299,0.00110172713175416
1746575994962071000,3.005071044921875,-0.0006476198323071003,-0.0007785102352499962,-0.00044704414904117584
1746575994972086800,3.015086669921875,-0.0009762542322278023,0.0012449594214558601,-0.0030196579173207283
1746575994982102000,3.02510205078125,-0.00047977548092603683,-0.0005413196049630642,0.00004170415922999382
1746575994992117800,3.03511767578125,-0.0017639514990150928,0.0008318061009049416,0.00038764881901443005
1746575995002133000,3.045133056640625,-0.0005615190602838993,-0.0017929046880453825,-0.0007414096035063267
1746575995012148700,3.055148681640625,0.0017783341463655233,0.0010982230305671692,0.0003169307019561529
1746575995022164000,3.0651640625,0.0003221915103495121,-0.001619439572095871,-0.001049818703904748
1746575995032179700,3.0751796875,0.001726742833852768,0.0005174810066819191,-0.0008234500419348478
1746575995042195000,3.08519482421875,0.0009243176318705082,0.0010199486277997494,0.000896089943125844
1746575995052210700,3.095210693359375,-0.0005806349217891693,-0.002497021807357669,-0.0013422970660030842
1746575995062226700,3.105226806640625,0.0005236775614321232,0.0012210211716592312,0.001820782315917313
1746575995072241700,3.11524169921875,0.000022470951080322266,-0.0010072453878819942,0.000707314582541585
1746575995082257700,3.125257568359375,0.0006067734211683273,0.0011722501367330551,-0.00019906950183212757
1746575995092272600,3.135272705078125,-0.0029594656080007553,0.0008899550884962082,-0.0026049695443361998
1746575995102289000,3.145288818359375,-0.0000882130116224289,-0.0015501840971410275,-0.00048285885713994503
1746575995112303600,3.1553037109375,-0.0008368277922272682,-0.0015949252992868423,0.0005456539802253246
1746575995122320000,3.16531982421875,-0.0002754237502813339,0.001416302751749754,-0.0007042672950774431
1746575995132334800,3.1753349609375,0.000006604939699172974,0.0021113879047334194,0.002100307960063219
1746575995142350800,3.185350830078125,-0.0020934869535267353,-0.000901280902326107,0.0013255889061838388
1746575995152365800,3.19536572265625,-0.0018644551746547222,-0.0005060681141912937,-0.0012022836599498987
1746575995162381800,3.2053818359375,-0.00025907158851623535,0.001758222933858633,-0.0003137029707431793
1746575995172396800,3.215396728515625,0.00041923578828573227,0.0023363949730992317,0.0006809879560023546
1746575995182412800,3.225412841796875,-0.00013035768643021584,0.00013159262016415596,0.0021156955044716597
1746575995192427800,3.235427734375,0.00006991205736994743,0.0009811408817768097,-0.000504322350025177
1746575995202443800,3.24544384765625,-0.00032218173146247864,0.0006045419722795486,-0.0010597954969853163
1746575995212458800,3.255458740234375,-0.0006502834148705006,0.0003099963068962097,0.0008203964680433273
1746575995222474800,3.265474853515625,-0.002443441189825535,0.00030909059569239616,0.00238988921046257
1746575995232489700,3.27548974609375,-0.0008418159559369087,0.0006435834802687168,-0.0016866112127900124
1746575995242505000,3.2855048828125,0.001021696487441659,0.0004437072202563286,-0.0006918779108673334
1746575995252520000,3.29552001953125,0.0013093177694827318,0.0020194994285702705,-0.00007295911200344563
1746575995262536000,3.305535888671875,-0.0014443215914070606,0.003009967040270567,-0.0002581134904175997
1746575995272551000,3.315551025390625,0.00028460239991545677,0.0004290980286896229,-0.0006573211867362261
1746575995282567000,3.32556689453125,-0.002126709558069706,-0.0013965042307972908,0.001292920671403408
1746575995292582000,3.335581787109375,-0.0018428163602948189,-0.0025688279420137405,0.0001709309872239828
1746575995302598000,3.345597900390625,0.0006555088330060244,0.0012729903683066368,0.00006909994408488274
1746575995312612900,3.35561279296875,0.001139937900006771,-0.0014743264764547348,-0.0004614016506820917
1746575995322628900,3.36562890625,-0.0007142773829400539,-0.0018097907304763794,-0.0017529353499412537
1746575995332644000,3.37564404296875,-0.0010996367782354355,0.0006714765913784504,0.0004899785853922367
1746575995342659800,3.385659912109375,-0.00010101776570081711,0.000006287824362516403,-0.0006640036590397358
1746575995352675000,3.395675048828125,-0.0013369908556342125,-0.00004164921119809151,-0.0017849281430244446
1746575995362690800,3.40569091796875,-0.001923170406371355,-0.0003710612654685974,0.0004543587565422058
1746575995372706000,3.4157060546875,0.00001214863732457161,0.0020375014282763004,-0.0010718987323343754
1746575995382721800,3.4257216796875,0.0004131561145186424,-0.002661271020770073,-0.0003683909308165312
1746575995392737000,3.435737060546875,-0.001160506159067154,-0.0032421064097434282,0.0004561238456517458
1746575995402752800,3.445752685546875,-0.002199768088757992,-0.0007014749571681023,0.0005135601386427879
1746575995412768000,3.45576806640625,0.0025012437254190445,-0.0012498199939727783,0.0003098282031714916
1746575995422783700,3.46578369140625,0.002186235971748829,0.0016152691096067429,0.001651860773563385
1746575995432799700,3.4757998046875,0.0013454761356115341,-0.00012990040704607964,-0.0020483352709561586
1746575995442814700,3.485814697265625,0.0009773734491318464,0.0015213736332952976,0.00012468802742660046
1746575995452830700,3.495830810546875,-0.0002575344406068325,-0.0003950372338294983,0.00015717861242592335
1746575995462845700,3.505845703125,-0.0007567931897938251,0.00028147175908088684,-0.000906860688701272
1746575995472861700,3.51586181640625,0.00022671231999993324,0.00022740988060832024,-0.0007239014375954866
1746575995482876700,3.525876708984375,-0.0005562370643019676,-0.0017486230935901403,-0.001472389791160822
1746575995492893000,3.535892822265625,-0.00027154479175806046,0.0005374345928430557,-0.0013701245188713074
1746575995502908000,3.545907958984375,0.001339971786364913,-0.0009356513619422913,-0.00016895821318030357
1746575995512924000,3.555923828125,0.0011474252678453922,-0.00029516126960515976,-0.0010267626494169235
1746575995522939000,3.56593896484375,0.0005738832987844944,-0.002389413071796298,0.0011832208838313818
1746575995532955000,3.575954833984375,-0.0010168231092393398,0.002063924912363291,-0.00043065473437309265
1746575995542969900,3.585969970703125,0.000022112391889095306,0.000733950175344944,0.0006563945207744837
1746575995552985900,3.59598583984375,-0.0014471537433564663,0.0009046588093042374,-0.0008107409812510014
1746575995563000800,3.606000732421875,-0.0010461346246302128,0.0009003081358969212,-0.001239764504134655
1746575995573016800,3.616016845703125,0.0009275341872125864,-0.001224894542247057,-0.0020938399247825146
1746575995583031800,3.62603173828125,0.0005725403316318989,-0.00011174473911523819,-0.00045945867896080017
1746575995593047800,3.6360478515625,-0.00007833587005734444,-0.0018143036868423223,-0.000829372089356184
1746575995603062800,3.646062744140625,0.00035200873389840126,0.001318556722253561,-0.0008770269341766834
1746575995613078800,3.656078857421875,0.0015376482624560595,0.0002807225100696087,-0.0013348245993256569
1746575995623093800,3.66609375,0.000986521365121007,0.0009440644644200802,0.0016570750158280134
1746575995633109800,3.67610986328125,0.00017905095592141151,-0.0004943087697029114,0.0006615854799747467
1746575995643124700,3.686124755859375,-0.00232623890042305,0.00015046261250972748,0.0013009263202548027
1746575995653140700,3.696140625,0.001008571358397603,-0.0005664601922035217,0.0004596337676048279
1746575995663155700,3.70615576171875,0.001738665858283639,-0.0006637969054281712,0.002777394372969866
1746575995673172000,3.716171875,-0.00018546776846051216,0.0018805875442922115,0.0005874771159142256
1746575995683186700,3.726186767578125,-0.0007575284689664841,0.0015349076129496098,0.0027427817694842815
1746575995693203000,3.736202880859375,0.0009104092605412006,-0.00091520044952631,-0.00042558065615594387
1746575995703218000,3.746218017578125,-0.0012386729940772057,-0.0000943262130022049,-0.0037635997869074345
1746575995713234000,3.75623388671875,0.0003983722999691963,0.0014532366767525673,-0.00047379685565829277
1746575995723249000,3.766248779296875,-0.0023523708805441856,0.0013839085586369038,-0.002109214663505554
1746575995733265000,3.776264892578125,0.0006796380039304495,0.0009356988593935966,0.00087166135199368
1746575995743279900,3.78627978515625,-0.0009215348400175571,-0.00046464428305625916,0.0027231373824179173
1746575995753296000,3.7962958984375,-0.0024704295210540295,0.0014299284666776657,0.0009598585311323404
1746575995763311900,3.806311767578125,-0.00007388228550553322,-0.001976058119907975,-0.002411863300949335
1746575995773326800,3.816326904296875,0.0009365209843963385,0.002362231258302927,0.0017605111934244633
1746575995783341800,3.826341796875,-0.0008535608649253845,0.0012624338269233704,-0.0008952198550105095
1746575995793357800,3.83635791015625,-0.0002820468507707119,-0.00013838894665241241,0.0005263753701001406
1746575995803373800,3.846373779296875,0.0020831339061260223,-0.0009168931283056736,0.0017040795646607876
1746575995813388800,3.856388916015625,-0.0008226409554481506,0.00013052811846137047,0.0009144523646682501
1746575995823404800,3.86640478515625,-0.002284746151417494,0.0001494167372584343,-0.0002781413495540619
1746575995833419800,3.876419677734375,-0.001972889993339777,0.0004255864769220352,-0.0006653647869825363
1746575995843436000,3.88643603515625,0.001747532980516553,-0.00045187585055828094,-0.00021359813399612904
1746575995853450800,3.89645068359375,-0.0014535868540406227,0.00013082381337881088,0.0008663134649395943
1746575995863467000,3.906467041015625,0.0007886074017733335,0.0027082758024334908,-0.00032611750066280365
1746575995873482000,3.91648193359375,0.00035318080335855484,-0.00044650444760918617,-0.00028430623933672905
1746575995883498000,3.926498046875,-0.00237727677449584,-0.00014421110972762108,0.0010074533056467772
1746575995893513000,3.936512939453125,0.00006883684545755386,-0.001387108350172639,-0.0013094968162477016
1746575995903529000,3.946529052734375,0.0004441221244633198,-0.0023547601886093616,-0.00048818113282322884
1746575995913544000,3.9565439453125,-0.0007883887737989426,0.0035444083623588085,-0.0005323896184563637
1746575995923560000,3.966559814453125,0.0007311771623790264,0.0017142030410468578,-0.0006349501200020313
1746575995933575000,3.976574951171875,0.0018390521872788668,0.0002774274908006191,-0.0010786326602101326
1746575995943591000,3.9865908203125,-0.001271829940378666,0.002450498752295971,0.002362290397286415
1746575995953606000,3.99660595703125,-0.000041715800762176514,-0.0002960190176963806,-0.0016199343372136354
1746575995963622000,4.006621826171875,0.0005090548656880856,-0.00010523246601223946,-0.0007351606618613005
1746575995973636900,4.016636962890625,-0.0011484962888062,-0.0004101642407476902,0.001114138402044773
1746575995983652900,4.02665283203125,-0.0017640995793044567,0.0013416553847491741,-0.00034131016582250595
1746575995993667800,4.036667724609375,-0.0005164085887372494,-0.00043094437569379807,-0.001383138820528984
1746575996003683800,4.046683837890625,-0.0013174330815672874,0.0006261980161070824,-0.0013417331501841545
1746575996013698800,4.05669873046875,-0.0007837354205548763,0.0013915905728936195,0.00005243183113634586
1746575996023714800,4.06671484375,-0.0011260355822741985,-0.0000533396378159523,-0.0014691231772303581
1746575996033729800,4.076729736328125,-0.0019513489678502083,0.0007916814647614956,0.0031474665738642216
1746575996043746000,4.08674609375,-0.003829037304967642,0.0019128769636154175,-0.002051921095699072
1746575996053761000,4.096760986328125,-0.00016692467033863068,0.0003320244140923023,0.0018714475445449352
1746575996063777000,4.106777099609375,-0.00040107453241944313,0.001174897886812687,-0.0006887281779199839
1746575996073792000,4.1167919921875,-0.0015670065768063068,0.0005200263112783432,-0.001471963943913579
1746575996083808000,4.12680810546875,0.00005884421989321709,0.002559466753154993,0.0013603055849671364
1746575996093823000,4.136822998046875,-0.0013672783970832825,0.0011796830222010612,-0.0007454557344317436
1746575996103839000,4.1468388671875,-0.001630414742976427,0.0013533835299313068,-0.0034625339321792126
1746575996113854000,4.15685400390625,0.0005512470379471779,0.0016471301205456257,0.0021966833155602217
1746575996123870000,4.166869873046875,0.0005930217448621988,0.0013629482127726078,0.0003339520189911127
1746575996133885000,4.176885009765625,0.0007767798379063606,-0.00030951667577028275,0.001605877885594964
1746575996143901000,4.18690087890625,-0.0013863975182175636,-0.0007724971510469913,0.0006836317479610443
1746575996153916000,4.196916015625,-0.0012071668170392513,0.0011463104747235775,-0.0004990783054381609
1746575996163932000,4.206931884765625,-0.0011477051302790642,-0.00033089006319642067,0.0008885310962796211
1746575996173948000,4.216947998046875,-0.0020971219055354595,0.00004221871495246887,0.0003239409998059273
1746575996183963000,4.226962890625,0.0006176831666380167,0.00011131493374705315,-0.0022975648753345013
1746575996193979000,4.236978759765625,0.00006214762106537819,-0.0015294586773961782,-0.0013891607522964478
1746575996203993900,4.246993896484375,0.0009495790582150221,-0.0014619268476963043,0.0010059759952127934
1746575996214010000,4.257010009765625,-0.0032688681967556477,-0.0004872097633779049,0.0033391714096069336
1746575996224024800,4.26702490234375,-0.0012250053696334362,-0.002793344669044018,0.0014353643637150526
1746575996234041000,4.277041015625,0.0003012525849044323,0.0014416142366826534,-0.001428332645446062
1746575996244056300,4.287056396484375,0.0006278045475482941,-0.0014517877716571093,-0.0005408122669905424
1746575996254072000,4.297072021484375,0.0009015772957354784,0.0007277433760464191,0.00008769356645643711
1746575996264087300,4.30708740234375,-0.0006470181979238987,-0.0008781407959759235,-0.0022572544403374195
1746575996274103000,4.31710302734375,-0.0003652554005384445,0.0001546330749988556,0.0015784965362399817
1746575996284118300,4.3271181640625,0.0002598688006401062,-0.0012308461591601372,-0.003111162455752492
1746575996294134300,4.33713427734375,0.001504630083218217,0.0013444307260215282,-0.0017646683845669031
1746575996304149200,4.347149169921875,-0.0016178600490093231,0.0003488278016448021,0.0011380072683095932
1746575996314165200,4.357165283203125,-0.0017739213071763515,-0.0006493250839412212,-0.0004638843238353729
1746575996324180500,4.367180419921875,-0.0009718690998852253,0.00016160309314727783,-0.0013732642401009798
1746575996334196200,4.3771962890625,0.0007405434735119343,-0.0004325481131672859,0.0005173140671104193
1746575996344211500,4.38721142578125,0.0006704486440867186,-0.0005285288207232952,0.00024672457948327065
1746575996354227200,4.397227294921875,-0.0019359872676432133,-0.0003809896297752857,-0.001965829636901617
1746575996364242400,4.407242431640625,0.0003995094448328018,0.00010508997365832329,0.0018655597232282162
1746575996374258200,4.417258056640625,0.0010133683681488037,-0.0007425942458212376,-0.0023262558970600367
1746575996384273400,4.4272734375,-0.0005927816964685917,0.0022279517725110054,0.0015160567127168179
1746575996394289200,4.4372890625,0.00045330775901675224,0.002321694977581501,-0.0009598841425031424
1746575996404304400,4.447304443359375,-0.0007176934741437435,-0.0008510570041835308,0.000870581716299057
1746575996414320000,4.457320068359375,0.0025313629303127527,-0.0014390829019248486,0.0006860247813165188
1746575996424335400,4.46733544921875,-0.0009682015515863895,-0.002526884200051427,-0.0010389627423137426
1746575996434351000,4.47735107421875,0.0009263711981475353,-0.00027891015633940697,-0.001188898691907525
1746575996444366300,4.487366455078125,0.0007854066789150238,0.0005114255473017693,0.003294549183920026
1746575996454382000,4.497382080078125,0.002065854612737894,0.00000835442915558815,0.0002822477836161852
1746575996464397300,4.507397216796875,-0.00029652612283825874,0.0005509736947715282,-0.00011200038716197014
1746575996474413000,4.5174130859375,0.0010078900959342718,0.00005562556907534599,0.0008808260317891836
1746575996484429300,4.52742919921875,-0.004116075113415718,0.00037822965532541275,-0.00025114743039011955
1746575996494444300,4.5374443359375,-0.00003238394856452942,-0.0011070151813328266,0.002466341946274042
1746575996504460300,4.547460205078125,-0.0008619199506938457,0.0002107354812324047,-0.0008445957209914923
1746575996514475300,4.557475341796875,-0.0008933451026678085,0.0013487040996551514,0.0002475667279213667
1746575996524491300,4.5674912109375,-0.0003754105418920517,0.0004613320343196392,-0.00020530936308205128
1746575996534506200,4.57750634765625,-0.0007237521931529045,0.0011838474310934544,0.0009534319397062063
1746575996544522200,4.587522216796875,0.0016175438649952412,-0.00020211236551404,0.0031489874236285686
1746575996554537200,4.597537109375,-0.001526583917438984,0.0006285272538661957,0.0009872994851320982
1746575996564553200,4.60755322265625,0.0024894308298826218,0.0013918271288275719,-0.00048080855049192905
1746575996574568200,4.617568115234375,0.0008939309045672417,0.0005191094242036343,-0.0007135688792914152
1746575996584584200,4.627584228515625,-0.001105666160583496,-0.0004328782670199871,0.001833269838243723
1746575996594599200,4.63759912109375,-0.0013677212409675121,0.0014819344505667686,-0.0018232502043247223
1746575996604615200,4.647615234375,-0.00017863605171442032,0.0012211618013679981,-0.0010149918962270021
1746575996614630100,4.657630126953125,0.0005891532637178898,0.0006081024184823036,0.001059344271197915
1746575996624646100,4.667646240234375,-0.003320369403809309,-0.0008191587403416634,-0.0007417385932058096
1746575996634661000,4.6776611328125,-0.0005669272504746914,0.0017811516299843788,0.0013488426338881254
1746575996644677000,4.687677001953125,-0.001516477670520544,0.0013561923988163471,-0.0019635779317468405
1746575996654692000,4.697692138671875,0.000004453584551811218,-0.000982595607638359,-0.0003358537796884775
1746575996664708400,4.707708251953125,-0.0008817017078399658,-0.0026916738133877516,0.0002784344833344221
1746575996674723000,4.71772314453125,0.002907710149884224,0.002570732496678829,-0.001752226147800684
1746575996684739300,4.7277392578125,-0.0003201710060238838,0.0003771660849452019,0.002074158750474453
1746575996694754300,4.73775439453125,-0.0014072735793888569,0.00023202411830425262,-0.0012164432555437088
1746575996704770300,4.747770263671875,-0.0015995046123862267,0.0007728692144155502,0.0021830410696566105
1746575996714785300,4.757785400390625,0.0006886832416057587,-0.001328631304204464,0.0004767538048326969
1746575996724801300,4.76780126953125,0.00007435260340571404,-0.0011142329312860966,-0.00033002858981490135
1746575996734816300,4.777816162109375,-0.0008489652536809444,0.000929743517190218,-0.00037903105840086937
1746575996744832300,4.787832275390625,-0.00004570279270410538,0.00011788122355937958,0.0010832182597368956
1746575996754847200,4.79784716796875,-0.0010971189476549625,-0.0022033299319446087,0.0032315903808921576
1746575996764863200,4.80786328125,-0.0010299580171704292,0.0023696129210293293,0.00172817287966609
1746575996774878200,4.817878173828125,0.001100037945434451,0.00020020222291350365,0.000255444785580039
1746575996784894200,4.827894287109375,-0.0007779118604958057,-0.0005088178440928459,-0.002111392794176936
1746575996794909200,4.8379091796875,0.0008210500236600637,0.0002805432304739952,-0.0003047042991966009
1746575996804925200,4.84792529296875,0.0002523111179471016,0.0018933233805000782,0.000058353645727038383
1746575996814941200,4.857941162109375,0.0022613995242863894,0.0008427063003182411,-0.002116649877279997
1746575996824956200,4.8679560546875,0.0019847911316901445,0.00170091912150383,0.0015600097831338644
1746575996834972200,4.87797216796875,0.0018319257069379091,-0.0011292221024632454,0.0012622685171663761
1746575996844987100,4.887987060546875,-0.0013846056535840034,0.0007219896651804447,0.0015456853434443474
1746575996855003400,4.89800341796875,0.0017374181188642979,0.002031465992331505,-0.0008215985726565123
1746575996865018400,4.908018310546875,-0.00047091953456401825,0.002054976299405098,0.0025657988153398037
1746575996875034400,4.918034423828125,-0.0004339017905294895,-0.0012619909830391407,0.0006280827801674604
1746575996885049300,4.92804931640625,-0.0010281307622790337,0.0013943756930530071,0.0008310293778777122
1746575996895065300,4.9380654296875,0.00007361872121691704,0.002575487829744816,-0.004110998474061489
1746575996905080300,4.948080322265625,-0.0007260157726705074,0.0017602690495550632,-0.001502546714618802
1746575996915096300,4.958096435546875,-0.0012392066419124603,-0.0004770522937178612,-0.00013101869262754917
1746575996925111300,4.968111328125,-0.0011878605000674725,0.00006356136873364449,0.0005817303899675608
1746575996935127300,4.978127197265625,-0.00180491479113698,0.0004294798709452152,0.002456595888361335
1746575996945142300,4.988142333984375,0.00013284385204315186,0.003115061204880476,-0.00003777467645704746
1746575996955158300,4.998158203125,-0.0015484094619750977,0.002339815255254507,0.0009249581489712
1746575996965173200,5.00817333984375,0.0014089313335716724,-0.0001168237067759037,0.002068776171654463
1746575996975189200,5.018189208984375,0.001107461517676711,-0.0008944664150476456,0.0008234821725636721
1746575996985204200,5.028204345703125,-0.0016817152500152588,0.0025102575309574604,-0.0013403897173702717
1746575996995220200,5.03822021484375,-0.0018492280505597591,0.0013744193129241467,0.0012596542946994305
1746575997005235200,5.048235107421875,-0.0004499834030866623,-0.0011494187638163567,0.0009437256958335638
1746575997015251200,5.058251220703125,0.00010661734268069267,0.0002942807041108608,-0.0016110448632389307
1746575997025266200,5.06826611328125,-0.0017498130910098553,0.0013603176921606064,0.0012207971885800362
1746575997035282400,5.078282470703125,0.0008315888699144125,-0.0008168164640665054,-0.002176597248762846
1746575997045297200,5.088297119140625,0.0006014816462993622,-0.0009378017857670784,-0.00010662386193871498
1746575997055313400,5.0983134765625,-0.001729050651192665,0.0020223017781972885,0.0018633163999766111
1746575997065328400,5.108328369140625,0.0009412248618900776,0.0004020826891064644,0.0019861245527863503
1746575997075344400,5.118344482421875,0.0008954184595495462,0.00018157297745347023,-0.0003449404612183571
1746575997085359400,5.128359375,0.0003529670648276806,0.00130471121519804,-0.0013734158128499985
1746575997095375400,5.138375244140625,-0.0004433179274201393,0.00229807011783123,0.0027920345310121775
1746575997105390300,5.148390380859375,0.00010924134403467178,-0.00006919540464878082,0.0021652684081345797
1746575997115406300,5.15840625,-0.0015227440744638443,-0.0016122309025377035,-0.0009245311375707388
1746575997125421300,5.16842138671875,-0.0008738064207136631,0.0014875419437885284,-0.0016909516416490078
1746575997135437300,5.178437255859375,-0.0003984319046139717,-0.0009630988352000713,-0.0020909584127366543
1746575997145453300,5.188453369140625,-0.0008983523584902287,0.0019828914664685726,0.0018947592470794916
1746575997155468300,5.19846826171875,-0.001905293669551611,-0.002564988797530532,-0.001297572162002325
1746575997165484300,5.208484375,0.0011063285637646914,-0.00023968098685145378,-0.001157510094344616
1746575997175499300,5.218499267578125,-0.0016598966903984547,0.0002673850394785404,-0.0009702900424599648
1746575997185515300,5.228515380859375,0.0008463824633508921,0.0006357366219162941,0.0005201895255595446
1746575997195530200,5.2385302734375,0.001929490128532052,-0.0025302290450781584,0.0020794703159481287
1746575997205546500,5.24854638671875,-0.000044704414904117584,-0.0018417593091726303,-0.0029736661817878485
1746575997215561200,5.258561279296875,-0.0016918694600462914,-0.0006840834394097328,-0.0006045184563845396
1746575997225577500,5.268577392578125,0.0008199808653444052,-0.0007244013249874115,-0.0022635478526353836
1746575997235592400,5.278592529296875,0.0008503410499542952,-0.0024290906731039286,0.0005644627381116152
1746575997245608400,5.2886083984375,-0.00036735180765390396,-0.0004851417616009712,0.00013211159966886044
1746575997255623400,5.29862353515625,0.0002808612771332264,0.0017164936289191246,-0.0007382093463093042
1746575997265639400,5.308639404296875,-0.0017143241129815578,-0.0005490873008966446,0.0004693777300417423
1746575997275654400,5.318654296875,0.0015174220316112041,-0.0015427125617861748,0.0011218520812690258
1746575997285670400,5.32867041015625,0.0005160914734005928,-0.0003493162803351879,0.0013598448131233454
1746575997295685400,5.338685302734375,0.0018798962701112032,-0.0011096484959125519,0.001983024412766099
1746575997305701400,5.348701416015625,0.0012056853156536818,0.0025779870338737965,-0.0018240655772387981
1746575997315716600,5.358716552734375,0.001033911481499672,0.0007169703021645546,0.001350156031548977
1746575997325732400,5.368732421875,0.002367209643125534,-0.0009871916845440865,-0.00047832285054028034
1746575997335747600,5.37874755859375,0.000781297218054533,-0.0015927946660667658,-0.0016418581362813711
1746575997345763300,5.388763427734375,0.0028715808875858784,0.0017284220084547997,0.000578360166400671
1746575997355778600,5.398778564453125,-0.001053385902196169,0.00025489507243037224,-0.0006075454875826836
1746575997365794300,5.408794189453125,-0.0011623823083937168,-0.0032435895409435034,-0.0005535075906664133
1746575997375809500,5.4188095703125,-0.001954406499862671,0.0011724638752639294,-0.00203688838519156
1746575997385825300,5.4288251953125,0.0006778794340789318,-0.00018877070397138596,-0.0019068059045821428
1746575997395840500,5.438840576171875,0.0007370016537606716,0.0003180289641022682,0.0003094766288995743
1746575997405856300,5.448856201171875,0.00032640714198350906,0.0018922556191682816,0.00025810394436120987
1746575997415871500,5.45887158203125,-0.000980672426521778,0.0005295160226523876,0.0015606561210006475
1746575997425887200,5.46888720703125,-0.0003841123543679714,-0.0026639429852366447,0.0020095049403607845
1746575997435902500,5.47890234375,0.0025051513221114874,-0.0001046452671289444,0.00020468048751354218
1746575997445918200,5.488918212890625,-0.0009155408479273319,0.0015993593260645866,0.0005114362575113773
1746575997455934200,5.498934326171875,0.000016299542039632797,0.00037270737811923027,0.001390012912452221
1746575997465949200,5.50894921875,-0.00003356672823429108,-0.00020544417202472687,-0.0013251998461782932
1746575997475965400,5.51896533203125,0.0010013377759605646,-0.000949531327933073,0.0016149298753589392
1746575997485980200,5.528980224609375,0.0009889027569442987,0.0010439925827085972,0.001821150304749608
1746575997495996400,5.538996337890625,0.000016316305845975876,0.000013082753866910934,0.003106391755864024
1746575997506011400,5.549011474609375,-0.0009438116103410721,0.0002864287234842777,0.0013341070152819157
1746575997516027400,5.55902734375,-0.0003525898791849613,-0.00003847666084766388,0.00016897404566407204
1746575997526042400,5.56904248046875,-0.0003348980098962784,0.003178272396326065,0.0024174179416149855
1746575997536058400,5.579058349609375,-0.00011225789785385132,-0.0005424297414720058,-0.0006534729618579149
1746575997546073300,5.5890732421875,0.00012072129175066948,-0.000658019445836544,-0.00195405725389719
1746575997556089300,5.59908935546875,-0.0009780987165868282,-0.0013139559887349606,0.0019400166347622871
1746575997566104300,5.609104248046875,-0.0002170945517718792,0.00029090093448758125,-0.0013488351833075285
1746575997576120300,5.619120361328125,0.0026633806992322206,0.0012517692521214485,-0.0018084968905895948
1746575997586135300,5.62913525390625,-0.0002497131936252117,-0.0006165453232824802,-0.001060269307345152
1746575997596151300,5.6391513671875,-0.0008659684099256992,0.0031534251756966114,0.00007663434371352196
1746575997606166300,5.649166259765625,0.0006492477841675282,0.00022635003551840782,0.0003926116041839123
1746575997616182300,5.659182373046875,0.0011302146594971418,0.00009212642908096313,-0.00020127324387431145
1746575997626197200,5.669197265625,-0.0014772419817745686,-0.0016196155920624733,-0.0004960352089256048
1746575997636213200,5.679213134765625,0.0019731493666768074,0.0000746874138712883,0.001342877745628357
1746575997646228200,5.689228271484375,-0.0023613921366631985,-0.0005286973901093006,-0.0009897532872855663
1746575997656244200,5.699244140625,-0.0010519158095121384,-0.00025598984211683273,0.00028004194609820843
1746575997666259200,5.70925927734375,0.0016911830753087997,-0.0006044046021997929,0.0005436267238110304
1746575997676275500,5.719275390625,0.0011100813280791044,-0.0005524731241166592,-0.00172964739613235
1746575997686290400,5.72929052734375,-0.0011171512305736542,0.0003982014022767544,-0.002181533956900239
1746575997696306400,5.739306396484375,-0.00005401717498898506,0.002885593567043543,-0.001353290630504489
1746575997706321400,5.7493212890625,0.0016723636072129011,0.0014474322088062763,-0.0020687091164290905
1746575997716337400,5.75933740234375,0.0019408103544265032,0.0013885763473808765,0.0006905919872224331
1746575997726353400,5.769353515625,-0.0010536592453718185,-0.0008981800638139248,0.002808674704283476
1746575997736368400,5.779368408203125,0.00018923822790384293,-0.0023943439591675997,-0.0005610231310129166
1746575997746384400,5.78938427734375,-0.00018339883536100388,-0.001276928000152111,0.000997432740405202
1746575997756399400,5.7993994140625,0.00037693046033382416,0.00007356097921729088,-0.0018646663520485163
1746575997766415400,5.809415283203125,-0.0010857493616640568,0.0018993555568158627,-0.0006876136176288128
1746575997776430300,5.819430419921875,-0.00032355310395359993,-0.0012101512402296066,-0.0030178795568645
1746575997786446300,5.8294462890625,0.00047648651525378227,0.0010371534153819084,0.001926181255839765
1746575997796461300,5.83946142578125,0.0000021774321794509888,-0.0002246527001261711,-0.00044749421067535877
1746575997806477300,5.849477294921875,-0.0011578290723264217,-0.000909504946321249,0.0025334679521620274
1746575997816492300,5.8594921875,-0.0015256116166710854,-0.0005888603627681732,-0.0016010897234082222
1746575997826508300,5.86950830078125,0.0003253817558288574,-0.000594128854572773,-0.000291262986138463
1746575997836523300,5.879523193359375,-0.0007910155691206455,-0.000931818038225174,-0.0010452040005475283
1746575997846539500,5.88953955078125,-0.000013636890798807144,0.0028037182055413723,-0.00045132962986826897
1746575997856554200,5.89955419921875,0.0019038389436900616,0.0014303261414170265,0.0008845117408782244
1746575997866570500,5.909570556640625,-0.00121267419308424,-0.0009610690176486969,0.0008450744207948446
1746575997876585500,5.91958544921875,-0.0014587505720555782,-0.001199421938508749,0.0021351096220314503
1746575997886601500,5.9296015625,-0.0002797492779791355,-0.00039034103974699974,-0.000233024125918746
1746575997896616400,5.939616455078125,-0.0014086631126701832,0.0016565644182264805,-0.0009166577365249395
1746575997906632400,5.949632568359375,-0.00040157465264201164,0.003261601086705923,0.0012727039866149426
1746575997916647400,5.9596474609375,0.0009361312258988619,0.0002010958269238472,-0.0011023031547665596
1746575997926663400,5.969663330078125,-0.0010409234091639519,-0.0006466028280556202,-0.002015830483287573
1746575997936678400,5.979678466796875,0.00006588641554117203,0.0009603486396372318,-0.0007457691244781017
1746575997946694400,5.9896943359375,0.0017270718235522509,0.0006784964352846146,0.0007161505054682493
1746575997956709400,5.99970947265625,0.0011488995514810085,0.0008976743556559086,-0.0015352859627455473
1746575997966725400,6.009725341796875,-0.002597976475954056,-0.00007897475734353065,0.0005602971650660038
1746575997976740400,6.019740234375,0.002746721263974905,0.0013764426112174988,-0.001953194150701165
1746575997986756400,6.02975634765625,0.0015606561210006475,-0.0009165089577436447,-0.00005176570266485214
1746575997996771300,6.039771240234375,0.0006447951309382915,-0.001391350757330656,-0.0009162279311567545
1746575998006787300,6.049787353515625,0.00018911203369498253,0.0027953386306762695,-0.0004989888984709978
1746575998016803600,6.059803466796875,-0.0005067717283964157,-0.00007075490429997444,0.0015854672528803349
1746575998026818300,6.069818359375,0.0015133155975490808,-0.0007023406215012074,0.0015074778348207474
1746575998036834600,6.07983447265625,0.00007068132981657982,0.002117946743965149,-0.0004986810963600874
1746575998046849500,6.089849609375,0.00039251847192645073,0.0015140734612941742,-0.0006855304818600416
1746575998056865500,6.099865478515625,-0.0011814101599156857,-0.0007589347660541534,0.000750179635360837
1746575998066880500,6.109880615234375,0.0007881459314376116,-0.00039761001244187355,0.001413604710251093
1746575998076896500,6.119896484375,0.0017647270578891039,-0.0009986856020987034,-0.0010831085965037346
1746575998086911500,6.129911376953125,0.0008753889705985785,0.00010766647756099701,-0.0018687094561755657
1746575998096927500,6.139927490234375,-0.0022562220692634583,-0.00041324784979224205,-0.0018324903212487698
1746575998106942500,6.1499423828125,0.00003795931115746498,-0.0005483846180140972,-0.0006869742646813393
1746575998116958500,6.15995849609375,-0.0008249050006270409,-0.0003832685761153698,0.0003271575551480055
1746575998126973400,6.169973388671875,0.0005838731303811073,0.00008117733523249626,0.0009751028846949339
1746575998136989400,6.179989501953125,-0.0008070957846939564,-0.0004040505737066269,0.0012834970839321613
1746575998147004400,6.19000439453125,-0.0003802650608122349,0.001624526921659708,-0.0005926601588726044
1746575998157020400,6.2000205078125,-0.00041248928755521774,0.0006442172452807426,-0.0012384764850139618
1746575998167035400,6.210035400390625,-0.0017637759447097778,0.0005712681449949741,-0.0007400643080472946
1746575998177051400,6.220051513671875,-0.00003431923687458038,0.0009638182818889618,-0.0010023857466876507
1746575998187066400,6.23006640625,-0.0009887809865176678,-0.0009792037308216095,-0.002088493201881647
1746575998197082400,6.240082275390625,-0.0006031552329659462,0.0010613100603222847,-0.0002088341861963272
1746575998207097300,6.250097412109375,0.001191984862089157,0.00037752464413642883,0.0005820067599415779
1746575998217113600,6.260113525390625,0.0015642947982996702,-0.00134580722078681,-0.0006720758974552155
1746575998227128300,6.27012841796875,-0.0007782354950904846,0.0019876924343407154,-0.0009584401268512011
1746575998237144600,6.28014453125,0.002661503152921796,-0.0016752192750573158,-0.0008628328796476126
1746575998247159300,6.2901591796875,-0.0014963112771511078,0.0005405591800808907,0.0005550221540033817
1746575998257175300,6.30017529296875,0.00013540731742978096,0.0013014241121709347,-0.0005994581151753664
1746575998267190300,6.310190185546875,0.00029469141736626625,-0.001962024485692382,0.0012842926662415266
1746575998277206300,6.320206298828125,0.0027168365195393562,0.0015613376162946224,-0.002219894900918007
1746575998287222300,6.33022216796875,0.0011533598881214857,0.0011161942966282368,0.00009906617924571037
1746575998297237200,6.3402373046875,0.0013967726845294237,-0.0006992826238274574,-0.0007185244467109442
1746575998307253200,6.350253173828125,-0.00042188214138150215,0.0018467088229954243,-0.0016290047205984592
1746575998317268200,6.360268310546875,0.001415166538208723,-0.00363966915756464,-0.0015552351251244545
1746575998327284200,6.3702841796875,0.0008082855492830276,0.0003588595427572727,0.0004921155050396919
1746575998337299200,6.38029931640625,0.0010865859221667051,0.0003077271394431591,-0.001703927293419838
1746575998347315200,6.390315185546875,0.001345040975138545,-0.0008927155286073685,0.0011640109587460756
1746575998357330400,6.400330322265625,-0.001168450340628624,-0.003673854749649763,-0.001221915241330862
1746575998367346200,6.41034619140625,-0.0022812257520854473,0.0008642850443720818,0.0013978797942399979
1746575998377361400,6.420361328125,-0.00008624838665127754,0.0005601518787443638,0.002573931822553277
1746575998387377200,6.430377197265625,-0.0005979286506772041,0.0008008726872503757,-0.0007377625443041325
1746575998397392400,6.440392333984375,-0.0005952655337750912,0.0008959476836025715,-0.0031274170614778996
1746575998407408000,6.450408203125,-0.00007557682693004608,0.0007508327253162861,-0.00000654696486890316
1746575998417423400,6.46042333984375,0.000986225437372923,0.0008541634306311607,0.0014238366857171059
1746575998427439000,6.470439208984375,-0.0011402200907468796,0.0014472766779363155,0.002597279381006956
1746575998437454300,6.480454345703125,0.0006222599186003208,-0.0010662148706614971,-0.0017021277453750372
1746575998447470000,6.490469970703125,-0.0013373494148254395,-0.000886380672454834,0.0002897565718740225
1746575998457485300,6.5004853515625,-0.00004491722211241722,0.00021989643573760986,0.00035287346690893173
1746575998467501000,6.5105009765625,0.0022113658487796783,0.0004271687939763069,0.0007141714449971914
1746575998477516300,6.520516357421875,0.00044169556349515915,-0.001270064152777195,0.0010204347781836987
1746575998487532000,6.530531982421875,-0.0014358055777847767,-0.00048653315752744675,-0.0005858265794813633
1746575998497547300,6.54054736328125,0.00023026810958981514,0.0005563609302043915,-0.00010006618686020374
1746575998507563000,6.55056298828125,-0.0007645250298082829,-0.0006543477065861225,-0.001392873004078865
1746575998517578200,6.560578125,-0.00013522012159228325,0.0020218626596033573,0.0016151675954461098
1746575998527594200,6.57059423828125,0.0023608668707311153,0.00007875356823205948,-0.0021708523854613304
1746575998537609200,6.580609130859375,-0.00021334458142518997,0.00048382021486759186,-0.0010520583018660545
1746575998547625200,6.590625244140625,-0.0007155635394155979,0.00042603351175785065,0.0003539340104907751
1746575998557640200,6.60064013671875,-0.0005243485793471336,0.0008864942938089371,-0.0008018780499696732
1746575998567656200,6.61065625,0.001315476605668664,0.000011160038411617279,-0.0016211261972784996
1746575998577672200,6.620672119140625,-0.000918116420507431,0.0015153135173022747,0.0012287222780287266
1746575998587687200,6.630687255859375,0.0005224370397627354,0.0011302204802632332,-0.0011702168267220259
1746575998597703200,6.640703125,0.0003221672959625721,-0.00011214427649974823,0.0011733649298548698
1746575998607718100,6.65071826171875,0.0014206098858267069,0.00017349794507026672,-0.000594370299950242
1746575998617734100,6.660734130859375,-0.0017994181253015995,0.001418525818735361,-0.0007381814066320658
1746575998627749000,6.6707490234375,-0.0008783810772001743,-0.0012241597287356853,-0.0011374461464583874
1746575998637765000,6.68076513671875,0.0010726505424827337,-0.001047858502715826,-0.00015740282833576202
1746575998647780000,6.690780029296875,-0.00003427639603614807,-0.00004764460027217865,0.0007555743213742971
1746575998657796000,6.700796142578125,-0.00021004490554332733,-0.0021741786040365696,-0.001769102644175291
1746575998667811000,6.71081103515625,0.0008588500786572695,0.0012056673876941204,0.0003987483214586973
1746575998677827000,6.7208271484375,-0.0015997802838683128,0.001025371253490448,0.0009271195158362389
1746575998687842000,6.730842041015625,0.0008829943835735321,0.0009087477810680866,-0.001536437077447772
1746575998697858300,6.7408583984375,-0.0034869867376983166,0.0007806499488651752,0.000900888117030263
1746575998707873000,6.750873046875,-0.0005464283749461174,0.0009940857999026775,-0.00199045124463737
1746575998717889300,6.76088916015625,-0.00226230314001441,0.0008260402828454971,0.00022609764710068703
1746575998727904300,6.770904296875,-0.0002679689787328243,0.000608677975833416,-0.0019128203857690096
1746575998737920300,6.780920166015625,0.002223418327048421,0.0026332135312259197,0.00027150451205670834
1746575998747935200,6.790935302734375,-0.001974558923393488,0.0009350189939141273,0.00009310990571975708
1746575998757951200,6.800951171875,-0.0010070325806736946,0.0010782969184219837,0.0006033715326339006
1746575998767966200,6.81096630859375,-0.0009983289055526257,-0.0008895448409020901,0.0005346836987882853
1746575998777982200,6.820982177734375,-0.0008955309167504311,-0.00027328915894031525,0.00005771149881184101
1746575998787997200,6.8309970703125,-0.00010333256796002388,-0.0017210929654538631,0.0009734751656651497
1746575998798013200,6.84101318359375,-0.000855941791087389,-0.0031568030826747417,-0.003791186260059476
1746575998808028200,6.851028076171875,-0.0007033012807369232,-0.00047474587336182594,0.00013347528874874115
1746575998818044200,6.861044189453125,0.0008647679351270199,0.0002690749242901802,0.00085678999312222
1746575998828059100,6.87105908203125,-0.002287132665514946,-0.0023536926601082087,0.0010856562294065952
1746575998838075100,6.8810751953125,0.0011659222654998302,0.0012626135721802711,0.0007402442861348391
1746575998848091100,6.891091064453125,0.0010079003404825926,0.0030932193621993065,0.0008165156468749046
1746575998858106000,6.901106201171875,-0.0002520410344004631,0.0017376705072820187,0.0006974723655730486
1746575998868122000,6.9111220703125,-0.0005107931792736053,0.0009634792804718018,-0.00015897070989012718
1746575998878137000,6.92113720703125,0.00037097930908203125,-0.00015957606956362724,-0.0013592573814094067
1746575998888153300,6.9311533203125,0.00027053477242588997,-0.0012462134473025799,-0.0010754407849162817
1746575998898168300,6.941168212890625,0.00013524619862437248,0.0011122822761535645,0.000440430361777544
1746575998908184300,6.951184326171875,-0.0011619259603321552,-0.0008195815607905388,-0.00045069819316267967
1746575998918199300,6.96119921875,-0.0022727306932210922,-0.0011103986762464046,-0.0003015610855072737
1746575998928215300,6.97121533203125,0.0010876415763050318,0.0008605709299445152,-0.0005299842450767756
1746575998938230300,6.981230224609375,0.0001954827457666397,0.00112954992800951,0.0013957477640360594
1746575998948246300,6.991246337890625,-0.004397047683596611,-0.0013920781202614307,-0.0005124176386743784
1746575998958261200,7.00126123046875,-0.0008867350406944752,-0.0010775583796203136,-0.0015513168182224035
1746575998968277200,7.01127734375,0.0012182442005723715,-0.0016483021900057793,0.0006565998774021864
1746575998978292200,7.021292236328125,0.001234223134815693,-0.001453891396522522,-0.0019165463745594025
1746575998988308200,7.03130810546875,0.00034077418968081474,-0.0005438858643174171,0.00013953587040305138
1746575998998323200,7.0413232421875,-0.0008427347056567669,-0.0009468221105635166,-0.0018367960583418608
1746575999008339200,7.051339111328125,-0.0012265956029295921,0.0021969713270664215,0.0036253014113754034
1746575999018354200,7.061354248046875,-0.0017315307632088661,-0.0011721937917172909,0.00034854793921113014
1746575999028370200,7.0713701171875,0.0008575038518756628,0.0013622241094708443,-0.0037255503702908754
1746575999038385200,7.08138525390625,0.0010058418847620487,0.0002519520930945873,-0.0012160537298768759
1746575999048401200,7.091401123046875,-0.0016329200007021427,0.0013131587766110897,0.0005806128028780222
1746575999058416000,7.101416015625,0.0017000262159854174,-0.002541766967624426,-0.0014162254519760609
1746575999068432400,7.111432373046875,0.0016995419282466173,0.0009132074192166328,-0.00022103916853666306
1746575999078447000,7.121447021484375,-0.0011745416559278965,0.0010429034009575844,-0.00008441903628408909
1746575999088463400,7.13146337890625,0.00012451503425836563,0.0006992965936660767,-0.0006717608775943518
1746575999098479400,7.141479248046875,0.0016113577876240015,-0.0013231080956757069,0.0016758154379203916
1746575999108494300,7.151494384765625,0.0008893399499356747,-0.0006907978095114231,0.0010802587494254112
1746575999118510300,7.16151025390625,0.000886410241946578,-0.00043034041300415993,-0.0005205674096941948
1746575999128525300,7.171525390625,0.0007782280445098877,-0.0003856746479868889,0.002320260740816593
1746575999138541300,7.181541259765625,-0.003034086897969246,0.0011254032142460346,-0.0013008390087634325
1746575999148556300,7.191556396484375,-0.001480680424720049,-0.0007940581999719143,-0.0008676638826727867
1746575999158572300,7.201572265625,-0.0005546994507312775,-0.0011692973785102367,0.0025276001542806625
1746575999168587300,7.211587158203125,-0.00030096201226115227,0.0007047890685498714,0.000584352295845747
1746575999178603300,7.221603271484375,0.001630095997825265,0.0005082478746771812,0.0010488077532500029
1746575999188618200,7.2316181640625,-0.0019270279444754124,-0.003183664521202445,0.0007065334357321262
1746575999198634200,7.24163427734375,0.0005571688525378704,-0.0012771077454090118,-0.0008197242859750986
1746575999208649200,7.251649169921875,0.0007421171758323908,-0.00036703236401081085,-0.0026006391271948814
1746575999218665200,7.261665283203125,0.0005317274481058121,0.00014030002057552338,-0.00010365922935307026
1746575999228680200,7.27168017578125,-0.0007914360612630844,0.0018285969272255898,0.00126362731680274
1746575999238696400,7.281696533203125,-0.00006892066448926926,-0.0016420348547399044,0.0007168804295361042
1746575999248711700,7.291711669921875,0.0018252255395054817,0.000030235853046178818,-0.00012529012747108936
1746575999258727400,7.3017275390625,0.0007972454186528921,0.0005926955491304398,0.0008100119885057211
1746575999268742700,7.31174267578125,-0.00044348789379000664,-0.0017987601459026337,-0.0003376442473381758
1746575999278758400,7.32175830078125,-0.002196913119405508,0.0009411000646650791,0.0002788775600492954
1746575999288773600,7.331773681640625,0.0002784724347293377,0.0002480638213455677,-0.0006434116512537003
1746575999298789400,7.341789306640625,0.0018334919586777687,-0.0006092078983783722,0.0015342552214860916
1746575999308804600,7.3518046875,0.0005548596382141113,0.00018795672804117203,0.0007213675417006016
1746575999318820400,7.3618203125,0.00281748129054904,0.0008928957395255566,0.00047875358723104
1746575999328835600,7.371835693359375,-0.0009404919110238552,-0.0016104606911540031,0.0011168720666319132
1746575999338851600,7.3818515625,0.0006084027700126171,0.0002769213169813156,-0.0013755802065134048
1746575999348867600,7.39186767578125,0.0002785874530673027,0.00039239367470145226,0.00026532215997576714
1746575999358882600,7.401882568359375,0.00008364394307136536,0.0002003796398639679,-0.0005890198517590761
1746575999368898600,7.411898681640625,0.002061697654426098,0.003988092299550772,-0.0019018934108316898
1746575999378913500,7.42191357421875,0.0013050937559455633,-0.001435169018805027,0.002104832325130701
1746575999388929500,7.431929443359375,0.0004676086828112602,0.00006507476791739464,0.0009470791555941105
1746575999398944500,7.441944580078125,0.0007416480220854282,-0.0027674632146954536,0.000960661331191659
1746575999408960500,7.45196044921875,0.0010486207902431488,-0.0008411183953285217,0.0013277519028633833
1746575999418975500,7.4619755859375,0.0010547458659857512,-0.00010022707283496857,-0.0003780028782784939
1746575999428991500,7.471991455078125,0.0006014998070895672,-0.002985504688695073,-0.0006998928729444742
1746575999439006500,7.48200634765625,-0.00021662330254912376,-0.00010396447032690048,0.0012013381347060204
1746575999449022500,7.4920224609375,0.0005557429976761341,0.0009000757709145546,-0.0003221167717128992
1746575999459037400,7.502037353515625,-0.00018914323300123215,0.00008994201198220253,0.0013886978849768639
1746575999469053400,7.512053466796875,0.0005639549344778061,-0.0007214266806840897,-0.0010335082188248634
1746575999479068400,7.522068359375,0.00026408303529024124,-0.0007741572335362434,0.0037681711837649345
1746575999489084400,7.53208447265625,-0.002799815498292446,0.0006634863093495369,-0.0000011909287422895432
1746575999499099400,7.542099365234375,0.0017680383753031492,0.000326329842209816,0.0005876340437680483
1746575999509115600,7.55211572265625,-0.001009100116789341,-0.0018420841079205275,-0.001811072463169694
1746575999519130600,7.562130615234375,0.0008660317398607731,0.0006769997999072075,-0.002777000656351447
1746575999529146600,7.572146728515625,-0.0005000438541173935,-0.0012384876608848572,0.0014646623749285936
1746575999539161600,7.58216162109375,0.0008536411914974451,0.0011287964880466461,-0.0014347208198159933
1746575999549177600,7.592177490234375,-0.0005027134902775288,0.0010255780071020126,-0.001278954790905118
1746575999559192600,7.602192626953125,0.0025386165361851454,0.0014173290692269802,0.0003956409636884928
1746575999569208600,7.61220849609375,0.00026746373623609543,-0.0001537604257464409,0.0018973504193127155
1746575999579224600,7.622224609375,-0.000688611064106226,0.000022807158529758453,-0.00031493743881583214
1746575999589239600,7.632239501953125,0.0022344477474689484,-0.0026447016280144453,0.0016016783192753792
1746575999599255600,7.642255615234375,-0.0008417698554694653,0.0005484283901751041,0.0016871659317985177
1746575999609270500,7.6522705078125,-0.000667158979922533,0.001095577608793974,-0.0028513073921203613
1746575999619286500,7.66228662109375,0.0004186118021607399,-0.0014594593085348606,0.00027790688909590244
1746575999629301500,7.672301513671875,-0.0019066259264945984,-0.0019459445029497147,0.000877841841429472
1746575999639317500,7.6823173828125,0.0006840969435870647,-0.0006162282079458237,0.0009105987846851349
1746575999649332500,7.69233251953125,-0.0010678586550056934,-0.0009933877736330032,0.0006214405875653028
1746575999659348500,7.702348388671875,-0.001142426859587431,0.00007214304059743881,-0.0022648933809250593
1746575999669363500,7.712363525390625,0.0018857910763472319,-0.0005016401410102844,-0.0012502048630267382
1746575999679379700,7.722379638671875,-0.0006053298711776733,0.001249388325959444,0.0002076097298413515
1746575999689394700,7.732394775390625,0.0011075702495872974,0.0018507791683077812,0.0027164339553564787
1746575999699410700,7.74241064453125,0.00009556906297802925,-0.001345546916127205,-0.0021920381113886833
1746575999709425700,7.75242578125,0.000002868007868528366,-0.0013087415136396885,-0.0018183158244937658
1746575999719441700,7.762441650390625,-0.0009763762354850769,-0.001480249222368002,0.0008562968578189611
1746575999729456600,7.77245654296875,-0.001297390554100275,-0.00020383019000291824,-0.0013085617683827877
1746575999739472600,7.78247265625,-0.0014963285066187382,-0.0005503073334693909,-0.0010691434144973755
1746575999749487600,7.792487548828125,0.0004306393675506115,-0.000979526899755001,-0.0007183123379945755
1746575999759503600,7.802503662109375,0.0006202561780810356,0.00048174941912293434,0.0007938302587717772
1746575999769518600,7.8125185546875,-0.0006480957381427288,-0.0015609762631356716,-0.0008822339586913586
1746575999779534600,7.82253466796875,-0.00002278527244925499,-0.0004730750806629658,-0.002095569856464863
1746575999789549600,7.832549560546875,0.0003038416616618633,-0.0023951807525008917,-0.0022188154980540276
1746575999799565600,7.842565673828125,-0.002271701116114855,0.000738827046006918,-0.0010771183297038078
1746575999809580500,7.85258056640625,0.0018628283869475126,-0.001393730752170086,0.00012418138794600964
1746575999819596500,7.862596435546875,0.000256143044680357,0.00030003953725099564,0.0016714779194444418
1746575999829611500,7.872611572265625,0.000920505728572607,-0.0021582399494946003,-0.0018752971664071083
1746575999839627500,7.88262744140625,0.0002123713493347168,0.0004034549929201603,-0.002212187275290489
1746575999849643800,7.892643798828125,0.0013950858265161514,0.00019230274483561516,0.00022782455198466778
1746575999859658500,7.902658447265625,0.0037485212087631226,-0.000615434255450964,0.000044599175453186035
1746575999869674800,7.9126748046875,-0.001929253339767456,-0.0008580549620091915,-0.00022871000692248344
1746575999879689700,7.922689697265625,-0.0014671948738396168,0.0018146936781704426,-0.0006614739540964365
1746575999889705700,7.932705810546875,-0.0007567564025521278,-0.0016832323744893074,-0.00045161996968090534
1746575999899720700,7.942720703125,0.000553518533706665,0.0010281316936016083,-0.002196523128077388
1746575999909736700,7.95273681640625,0.0004043402150273323,-0.000972352921962738,0.0004095081239938736
1746575999919751700,7.962751708984375,0.00018569454550743103,0.0013003889471292496,0.00012987619265913963
1746575999929767700,7.972767578125,0.00017810333520174026,0.00015124212950468063,0.0021677380427718163
1746575999939782700,7.98278271484375,0.0021685499232262373,0.0009320811368525028,0.0010987450368702412
1746575999949798700,7.992798583984375,-0.00020033260807394981,-0.0016160020604729652,0.0008677951991558075
1746575999959813600,8.002813720703125,-0.0011287103407084942,0.0015880470164120197,0.000428107101470232
1746575999969829600,8.01282958984375,0.000980001874268055,-0.0010746670886874199,0.0010697301477193832
1746575999979844600,8.0228447265625,-0.0010320162400603294,-0.0015007727779448032,-0.0003603873774409294
1746575999989860600,8.032860595703125,-0.0008112108334898949,-0.0017201481387019157,-0.001578860217705369
1746575999999875600,8.04287548828125,0.0003097136504948139,0.0009779003448784351,0.0017623418243601918
1746576000009891600,8.0528916015625,-0.0001608678139746189,-0.0003803260624408722,0.0008077449165284634
1746576000019906600,8.062906494140625,-0.0006474275141954422,-0.00016434350982308388,-0.0029180175624787807
1746576000029922600,8.072922607421875,-0.0013089831918478012,0.0011984468437731266,-0.0014415404293686152
1746576000039937500,8.0829375,0.00017413077875971794,-0.0005661635659635067,-0.0015600507613271475
1746576000049953800,8.092953857421875,-0.00206027552485466,0.00031044287607073784,0.0015020954888314009
1746576000059969500,8.102969482421875,-0.0008722394704818726,-0.0035572657361626625,-0.0013671941123902798
1746576000069984800,8.11298486328125,-0.002089021261781454,0.00015952112153172493,-0.001990118995308876
1746576000080000500,8.12300048828125,0.0009166225790977478,-0.002873819088563323,-0.0010473597794771194
1746576000090015700,8.133015625,0.0002524792216718197,-0.0022356712725013494,-0.00021492363885045052
1746576000100031500,8.143031494140626,-0.0020602098666131496,0.000020026229321956635,-0.001126523595303297
1746576000110046700,8.153046630859375,0.001308357110247016,-0.0015216143801808357,-0.0011267245281487703
1746576000120062500,8.1630625,0.000006870366632938385,-0.0006315861828625202,0.0026954442728310823
1746576000130077700,8.17307763671875,0.002277809428051114,-0.00002821441739797592,0.0000856535043567419
1746576000140093400,8.183093505859375,0.0015512991230934858,0.0005054832436144352,-0.0006270082667469978
1746576000150108700,8.193108642578125,-0.0012056073173880577,0.00022357935085892677,-0.0000899310689419508
1746576000160124400,8.20312451171875,0.0010916355531662703,-0.0018334463238716125,-0.0019991514272987843
1746576000170139600,8.2131396484375,-0.0011738757602870464,0.000231805257499218,0.001006132923066616
1746576000180155400,8.2231552734375,-0.0015911930240690708,0.0025114715099334717,0.0010719129350036383
1746576000190170600,8.233170654296876,-0.0007247203029692173,-0.0008379165083169937,0.0007372782565653324
1746576000200186400,8.243186279296875,0.001709408825263381,-0.0023764248471707106,0.001123703084886074
1746576000210201600,8.25320166015625,0.0015233166050165892,0.0020048925653100014,-0.0016351430676877499
1746576000220217600,8.263217529296876,-0.0015017678961157799,0.0010235179215669632,0.0000735411886125803
1746576000230232600,8.273232666015625,0.0013606920838356018,0.001948449295014143,0.0002538973931223154
1746576000240248600,8.28324853515625,-0.000855590682476759,0.0005372399464249611,0.00005149701610207558
1746576000250263600,8.293263671875,-0.001344813033938408,0.0007891431450843811,-0.00064452039077878
1746576000260279300,8.303279296875,0.0003873072564601898,0.0015135225839912891,-0.00115637993440032
1746576000270294500,8.31329443359375,0.0010792890097945929,0.002995847724378109,-0.0004907350521534681
1746576000280310300,8.323310302734376,-0.00024217134341597557,-0.0016974410973489285,0.0026142443530261517
1746576000290325500,8.333325439453125,0.0019572998862713575,-0.0014443513937294483,0.0026612747460603714
1746576000300341200,8.34334130859375,-0.0006142486818134785,-0.0009652487933635712,0.0016585947014391422
1746576000310357200,8.353357177734376,-0.0019130194559693336,-0.0007689637131989002,-0.0011507526505738497
1746576000320372200,8.363372314453125,-0.00017077941447496414,-0.0013324888423085213,-0.0011733893770724535
1746576000330388200,8.37338818359375,-0.0013168435543775558,0.00005408516153693199,0.0004262719303369522
1746576000340403200,8.3834033203125,-0.0008329469710588455,0.0005734013393521309,0.00037593813613057137
1746576000350419200,8.393419189453125,0.0006560096517205238,-0.0017749557737261057,-0.0004904582165181637
1746576000360434200,8.40343408203125,-0.0012918263673782349,-0.003464731387794018,0.000508227152749896
1746576000370450400,8.413450439453126,0.0002683531492948532,-0.0006647021509706974,0.001026067417114973
1746576000380465200,8.423465087890625,0.000028135720640420914,0.000541443470865488,-0.0015729113947600126
1746576000390481400,8.4334814453125,0.00015838025137782097,0.003381195943802595,-0.00021781283430755138
1746576000400496400,8.443496337890625,-0.0004797135479748249,-0.0011842609383165836,-0.0006345976144075394
1746576000410512400,8.453512451171875,0.0017982043791562319,-0.0009724609553813934,0.000870576361194253
1746576000420527400,8.46352734375,0.0007113683968782425,0.0008395537734031677,-0.0005640687886625528
1746576000430543400,8.47354345703125,0.0027909495402127504,-0.0009204722009599209,0.0022392976097762585
1746576000440558300,8.483558349609375,-0.0009851465001702309,-0.0015721474774181843,-0.00035302317701280117
1746576000450574300,8.49357421875,-0.0001687547191977501,-0.0012761377729475498,-0.0016559564974159002
1746576000460589300,8.50358935546875,0.0004269941709935665,-0.0004795864224433899,-0.00254225661046803
1746576000470605300,8.513605224609375,0.0005252552218735218,0.00003711460158228874,0.0007494611199945211
1746576000480620300,8.523620361328126,-0.0017517474479973316,-0.0003410540521144867,0.00032442063093185425
1746576000490636300,8.53363623046875,-0.0006119352765381336,-0.0004546176642179489,0.0005385621916502714
1746576000500651300,8.5436513671875,-0.00104176951572299,-0.0005004242993891239,-0.0005804982502013445
1746576000510667300,8.553667236328126,-0.000042778439819812775,0.0004495917819440365,0.001756387297064066
1746576000520682200,8.56368212890625,-0.000806040596216917,-0.0015051686204969883,0.0003774026408791542
1746576000530698200,8.5736982421875,-0.0003325468860566616,-0.001976106083020568,0.0020447825081646442
1746576000540714500,8.583714599609374,0.0007345816120505333,0.0010638921521604061,-0.0010862955823540688
1746576000550729200,8.593729248046875,0.0022039886098355055,-0.004075239412486553,-0.0004091067239642143
1746576000560745500,8.603745361328125,0.0010055659804493189,-0.0010554813779890537,0.0004939713981002569
1746576000570760400,8.613760498046876,0.0017888250295072794,-0.00022748112678527832,-0.003030418651178479
1746576000580776400,8.6237763671875,-0.0009526330977678299,0.00034323427826166153,-0.0009670013096183538
1746576000590791400,8.63379150390625,-0.0004833000712096691,-0.002401636680588126,-0.0011115611996501684
1746576000600807400,8.643807373046876,0.000024830922484397888,-0.00019733840599656105,0.0016874208813533187
1746576000610822400,8.653822509765625,-0.001268139574676752,-0.00011086743324995041,-0.0003686230629682541
1746576000620838400,8.66383837890625,-0.0003213859163224697,-0.0005127382464706898,0.0016141002997756004
1746576000630853400,8.673853271484376,-0.00047843530774116516,-0.0002432321198284626,0.001552889123558998
1746576000640869400,8.683869384765625,-0.001374322921037674,0.0015107258222997189,-0.0022959113121032715
1746576000650884400,8.69388427734375,-0.0004294607788324356,0.000011804979294538498,0.000543421832844615
1746576000660900400,8.703900390625,0.0012230307329446077,0.0015764120034873486,0.0002326308749616146
1746576000670915300,8.713915283203125,-0.0004991646856069565,0.00001631351187825203,0.002089474583044648
1746576000680931300,8.723931396484375,0.0015522681642323732,-0.002411690540611744,-0.0009563826024532318
1746576000690946300,8.7339462890625,-0.0007173763588070869,-0.0003526979126036167,0.0030007841996848583
1746576000700962300,8.74396240234375,0.00042804935947060585,-0.00005948403850197792,-0.00253885705024004
1746576000710977300,8.753977294921874,-0.0022856909781694412,-0.0013739336282014847,-0.00019686552695930004
1746576000720993300,8.7639931640625,0.0021639184560626745,-0.0007571456953883171,-0.0009960802271962166
1746576000731008300,8.77400830078125,-0.002796910237520933,0.00032209698110818863,-0.00005805213004350662
1746576000741024500,8.7840244140625,-0.0006637182086706161,-0.00023690052330493927,0.00034967786632478237
1746576000751040500,8.79404052734375,-0.0008229273371398449,-0.0015225587412714958,0.0006896187551319599
1746576000761055500,8.804055419921875,0.000806660857051611,-0.0021816911175847054,0.0015016165561974049
1746576000771071500,8.814071533203125,0.000020753592252731323,0.0015268134884536266,-0.0013977827038615942
1746576000781086500,8.82408642578125,-0.0007433071732521057,-0.001013576053082943,-0.00016740243881940842
1746576000791102500,8.8341025390625,0.0013354059774428606,0.0010146396234631538,-0.0005016995128244162
1746576000801117400,8.844117431640624,0.001464302884414792,-0.0007065613754093647,0.0001385242212563753
1746576000811133400,8.854133544921876,-0.0031486796215176582,-0.0009936066344380379,0.002982310252264142
1746576000821148400,8.8641484375,-0.00025622034445405006,-0.0018109309021383524,-0.0006361266132444143
1746576000831164400,8.874164306640624,-0.0006186575628817081,-0.0011236504651606083,0.00027733040042221546
1746576000841179400,8.884179443359375,-0.0008317101746797562,0.0003330986946821213,0.0016158351209014654
1746576000851195400,8.8941953125,0.0000921785831451416,0.0012233746238052845,0.0007523198146373034
1746576000861210400,8.90421044921875,-0.0002875877544283867,0.001115783117711544,-0.0013933891896158457
1746576000871226400,8.914226318359376,0.001167304115369916,0.0018610083498060703,-0.0028532270807772875
1746576000881241300,8.924241455078125,-0.0004159449599683285,0.0006948099471628666,0.002200121060013771
1746576000891257300,8.93425732421875,0.0016518125776201487,-0.001262463629245758,-0.00042758951894938946
1746576000901272300,8.944272216796875,-0.002086466643959284,-0.00046511320397257805,-0.0008076226804405451
1746576000911288600,8.95428857421875,0.0005470849573612213,0.0011629415675997734,-0.00046416884288191795
1746576000921303300,8.96430322265625,0.0005340352654457092,0.0008633360266685486,0.00023357965983450413
1746576000931319600,8.974319580078125,0.0001070280559360981,-0.0001425156369805336,-0.0020807269029319286
1746576000941334500,8.98433447265625,0.0010913326404988766,0.0033326433040201664,-0.0021584914065897465
1746576000951350500,8.9943505859375,0.0017753359861671925,-0.0008743484504520893,0.0001036978792399168
1746576000961366500,9.004366455078125,0.0012275236658751965,-0.0013550492003560066,-0.0012190942652523518
1746576000971381500,9.014381591796875,0.0002051154151558876,-0.0019354207906872034,0.0016982984961941838
1746576000981397500,9.0243974609375,-0.00007744599133729935,-0.0003329967148602009,0.00013848510570824146
1746576000991412500,9.03441259765625,-0.00028112810105085373,0.0007716724649071693,0.0024703512899577618
1746576001001428500,9.044428466796875,0.000011287163943052292,-0.0008171694353222847,0.0006724514532834291
1746576001011443500,9.054443359375,0.0002948329783976078,0.0004073362797498703,0.0009509953670203686
1746576001021459500,9.06445947265625,-0.00016003521159291267,-0.0011178557761013508,-0.0010458426550030708
1746576001031474400,9.074474365234375,0.0012395947705954313,0.0010905968956649303,-0.0021620781626552343
1746576001041490400,9.084490478515624,-0.000674419105052948,0.000685530249029398,0.00042038923129439354
1746576001051505400,9.09450537109375,-0.0003980775363743305,0.0004957630299031734,0.0009447387419641018
1746576001061521400,9.104521484375,0.0008504122961312532,-0.0011910833418369293,0.0018845682498067617
1746576001071536400,9.114536376953126,-0.00044578174129128456,0.00006340444087982178,0.0013565502595156431
1746576001081552400,9.124552490234375,0.0010764813050627708,-0.0001959875226020813,0.0028090383857488632
1746576001091567400,9.1345673828125,-0.0011018444783985615,-0.00018091266974806786,-0.00041028275154531
1746576001101583400,9.144583251953126,0.000113622285425663,-0.0007628132589161396,0.002616133540868759
1746576001111598600,9.1545986328125,0.0010866585653275251,0.000641784630715847,-0.0007933208253234625
1746576001121614300,9.1646142578125,-0.00034319283440709114,-0.0007822075858712196,-0.0006865283939987421
1746576001131629600,9.174629638671876,-0.0011658030562102795,-0.0014588707126677036,-0.002557458821684122
1746576001141645300,9.184645263671875,0.0008347632829099894,-0.000890286173671484,-0.0012224162928760052
1746576001151660500,9.19466064453125,-0.0003721611574292183,-0.0001681838184595108,-0.00114618637599051
1746576001161676300,9.20467626953125,-0.0007559224031865597,0.0011431570164859295,-0.0011001138482242823
1746576001171691500,9.21469140625,0.0019521715585142374,0.0007669092155992985,0.0006571467965841293
1746576001181707300,9.224707275390625,-0.00037676282227039337,-0.000024848151952028275,-0.002291771350428462
1746576001191723300,9.23472314453125,-0.0006270422600209713,0.001188404392451048,0.0019042070489376783
1746576001201738200,9.24473828125,-0.0004733777604997158,-0.000928808469325304,-0.0004564190749078989
1746576001211754200,9.254754150390625,0.000047200825065374374,-0.0013591493479907513,-0.0004466341342777014
1746576001221769200,9.264769287109376,-0.0019272668287158012,-0.00016765110194683075,0.0008298186585307121
1746576001231785200,9.27478515625,-0.00027996301651000977,-0.0017722605261951685,0.0015274379402399063
1746576001241800200,9.28480029296875,0.0023131570778787136,0.0010070144198834896,0.0007782906759530306
1746576001251816400,9.29481640625,-0.0006361836567521095,0.00030683353543281555,0.0015132452826946974
1746576001261831400,9.30483154296875,0.0007100442890077829,0.0004109633155167103,-0.0006963794585317373
1746576001271847400,9.314847412109375,0.002404973143711686,0.00004089856520295143,-0.0015681993681937456
1746576001281862400,9.3248623046875,-0.00044354377314448357,0.00013757124543190002,-0.00034554186277091503
1746576001291878400,9.33487841796875,-0.0004370715469121933,-0.0010155155323445797,-0.003121334360912442
1746576001301893400,9.344893310546874,-0.0010876813903450966,0.00007558148354291916,-0.000253109959885478
1746576001311909400,9.354909423828126,0.0004491247236728668,-0.0001349830999970436,-0.0015730711165815592
1746576001321924400,9.36492431640625,-0.000705622136592865,0.0007712901569902897,0.0012528090737760067
1746576001331940400,9.3749404296875,-0.0020719547756016254,0.001095880288630724,0.000013630837202072144
1746576001341955300,9.384955322265625,-0.0012636855244636536,0.001361663918942213,0.000011500203981995583
1746576001351971300,9.394971435546875,0.0013344825711101294,-0.0008147386834025383,-0.0023429859429597855
1746576001361986300,9.404986328125,-0.0003140140324831009,-0.0005662655457854271,0.003723961068317294
1746576001372002300,9.415002197265625,0.0007256227545440197,0.0011282609775662422,0.0013914243318140507
1746576001382017300,9.425017333984375,-0.0021101110614836216,-0.0007745679467916489,-0.0009066173806786537
1746576001392033500,9.435033447265624,0.00028068479150533676,-0.00145267928019166,-0.0011462364345788956
1746576001402048500,9.445048583984375,-0.001125996932387352,-0.0006281649693846703,0.0030586288776248693
1746576001412064500,9.455064453125,-0.0029339082539081573,-0.0009221676737070084,0.00045441766269505024
1746576001422080500,9.46508056640625,0.0014621715527027845,-0.0021597386803478003,-0.0021456265822052956
1746576001432095500,9.475095458984375,0.0005910131148993969,-0.00020735803991556168,-0.0017338457982987165
1746576001442111500,9.485111572265625,-0.0009086132049560547,-0.0010675592347979546,0.0037916807923465967
1746576001452126500,9.49512646484375,-0.0006617754697799683,0.001472187228500843,0.0019824011251330376
1746576001462142500,9.505142578125,0.00008683931082487106,0.0024634157307446003,-0.0010900876950472593
1746576001472157400,9.515157470703125,-0.0005987114273011684,0.0010154955089092255,0.0024276766926050186
1746576001482173400,9.52517333984375,-0.0007324018515646458,-0.001027149148285389,-0.0013814426492899656
1746576001492188400,9.5351884765625,-0.0007774201221764088,0.0007867906242609024,0.00003740750253200531
1746576001502204400,9.545204345703125,-0.001035214401781559,-0.0018116557039320469,-0.00046619633212685585
1746576001512219400,9.555219482421874,-0.00004121754318475723,-0.0023402441293001175,-0.0006941643077880144
1746576001522235400,9.5652353515625,0.0030206190422177315,0.0001940201036632061,-0.0015442452859133482
1746576001532250400,9.57525048828125,-0.0007552779279649258,-0.0008584121242165565,-0.0018465453758835793
1746576001542266400,9.585266357421874,0.00101758842356503,-0.0013963705860078335,-0.002427380997687578
1746576001552281300,9.59528125,0.00147857959382236,0.0009062765166163445,0.003906807396560907
1746576001562297600,9.605297607421875,-0.0021992456167936325,-0.001091094221919775,0.000857221893966198
1746576001572312300,9.615312255859376,0.00006352365016937256,-0.0023352038115262985,-0.00301110977306962
1746576001582328600,9.62532861328125,0.0009639386553317308,0.00011943140998482704,-0.0018313294276595116
1746576001592343600,9.635343505859375,-0.0006692386232316494,-0.0004872358404099941,0.0014217705465853214
1746576001602359600,9.645359619140624,0.0014418491628021002,0.001051538623869419,0.0012041900772601366
1746576001612375600,9.65537548828125,0.0019896558951586485,-0.001482396386563778,-0.00232283235527575
1746576001622390500,9.665390625,0.00004448322579264641,-0.001500772312283516,-0.0022357467096298933
1746576001632406500,9.675406494140624,0.0005739517509937286,0.0006775287911295891,0.0005951870698481798
1746576001642421500,9.68542138671875,0.0010876755695790052,-0.0007643061690032482,0.0015107817016541958
1746576001652437500,9.6954375,0.0006622397340834141,0.0005167690105736256,-0.000956337433308363
1746576001662452500,9.705452392578126,0.0018864949233829975,0.0011681783944368362,-0.0008476804941892624
1746576001672468500,9.715468505859375,0.0005581658333539963,0.00014411425217986107,0.0005932648200541735
1746576001682483500,9.7254833984375,-0.0011292127892374992,-0.0008532395586371422,-0.0007012977730482817
1746576001692499500,9.73549951171875,0.000011719763278961182,-0.0006784526631236076,0.0003473786637187004
1746576001702514400,9.745514404296875,0.001124388538300991,-0.0020672911778092384,0.0010493877343833447
1746576001712530400,9.755530517578125,-0.0003051809035241604,-0.002113010035827756,-0.00011884397827088833
1746576001722545400,9.76554541015625,0.0008394455071538687,-0.00034520355984568596,0.0007109970320016146
1746576001732561700,9.775561767578125,-0.001502328086644411,0.0023306990042328835,0.0010932208970189095
1746576001742576400,9.785576416015624,-0.0006780796684324741,-0.000789194367825985,-0.003088208381086588
1746576001752592600,9.795592529296876,0.0002834317274391651,-0.0014144065789878368,-0.0020704888738691807
1746576001762607600,9.805607666015625,-0.0021989005617797375,0.0021752682514488697,-0.0007871114648878574
1746576001772623600,9.81562353515625,0.0006793718785047531,0.0013254256919026375,0.00033381441608071327
1746576001782638600,9.825638671875,-0.001373126171529293,-0.00010016467422246933,0.0003838818520307541
1746576001792654600,9.835654541015625,-0.00022514257580041885,-0.0006277156062424183,0.0001738877035677433
1746576001802669600,9.845669677734374,0.0013802109751850367,0.00019733188673853874,-0.0012735403142869473
1746576001812685600,9.855685546875,-0.0010494422167539597,0.00019221613183617592,-0.0010247244499623775
1746576001822700500,9.865700439453125,0.00041369814425706863,-0.00047943275421857834,-0.0031161047518253326
1746576001832716500,9.875716552734374,0.0007309052161872387,0.0012808763422071934,-0.0022722589783370495
1746576001842732500,9.885732666015626,-0.0010163947008550167,-0.0006810743361711502,-0.0009800931438803673
1746576001852747500,9.89574755859375,-0.0003427811898291111,-0.000007076188921928406,0.0020847725681960583
1746576001862763500,9.905763427734374,-0.0017207004129886627,0.000018224120140075684,0.0005891413893550634
1746576001872778500,9.915778564453126,-0.000913180410861969,0.001282216515392065,-0.0010529439896345139
1746576001882794500,9.92579443359375,0.0012541001196950674,-0.0007862607017159462,0.0018927783239632845
1746576001892809500,9.9358095703125,-0.00044424040243029594,-0.0004712282679975033,-0.0008143587037920952
1746576001902825500,9.945825439453126,0.001972578465938568,-0.0009399442933499813,-0.00029823812656104565
1746576001912840400,9.95584033203125,0.0018626332748681307,-0.001768162241205573,-0.00039619533345103264
1746576001922856400,9.9658564453125,0.002566773211583495,0.00003213481977581978,-0.002200487069785595
1746576001932871700,9.97587158203125,-0.00030640093609690666,-0.0012471317313611507,0.0026103185955435038
1746576001942887400,9.985887451171875,-0.00034102192148566246,-0.00033180322498083115,-0.0005942631978541613
1746576001952902700,9.995902587890624,-0.0011997758410871029,-0.00117472093552351,-0.0009404465090483427
1746576001962918400,10.00591845703125,0.0002620331943035126,0.00040772929787635803,0.00006755976937711239
1746576001972933600,10.01593359375,-0.0007627480663359165,-0.001644400879740715,-0.0017557486426085234
1746576001982949400,10.025949462890624,-0.0004631425254046917,0.0007244809530675411,0.0015689418651163578
1746576001992964600,10.035964599609375,0.0018174871802330017,-0.0008324738591909409,0.0013779534492641687
1746576002002980400,10.04598046875,0.0005170656368136406,-0.0004223468713462353,-0.0008146269246935844
1746576002012995600,10.05599560546875,0.0005728676915168762,0.00017665093764662743,-0.0021573377307504416
1746576002023011300,10.06601123046875,-0.0011667092330753803,-0.00039965705946087837,0.0005095519591122866
1746576002033027300,10.07602734375,0.0015879319980740547,-0.0015883245505392551,-0.000395012553781271
1746576002043042300,10.086042236328124,0.0007375846616923809,0.0005712327547371387,0.0003389548510313034
1746576002053058300,10.096058349609375,-0.0011873994953930378,0.0009066471830010414,0.0016740759601816535
1746576002063073300,10.1060732421875,-0.0012079058215022087,0.00031143054366111755,-0.001461263746023178
1746576002073089300,10.11608935546875,0.002112568123266101,0.00023686746135354042,-0.00226860074326396
1746576002083104300,10.126104248046875,0.0003498219884932041,-0.00030029239133000374,0.001253962516784668
1746576002093120500,10.13612060546875,0.001859268406406045,-0.001758878817781806,0.00017260597087442875
1746576002103135500,10.146135498046876,-0.0007620812393724918,-0.0008720462210476398,-0.0018652449361979961
1746576002113151500,10.1561513671875,0.00042013823986053467,0.0016456209123134613,0.0018956393469125032
1746576002123166500,10.16616650390625,-0.0022451533004641533,-0.0013970406726002693,-0.0017294553108513355
1746576002133182500,10.176182373046874,-0.0011838274076581001,-0.0011809617280960083,0.0009653742890805006
1746576002143197400,10.186197509765625,-0.0011734412983059883,-0.00010504480451345444,0.000725689809769392
1746576002153213400,10.19621337890625,-0.0006307284347712994,0.000055555254220962524,0.00027836626395583153
1746576002163228400,10.206228515625,-0.0016672308556735516,0.0013093715533614159,-0.0002566627226769924
1746576002173244400,10.216244384765625,-0.00044866837561130524,0.000984415877610445,0.0007969692815095186
1746576002183259400,10.22625927734375,0.0006432277150452137,0.0014043962582945824,0.000149288447573781
1746576002193275400,10.236275390625,-0.0013623773120343685,0.0012073414400219917,0.0007221070118248463
1746576002203290400,10.246290283203125,-0.0010036495514214039,0.00016977358609437943,0.002367940731346607
1746576002213306400,10.256306396484375,-0.00022708112373948097,0.0013274145312607288,-0.0012735170312225819
1746576002223321300,10.2663212890625,-0.00020124856382608414,0.0005055628716945648,-0.00031424639746546745
1746576002233337300,10.27633740234375,-0.0014463155530393124,0.0008062394335865974,0.00006910017691552639
1746576002243353300,10.286353271484375,-0.0011166161857545376,-0.0010555763728916645,0.0004201047122478485
1746576002253367800,10.296367919921876,0.00034452974796295166,-0.00014804303646087646,-0.0005235893186181784
1746576002263383800,10.3063837890625,0.0011759684421122074,-0.0002146218903362751,0.0004894770681858063
1746576002273398800,10.316398681640624,0.0008751810528337955,-0.002511841244995594,-0.0009076537098735571
1746576002283414800,10.326414794921876,0.001551890280097723,-0.0007480294443666935,0.00015308312140405178
1746576002293429800,10.3364296875,0.0008608032949268818,0.0009165545925498009,0.0004703938029706478
1746576002303445800,10.34644580078125,0.00012230873107910156,-0.000701582059264183,0.0007252583745867014
1746576002313460700,10.356460693359375,-0.0005440129898488522,-0.0008802833035588264,-0.0013164323754608631
1746576002323476700,10.366476806640625,0.0001521371304988861,-0.00013007083907723427,0.0012457950506359339
1746576002333491700,10.37649169921875,-0.0017324481159448624,-0.0017612804658710957,-0.0015450511127710342
1746576002343508000,10.386508056640626,0.0007474874146282673,-0.00010985461995005608,0.0014275694265961647
1746576002353522700,10.396522705078125,-0.00021955650299787521,0.0007583396509289742,0.001117772189900279
1746576002363539000,10.4065390625,0.0005018934607505798,-0.0012824409641325474,-0.0010276702232658863
1746576002373554000,10.416553955078125,0.0008756087627261877,-0.001668307464569807,0.0017866863636299968
1746576002383570000,10.42656982421875,0.0003488357178866863,0.002819384913891554,-0.001652253558859229
1746576002393585000,10.4365849609375,-0.0007432233542203903,-0.002386043779551983,-0.003255617106333375
1746576002403601000,10.446600830078125,0.002223005285486579,0.00035328371450304985,-0.0017421424854546785
1746576002413615900,10.456615966796875,0.0016972823068499565,0.00021416647359728813,-0.0020249662920832634
1746576002423632000,10.4666318359375,-0.002198922447860241,0.0009012622758746147,-0.001610045786947012
1746576002433646800,10.476646728515625,0.002092681359499693,0.00039048073813319206,0.0008376762270927429
1746576002443662800,10.486662841796875,0.0008433924522250891,-0.001197828445583582,-0.0031397549901157618
1746576002453678800,10.496678955078124,-0.0005187182687222958,0.0005849627777934074,-0.0007480951026082039
1746576002463693800,10.50669384765625,0.0009068718645721674,-0.00048589427024126053,-0.003357992973178625
1746576002473709800,10.516709716796875,0.0008169887587428093,-0.0012495918199419975,0.0008448418229818344
1746576002483724800,10.526724853515624,-0.0011753221042454243,-0.00007194187492132187,0.0017282123444601893
1746576002493740800,10.53674072265625,-0.00022547459229826927,-0.0007361765019595623,-0.0008709386456757784
1746576002503755800,10.546755859375,0.000881867716088891,-0.002472291002050042,0.0026750601828098297
1746576002513771800,10.556771728515624,0.0013515406753867865,0.0010176002979278564,-0.0023016524501144886
1746576002523786800,10.566786865234375,-0.0008812537416815758,-0.0005699098110198975,-0.0014121565036475658
1746576002533803000,10.576802978515625,-0.00043894071131944656,0.00014426279813051224,-0.0007923166267573833
1746576002543818000,10.58681787109375,0.0014332614373415709,0.001796487718820572,-0.001114026177674532
1746576002553834000,10.596833984375,0.0006750714965164661,-0.00018115108832716942,-0.0020433012396097183
1746576002563849000,10.606848876953125,0.0005602892488241196,0.00014322204515337944,-0.00013381452299654484
1746576002573865000,10.616864990234374,0.00005527399480342865,-0.0008719856850802898,-0.0015767132863402367
1746576002583880000,10.6268798828125,-0.0020483569242060184,-0.0009231185540556908,0.0013884499203413725
1746576002593896000,10.63689599609375,0.00048733269795775414,0.001117547508329153,-0.00030740397050976753
1746576002603911000,10.646910888671876,0.00021728826686739922,0.004533051513135433,-0.0016336583066731691
1746576002613927000,10.656927001953125,-0.0008829361759126186,-0.00028558308258652687,-0.001469144830480218
1746576002623942000,10.66694189453125,0.002297677332535386,0.00004917662590742111,0.0004874796140938997
1746576002633958000,10.6769580078125,-0.0013404032215476036,-0.0016692918725311756,0.0003126456867903471
1746576002643974000,10.686973876953125,0.0004529692232608795,0.0012026610784232616,0.0005360848736017942
1746576002653988900,10.69698876953125,-0.0016640969552099705,-0.00023713940754532814,-0.001225871965289116
1746576002664004900,10.7070048828125,0.0008097132667899132,-0.001127168070524931,-0.0011345255188643932
1746576002674019800,10.717019775390625,-0.0011604460887610912,-0.0009702211245894432,-0.0009865709580481052
1746576002684035800,10.727035888671875,-0.000044049229472875595,-0.0014983261935412884,0.0007013403810560703
1746576002694050800,10.73705078125,-0.002592479344457388,-0.0007269852794706821,-0.0005595730617642403
1746576002704067000,10.747067138671875,0.0010051850695163012,-0.001544309314340353,-0.0003095022402703762
1746576002714082000,10.75708203125,-0.0019172048196196556,-0.00008517643436789513,-0.0002030273899435997
1746576002724098000,10.76709814453125,0.0011973623186349869,0.0007822150364518166,0.0008055118378251791
1746576002734113000,10.777113037109375,-0.0004194732755422592,0.00037570763379335403,0.001882652984932065
1746576002744129000,10.78712890625,-0.00005302252247929573,0.002815163228660822,0.0016485610976815224
1746576002754144000,10.79714404296875,-0.0007511833682656288,0.0012446744367480278,-0.00291460077278316
1746576002764160000,10.807159912109375,0.000056020915508270264,0.0002020471729338169,-0.0014735644217580557
1746576002774175000,10.817175048828124,-0.000532492995262146,0.0004783608019351959,-0.002133152913302183
1746576002784191000,10.82719091796875,-0.00008747866377234459,-0.001158418133854866,-0.002993354108184576
1746576002794206000,10.8372060546875,-0.000622918363660574,0.0009232521988451481,-0.002524132141843438
1746576002804222000,10.847221923828124,0.000468977726995945,-0.00048529356718063354,0.0002056080847978592
1746576002814237000,10.85723681640625,-0.0024658231995999813,-0.00012206146493554115,0.0010934576857835054
1746576002824253000,10.8672529296875,0.00044288160279393196,-0.0011218125000596046,-0.0010836764704436064
1746576002834268000,10.877267822265624,-0.00212844368070364,0.0018308218568563461,-0.0008667388465255499
1746576002844284000,10.887283935546876,-0.00017501506954431534,0.0005948487669229507,0.0018241188954561949
1746576002854300000,10.8972998046875,0.0010183474514633417,-0.001633546082302928,0.0007985585834830999
1746576002864315000,10.90731494140625,-0.0005787503905594349,0.000020809471607208252,-0.0013428893871605396
1746576002874331000,10.917330810546876,0.0006505767814815044,0.001256751362234354,-0.0004939644131809473
1746576002884345900,10.927345947265625,-0.00030896021053195,0.0001211795024573803,0.000525227515026927
1746576002894361900,10.93736181640625,-0.0015250896103680134,-0.0011569890193641186,0.0017325017834082246
1746576002904377000,10.947377197265626,0.00032341061159968376,0.0009919158183038235,0.001554602524265647
1746576002914392800,10.957392822265625,0.0008585003670305014,-0.0010039480403065681,-0.00028088619001209736
1746576002924408000,10.967407958984374,0.0006912536919116974,-0.0005610641092061996,0.0014211400412023067
1746576002934423800,10.977423828125,-0.001991111785173416,0.0024869744665920734,-0.0001185236033052206
1746576002944439000,10.98743896484375,-0.00210456270724535,-0.0016933893784880638,-0.00039149774238467216
1746576002954454800,10.997454833984374,-0.0011371043510735035,-0.0012903683818876743,0.0013862047344446182
1746576002964470000,11.007469970703125,0.0007686535827815533,0.0019118166528642178,-0.00005350029096007347
1746576002974485800,11.01748583984375,0.0011940645053982735,0.0012917951680719852,0.0004176597576588392
1746576002984501000,11.0275009765625,0.0007799428422003984,0.0002893814817070961,0.0006671980954706669
1746576002994516700,11.037516845703125,0.0010376062709838152,-0.0011892076581716537,0.001491273520514369
1746576003004532000,11.047531982421875,-0.0004604221321642399,0.0024172449484467506,-0.0033468911424279213
1746576003014547700,11.057547607421874,-0.0005688467063009739,0.0007785973139107227,-0.0025244152639061213
1746576003024563700,11.067563720703125,0.0007355697453022003,0.0009351908229291439,0.0009696520864963531
1746576003034578700,11.07757861328125,0.002291349461302161,-0.00041743507608771324,0.002271727193146944
1746576003044595000,11.087594970703124,0.0008732161950320005,-0.0000656316988170147,0.00022748485207557678
1746576003054609700,11.097609619140625,0.00013240566477179527,-0.00012580910697579384,0.0011745821684598923
1746576003064626000,11.1076259765625,0.00020324578508734703,0.000450765248388052,-0.00032451096922159195
1746576003074641000,11.117640869140626,-0.0004984298720955849,-0.0017572981305420399,-0.0021965736523270607
1746576003084657000,11.127656982421875,0.00007281824946403503,-0.0009045540355145931,0.00040293787606060505
1746576003094672000,11.137671875,-0.0022136736661195755,0.001894887536764145,-0.0019927530083805323
1746576003104687900,11.14768798828125,-0.0009422805160284042,-0.00046999938786029816,-0.0013269626069813967
1746576003114702800,11.157702880859375,-0.0009929127991199493,0.0015920978039503098,0.000001261010766029358
1746576003124718800,11.16771875,-0.002437144983559847,0.00011910358443856239,0.001422590110450983
1746576003134733800,11.17773388671875,-0.000754843931645155,0.0007635140791535378,-0.00034585664980113506
1746576003144749800,11.187749755859375,0.0002861856482923031,-0.0007630097679793835,-0.0013509334530681372
1746576003154764800,11.197764892578125,-0.001142868772149086,0.00056848069652915,-0.0026637655682861805
1746576003164780800,11.20778076171875,0.0004249340854585171,0.0007682177238166332,-0.001167601440101862
1746576003174795800,11.217795654296875,-0.0002063545398414135,0.002235765103250742,0.0007655022200196981
1746576003184811800,11.227811767578125,-0.00047480128705501556,0.0006338735111057758,-0.00041134865023195744
1746576003194826800,11.23782666015625,0.0009191129356622696,-0.0011784159578382969,0.0000538327731192112
1746576003204842800,11.2478427734375,0.0015825063455849886,0.0010796785354614258,-0.0018258262425661087
1746576003214858800,11.257858642578125,0.0008128730114549398,0.0003522229380905628,0.00075734150595963
1746576003224873700,11.267873779296876,0.0011084838770329952,0.0002917693927884102,0.0006572066340595484
1746576003234890000,11.277889892578125,-0.000284567940980196,-0.0006312462501227856,-0.0018956961575895548
1746576003244905000,11.287905029296875,-0.000055802520364522934,-0.0009492277167737484,-0.00013827625662088394
1746576003254921500,11.29792138671875,-0.002734679263085127,0.00007535004988312721,-0.003880295203998685
1746576003264936400,11.3079365234375,0.0007021301425993443,-0.001810434041544795,-0.0013947670813649893
1746576003274952400,11.317952392578125,0.001904011471197009,0.0010303258895874023,0.0022580414079129696
1746576003284967400,11.327967529296876,0.0005218307487666607,0.0007381774485111237,0.0009669407736510038
1746576003294983700,11.337983642578125,0.0004218560643494129,0.00012191059067845345,0.0010368111543357372
1746576003304998400,11.347998291015625,0.00033663492649793625,0.001287043560296297,0.0006469243671745062
1746576003315014700,11.3580146484375,-0.000958071555942297,0.0014132964424788952,0.0016941896174103022
1746576003325029600,11.368029541015625,-0.0009197220206260681,0.0012143580242991447,-0.000029940856620669365
1746576003335045600,11.378045654296875,0.0011299089528620243,0.0008689132519066334,0.000771879218518734
1746576003345060600,11.388060546875,-0.0017196736298501492,0.00028514815494418144,-0.00039698206819593906
1746576003355076600,11.39807666015625,-0.00009758491069078445,0.0006574224680662155,-0.00042660022154450417
1746576003365091600,11.408091552734374,0.0004030894488096237,0.000257149338722229,0.0023630610667169094
1746576003375107600,11.418107666015626,-0.0007261326536536217,0.00015160394832491875,0.0027091894298791885
1746576003385122600,11.42812255859375,0.0003985203802585602,-0.0017072821501642466,-0.0007926011458039284
1746576003395138600,11.438138671875,0.0004270425997674465,0.0023368713445961475,0.0011055853683501482
1746576003405153500,11.448153564453126,0.000547151081264019,0.0023893360048532486,-0.000670742942020297
1746576003415169500,11.45816943359375,0.000333473552018404,-0.00044937338680028915,-0.0010289479978382587
1746576003425185500,11.468185546875,0.0018187183886766434,-0.00033325981348752975,0.00000941823236644268
1746576003435200500,11.478200439453126,-0.002232918981462717,-0.0015225652605295181,-0.0013928955886512995
1746576003445216500,11.488216552734375,-0.0008922833949327469,-0.00014038477092981339,0.000912603223696351
1746576003455231500,11.4982314453125,-0.00004847254604101181,0.0011290935799479485,0.0023186991456896067
1746576003465247500,11.50824755859375,0.0005507385358214378,0.0018790396861732006,0.0021184294018894434
1746576003475262500,11.518262451171875,0.0001241997815668583,0.00073967594653368,0.0015666771214455366
1746576003485278700,11.52827880859375,-0.00018659140914678574,0.00032901670783758163,0.001646039541810751
