time,seconds_elapsed,z,y,x
1746728907257672200,0.018672119140625,-0.0007210271432995796,-0.001915137516334653,-0.0007496187463402748
1746728907267689500,0.028689453125,0.000016402453184127808,0.0008239233866333961,-0.0005725184455513954
1746728907277707300,0.038707275390625,-0.0005208286456763744,-0.000740355346351862,-0.0017264361958950758
1746728907287725600,0.0487255859375,0.0008421773090958595,0.00033209938555955887,0.0016656321240589023
1746728907297743400,0.058743408203125,-0.0005851583555340767,-0.0012167952954769135,-0.0007782673928886652
1746728907307760000,0.068760009765625,-0.0013649319298565388,0.002306566573679447,-0.00038332073017954826
1746728907317778400,0.0787783203125,0.0026241037994623184,-0.0010357964783906937,0.0008299609180539846
1746728907327796500,0.08879638671875,0.00040755467489361763,0.00012907013297080994,-0.0002430267632007599
1746728907337814300,0.098814208984375,-0.0009899544529616833,0.004311537370085716,0.00013545597903430462
1746728907347831300,0.108831298828125,0.001338447444140911,0.012296492233872414,-0.004632933996617794
1746728907357849300,0.118849365234375,-0.0008780420757830143,0.022665075957775116,-0.011453662067651749
1746728907367867400,0.128867431640625,0.0010242541320621967,-0.05414927750825882,0.02168857865035534
1746728907377884400,0.138884521484375,0.003211752511560917,-0.009866599924862385,0.0026364305522292852
1746728907387902200,0.148902099609375,0.0013579258229583502,-0.0006147781386971474,0.0006933882832527161
1746728907397920300,0.158920166015625,0.0006049890071153641,0.0004552430473268032,0.00007366854697465897
1746728907407938300,0.168938232421875,0.0011773020960390568,0.0009753582999110222,-0.0008443230763077736
1746728907417955300,0.178955322265625,0.00014480995014309883,0.00019372068345546722,-0.0015950682573020458
1746728907427973400,0.188973388671875,0.0005477461963891983,-0.0027983407489955425,0.0009826053865253925
1746728907437991400,0.198991455078125,0.000022248364984989166,-0.0002905069850385189,-0.001860952703282237
1746728907448009200,0.20900927734375,0.0017296010628342628,0.00019578635692596436,0.000040277838706970215
1746728907458026500,0.219026611328125,-0.0014509698376059532,0.00028896238654851913,0.001009610015898943
1746728907468044300,0.229044189453125,-0.0004911669529974461,-0.0004149111919105053,-0.002810428151860833
1746728907478062300,0.239062255859375,-0.0019229548051953316,-0.003367619588971138,-0.0010243470314890146
1746728907488080400,0.249080322265625,-0.00031387293711304665,0.00022791419178247452,-0.0023881515953689814
1746728907498097400,0.259097412109375,-0.0013420004397630692,-0.002248212695121765,-0.0007811551913619041
1746728907508115200,0.269115234375,0.0003823963925242424,-0.0007299445569515228,0.0022846758365631104
1746728907518133500,0.279133544921875,0.00029836269095540047,-0.0015582065097987652,0.0002644576597958803
1746728907528150300,0.289150390625,-0.0003714226186275482,0.0011664736084640026,0.00003542564809322357
1746728907538168300,0.299168212890625,-0.00023458432406187057,0.0007002418860793114,-0.0007798192091286182
1746728907548186400,0.309186279296875,0.002191022736951709,0.0024249046109616756,0.0003333822824060917
1746728907558204400,0.319204345703125,-0.00036187004297971725,0.0005568941123783588,0.0006290455348789692
1746728907568221400,0.329221435546875,0.002340972190722823,-0.0006359354592859745,-0.000005319481715559959
1746728907578239500,0.339239501953125,-0.0009675403125584126,0.000026777386665344238,-0.0015069155488163233
1746728907588257300,0.34925732421875,-0.0002319752238690853,0.0004827105440199375,-0.0021404812578111887
1746728907598275300,0.359275390625,0.00020853569731116295,-0.001706387149170041,0.0011107065947726369
1746728907608292400,0.369292236328125,-0.00041783973574638367,0.0025317673571407795,0.0004430520348250866
1746728907618310400,0.379310302734375,-0.0006339740939438343,0.0012833056971430779,0.0011950742918998003
1746728907628328400,0.389328369140625,-0.0007721921429038048,0.0014614714309573174,-0.0015330680180341005
1746728907638346500,0.399346435546875,-0.0016680224798619747,0.00002421252429485321,0.0022538937628269196
1746728907648363000,0.409363037109375,0.0006012571975588799,0.0004721563309431076,0.00047756521962583065
1746728907658381300,0.41938134765625,-0.00026713358238339424,-0.00007350463420152664,0.002190511440858245
1746728907668399000,0.429399169921875,0.0008069192990660667,-0.0017614162061363459,0.0006842275615781546
1746728907678416100,0.439416015625,0.00015418510884046555,-0.001033693552017212,-0.0012954606208950281
1746728907688434200,0.44943408203125,0.0009504705667495728,0.0002717878669500351,-0.0003761372063308954
1746728907698452200,0.4594521484375,0.0007530753500759602,0.00043951813131570816,-0.0003635671455413103
1746728907708470000,0.469469970703125,0.00167026836425066,0.0027436851523816586,-0.0030352501198649406
1746728907718487300,0.4794873046875,0.0006699892692267895,0.000680149532854557,-0.001469471724703908
1746728907728505000,0.489505126953125,0.00149343884550035,-0.00009136833250522614,0.00014493637718260288
1746728907738523100,0.499523193359375,0.000660543330013752,-0.00013642525300383568,-0.00001959339715540409
1746728907748541200,0.509541259765625,0.0011007641442120075,-0.0012610782869160175,-0.002135474933311343
1746728907758558200,0.51955810546875,0.000886162742972374,0.00036473246291279793,0.0011088413884863257
1746728907768576300,0.529576171875,0.0005466095171868801,0.0004619378596544266,-0.0019508644472807646
1746728907778594300,0.53959423828125,-0.0006709853187203407,0.0008548786863684654,0.00003483518958091736
1746728907788611000,0.549611083984375,-0.0006880294531583786,0.00012277532368898392,0.0011855870252475142
1746728907798629400,0.55962939453125,0.001227373257279396,0.0010289051569998264,-0.0027410255279392004
1746728907808647200,0.569647216796875,-0.00011272961273789406,-0.00014608167111873627,-0.0015679032076150179
1746728907818665200,0.579665283203125,0.0005111778154969215,0.0008609234355390072,0.0010997888166457415
1746728907828682200,0.58968212890625,0.0015969485975801945,0.0009216433390974998,0.0010009855031967163
1746728907838700300,0.5997001953125,-0.0017795544117689133,0.0002407589927315712,-0.00058748759329319
1746728907848718000,0.609718017578125,0.002036222955211997,0.0006982898339629173,0.0005661938339471817
1746728907858736400,0.619736328125,-0.001214583870023489,0.0023110341280698776,0.00018594670109450817
1746728907868753200,0.629753173828125,-0.0019344366155564785,0.00010487111285328865,-0.0009725282434374094
1746728907878771200,0.639771240234375,-0.00042715994641184807,0.000897266436368227,0.0011789893032982945
1746728907888789200,0.649789306640625,0.0007885731756687164,0.0007172366604208946,0.00005886377766728401
1746728907898807300,0.659807373046875,-0.00184269854798913,0.0009366427548229694,-0.0007387551013380289
1746728907908824300,0.66982421875,-0.000525232870131731,0.0008554165251553059,0.0014612821396440268
1746728907918842000,0.679842041015625,0.0005514239892363548,-0.00011817505583167076,-0.0007238378748297691
1746728907928860200,0.689860107421875,-0.0005481955595314503,-0.00010459311306476593,0.0014317247550934553
1746728907938877200,0.699877197265625,0.001292877597734332,0.0004664952866733074,-0.003437229199334979
1746728907948895200,0.709895263671875,0.0005336101166903973,0.0009567835368216038,-0.0009820612613111734
1746728907958913000,0.7199130859375,0.0003006164915859699,0.0003745495341718197,-0.0017588688060641289
1746728907968931000,0.72993115234375,-0.0011239084415137768,0.0003015785478055477,-0.0013016043230891228
1746728907978948000,0.739947998046875,-0.00008990708738565445,-0.0008414578624069691,-0.0014496375806629658
1746728907988966100,0.749966064453125,0.0004933252930641174,0.00031248945742845535,-0.002135933842509985
1746728907998984200,0.759984130859375,-0.00023511284962296486,-0.0016675656661391258,-0.00008574733510613441
1746728908009002200,0.770002197265625,-0.0011070319451391697,0.0019652522169053555,-0.0007597934454679489
1746728908019019000,0.78001904296875,0.00018856395035982132,0.0030075698159635067,-0.001020087394863367
1746728908029037300,0.790037353515625,-0.0008553951047360897,-0.000060125719755887985,0.0008846053387969732
1746728908039055000,0.80005517578125,-0.0007817386649549007,0.002639549784362316,0.00034052436240017414
1746728908049072400,0.810072265625,0.00022094137966632843,0.0017601745203137398,0.000372482230886817
1746728908059090200,0.820090087890625,-0.0006060940213501453,-0.0004381230100989342,0.00355987879447639
1746728908069108200,0.830108154296875,-0.0004673432558774948,0.0009336709044873714,0.00015129894018173218
1746728908079126000,0.8401259765625,-0.001086085569113493,0.0026877718046307564,-0.0013363601174205542
1746728908089143300,0.850143310546875,0.002569369040429592,0.00009704846888780594,0.0033366887364536524
1746728908099161000,0.8601611328125,0.004352479241788387,0.00409395107999444,0.00021266448311507702
1746728908109179100,0.87017919921875,0.0003795754164457321,0.0016361195594072342,-0.0027980392333120108
1746728908119197200,0.880197265625,-0.0008466839790344238,0.00022524455562233925,0.0003159870393574238
1746728908129214200,0.890214111328125,0.00028835562989115715,-0.0005140490829944611,-0.002626006957143545
1746728908139232300,0.900232177734375,0.0005756798200309277,0.00027562957257032394,0.0019073218572884798
1746728908149250300,0.910250244140625,0.0015250968281179667,-0.0009273202158510685,0.003845570608973503
1746728908159267000,0.92026708984375,-0.00018730945885181427,-0.0015089623630046844,0.0006077410653233528
1746728908169285400,0.930285400390625,0.000031336210668087006,-0.0003957613371312618,-0.0006700437515974045
1746728908179303200,0.94030322265625,-0.00017346767708659172,-0.00302020157687366,-0.001471992814913392
1746728908189321200,0.9503212890625,0.00405110465362668,-0.000049711670726537704,0.0006207190454006195
1746728908199338200,0.960338134765625,0.0012529143132269382,-0.0008283499628305435,-0.0009734320919960737
1746728908209356300,0.970356201171875,-0.0010371380485594273,0.0005647493526339531,0.0005925064906477928
1746728908219374000,0.9803740234375,-0.001330445520579815,-0.001109123695641756,-0.002541112480685115
1746728908229392400,0.990392333984375,0.0006906273774802685,-0.0002971254289150238,-0.002802634844556451
1746728908239409200,1.0004091796875,0.00033601047471165657,0.0005781548097729683,-0.0010132063180208206
1746728908249427200,1.01042724609375,0.0012281693052500486,0.0007952023297548294,0.0002986667677760124
1746728908259445200,1.0204453125,-0.0006207451224327087,-0.0006219400092959404,0.00032891915179789066
1746728908269463300,1.03046337890625,-0.0005147513002157211,-0.0017058467492461205,-0.0018791079055517912
1746728908279480300,1.040480224609375,-0.0003212587907910347,0.0009338823147118092,0.0019404401537030935
1746728908289498000,1.050498046875,-0.0005787862464785576,-0.0019479242619127035,0.00015985057689249516
1746728908299516200,1.06051611328125,0.0002269204705953598,-0.0010438687168061733,0.0012473231181502342
1746728908309533200,1.070533203125,0.0015553052071481943,0.0014853356406092644,-0.00045523582957684994
1746728908319551200,1.08055126953125,0.0007238336838781834,-0.0019455167930573225,-0.0010547994170337915
1746728908329569000,1.090569091796875,-0.00003223773092031479,0.0006747674196958542,-0.00008327839896082878
1746728908339587300,1.10058740234375,-0.0010700789280235767,0.000779423862695694,-0.0007664337754249573
1746728908349604000,1.11060400390625,0.0019267760217189789,0.0005855453200638294,0.0009992420673370361
1746728908359622100,1.1206220703125,-0.0016959910281002522,-0.00040383124724030495,0.0004064172971993685
1746728908369640200,1.13064013671875,0.0005232212133705616,-0.0004246039316058159,0.0011382539523765445
1746728908379658200,1.140658203125,0.000584600493311882,-0.0006134305149316788,0.00022582756355404854
1746728908389675300,1.15067529296875,-0.000498507171869278,-0.00032208068296313286,0.0011115949600934982
1746728908399693300,1.160693359375,-0.001780033577233553,-0.0007054023444652557,0.000118655851110816
1746728908409711000,1.170711181640625,0.0008144178427755833,-0.0009402930736541748,-0.00037402892485260963
1746728908419729200,1.180729248046875,-0.001507163979113102,-0.0005802270025014877,0.001369025558233261
1746728908429746200,1.19074609375,0.0012931497767567635,-0.00045638997107744217,-0.001796940341591835
1746728908439764200,1.20076416015625,-0.0009130001999437809,0.0013072765432298183,0.0015325328567996621
1746728908449782000,1.210781982421875,-0.00003175996243953705,0.0016377749852836132,-0.0002810799051076174
1746728908459799300,1.22079931640625,0.0009044758044183254,-0.0007620682008564472,-0.0024200379848480225
1746728908469817000,1.230817138671875,0.002036851830780506,-0.00010772934183478355,-0.0011012405157089233
1746728908479835400,1.24083544921875,0.00011558551341295242,0.0019064764492213726,-0.0019243757706135511
1746728908489853200,1.250853271484375,-0.00008441787213087082,-0.0015700142830610275,-0.0009528545197099447
1746728908499870200,1.2608701171875,-0.0006710388697683811,0.00009208358824253082,0.0005398404318839312
1746728908509888300,1.27088818359375,0.0011787926778197289,0.0012875762768089771,-0.0008324864320456982
1746728908519906300,1.28090625,0.00039927614852786064,0.002189408987760544,0.00011919275857508183
1746728908529924000,1.290924072265625,0.0017854515463113785,0.0007315948605537415,-0.001567653613165021
1746728908539941000,1.300941162109375,0.0003053518012166023,-0.0019371001981198788,0.0018140244064852595
1746728908549959200,1.310959228515625,-0.0024052136577665806,-0.0010388162918388844,-0.0012997437734156847
1746728908559977200,1.320977294921875,-0.0002584005706012249,0.0010985094122588634,0.0007637960370630026
1746728908569994200,1.330994140625,-0.0005446905270218849,0.00043245311826467514,0.002243980998173356
1746728908580012000,1.341011962890625,-0.0003374009393155575,0.0015924815088510513,0.002612105570733547
1746728908590030000,1.351030029296875,0.0002844473347067833,0.0005983235314488411,0.001951109035871923
1746728908600048400,1.36104833984375,-0.001024467870593071,-0.00016475515440106392,0.0037098154425621033
1746728908610065200,1.371065185546875,0.001081826165318489,-0.000618823803961277,0.0012405323795974255
1746728908620083200,1.381083251953125,0.001364783849567175,0.00006935745477676392,0.00131163839250803
1746728908630101200,1.391101318359375,0.0010638467501848936,0.0009742993861436844,-0.00019544456154108047
1746728908640119000,1.401119140625,0.0010388689115643501,-0.00024550966918468475,-0.0008943357970565557
1746728908650136600,1.411136474609375,-0.00007885973900556564,-0.001525957603007555,-0.0008602472953498363
1746728908660154400,1.421154296875,-0.0003361087292432785,-0.0007377848960459232,0.001363328075967729
1746728908670172400,1.43117236328125,0.000022885389626026154,-0.0008307294920086861,0.0007193756755441427
1746728908680189400,1.441189453125,0.0006163185462355614,0.0020048939622938633,0.0030142702162265778
1746728908690207200,1.451207275390625,0.0010845025535672903,-0.0001373528502881527,0.0002504417207092047
1746728908700225300,1.461225341796875,-0.00014467816799879074,0.0011547408066689968,0.00014337385073304176
1746728908710243600,1.47124365234375,0.0007821018807590008,-0.00005886191502213478,-0.0025144610553979874
1746728908720260400,1.48126025390625,0.001131316414102912,-0.0007559666410088539,0.00034260377287864685
1746728908730278100,1.491278076171875,-0.001728918869048357,-0.0012694243341684341,-0.0016931165009737015
1746728908740296400,1.50129638671875,-0.0019650557078421116,-0.0006585875526070595,-0.00103161227889359
1746728908750314500,1.511314453125,-0.0011956687085330486,0.0006692647002637386,-0.002072375500574708
1746728908760331500,1.52133154296875,-0.0006437008269131184,0.0005467617884278297,-0.0008021844550967216
1746728908770349300,1.531349365234375,-0.0008231978863477707,0.0009425072930753231,0.0005959749687463045
1746728908780367400,1.541367431640625,0.0006515504792332649,-0.0004884800873696804,-0.0033238630276173353
1746728908790384400,1.55138427734375,0.0011945688165724277,0.00046999193727970123,-0.0012870777864009142
1746728908800402400,1.56140234375,0.00043546780943870544,0.0010257391259074211,0.0011567738838493824
1746728908810420200,1.571420166015625,0.0008908682502806187,-0.0009615113958716393,-0.00323557760566473
1746728908820438300,1.581438232421875,-0.0009856084361672401,0.000629717018455267,-0.0026221061125397682
1746728908830455300,1.591455322265625,0.002177161630243063,0.0018262751400470734,0.00019471952691674232
1746728908840473300,1.601473388671875,-0.00010103592649102211,-0.0009958664886653423,-0.0005935970693826675
1746728908850491400,1.611491455078125,0.0008734147995710373,-0.00014764955267310143,0.00020082388073205948
1746728908860509400,1.621509521484375,-0.0005315584130585194,-0.0010581458918750286,0.0005466965958476067
1746728908870526200,1.631526123046875,0.0006554126739501953,0.0015887701883912086,0.00006120232865214348
1746728908880544500,1.64154443359375,-0.0018823863938450813,-0.0015108115039765835,0.0033397087827324867
1746728908890562300,1.651562255859375,-0.0017652069218456745,0.0022580944932997227,-0.0009985803626477718
1746728908900579300,1.661579345703125,0.0007733302190899849,-0.0007350905798375607,-0.0017817751504480839
1746728908910597400,1.671597412109375,0.0012303288094699383,0.0016681458801031113,0.0017410542350262403
1746728908920615400,1.681615478515625,-0.0010719732381403446,-0.0019066124223172665,0.0008265040814876556
1746728908930633200,1.69163330078125,0.0009879819117486477,-0.00009113550186157227,0.000030485214665532112
1746728908940650500,1.701650390625,0.0009412441868335009,-0.0003967098891735077,0.001923903706483543
1746728908950668300,1.711668212890625,0.0011215400882065296,-0.0010097697377204895,-0.0028783082962036133
1746728908960686300,1.721686279296875,-0.0006807846948504448,-0.0007424233481287956,0.001972375437617302
1746728908970704400,1.731704345703125,-0.0007700002752244473,-0.001960020512342453,0.0005944559816271067
1746728908980721400,1.741721435546875,-0.0019089109264314175,-0.0018200743943452835,-0.0042693959549069405
1746728908990739500,1.751739501953125,0.001281555974856019,0.000956270843744278,-0.0017156905960291624
1746728909000757500,1.761757568359375,0.0007904716767370701,-0.001106130424886942,-0.0008016559295356274
1746728909010775300,1.771775390625,0.001197668956592679,-0.001344216987490654,-0.0011486655566841364
1746728909020792300,1.781792236328125,0.0023617849219590425,0.0009457245469093323,-0.0014540916308760643
1746728909030810400,1.791810302734375,-0.0004869983531534672,-0.0004297983832657337,0.001992305275052786
1746728909040828400,1.801828369140625,-0.0014954921789467335,0.0017365384846925735,0.0006921717431396246
1746728909050845400,1.811845458984375,-0.0022568898275494576,0.0005652802065014839,0.0010556932538747787
1746728909060863200,1.82186328125,0.0007743001915514469,-0.000543154776096344,0.0008325816597789526
1746728909070881300,1.83188134765625,0.0017191898077726364,-0.00006618257611989975,0.0005161981098353863
1746728909080899300,1.8418994140625,0.0009201259817928076,0.0011536208912730217,0.002457302762195468
1746728909090916400,1.851916259765625,-0.0011331713758409023,0.0006795781664550304,-0.0008186516351997852
1746728909100934100,1.86193408203125,-0.0019869529642164707,0.0008278181776404381,0.0013990170555189252
1746728909110952400,1.871952392578125,-0.0020095896907150745,-0.0017738239839673042,-0.00013389857485890388
1746728909120970200,1.88197021484375,-0.001322634518146515,0.0008625504560768604,0.0006059287115931511
1746728909130987500,1.891987548828125,-0.0009332802146673203,-0.001461324281990528,-0.001496636774390936
1746728909141005300,1.90200537109375,0.00026685139164328575,-0.00018487637862563133,-0.0016921318601816893
1746728909151023400,1.9120234375,0.0021582285407930613,-0.000294598750770092,0.0011822180822491646
1746728909161040400,1.922040283203125,-0.0006283177062869072,0.0009464011527597904,-0.00041191792115569115
1746728909171058400,1.932058349609375,-0.000055738259106874466,-0.00048211822286248207,-0.0002502638380974531
1746728909181076200,1.942076171875,-0.0004874509759247303,0.0001980038359761238,0.0035305283963680267
1746728909191094300,1.95209423828125,-0.00007386179640889168,0.0008861646056175232,-0.0017635694239288568
1746728909201111300,1.962111328125,0.0008584237657487392,0.00017896993085741997,0.001028338447213173
1746728909211129300,1.97212939453125,0.0006943731568753719,0.0005353009328246117,0.00029650190845131874
1746728909221147400,1.9821474609375,-0.00041459454223513603,-0.0012647234834730625,0.0010251861531287432
1746728909231164400,1.992164306640625,-0.002555510029196739,0.0019585005939006805,0.0006712521426379681
1746728909241182200,2.00218212890625,0.00026649050414562225,-0.0006801425479352474,-0.0010702067520469427
1746728909251200500,2.012200439453125,-0.0006035640835762024,-0.000496916938573122,-0.0017530412878841162
1746728909261218300,2.02221826171875,-0.0029236930422484875,-0.0009015710093080997,0.0010228883475065231
1746728909271235600,2.032235595703125,-0.0008514872752130032,-0.0010176850482821465,-0.0012173629365861416
1746728909281253400,2.04225341796875,0.0012381179258227348,-0.0025292180944234133,-0.0009083813056349754
1746728909291271400,2.052271484375,-0.0005802884697914124,-0.0010849861428141594,0.0013441202463582158
1746728909301289200,2.062289306640625,0.0006101680919528008,-0.000494672916829586,0.0009710784070193768
1746728909311306200,2.07230615234375,0.0017635829281061888,-0.00048188958317041397,0.0008557636756449938
1746728909321324300,2.08232421875,0.0003454843536019325,-0.001348918303847313,-0.004817222710698843
1746728909331342300,2.09234228515625,-0.0005402830429375172,-0.0007201461121439934,0.0022089951671659946
1746728909341360400,2.1023603515625,0.0007099946960806847,-0.0001413128338754177,-0.001562340883538127
1746728909351377200,2.112377197265625,0.00019573792815208435,-0.0005501080304384232,0.0003908213693648577
1746728909361395500,2.1223955078125,0.0005268161185085773,0.0005737538449466228,-0.003043321194127202
1746728909371413500,2.13241357421875,0.0010727639310061932,0.00023899460211396217,-0.0027027030009776354
1746728909381430300,2.14243017578125,0.0005645956844091415,0.00040983082726597786,-0.00009742099791765213
1746728909391448300,2.1524482421875,-0.0007624574936926365,0.000383731909096241,0.0014533376088365912
1746728909401466400,2.16246630859375,-0.0013531087897717953,0.00019529415294528008,-0.0004057534970343113
1746728909411484200,2.172484130859375,0.000038392841815948486,-0.0009181736968457699,-0.0013407894875854254
1746728909421501400,2.18250146484375,-0.0009740246459841728,-0.00012436648830771446,0.000855577876791358
1746728909431519200,2.192519287109375,0.00013251882046461105,0.0007424922659993172,0.0018617201130837202
1746728909441537300,2.202537353515625,0.000009655021131038666,-0.0007026232779026031,0.0020805473905056715
1746728909451555300,2.212555419921875,0.00003309082239866257,0.00143722677603364,-0.0025677341036498547
1746728909461572400,2.222572265625,0.00030543748289346695,0.0006430791690945625,0.0018825501902028918
1746728909471590400,2.23259033203125,-0.001012294553220272,0.0011368291452527046,-0.0014621135778725147
1746728909481608400,2.2426083984375,0.00025182822719216347,-0.0005519846454262733,0.0010579568333923817
1746728909491625200,2.252625244140625,-0.00001661805436015129,-0.0019000766333192587,-0.000502921873703599
1746728909501643500,2.2626435546875,-0.0016452907584607601,0.0005686250515282154,-0.0033208769746124744
1746728909511661300,2.272661376953125,0.0006626048125326633,0.0006301440298557281,-0.0019842367619276047
1746728909521679400,2.282679443359375,0.00037782080471515656,-0.0015550260432064533,0.0008915497455745935
1746728909531696400,2.2926962890625,-0.0017295381985604763,-0.0019478423055261374,-0.0004203233402222395
1746728909541714400,2.30271435546875,0.0008524118456989527,-0.0002463175915181637,-0.0008011828176677227
1746728909551732200,2.312732177734375,-0.0008541415445506573,0.00032839225605130196,0.0011935248039662838
1746728909561750500,2.32275048828125,0.000013064593076705933,0.0004024510271847248,0.000059243058785796165
1746728909571767300,2.332767333984375,0.0015254737809300423,-0.0012162183411419392,0.0008406145498156548
1746728909581785300,2.342785400390625,0.0010946167167276144,-0.0023869231808930635,-0.00016829604282975197
1746728909591803400,2.352803466796875,0.0008461438119411469,0.0009462893940508366,0.0018437220714986324
1746728909601820400,2.3628203125,-0.0010431278496980667,-0.0007540774531662464,0.00210394524037838
1746728909611838500,2.37283837890625,-0.0001509692519903183,0.0015056147240102291,-0.00016666599549353123
1746728909621856500,2.3828564453125,0.000739511102437973,0.0012428625486791134,0.00014789355918765068
1746728909631874300,2.392874267578125,-0.00005624163895845413,-0.00019844062626361847,-0.0005802146624773741
1746728909641891300,2.402891357421875,0.00029769865795969963,0.0011078175157308578,0.0008540384005755186
1746728909651908900,2.412908935546875,-0.0006650337018072605,0.0001757112331688404,-0.0006165590602904558
1746728909661926700,2.4229267578125,0.0018244977109134197,-0.0013051130808889866,-0.00041259010322391987
1746728909671945000,2.432945068359375,0.0016489953268319368,-0.0006118924356997013,0.0012644025264307857
1746728909681961700,2.442961669921875,0.0010670952033251524,-0.0005188928917050362,0.0023350550327450037
1746728909691979800,2.452979736328125,0.000208225566893816,-0.0019830986857414246,-0.002835738705471158
1746728909701997800,2.462997802734375,0.0006007594056427479,0.001458772923797369,-0.002375927520915866
1746728909712014800,2.473014892578125,-0.0012093912810087204,0.000700837466865778,0.0006377056706696749
1746728909722033000,2.483032958984375,-0.0015892419032752514,0.0009576184675097466,-0.0006930588278919458
1746728909732051000,2.493051025390625,-0.0006763101555407047,-0.0016943574883043766,0.0002710055559873581
1746728909742068700,2.50306884765625,-0.0019067060202360153,0.0011324547231197357,-0.002160316100344062
1746728909752086000,2.5130859375,-0.0006371769122779369,-0.0006191059947013855,0.00010816450230777264
1746728909762103800,2.523103759765625,-0.00013631954789161682,-0.0008233319967985153,0.0030998557340353727
1746728909772121900,2.533121826171875,-0.0013443296775221825,-0.0012278659269213676,-0.0017548208124935627
1746728909782140000,2.543139892578125,-0.0010464228689670563,0.0004495559260249138,-0.0005997598636895418
1746728909792156700,2.55315673828125,-0.0009827730245888233,-0.0003656377084553242,-0.00024555926211178303
1746728909802174700,2.5631748046875,0.0017197038978338242,-0.0007757539860904217,-0.002585766138508916
1746728909812193000,2.573193115234375,-0.000616154633462429,-0.00005909707397222519,-0.0008600379806011915
1746728909822209800,2.583209716796875,-0.0006248303689062595,0.0005576787516474724,0.0002484449651092291
1746728909832227600,2.5932275390625,-0.0009776991792023182,0.00033743539825081825,-0.0005337253678590059
1746728909842246000,2.603245849609375,0.00011980347335338593,-0.0008275373838841915,0.002891075098887086
1746728909852264000,2.613263916015625,0.0014338071923702955,0.0007003182545304298,0.0007019569166004658
1746728909862281000,2.623281005859375,0.00006794324144721031,0.0013364395126700401,-0.0004078224301338196
1746728909872298800,2.633298828125,-0.0008660275489091873,-0.0001373537816107273,-0.00006454088725149632
1746728909882316800,2.64331689453125,0.0017662998288869858,0.002378169447183609,-0.00038271606899797916
1746728909892333800,2.653333740234375,0.00017159897834062576,-0.00012120697647333145,-0.0010122873354703188
1746728909902352000,2.663351806640625,-0.0001461566425859928,-0.0013086888939142227,-0.0013475590385496616
1746728909912369700,2.67336962890625,0.00022082682698965073,-0.0021648951806128025,-0.0001595227513462305
1746728909922387700,2.6833876953125,-0.0016638478264212608,0.0029438016936182976,-0.0002762482035905123
1746728909932404700,2.69340478515625,-0.0008641006425023079,-0.0016402979381382465,0.0013253767974674702
1746728909942422800,2.7034228515625,0.00022544106468558311,0.0012189443223178387,0.0016623435076326132
1746728909952440800,2.71344091796875,-0.0010174564085900784,-0.0000769495964050293,-0.002115350216627121
1746728909962459000,2.723458984375,-0.0012194444425404072,0.0008734329603612423,-0.0006084833294153214
1746728909972475600,2.7334755859375,0.00035501644015312195,-0.0003036842681467533,-0.0005288547836244106
1746728909982494000,2.743493896484375,-0.0017231358215212822,0.0008752536959946156,-0.00019442709162831306
1746728909992511700,2.75351171875,-0.0017186086624860764,0.0004704529419541359,0.002152882982045412
1746728910002529000,2.763529052734375,0.0006119692698121071,-0.0006682071834802628,0.0004889925476163626
1746728910012546800,2.773546875,-0.0011704843491315842,-0.0007142797112464905,0.0024591991677880287
1746728910022564900,2.78356494140625,0.0017099983524531126,-0.00005661137402057648,0.0011109842453151941
1746728910032582700,2.793582763671875,-0.0013739420101046562,-0.0009825928136706352,-0.0013228785246610641
1746728910042600000,2.803599853515625,-0.001010605599731207,0.00023926887661218643,0.0036995999980717897
1746728910052617700,2.81361767578125,0.00042430590838193893,-0.0009612836875021458,-0.0004445449449121952
1746728910062635800,2.8236357421875,0.0009310231544077396,0.00010647950693964958,0.00018954859115183353
1746728910072653800,2.83365380859375,-0.001016280148178339,0.0014745453372597694,0.0013165982672944665
1746728910082670800,2.8436708984375,0.0006909300573170185,-0.0005507795140147209,0.002404799684882164
1746728910092689000,2.85368896484375,-0.00014077499508857727,-0.00029644789174199104,-0.00008205999620258808
1746728910102707000,2.86370703125,0.0009664511308073997,-0.0017528478056192398,0.001772219780832529
1746728910112723700,2.8737236328125,-0.00006472505629062653,0.00069859204813838,0.0017996503738686442
1746728910122741800,2.88374169921875,0.0001589357852935791,0.0014841812662780285,0.0013026773231104016
1746728910132759800,2.893759765625,0.0009110125247389078,-0.0008258447051048279,-0.00019029085524380207
1746728910142777900,2.90377783203125,-0.00047141360118985176,0.001465588342398405,-0.0005714029539376497
1746728910152795000,2.913794921875,0.001136336475610733,0.0008003306575119495,0.00003686314448714256
1746728910162812700,2.923812744140625,-0.0010677562095224857,-0.000557389110326767,-0.00006963498890399933
1746728910172830700,2.933830810546875,-0.0022070561535656452,0.000008266419172286987,0.0023037742357701063
1746728910182849000,2.94384912109375,0.0002859807573258877,0.0008047525770962238,-0.0000762278214097023
1746728910192865800,2.95386572265625,0.0018884046003222466,-0.0014690542593598366,-0.001048015197739005
1746728910202883800,2.9638837890625,-0.0003925655037164688,-0.002142374636605382,0.0011122385039925575
1746728910212902000,2.97390185546875,-0.0017198850400745869,-0.0010142596438527107,-0.0010150945745408535
1746728910222918700,2.983918701171875,-0.0013197599910199642,-0.0005591725930571556,0.000002066371962428093
1746728910232937000,2.99393701171875,0.0008294107392430305,-0.0008174995891749859,0.0006556061562150717
1746728910242954800,3.003954833984375,-0.0012427601031959057,-0.0009414972737431526,-0.0007459542248398066
1746728910252972800,3.013972900390625,-0.002990859095007181,-0.002041382947936654,-0.002692725043743849
1746728910262989800,3.02398974609375,0.0005289153195917606,0.0002486906014382839,0.002386086620390415
1746728910273007900,3.0340078125,-0.0010226424783468246,-0.0009409436024725437,0.0023173769004642963
1746728910283025700,3.044025634765625,-0.00007962668314576149,0.001833244226872921,0.0017739732284098864
1746728910293044000,3.0540439453125,0.0006567372474819422,0.0007157819345593452,0.000020814361050724983
1746728910303060700,3.064060791015625,0.0012899977155029774,0.0013615228235721588,-0.0009271928574889898
1746728910313078800,3.074078857421875,-0.003366006538271904,0.0017751115374267101,-0.0011224027257412672
1746728910323096800,3.084096923828125,-0.00024363910779356956,0.0008524316363036633,-0.002622693544253707
1746728910333113900,3.09411376953125,0.00002054637297987938,0.0001940978690981865,-0.001801640959456563
1746728910343132000,3.1041318359375,0.0009368595201522112,-0.0009492435492575169,-0.00008323020301759243
1746728910353150000,3.11414990234375,0.000859095249325037,0.0013626469299197197,-0.003455590922385454
1746728910363167700,3.124167724609375,-0.0010390561074018478,0.00023266300559043884,0.0010968248825520277
1746728910373185000,3.13418505859375,-0.0010973792523145676,0.0010670316405594349,-0.0012749861925840378
1746728910383202800,3.144202880859375,-0.0019715921953320503,0.0034375456161797047,-0.00040347129106521606
1746728910393220900,3.154220947265625,-0.0009020664729177952,0.0006121979095041752,-0.000023970846086740494
1746728910403238000,3.16423779296875,0.0014405837282538414,0.00412573479115963,0.001073386985808611
1746728910413256000,3.174255859375,0.00043790368363261223,-0.0010586408898234367,0.0007135937921702862
1746728910423273700,3.184273681640625,0.0004522651433944702,0.00019046058878302574,0.0010245628654956818
1746728910433292000,3.1942919921875,-0.0004071369767189026,-0.0004329853691160679,-0.002586150774732232
1746728910443308800,3.204308837890625,-0.0010223663412034512,0.0004971884191036224,-0.0016094958409667015
1746728910453326600,3.21432666015625,-0.0011994666419923306,0.0015651159919798374,0.0009490032680332661
1746728910463345000,3.224344970703125,0.0014130810741335154,0.0012329509481787682,-0.0003678831271827221
1746728910473363000,3.234363037109375,-0.0010796375572681427,0.002116055693477392,-0.000530868535861373
1746728910483380000,3.2443798828125,-0.000892244279384613,0.000336233526468277,-0.0005616145208477974
1746728910493397800,3.254397705078125,-0.00005228351801633835,-0.00018920842558145523,0.0001933916937559843
1746728910503415800,3.264415771484375,0.0006500051822513342,0.00041070347651839256,-0.0011437868233770132
1746728910513432800,3.274432861328125,-0.003251259680837393,-0.002630892675369978,-0.0011632281821221113
1746728910523451000,3.284450927734375,-0.0025268462486565113,0.0003622816875576973,0.0006046555936336517
1746728910533468700,3.29446875,0.00013045594096183777,-0.0002241460606455803,0.00004406017251312733
1746728910543486700,3.30448681640625,0.003569318214431405,-0.0006289379671216011,0.00012019509449601173
1746728910553503700,3.314503662109375,-0.0020249178633093834,0.00022993143647909164,0.0015077019343152642
1746728910563521800,3.324521728515625,-0.000905641820281744,0.0005161170847713947,0.0015865913592278957
1746728910573539800,3.334539794921875,-0.00019271345809102058,-0.00034701358526945114,0.0006126733496785164
1746728910583558000,3.344557861328125,0.00015945779159665108,0.0008468176238238811,-0.0016796945128589869
1746728910593574700,3.35457470703125,-0.0004389542154967785,-0.0005356292240321636,0.000677469652146101
1746728910603593000,3.364593017578125,0.000540535431355238,0.0001671486534178257,0.00001288275234401226
1746728910613610800,3.37461083984375,0.00018287263810634613,-0.00021608034148812294,-0.002157060895115137
1746728910623627800,3.384627685546875,0.0028468959499150515,-0.00012004142627120018,-0.0024302552919834852
1746728910633645800,3.394645751953125,0.0018740431405603886,0.0018994337879121304,0.00040521216578781605
1746728910643664000,3.404663818359375,0.0003790091723203659,-0.001032501459121704,-0.0005142791196703911
1746728910653682700,3.4146826171875,-0.0005560265854001045,0.0016461056657135487,0.0011294239666312933
1746728910663699700,3.42469970703125,-0.00022520264610648155,0.001521899364888668,0.001620300579816103
1746728910673717800,3.4347177734375,-0.0015802192501723766,-0.0009883963502943516,-0.00023139547556638718
1746728910683735600,3.444735595703125,-0.000401156023144722,0.0009443224407732487,0.0013963831588625908
1746728910693752800,3.4547529296875,-0.0009630830027163029,-0.00041628675535321236,-0.00043001282028853893
1746728910703770600,3.4647705078125,-0.0012251459993422031,-0.00000821426510810852,-0.0005332345608621836
1746728910713788700,3.47478857421875,-0.0006949105300009251,-0.0014623003080487251,0.0011658621951937675
1746728910723806700,3.484806640625,0.0017492212355136871,0.002467081416398287,-0.0037016342394053936
1746728910733823700,3.49482373046875,-0.002233003731817007,-0.0018669464625418186,0.0014172274386510253
1746728910743841500,3.504841552734375,0.000336209312081337,0.0010657706297934055,0.000422418350353837
1746728910753859800,3.51485986328125,-0.0009125471115112305,0.00031342776492238045,-0.0013869334943592548
1746728910763877600,3.524877685546875,-0.0008580610156059265,-0.000020287465304136276,0.0001542877871543169
1746728910773895000,3.53489501953125,0.0014628840144723654,0.00014562765136361122,0.0006933116819709539
1746728910783912700,3.54491259765625,-0.0006046663038432598,-0.00015801610425114632,0.0016967859119176865
1746728910793930800,3.5549306640625,-0.0012315744534134865,0.0007506543770432472,0.0017258144216611981
1746728910803947800,3.56494775390625,0.0004399046301841736,0.00028046639636158943,0.0013645198196172714
1746728910813965800,3.5749658203125,-0.001511925831437111,0.0002442477270960808,0.002018059603869915
1746728910823983600,3.584983642578125,0.0011315266601741314,-0.0018372377380728722,-0.00009417184628546238
1746728910834001700,3.595001708984375,-0.0011377530172467232,0.0006749220192432404,-0.0013234869111329317
1746728910844018700,3.605018798828125,0.0019442089833319187,-0.0016996669583022594,-0.00031152553856372833
1746728910854036700,3.61503662109375,-0.000560760498046875,0.0005951789207756519,-0.002095310715958476
1746728910864054800,3.6250546875,-0.00166038004681468,-0.0009453115053474903,-0.0015436382964253426
1746728910874072800,3.63507275390625,-0.0016236286610364914,0.0004834742285311222,0.0010074034798890352
1746728910884089600,3.645089599609375,0.0008293809369206429,-0.0004959013313055038,0.001214627642184496
1746728910894107600,3.655107666015625,0.0013729322236031294,0.0008335486054420471,0.00015682028606534004
1746728910904125700,3.665125732421875,-0.001696910709142685,-0.00023283157497644424,-0.000020835548639297485
1746728910914142700,3.675142822265625,-0.0007874411530792713,0.000505396630614996,-0.00036784540861845016
1746728910924160800,3.685160888671875,-0.0011453982442617416,-0.00043221935629844666,0.00011211377568542957
1746728910934178600,3.695178466796875,0.000321204774081707,-0.0004338170401751995,0.0019124106038361788
1746728910944196600,3.705196533203125,0.0012480274308472872,0.0001383814960718155,0.002993323840200901
1746728910954213600,3.715213623046875,-0.00024946825578808784,-0.0014355466701090336,0.0006436167750507593
1746728910964231700,3.725231689453125,0.00010298378765583038,-0.0004360368475317955,0.00014609890058636665
1746728910974249700,3.735249755859375,-0.00029462622478604317,0.001818062737584114,0.0008196122944355011
1746728910984266800,3.745266845703125,-0.000606943853199482,-0.0005025733262300491,0.0006587991956621408
1746728910994284500,3.755284423828125,0.0005035940557718277,0.00013152556493878365,0.0007557382341474295
1746728911004302800,3.765302734375,0.0006331754848361015,-0.00047186296433210373,-0.0005010347813367844
1746728911014320600,3.775320556640625,-0.0003740321844816208,-0.0003136713057756424,-0.0009559027384966612
1746728911024337700,3.785337646484375,0.0005267933011054993,0.0004304591566324234,-0.000101426150649786
1746728911034355700,3.795355712890625,-0.0007669702172279358,0.003238230012357235,-0.0013073054142296314
1746728911044373800,3.805373779296875,-0.0008854838088154793,-0.0004893336445093155,0.001170505303889513
1746728911054391600,3.8153916015625,-0.001843955833464861,0.0005415761843323708,0.00048367585986852646
1746728911064408800,3.825408935546875,-0.0007855072617530823,0.0010769302025437355,0.0004650745540857315
1746728911074426600,3.835426513671875,0.0015956251882016659,0.00025055138394236565,-0.0005301486235111952
1746728911084444700,3.845444580078125,0.0009372476488351822,0.0011915434151887894,-0.0011781442444771528
1746728911094461700,3.855461669921875,-0.0005549215711653233,-0.0020165005698800087,-0.00043778540566563606
1746728911104479700,3.865479736328125,0.0013208899181336164,-0.0005545057356357574,-0.00016100425273180008
1746728911114497500,3.87549755859375,-0.00189940445125103,0.00043911999091506004,0.0006821525748819113
1746728911124515800,3.885515869140625,-0.0004250812344253063,-0.0016049928963184357,0.0012141892220824957
1746728911134532600,3.89553271484375,0.00026787351816892624,0.001409971620887518,-0.0012468378990888596
1746728911144551000,3.905551025390625,0.0008677532896399498,-0.00016988394781947136,-0.0001817508600652218
1746728911154568700,3.915568603515625,-0.0005764788947999477,-0.0003222166560590267,0.0009687347337603569
1746728911164586800,3.925586669921875,-0.0004347627982497215,0.0008334079757332802,-0.0013225257862359285
1746728911174603800,3.935603759765625,-0.00041638733819127083,0.000060292426496744156,0.00002316967584192753
1746728911184621600,3.94562158203125,-0.00002741161733865738,-0.00040572648867964745,-0.0004931562580168247
1746728911194639600,3.9556396484375,-0.001129427459090948,0.0017415801994502544,0.0016171325696632266
1746728911204656600,3.96565673828125,-0.0004308917559683323,0.0000593867152929306,0.0020713373087346554
1746728911214674700,3.9756748046875,0.0004905620589852333,-0.001793640898540616,0.00006810761988162994
1746728911224692500,3.9856923828125,-0.0020388038828969,-0.0009646597318351269,0.0012501007877290249
1746728911234710800,3.995710693359375,0.0006901375018060207,-0.0005289665423333645,0.00018883123993873596
1746728911244727600,4.0057275390625,-0.0010982328094542027,0.00014565419405698776,-0.0021850750781595707
1746728911254745600,4.01574560546875,-0.0018577659502625465,-0.002764382166787982,0.000016560079529881477
1746728911264763600,4.025763671875,0.0025023899506777525,0.0008152006193995476,0.00011642114259302616
1746728911274780700,4.03578076171875,-0.0011802292428910732,-0.000860992819070816,-0.0004473698791116476
1746728911284798700,4.045798828125,-0.002388215623795986,0.0008913008496165276,-0.0020165496971458197
1746728911294816800,4.055816650390625,-0.0016949945129454136,0.0009304494597017765,-0.0023052364122122526
1746728911304834600,4.06583447265625,-0.0006366278976202011,0.0002862224355340004,-0.000442802207544446
1746728911314851800,4.075851806640625,0.0008060066029429436,-0.00012363819405436516,-0.0009530636016279459
1746728911324869600,4.08586962890625,0.0018883345182985067,0.0013525611720979214,0.0007604195270687342
1746728911334887700,4.0958876953125,-0.0012869522906839848,-0.0005523976869881153,0.00039210449904203415
1746728911344905700,4.10590576171875,-0.0022564842365682125,-0.00043083587661385536,-0.0005888626910746098
1746728911354922800,4.1159228515625,-0.0006583216600120068,0.002614222001284361,-0.0014168394263833761
1746728911364940500,4.1259404296875,0.0027057628612965345,0.0007315720431506634,-0.0008837708737701178
1746728911374958800,4.135958740234375,0.0006050616502761841,-0.0006364937871694565,-0.0017069538589566946
1746728911384975600,4.1459755859375,0.001106856856495142,-0.0006435113027691841,-0.0010822780895978212
1746728911394993700,4.15599365234375,-0.0002340446226298809,0.002749089617282152,-0.0004694848321378231
1746728911405011700,4.16601171875,-0.00046002399176359177,0.0013664080761373043,0.0035733990371227264
1746728911415029800,4.17602978515625,-0.0010496480390429497,0.0006630672141909599,0.0003339299000799656
1746728911425046800,4.186046875,-0.0025447076186537743,-0.000524668488651514,-0.00023242575116455555
1746728911435064800,4.19606494140625,0.0006018173880875111,-0.0015638340264558792,-0.0002902164123952389
1746728911445082600,4.20608251953125,-0.0031905430369079113,0.0010916003957390785,0.0019403663463890553
1746728911455100700,4.2161005859375,0.0009794346988201141,-0.00022799568250775337,-0.0012426436878740788
1746728911465117700,4.22611767578125,-0.00011338014155626297,-0.0001611867919564247,-0.00013872585259377956
1746728911475135700,4.2361357421875,-0.0012249834835529327,0.0002848925068974495,-0.00395343778654933
1746728911485153800,4.24615380859375,0.00014576874673366547,-0.0001417216844856739,-0.00022024079225957394
1746728911495170600,4.256170654296875,-0.00043373508378863335,0.001967235468327999,0.002591524738818407
1746728911505188600,4.266188720703125,0.0005203168839216232,0.001106268260627985,-0.000432055676355958
1746728911515206700,4.27620654296875,0.0012417673133313656,0.0015920288860797882,-0.0025553940795361996
1746728911525224700,4.286224609375,0.0004877285100519657,-0.00040383683517575264,-0.0015544518828392029
1746728911535241700,4.29624169921875,0.0005519106052815914,-0.0001897183246910572,-0.002001596614718437
1746728911545259800,4.306259765625,0.0004889634437859058,-0.001649866346269846,0.000249441247433424
1746728911555277600,4.316277587890625,0.00016592210158705711,-0.0003856639377772808,0.0009376020170748234
1746728911565294800,4.326294921875,0.00021469919010996819,-0.0019184835255146027,0.0003835652023553848
1746728911575312600,4.336312744140625,0.0004400024190545082,0.0031782742589712143,-0.001027377787977457
1746728911585330700,4.34633056640625,-0.0010845158249139786,0.00014498084783554077,-0.0009926976636052132
1746728911595348500,4.356348388671875,-0.0010658740065991879,-0.001195387914776802,0.0027258743066340685
1746728911605365800,4.36636572265625,0.0019256696105003357,-0.002847341587767005,0.0015542219625785947
1746728911615383600,4.376383544921875,-0.000548939686268568,0.002388699445873499,-0.001518799690529704
1746728911625401900,4.38640185546875,0.000291227363049984,-0.0022665346041321754,-0.0003963238559663296
1746728911635419600,4.396419677734375,0.0009455657564103603,-0.00023108068853616714,-0.00025997008197009563
1746728911645436700,4.406436767578125,0.001366359880194068,-0.001148328185081482,0.0005486160516738892
1746728911655454200,4.4164541015625,0.0015115020796656609,-0.003001355566084385,0.002212026622146368
1746728911665472300,4.42647216796875,-0.0026585012674331665,-0.0007259389385581017,0.0007977886125445366
1746728911675489300,4.4364892578125,0.00003874814137816429,0.00010363571345806122,-0.001611573388800025
1746728911685507300,4.44650732421875,-0.0023047160357236862,-0.00018536578863859177,0.000502982409670949
1746728911695525000,4.456525146484375,0.0018641962669789791,-0.0007086768746376038,-0.0019889376126229763
1746728911705543200,4.466543212890625,-0.0010063047520816326,-0.0003518415614962578,-0.0012858461122959852
1746728911715560200,4.476560302734375,0.0007793447002768517,0.00027373479679226875,-0.000020578503608703613
1746728911725578200,4.486578125,-0.00020249560475349426,0.0011973083019256592,-0.0016589965671300888
1746728911735596300,4.49659619140625,0.0012707649730145931,0.0006060865707695484,-0.0017402227967977524
1746728911745613300,4.50661328125,-0.00015471642836928368,0.0014876867644488811,0.0002698320895433426
1746728911755631000,4.516631103515625,0.0007142731919884682,-0.0005871821194887161,-0.00006119883619248867
1746728911765649400,4.5266494140625,-0.0009167804382741451,-0.0001868712715804577,-0.0007515018805861473
1746728911775667200,4.536667236328125,0.0005631381645798683,-0.0000973888672888279,-0.001113159116357565
1746728911785684200,4.546684326171875,0.0013078551273792982,0.0009848806075751781,0.0014014680637046695
1746728911795702300,4.556702392578125,-0.0006048274226486683,0.0005465243011713028,-0.0005018929950892925
1746728911805720300,4.56672021484375,-0.0007675765082240105,0.00042431941255927086,0.0000877233687788248
1746728911815737300,4.5767373046875,-0.0007414775900542736,-0.0007514664903283119,-0.0003445078618824482
1746728911825755100,4.586755126953125,-0.0009618871845304966,-0.001705814152956009,-0.0012268363498151302
1746728911835773200,4.596773193359375,0.0004658335819840431,-0.00023308582603931427,-0.0011426801793277264
1746728911845791200,4.606791259765625,-0.0008634752593934536,-0.002415770199149847,0.0012008592020720243
1746728911855808300,4.616808349609375,0.0019003530032932758,0.0008159754797816277,0.0005539774429053068
1746728911865826000,4.626825927734375,-0.0006526890210807323,0.0008841543458402157,-0.0012734788469970226
1746728911875844400,4.63684423828125,-0.0007016910240054131,0.000796270091086626,0.0012400124687701464
1746728911885862400,4.6468623046875,0.0013144002296030521,-0.0015279497019946575,-0.0001577259972691536
1746728911895879200,4.656879150390625,-0.0004070671275258064,0.0003397250548005104,-0.0007105981931090355
1746728911905897200,4.666897216796875,0.0006614397279918194,-0.0036769539583474398,0.0009818770922720432
1746728911915915300,4.676915283203125,-0.0020941332913935184,0.00009727803990244865,0.0008127663750201464
1746728911925932300,4.686932373046875,0.00020045926794409752,-0.0007036053575575352,-0.0001874405425041914
1746728911935950300,4.696950439453125,0.00019060587510466576,0.0006426223553717136,0.001989161130040884
1746728911945968000,4.706968017578125,-0.0007887096144258976,-0.0014143702574074268,-0.0001988643780350685
1746728911955986200,4.716986083984375,-0.0010273284278810024,0.0006096321158111095,0.0014650786761194468
1746728911966003200,4.727003173828125,0.001599444542080164,-0.00023061968386173248,-0.00031630671583116055
1746728911976021200,4.737021240234375,-0.0003915349952876568,-0.0007022656500339508,-0.0021072826348245144
1746728911986039000,4.7470390625,-0.0003025508485734463,-0.0006613722071051598,0.00021264445967972279
1746728911996057300,4.757057373046875,0.0007952041923999786,0.0011538383550941944,0.00013914122246205807
1746728912006074000,4.76707421875,0.0015548053197562695,-0.00017656153067946434,-0.0005388353019952774
1746728912016092400,4.777092529296875,0.0008653127588331699,-0.001612271647900343,0.0007522650994360447
1746728912026110200,4.787110107421875,-0.00014762487262487411,0.0008962317369878292,-0.000910438597202301
1746728912036127200,4.797127197265625,0.001055058790370822,-0.0008289641700685024,-0.0007732859812676907
1746728912046145300,4.807145263671875,-0.00029625650495290756,0.0007421844638884068,-0.0003816166426986456
1746728912056163300,4.817163330078125,0.0006089522503316402,-0.001863985089585185,-0.0014655233826488256
1746728912066181000,4.82718115234375,-0.0010457164607942104,-0.002926257671788335,0.00045044603757560253
1746728912076198400,4.837198486328125,-0.00018871109932661057,0.0008740732446312904,-0.0026816977187991142
1746728912086216200,4.84721630859375,0.002158593852072954,-0.0017603146843612194,0.00009303959086537361
1746728912096234200,4.857234130859375,0.003814280964434147,0.00180113036185503,0.002423305530101061
1746728912106251300,4.867251220703125,0.0003738147206604481,-0.0017955489456653595,-0.0003579552285373211
1746728912116269300,4.877269287109375,0.0010137723293155432,0.00007132673636078835,0.0025534124579280615
1746728912126287000,4.887287109375,-0.00032503530383110046,0.0011244500055909157,-0.002033272758126259
1746728912136305400,4.897305419921875,0.0009338408708572388,0.000993155874311924,0.00184828438796103
1746728912146322200,4.907322265625,-0.002331857569515705,0.0016477392055094242,0.00031292648054659367
1746728912156340200,4.91734033203125,0.0009747231379151344,-0.000010345131158828735,0.0005693889688700438
1746728912166358300,4.927358154296875,0.0011404161341488361,-0.0005791862495243549,-0.0006285414565354586
1746728912176375000,4.937375,0.00009006541222333908,-0.0018766785506159067,0.0007826676592230797
1746728912186393300,4.947393310546875,-0.0027982364408671856,0.00007589580491185188,0.0030673774890601635
1746728912196411100,4.9574111328125,0.0009893113747239113,-0.0010985583066940308,-0.0010996705386787653
1746728912206429200,4.96742919921875,-0.0010460149496793747,0.0008633416146039963,0.0017632604576647282
1746728912216446200,4.9774462890625,0.0016834589187055826,0.0018963818438351154,-0.0008194730617105961
1746728912226464300,4.98746435546875,-0.0003873850218951702,-0.00022488553076982498,0.000024402281269431114
1746728912236482000,4.99748193359375,0.0019588598515838385,-0.00022461917251348495,-0.00032047717832028866
1746728912246500400,5.007500244140625,-0.000884555745869875,0.00018254294991493225,0.0012441904982551932
1746728912256517000,5.01751708984375,0.0018268085550516844,-0.000806022435426712,0.00008678063750267029
1746728912266535200,5.02753515625,0.00027508847415447235,-0.0007475018501281738,0.0007709290366619825
1746728912276553200,5.03755322265625,-0.000692970585078001,-0.0006122132763266563,-0.0010583964176476002
1746728912286570200,5.0475703125,0.0020995938684791327,-0.0037311692722141743,0.00028017954900860786
1746728912296588300,5.05758837890625,0.0017685629427433014,-0.0017713489942252636,0.0014746073866263032
1746728912306606300,5.0676064453125,-0.0009476621635258198,0.0011180490255355835,0.0013103511882945895
1746728912316624100,5.0776240234375,0.0005519641563296318,0.0011460119858384132,-0.00027769175358116627
1746728912326641400,5.087641357421875,0.0006584962829947472,-0.0007718019187450409,0.0015116025460883975
1746728912336659200,5.0976591796875,0.00031920941546559334,-0.0005917721427977085,0.0020133419893682003
1746728912346677200,5.10767724609375,-0.00025507668033242226,0.0014660297892987728,-0.001603980315849185
1746728912356694300,5.1176943359375,0.0015092676039785147,0.00018771225586533546,-0.0008636217098683119
1746728912366712300,5.12771240234375,0.0006631528958678246,0.002002499531954527,0.0004623935092240572
1746728912376730000,5.137730224609375,-0.00044445600360631943,-0.0008931555785238743,0.0004714482929557562
1746728912386748400,5.14774853515625,-0.0015143495984375477,-0.0010483823716640472,-0.001193327596411109
1746728912396765200,5.15776513671875,0.000926170963793993,-0.00004144106060266495,-0.0012599064502865076
1746728912406783200,5.167783203125,-0.0019054007716476917,-0.0001288219355046749,0.0001502111554145813
1746728912416801300,5.17780126953125,-0.0009570489637553692,-0.0004758317954838276,0.000875123543664813
1746728912426819300,5.1878193359375,-0.0007556043565273285,0.0011108177714049816,0.00018719001673161983
1746728912436836400,5.19783642578125,-0.0006967484951019287,-0.0005422066897153854,-0.0014285498764365911
1746728912446854100,5.207854248046875,-0.0010538725182414055,0.00029446231201291084,0.000924799358472228
1746728912456872200,5.2178720703125,-0.0027489741332829,-0.0015620272606611252,0.0036398922093212605
1746728912466889200,5.22788916015625,0.0013697699178010225,-0.0006966907531023026,-0.0014564050361514091
1746728912476907300,5.2379072265625,-0.000734926201403141,-0.001936126034706831,0.000046150293201208115
1746728912486925000,5.247925048828125,-0.000209013931453228,-0.00014515360817313194,-0.0012919646687805653
1746728912496943400,5.257943359375,0.0007997914217412472,-0.00024182628840208054,-0.0005212458781898022
1746728912506960100,5.267960205078125,0.0001270696520805359,0.0007749740034341812,0.0005242519546300173
1746728912516978200,5.277978271484375,0.0007313410751521587,-0.00013076700270175934,-0.001634772401303053
1746728912526996200,5.287996337890625,-0.001954635139554739,0.000026706606149673462,0.00045434595085680485
1746728912537013200,5.29801318359375,0.0009266389533877373,0.0009146044030785561,0.0015204093651846051
1746728912547031000,5.308031005859375,0.0007457556203007698,0.0001614443026483059,0.00038608070462942123
1746728912557049300,5.31804931640625,0.0008437600918114185,0.0007071257568895817,-0.0007502902299165726
1746728912567067100,5.328067138671875,0.0005141207948327065,-0.0016142944805324078,0.0012905844487249851
1746728912577084400,5.33808447265625,0.0012283804826438427,-0.00048804329708218575,0.000258076936006546
1746728912587102200,5.348102294921875,-0.0021721194498240948,0.0030630091205239296,0.002101223450154066
1746728912597120300,5.358120361328125,0.00018637580797076225,0.0024488847702741623,-0.00044529116712510586
1746728912607137300,5.36813720703125,0.0011960321571677923,0.0008552097715437412,0.0005934012588113546
1746728912617155300,5.3781552734375,0.0005177250131964684,-0.0008904924616217613,-0.0014963813591748476
1746728912627173000,5.388173095703125,0.0000985320657491684,-0.0011033951304852962,0.0009232140146195889
1746728912637191200,5.398191162109375,-0.0020711454562842846,0.0010718745179474354,0.0021480019204318523
1746728912647208700,5.408208740234375,-0.0007553454488515854,-0.0019206875003874302,-0.0006826079916208982
1746728912657226800,5.418226806640625,-0.0007867706008255482,-0.003637094749137759,0.003094819840043783
1746728912667244800,5.428244873046875,-0.0002412763424217701,0.001051928848028183,-0.0004188374150544405
1746728912677262800,5.438262939453125,0.00012197904288768768,-0.0028916802257299423,0.0002994169481098652
1746728912687279600,5.448279541015625,-0.0006864629685878754,0.0009213616140186787,-0.000258089043200016
1746728912697297700,5.458297607421875,-0.0019978038035333157,0.0007980572991073132,0.0017640491714701056
1746728912707315700,5.468315673828125,-0.00042880047112703323,0.00006531411781907082,0.00018785824067890644
1746728912717332500,5.47833251953125,0.000001832377165555954,0.0011803796514868736,0.00010929512791335583
1746728912727350800,5.488350830078125,-0.0007200641557574272,0.0016402876935899258,-0.0008460162207484245
1746728912737368600,5.49836865234375,0.0010698465630412102,-0.002436745446175337,-0.00019727041944861412
1746728912747386600,5.50838671875,-0.0004988540895283222,-0.0026834073942154646,-0.0014519160613417625
1746728912757403600,5.518403564453125,0.0009549655951559544,-0.0018493053503334522,0.0010181660763919353
1746728912767421700,5.528421630859375,-0.0005248379893600941,0.0015018493868410587,-0.0006144407670944929
1746728912777439500,5.538439453125,-0.0007200478576123714,-0.00016715377569198608,-0.0029977038502693176
1746728912787456800,5.548456787109375,-0.0006394758820533752,-0.0010297028347849846,-0.00011299783363938332
1746728912797474600,5.558474609375,0.0030820255633443594,-0.00011410797014832497,-0.0014855910558253527
1746728912807492600,5.56849267578125,-0.00004228157922625542,-0.0008548488840460777,-0.00017782836221158504
1746728912817510700,5.5785107421875,0.0009193858131766319,-0.00183063093572855,0.00285471323877573
1746728912827527700,5.588527587890625,-0.003024321049451828,0.0008512316271662712,0.0011335615999996662
1746728912837545700,5.598545654296875,-0.001850399188697338,-0.0015863594599068165,0.0004653744399547577
1746728912847563800,5.608563720703125,0.0009200144559144974,0.0018369532190263271,0.000673308502882719
1746728912857580500,5.61858056640625,0.0008483757264912128,-0.0017034527845680714,-0.0010992912575602531
1746728912867598800,5.628598876953125,-0.00007952982559800148,-0.0007473016157746315,0.000409246189519763
1746728912877616600,5.63861669921875,-0.0008457209914922714,-0.0012951134704053402,-0.0014360581990331411
1746728912887634700,5.648634765625,-0.0008317567408084869,-0.0002593458630144596,-0.00047096679918468
1746728912897651700,5.658651611328125,0.0007799887098371983,-0.0013160882517695427,0.002253713319078088
1746728912907669800,5.668669677734375,-0.0008623744361102581,-0.001860844437032938,0.00015920493751764297
1746728912917687600,5.6786875,0.00200664927251637,-0.00011913711205124855,0.0030314242467284203
1746728912927705900,5.688705810546875,-0.0016497517935931683,0.0004933415912091732,0.0015196760650724173
1746728912937722600,5.69872265625,0.000967070460319519,-0.0013647456653416157,0.0014634833205491304
1746728912947740700,5.70874072265625,-0.00040785735473036766,-0.0026245468761771917,0.0016504896339029074
1746728912957758700,5.7187587890625,0.0005357004702091217,-0.0006862981244921684,0.00040253251791000366
1746728912967775500,5.728775390625,-0.001443485263735056,-0.00031601451337337494,-0.00004665134474635124
1746728912977793800,5.738793701171875,0.0003149998374283314,0.0008773477748036385,0.0015539084561169147
1746728912987811800,5.748811767578125,0.0016002326738089323,0.003094786312431097,-0.0018552530091255903
1746728912997829600,5.75882958984375,0.0009189960546791553,0.00041085295379161835,-0.0015143684577196836
1746728913007846700,5.7688466796875,-0.0012587052769958973,-0.00019654631614685059,0.0001010536216199398
1746728913017864700,5.77886474609375,0.002026570262387395,-0.00036725495010614395,-0.0009682055097073317
1746728913027882500,5.788882568359375,-0.00027992669492959976,0.00023700576275587082,0.002096701180562377
1746728913037899800,5.798899658203125,0.0017046609427779913,-0.00023437384516000748,-0.002377675846219063
1746728913047917600,5.80891748046875,-0.00009584520012140274,-0.0019091656431555748,-0.000056108925491571426
1746728913057935600,5.818935546875,0.0013182931579649448,0.00011030957102775574,-0.001589823281392455
1746728913067953700,5.82895361328125,-0.0010370328091084957,-0.0008864817209541798,0.0008276638109236956
1746728913077970700,5.838970703125,-0.00009986665099859238,-0.00029765674844384193,0.0008902479894459248
1746728913087988700,5.84898876953125,-0.0017492137849330902,-0.001067953184247017,-0.002843389753252268
1746728913098006800,5.8590068359375,0.0006779911927878857,-0.000055419281125068665,-0.002035386860370636
1746728913108023600,5.8690234375,-0.0004570665769279003,-0.0006736773066222668,0.0019517125329002738
1746728913118041900,5.879041748046875,-0.000795021653175354,0.0007740170694887638,0.0002563442103564739
1746728913128059600,5.8890595703125,-0.000081576406955719,0.0014073746278882027,0.00046791788190603256
1746728913138077700,5.89907763671875,-0.0007463013753294945,-0.002744493540376425,0.0011326430831104517
1746728913148094700,5.9090947265625,0.0003452361561357975,0.0008172960951924324,0.0028500172775238752
1746728913158112800,5.91911279296875,-0.0029419036582112312,-0.0001622145064175129,-0.00038519082590937614
1746728913168130600,5.929130615234375,-0.001494665164500475,0.0013915058225393295,0.0023592121433466673
1746728913178148900,5.93914892578125,0.002127233659848571,0.0004383604973554611,-0.0020565753802657127
1746728913188165600,5.94916552734375,-0.000170764047652483,-0.00027964962646365166,0.0007746273186057806
1746728913198183700,5.95918359375,-0.002014470286667347,0.0029145460575819016,-0.003721321001648903
1746728913208201700,5.96920166015625,0.00010443618521094322,0.0018803225830197334,0.0014759702607989311
1746728913218218800,5.97921875,-0.0008841292001307011,-0.00018123071640729904,0.0028158065397292376
1746728913228236800,5.98923681640625,0.0018743467517197132,0.002019274979829788,0.0008133433293551207
1746728913238254800,5.9992548828125,-0.000744872260838747,0.000431764405220747,0.0014306639786809683
1746728913248272600,6.009272705078125,0.00004498939961194992,0.002309235744178295,0.00027205469086766243
1746728913258289700,6.01928955078125,0.0001435261219739914,0.0015566269867122173,-0.0001955963671207428
1746728913268307700,6.0293076171875,-0.00003907224163413048,0.0007692663930356503,-0.002536662155762315
1746728913278325800,6.03932568359375,-0.00024573318660259247,-0.0004267590120434761,0.003251451998949051
1746728913288342800,6.0493427734375,0.0007190038450062275,-0.0004797959700226784,0.00007136235944926739
1746728913298360600,6.059360595703125,-0.00011749519035220146,0.0013431375846266747,-0.002757181180641055
1746728913308378600,6.069378662109375,-0.0007188403978943825,0.0002824007533490658,-0.0037253028713166714
1746728913318397000,6.07939697265625,-0.00133589468896389,0.0019490066915750504,-0.0012674713507294655
1746728913328413700,6.08941357421875,0.001426564995199442,-0.000830640085041523,-0.0038175301160663366
1746728913338431500,6.099431396484375,-0.0006371187046170235,0.0006924215704202652,0.0013934771995991468
1746728913348449800,6.10944970703125,-0.0011287983506917953,-0.0006852229125797749,0.0003171679563820362
1746728913358466600,6.119466552734375,0.001119442516937852,0.00007377797737717628,0.00010704458691179752
1746728913368484600,6.129484619140625,-0.001739600207656622,-0.00045501766726374626,0.0015844512963667512
1746728913378502700,6.139502685546875,-0.0011313343420624733,0.0009537949226796627,-0.0002573910169303417
1746728913388520700,6.149520751953125,-0.0010614334605634212,0.0043830727227032185,0.0010160347446799278
1746728913398537700,6.159537841796875,-0.0009780763648450375,0.0009089792147278786,0.0002948506735265255
1746728913408555800,6.1695556640625,0.0014421034138649702,-0.0017942218109965324,0.0006552573759108782
1746728913418573600,6.179573486328125,0.0003182496875524521,-0.0005145729519426823,0.0008619185537099838
1746728913428590800,6.1895908203125,-0.00022399332374334335,0.0011077490635216236,0.00044197426177561283
1746728913438608600,6.199608642578125,-0.0011355932801961899,0.002113891299813986,0.001267021638341248
1746728913448626700,6.209626708984375,-0.0021656155586242676,-0.0011263089254498482,-0.0006437168922275305
1746728913458644700,6.219644775390625,-0.000927511602640152,0.000950956717133522,0.0003871927037835121
1746728913468661800,6.229661865234375,0.000615555327385664,-0.00024414295330643654,0.001508389483205974
1746728913478679600,6.239679443359375,-0.0017695720307528973,0.0009553451091051102,0.0011885437415912747
1746728913488697900,6.24969775390625,0.0004037274047732353,0.00022148573771119118,0.0011299627367407084
1746728913498714600,6.259714599609375,-0.0009022867307066917,0.001032684464007616,0.0002617721911519766
1746728913508732700,6.269732666015625,-0.0007526963017880917,0.0012753093615174294,-0.0014722279738634825
1746728913518750700,6.279750732421875,0.00010643946006894112,-0.00039156293496489525,-0.0005257406737655401
1746728913528768800,6.289768798828125,-0.00048462534323334694,-0.0007951562292873859,-0.00219407444819808
1746728913538785800,6.299785888671875,-0.0009144595824182034,0.002212618011981249,-0.0049642943777143955
1746728913548803800,6.309803955078125,0.0007437826134264469,0.000055824872106313705,-0.0019117649644613266
1746728913558821600,6.319821533203125,-0.002461331896483898,0.00011228397488594055,-0.00006379745900630951
1746728913568838700,6.329838623046875,0.0005441806279122829,0.0007692067883908749,-0.0016274000518023968
1746728913578856700,6.339856689453125,-0.0016713030636310577,-0.000857984647154808,-0.0011062193661928177
1746728913588874500,6.34987451171875,-0.0006832391954958439,0.0011610090732574463,0.0005244596395641565
1746728913598892800,6.359892822265625,-0.0017676781862974167,0.0031431992538273335,0.00033936998806893826
1746728913608909600,6.36990966796875,-0.000006322283297777176,0.0018574143759906292,-0.00019413745030760765
1746728913618927600,6.379927734375,0.0017034269403666258,-0.0010275882668793201,0.0023012442979961634
1746728913628945700,6.389945556640625,0.0012056564446538687,0.0012183478102087975,0.0011658051516860723
1746728913638963700,6.399963623046875,0.0006328104063868523,0.0007051564753055573,-0.0028023049235343933
1746728913648980500,6.40998046875,-0.00034924037754535675,-0.0006937412545084953,-0.0018034041859209538
1746728913658998300,6.419998291015625,0.00047367624938488007,0.00003623124212026596,0.0008810621220618486
1746728913669016300,6.430016357421875,0.0008638317231088877,0.00032137706875801086,-0.0008169945795089006
1746728913679033300,6.440033447265625,-0.0010187570005655289,0.0016966336406767368,-0.0006364320870488882
1746728913689051400,6.450051513671875,0.0017604692839086056,0.0014036488719284534,0.0007216220255941153
1746728913699069200,6.460069091796875,0.001005729427561164,-0.0001710783690214157,-0.00031860871240496635
1746728913709087500,6.47008740234375,0.00045371009036898613,0.0015262640081346035,0.0007173249032348394
1746728913719104300,6.480104248046875,-0.00006374204531311989,0.002198978327214718,0.0014608794590458274
1746728913729122300,6.490122314453125,-0.0018570730462670326,-0.0017435778863728046,-0.0006573179271072149
1746728913739140400,6.500140380859375,-0.00014599179849028587,0.0011773770675063133,-0.0002663657069206238
1746728913749157400,6.510157470703125,0.0018608062528073788,0.0006997841410338879,0.0015278926584869623
1746728913759175400,6.520175537109375,-0.0018015727400779724,0.003122461959719658,0.0012637070612981915
1746728913769193500,6.530193359375,-0.0019351327791810036,0.0007103113457560539,-0.00132262846454978
1746728913779211300,6.540211181640625,-0.0009982329793274403,-0.00016373815014958382,-0.0007995835039764643
1746728913789228500,6.550228515625,-0.0005312468856573105,-0.0006537903100252151,-0.00004495866596698761
1746728913799246300,6.560246337890625,-0.0008111451752483845,0.0010474370792508125,-0.00044390023685991764
1746728913809264400,6.570264404296875,-0.0009638648480176926,0.00008503813296556473,0.0006994388531893492
1746728913819281400,6.580281494140625,-0.0010512163862586021,-0.0017797073815017939,-0.00001215771771967411
1746728913829299500,6.590299560546875,0.00011871522292494774,-0.0007091499865055084,0.0016592915635555983
1746728913839317200,6.600317138671875,0.00001352047547698021,0.0008794255554676056,0.0012856500688940287
1746728913849335600,6.61033544921875,0.00045680487528443336,0.0041603343561291695,-0.0009642606601119041
1746728913859352300,6.620352294921875,-0.00051152054220438,0.001176262740045786,0.00007304060272872448
1746728913869370400,6.630370361328125,-0.0006913682445883751,0.0005396273918449879,-0.0006434216629713774
1746728913879388400,6.640388427734375,0.0011853612959384918,0.00012204376980662346,0.002279930282384157
1746728913889405200,6.6504052734375,-0.0012695621699094772,-0.00143089285120368,0.0015818590763956308
1746728913899423500,6.660423583984375,0.0005150218494236469,-0.00045670848339796066,0.0007983571849763393
1746728913909441500,6.670441650390625,0.000633064191788435,0.0006525334902107716,-0.00038881716318428516
1746728913919459300,6.680459228515625,-0.0005323351360857487,0.0005065924488008022,0.00008842139504849911
1746728913929476400,6.690476318359375,-0.00048549333587288857,0.0006666495464742184,-0.00029529398307204247
1746728913939494400,6.700494384765625,0.0002359570935368538,-0.00139916455373168,0.0030682783108204603
1746728913949512200,6.71051220703125,-0.00007003964856266975,0.001288620289415121,0.001028350554406643
1746728913959529500,6.720529541015625,-0.00009134504944086075,0.00006223469972610474,-0.0004718080163002014
1746728913969547300,6.73054736328125,0.002884761430323124,-0.00036433804780244827,0.002183733507990837
1746728913979565300,6.7405654296875,-0.0011983970180153847,-0.0013933833688497543,-0.0020331155974417925
1746728913989583400,6.750583251953125,-0.0009402437135577202,-0.0008747074753046036,0.0017568119801580906
1746728913999600400,6.760600341796875,0.0036411923356354237,0.0015527638606727123,0.004477497190237045
1746728914009618200,6.7706181640625,-0.000652664341032505,0.00003925291821360588,0.00005756155587732792
1746728914019636500,6.780636474609375,0.00013802805915474892,-0.0013668960891664028,-0.0022969392593950033
1746728914029654300,6.790654296875,-0.0009093987755477428,-0.0006068618968129158,-0.00009051850065588951
1746728914039671300,6.80067138671875,-0.0013070087879896164,-0.0006183134391903877,0.00032466836273670197
1746728914049689300,6.810689453125,0.0007808376103639603,0.00011459598317742348,-0.0005622224416583776
1746728914059707400,6.820707275390625,-0.0016399757005274296,0.00003896234557032585,0.0011874744668602943
1746728914069724400,6.830724365234375,-0.00044984184205532074,0.00026757875457406044,-0.0026114170905202627
1746728914079742500,6.840742431640625,0.00008625257760286331,0.0010438901372253895,-0.000815647654235363
1746728914089760300,6.85076025390625,-0.002127420622855425,-0.00042666029185056686,-0.002230691723525524
1746728914099778300,6.8607783203125,-0.000008610077202320099,-0.0009196116589009762,-0.0018402724526822567
1746728914109795300,6.87079541015625,-0.00007997872307896614,-0.0012257834896445274,-0.0016658143140375614
1746728914119813400,6.8808134765625,-0.00003204168751835823,-0.000509925652295351,0.0005459408275783062
1746728914129831400,6.89083154296875,-0.00007251277565956116,-0.0016592815518379211,0.00020233006216585636
1746728914139848400,6.900848388671875,-0.001680795568972826,0.001498428639024496,-0.0013217967934906483
1746728914149866200,6.9108662109375,-0.0008534896187484264,-0.0004737512208521366,0.002544053830206394
1746728914159884500,6.920884521484375,-0.0009110141545534134,-0.00184075185097754,0.0013759913854300976
1746728914169902300,6.93090234375,0.0012206402607262135,0.001494694035500288,0.0013079580385237932
1746728914179919400,6.94091943359375,-0.0012521049939095974,0.0009673880413174629,0.0010477672331035137
1746728914189937400,6.9509375,-0.0004466087557375431,-0.00031526898965239525,0.0018581399926915765
1746728914199955500,6.96095556640625,-0.0002348874695599079,-0.0015400564298033714,-0.0005360417999327183
1746728914209972500,6.970972412109375,0.0005154991522431374,0.0022329576313495636,-0.001607250887900591
1746728914219990300,6.980990234375,-0.0003660069778561592,0.00015462655574083328,-0.0017545237205922604
1746728914230008300,6.99100830078125,0.001775908749550581,-0.00014332029968500137,0.00048390054143965244
1746728914240026400,7.0010263671875,-0.002285412047058344,0.0010204813443124294,-0.002695647533982992
1746728914250043400,7.01104345703125,-0.00014131050556898117,-0.0017066046129912138,-0.0007396289147436619
1746728914260061200,7.021061279296875,-0.0003719399683177471,-0.0010940777137875557,0.0014305810909718275
1746728914270079500,7.03107958984375,0.0002820231020450592,0.001095897052437067,-0.00016661151312291622
1746728914280096300,7.04109619140625,-0.0029744901694357395,0.0006708563305437565,-0.0013703603763133287
1746728914290114300,7.0511142578125,0.00032091327011585236,0.00008506420999765396,-0.0027223515789955854
1746728914300132400,7.06113232421875,0.0000953436829149723,-0.0016707577742636204,-0.00045493640936911106
1746728914310150400,7.071150390625,-0.00117184454575181,0.001253131777048111,-0.0012251355219632387
1746728914320167400,7.08116748046875,-0.0013769078068435192,-0.00014689192175865173,-0.0007726645562797785
1746728914330185500,7.091185546875,0.0003447728231549263,-0.0012499140575528145,-0.0008657241705805063
1746728914340203300,7.101203369140625,0.0016846091020852327,0.0004230840131640434,-0.00012749596498906612
1746728914350220500,7.111220458984375,0.0006136358715593815,-0.0013739736750721931,-0.001280592754483223
1746728914360238300,7.12123828125,-0.0017773504368960857,0.0032436810433864594,0.00034766411408782005
1746728914370256400,7.13125634765625,0.00032156147062778473,0.00003812462091445923,0.00013339915312826633
1746728914380274200,7.141274169921875,-0.001081391703337431,0.00010044267401099205,0.0018806990701705217
1746728914390291500,7.15129150390625,-0.00011470774188637733,-0.0001636347733438015,0.0007458087056875229
1746728914400309200,7.161309326171875,-0.002349899150431156,0.00022784993052482605,-0.0013357179705053568
1746728914410327600,7.17132763671875,-0.000917371828109026,-0.000582908745855093,-0.000604936620220542
1746728914420344300,7.18134423828125,-0.0008598477579653263,0.003140723332762718,-0.0016571518499404192
1746728914430362400,7.1913623046875,-0.0011142236180603504,0.0003476622514426708,-0.0006214003078639507
1746728914440380400,7.20138037109375,-0.0011014402844011784,-0.00016259914264082909,-0.0015982480254024267
1746728914450398500,7.2113984375,0.0007969492580741644,0.001139491330832243,-0.0006424388848245144
1746728914460415500,7.22141552734375,-0.0012302487157285213,0.0010814345441758633,0.0010167104192078114
1746728914470433500,7.23143359375,0.0005939118564128876,-0.0014763674698770046,0.0003882551100105047
1746728914480451300,7.241451416015625,-0.0005397959612309933,0.0003311196342110634,0.0008274102583527565
1746728914490468400,7.25146826171875,0.00015079043805599213,0.00227231252938509,-0.00004450185224413872
1746728914500486400,7.261486328125,-0.0025350074283778667,-0.0015218928456306458,0.00030969874933362007
1746728914510504200,7.271504150390625,0.0010245863813906908,-0.000031795818358659744,0.0005998036358505487
1746728914520522200,7.281522216796875,-0.0010822401382029057,0.000291245523840189,-0.0016002338379621506
1746728914530539300,7.291539306640625,0.001740023260936141,-0.00001016072928905487,0.0007752901874482632
1746728914540557300,7.301557373046875,-0.00107227498665452,0.001895597204566002,-0.001868430059403181
1746728914550575400,7.311575439453125,-0.000018206890672445297,0.0005173534154891968,-0.0008185126353055239
1746728914560592400,7.32159228515625,0.0010635692160576582,0.0013661026023328304,-0.0012741794344037771
1746728914570610200,7.331610107421875,0.000518089160323143,-0.0005540437996387482,-0.000175724970176816
1746728914580628500,7.34162841796875,-0.0006033680401742458,0.0038894405588507652,0.0009707659482955933
1746728914590646300,7.351646240234375,0.00017736991867423058,0.00009861309081315994,-0.0006143080536276102
1746728914600663300,7.361663330078125,-0.001953424885869026,-0.0009767711162567139,-0.0008353504817932844
1746728914610681300,7.371681396484375,0.00010960875079035759,0.0014045876450836658,0.0007506939582526684
1746728914620699400,7.381699462890625,-0.0022600716911256313,0.001418436411768198,-0.0010448091197758913
1746728914630716400,7.39171630859375,0.0006103711202740669,0.0013061901554465294,-0.0021859053522348404
1746728914640734500,7.401734375,-0.001287663821130991,0.0007384042255580425,-0.0009973365813493729
1746728914650752000,7.411751953125,0.0000790255144238472,-0.0017462768591940403,0.0013954213354736567
1746728914660770300,7.421770263671875,-0.0003332318738102913,-0.0015963409096002579,0.0007501374930143356
1746728914670787000,7.431787109375,0.0012974152341485023,0.0033018342219293118,-0.0012641772627830505
1746728914680804900,7.441804931640625,-0.0004975553601980209,0.0007657059468328953,0.002089541405439377
1746728914690823200,7.4518232421875,-0.0014965161681175232,-0.0009414632804691792,-0.0004779102746397257
1746728914700840000,7.46183984375,-0.0008411123417317867,0.0031297109089791775,0.0010467495303601027
1746728914710858000,7.47185791015625,0.000785251846536994,0.00048560742288827896,0.002848863834515214
1746728914720876000,7.4818759765625,-0.0016826996579766273,0.00238657183945179,0.00046000839211046696
1746728914730894000,7.49189404296875,-0.000772546511143446,0.00035721762105822563,0.000821228139102459
1746728914740911000,7.5019111328125,-0.00017786258831620216,0.0014254115521907806,-0.002768712816759944
1746728914750929200,7.51192919921875,-0.00008646957576274872,0.00019026780501008034,0.000706016318872571
1746728914760947000,7.521947021484375,0.00009569060057401657,0.002942644525319338,-0.0017246506176888943
1746728914770965000,7.531965087890625,0.0006491886451840401,-0.0017466063145548105,0.0005092984065413475
1746728914780982000,7.54198193359375,-0.0015077055431902409,0.0009080325253307819,0.0003375245723873377
1746728914791000000,7.552,-0.0009454856626689434,-0.000520867295563221,-0.0027050278149545193
1746728914801018000,7.56201806640625,-0.001565203070640564,-0.0006375135853886604,-0.004024091642349958
1746728914811035100,7.57203515625,0.0012157130986452103,0.001787935383617878,-0.0019198183435946703
1746728914821053000,7.582052978515625,-0.0020493222400546074,0.0010648868046700954,-0.00143698719330132
1746728914831071200,7.5920712890625,-0.00011746864765882492,0.0021117739379405975,-0.003707559546455741
1746728914841088000,7.602087890625,-0.0016924617812037468,-0.0005007870495319366,0.0006094244308769703
1746728914851106000,7.61210595703125,0.0008975930977612734,0.0004912102594971657,-0.0005036771763116121
1746728914861124000,7.6221240234375,0.000653381459414959,-0.0011194697581231594,0.0002803574316203594
1746728914871142100,7.63214208984375,-0.0005470407195389271,-0.00036507146432995796,0.0016600833041593432
1746728914881159200,7.6421591796875,-0.00037952791899442673,-0.000010071787983179092,-0.0015990932006388903
1746728914891177200,7.65217724609375,-0.0005798847414553165,-0.0005357246845960617,-0.0011192304082214832
1746728914901195000,7.662195068359375,0.00008856877684593201,0.000578275416046381,-0.0008518490940332413
1746728914911212000,7.6722119140625,-0.001116572879254818,0.0012337681837379932,0.0011837469646707177
1746728914921230000,7.68222998046875,-0.0006939289160072803,-0.00008023576810956001,-0.0016890049446374178
1746728914931247900,7.692247802734375,0.00147878541611135,-0.0007297154515981674,0.0005026666913181543
1746728914941266200,7.70226611328125,-0.0008046086877584457,0.00042156921699643135,0.0007226439192891121
1746728914951283000,7.712282958984375,-0.0008266419172286987,-0.0004444313235580921,0.001942937378771603
1746728914961301000,7.722301025390625,-0.00013928022235631943,-0.0011365870013833046,0.001746129710227251
1746728914971319000,7.732319091796875,0.0015457940753549337,-0.0004283697344362736,0.0010258723050355911
1746728914981337000,7.742337158203125,-0.0006694234907627106,-0.001150352880358696,0.0002594145480543375
1746728914991354000,7.75235400390625,-0.0004770844243466854,0.00013850955292582512,0.00014845095574855804
1746728915001372200,7.7623720703125,-0.001033684704452753,0.0011483803391456604,-0.0006062889005988836
1746728915011390000,7.772389892578125,0.00010976707562804222,0.0008459016680717468,0.002217866713181138
1746728915021407200,7.7824072265625,0.00045624421909451485,0.00043284520506858826,0.0024820524267852306
1746728915031425000,7.792425048828125,-0.0006458433344960213,0.0008238693699240685,0.0009687582496553659
1746728915041443000,7.802443115234375,-0.0021569211967289448,-0.0018006758764386177,0.0008198875002563
1746728915051460000,7.812460205078125,-0.0000034705735743045807,0.0015649339184165,0.0002443173434585333
1746728915061478100,7.82247802734375,-0.0015337229706346989,-0.0018183456268161535,-0.001402048859745264
1746728915071496000,7.832495849609375,0.001465433044359088,-0.0010782014578580856,-0.001596047542989254
1746728915081514200,7.84251416015625,-0.000323412474244833,0.0005993237718939781,-0.002640006598085165
1746728915091531000,7.852531005859375,-0.00034244824200868607,0.0008647320792078972,-0.0010112563613802195
1746728915101549000,7.862549072265625,0.001524161547422409,0.0007174592465162277,0.0012580229667946696
1746728915111567000,7.872567138671875,0.001935252221301198,0.0012881779111921787,0.001104445313103497
1746728915121584000,7.882584228515625,0.0012095407582819462,0.00011505559086799622,-0.003810418536886573
1746728915131602200,7.892602294921875,0.0009646913968026638,-0.0015855117235332727,0.00045683374628424644
1746728915141620200,7.9026201171875,-0.0005146944895386696,0.000262189656496048,0.0003846620675176382
1746728915151638000,7.912637939453125,0.0008812416344881058,-0.0002705734223127365,-0.0011349364649504423
1746728915161655000,7.922655029296875,-0.0005121245048940182,0.0012335795909166336,0.0009010499343276024
1746728915171673000,7.932673095703125,0.0008292100392282009,0.0012461156584322453,-0.0016596533823758364
1746728915181691100,7.942691162109375,-0.0006999769248068333,0.00036434270441532135,-0.0008710913825780153
1746728915191709000,7.952708984375,0.00038207927718758583,-0.0009314962662756443,-0.0009710569866001606
1746728915201726000,7.962725830078125,-0.00013350835070014,0.002251247875392437,0.0006574660073965788
1746728915211744000,7.972743896484375,0.000526397954672575,0.0006170971319079399,-0.001684664050117135
1746728915221762300,7.98276220703125,0.000053687021136283875,-0.0017145005986094475,0.0004991278983652592
1746728915231779000,7.992779052734375,0.0010078197810798883,-0.00008317781612277031,0.0011064434656873345
1746728915241796900,8.002796875,0.0004498874768614769,-0.000716743990778923,0.001467834459617734
1746728915251815200,8.012815185546875,0.0006575877778232098,-0.002870468655601144,-0.0017204980831593275
1746728915261832000,8.02283203125,-0.0012971721589565277,-0.00044885650277137756,-0.0006597612518817186
1746728915271850000,8.03285009765625,0.0007180788088589907,0.0011591301299631596,0.0009798535611480474
1746728915281868000,8.042867919921875,-0.00005876505747437477,-0.0021754137706011534,0.0013425761135295033
1746728915291886000,8.052885986328125,-0.00017770519480109215,0.0024270471185445786,-0.0005248952656984329
1746728915301903000,8.062903076171875,0.0018638742621988058,-0.0003623482771217823,0.0011409120634198189
1746728915311921200,8.072921142578124,-0.0004968172870576382,0.0008151917718350887,-0.0010651296470314264
1746728915321939000,8.08293896484375,0.0001830877736210823,-0.000834370031952858,-0.00043529202230274677
1746728915331957000,8.09295703125,-0.0020791785791516304,0.000459886621683836,0.00010946206748485565
1746728915341974000,8.10297412109375,0.000022055581212043762,-0.0006394661031663418,-0.0013438249006867409
1746728915351992000,8.112991943359376,0.0018481651786714792,-0.00029051071032881737,0.003083279589191079
1746728915362010000,8.123010009765625,0.0008859650697559118,0.0009790179319679737,-0.0008885588031262159
1746728915372027100,8.133027099609375,0.0003813421353697777,-0.0008401023223996162,0.0013043921208009124
1746728915382045000,8.143044921875,0.0019115942995995283,-0.0013695387169718742,0.0013171752216294408
1746728915392063200,8.153063232421875,-0.0019827946089208126,-0.00048303231596946716,-0.0009798819664865732
1746728915402081000,8.1630810546875,-0.0003220471553504467,0.0002559949643909931,-0.0010155683849006891
1746728915412098000,8.17309814453125,0.0009345063008368015,-0.001248766202479601,-0.001169972587376833
1746728915422116000,8.1831162109375,-0.00027376972138881683,-0.0017877898644655943,-0.003797713667154312
1746728915432134100,8.193134033203124,0.001361239468678832,-0.0006027137860655785,0.0017834289465099573
1746728915442151200,8.203151123046876,-0.0004086974076926708,-0.001752666663378477,0.0012742325197905302
1746728915452169200,8.213169189453126,-0.003048256505280733,-0.00002450495958328247,0.0012983859051018953
1746728915462187000,8.22318701171875,-0.0003225114196538925,0.0018996288999915123,0.0005854575429111719
1746728915472204000,8.2332041015625,-0.0019697300158441067,0.0018950537778437138,0.00031402078457176685
1746728915482222000,8.24322216796875,0.0010966334957629442,0.0010178089141845703,-0.00038186321035027504
1746728915492240000,8.253239990234375,0.001994395861402154,0.0006266436539590359,0.0017296314472332597
1746728915502258200,8.263258056640625,0.0013741457369178534,0.0006594005972146988,-0.0014938588719815016
1746728915512275000,8.27327490234375,0.0003886166960000992,0.000925025437027216,-0.00168868456967175
1746728915522293000,8.28329296875,-0.0003850315697491169,0.0005873367190361023,0.000046098604798316956
1746728915532311000,8.29331103515625,-0.001139940693974495,-0.00025674188509583473,-0.0006427762564271688
1746728915542328000,8.303328125,0.00037300074473023415,0.003010423853993416,0.0013945420505478978
1746728915552346000,8.31334619140625,0.00006639957427978516,-0.0007158140651881695,0.00015527242794632912
1746728915562364200,8.3233642578125,-0.00009871646761894226,0.0012381472624838352,0.0009371764026582241
1746728915572382000,8.3333818359375,0.0007782476022839546,-0.0004421859048306942,-0.000500381225720048
1746728915582399200,8.343399169921875,-0.00013361871242523193,0.0005173510871827602,0.0003736682701855898
1746728915592417000,8.3534169921875,-0.0017921719700098038,0.0005220579914748669,0.0007675262168049812
1746728915602435000,8.36343505859375,0.0010648672468960285,0.003944219555705786,-0.0016034860163927078
1746728915612452900,8.373452880859375,-0.0016727172769606113,0.001325997058302164,-0.0022142112720757723
1746728915622470100,8.38347021484375,0.0009749976452440023,0.0012247972190380096,0.0009035512339323759
1746728915632488000,8.393488037109375,-0.0020039184018969536,-0.0021036812104284763,0.000013824552297592163
1746728915642506200,8.40350634765625,-0.000033711548894643784,0.0011381846852600574,-0.0008652848191559315
1746728915652523000,8.41352294921875,0.0009990381076931953,-0.0005127517506480217,-0.00020219385623931885
1746728915662541000,8.423541015625,-0.0004268186166882515,-0.0001116795465350151,-0.0008967460598796606
1746728915672559000,8.43355908203125,-0.0013011209666728973,0.0006604711525142193,0.0019260545959696174
1746728915682577200,8.4435771484375,0.0005859946832060814,0.00179337989538908,0.00009779445827007294
1746728915692594200,8.45359423828125,0.0008046934381127357,0.0015648137778043747,0.001874291687272489
1746728915702612200,8.4636123046875,0.001017746515572071,0.0019523035734891891,-0.0015404133591800928
1746728915712630000,8.473630126953125,0.0013119166251271963,0.000697641633450985,-0.001268134918063879
1746728915722647000,8.48364697265625,0.0004671621136367321,0.000978605356067419,-0.0025850683450698853
1746728915732665000,8.4936650390625,-0.00040729716420173645,0.0010943901725113392,-0.00009338255040347576
1746728915742683100,8.50368310546875,-0.0001798630692064762,0.00002726120874285698,0.002842486370354891
1746728915752700200,8.5137001953125,-0.000506100244820118,0.003187670838087797,-0.00006144004873931408
1746728915762718000,8.523718017578124,-0.00027680210769176483,0.00038016634061932564,0.00018783193081617355
1746728915772736000,8.533736083984374,-0.001967076677829027,0.0020348853431642056,0.0008772201836109161
1746728915782754300,8.54375439453125,0.0014143390581011772,0.00016641151160001755,0.0010055846069008112
1746728915792771000,8.55377099609375,0.00005471985787153244,0.0009403456933796406,-0.0006387403700500727
1746728915802788900,8.563788818359376,-0.0003793756477534771,-0.00012811459600925446,0.00011440180242061615
1746728915812807200,8.57380712890625,0.00019625574350357056,-0.000013301149010658264,-0.0014160340651869774
1746728915822824000,8.583823974609375,-0.0009901821613311768,-0.0011171814985573292,-0.0016858126036822796
1746728915832842000,8.593842041015625,-0.0008424520492553711,0.00028418004512786865,-0.0005115312524139881
1746728915842860000,8.603860107421875,-0.001148449257016182,-0.00086603919044137,0.00010552303865551949
1746728915852878000,8.613878173828125,0.00021668151021003723,0.00036467937752604485,-0.0010655769146978855
1746728915862895000,8.62389501953125,-0.001039265189319849,0.00005628541111946106,-0.001496210228651762
1746728915872913200,8.6339130859375,-0.0010898872278630733,-0.0015870914794504642,0.0010706349276006222
1746728915882931000,8.643930908203124,-0.0009633870795369148,0.00039216969162225723,0.001959864515811205
1746728915892948200,8.6539482421875,-0.00034966040402650833,0.0006526210345327854,-0.002290874719619751
1746728915902966000,8.663966064453126,0.000599756371229887,-0.0010059955529868603,-0.000055417418479919434
1746728915912984000,8.673984130859376,-0.0018684971146285534,0.0019328133203089237,0.00280362693592906
1746728915923002000,8.684002197265626,0.0008969295304268599,0.00005075754597783089,-0.001417483203113079
1746728915933019100,8.69401904296875,-0.00023017823696136475,0.00218690512701869,-0.0009349107276648283
1746728915943037000,8.704036865234375,-0.0005420343950390816,-0.0013297991827130318,-0.000006000278517603874
1746728915953055200,8.71405517578125,-0.0006399443373084068,0.00022079236805438995,0.0005185233894735575
1746728915963072000,8.724072021484375,-0.0006258296780288219,0.0018445216119289398,-0.0006207770202308893
1746728915973090000,8.734090087890625,-0.00009048637002706528,0.00006338441744446754,0.00275817490182817
1746728915983108000,8.744108154296875,0.002052825875580311,0.00014194753021001816,0.002089721616357565
1746728915993126100,8.754126220703125,-0.00025768810883164406,0.0005701794289052486,-0.00013384479098021984
1746728916003143200,8.76414306640625,0.0015708382707089186,-0.0005877627991139889,-0.0017245509661734104
1746728916013161200,8.7741611328125,0.0007597580552101135,0.0017453343607485294,0.0007787034846842289
1746728916023179000,8.784178955078126,0.0005794619210064411,0.0006808689795434475,0.0029971166513860226
1746728916033196000,8.794196044921875,-0.0030836518853902817,0.0005047377198934555,0.00040036183781921864
1746728916043214000,8.804214111328125,-0.0009485958144068718,0.0008464213460683823,0.0006946411449462175
1746728916053231900,8.81423193359375,-0.00043945712968707085,-0.0000421600416302681,0.0011842972598969936
1746728916063250200,8.824250244140625,0.0009951877873390913,0.0013847616501152515,0.001815999043174088
1746728916073267000,8.834266845703125,-0.0011820713989436626,-0.00013062404468655586,-0.0003345159348100424
1746728916083285000,8.844284912109375,0.0016243676654994488,-0.001166327390819788,-0.0002447674050927162
1746728916093303000,8.854302978515625,-0.00026474613696336746,0.00003186194226145744,-0.00011690426617860794
1746728916103320000,8.864320068359374,0.0013898760080337524,0.001451592892408371,0.0005664629861712456
1746728916113338000,8.874338134765624,-0.0005526123568415642,-0.0008231238462030888,-0.0016758623532950878
1746728916123356200,8.884356201171874,0.0012364992871880531,-0.0012923730537295341,-0.0028423271141946316
1746728916133374000,8.8943740234375,-0.00036723772063851357,0.00010798266157507896,-0.0022269703913480043
1746728916143391200,8.90439111328125,0.0002841716632246971,0.0014976197853684425,0.0030000158585608006
1746728916153409000,8.914408935546875,0.0008124704472720623,0.0008736723102629185,0.00040987576358020306
1746728916163427000,8.924427001953125,0.0008582770824432373,-0.001144204754382372,0.001213351613841951
1746728916173444000,8.934444091796875,-0.00030156737193465233,-0.0005087815225124359,-0.0004244409501552582
1746728916183462100,8.944462158203125,0.0020755704026669264,-0.0018427588511258364,0.0012464263709262013
1746728916193480000,8.95447998046875,0.0004447130486369133,-0.0005401554517447948,-0.0032095015048980713
1746728916203498200,8.964498291015625,-0.0009494516998529434,-0.0006823684088885784,0.0005596703849732876
1746728916213515000,8.974514892578124,-0.0010430593974888325,-0.0019444609060883522,-0.0009834319353103638
1746728916223533000,8.984532958984374,0.0016467333771288395,0.0022327075712382793,0.0004368317313492298
1746728916233551000,8.994551025390624,0.0016482092905789614,-0.001015425194054842,0.00045255618169903755
1746728916243568000,9.004568115234376,0.0011211696546524763,-0.0011187558993697166,0.0013638898963108659
1746728916253586200,9.014586181640626,-0.0029034712351858616,-0.003973705228418112,0.002447935054078698
1746728916263604200,9.024604248046876,0.0001887250691652298,-0.000002932269126176834,0.002614382654428482
1746728916273622000,9.0346220703125,-0.0003158869221806526,-0.0014002704992890358,-0.0007157456129789352
1746728916283639000,9.04463916015625,0.0008569695055484772,-0.00024019740521907806,0.00014898274093866348
1746728916293657000,9.054656982421875,-0.0009013316594064236,-0.0002599763683974743,0.0013710812199860811
1746728916303675100,9.064675048828125,-0.0004323492757976055,-0.0015891599468886852,0.000041897641494870186
1746728916313692200,9.074692138671875,-0.0007947408594191074,0.0000337245874106884,0.002428570529446006
1746728916323710000,9.0847099609375,-0.0032712146639823914,0.00015330035239458084,-0.001515837386250496
1746728916333728000,9.09472802734375,-0.00004226434975862503,0.0007218238897621632,-0.0025671834591776133
1746728916343746000,9.10474609375,0.001130325486883521,-0.0014680931344628334,0.0016001309268176556
1746728916353763000,9.11476318359375,-0.0006815772503614426,-0.0007067816331982613,0.000028170179575681686
1746728916363780900,9.12478076171875,0.0019597457721829414,0.000793110579252243,0.0033243645448237658
1746728916373799200,9.134799072265626,-0.0016284110024571419,0.0004849112592637539,0.001834783353842795
1746728916383816000,9.14481591796875,0.0011604512110352516,-0.0024498922284692526,0.00032397196628153324
1746728916393834200,9.154834228515625,0.000019848346710205078,0.00036969128996133804,0.0024577383883297443
1746728916403852000,9.16485205078125,-0.0005908142775297165,-0.0015720194205641747,0.00002893572673201561
1746728916413870000,9.1748701171875,-0.0004988242872059345,0.0005018590018153191,-0.0010892623104155064
1746728916423887000,9.18488720703125,0.001112121855840087,0.00043368199840188026,0.00021808338351547718
1746728916433905200,9.1949052734375,-0.000844229944050312,0.0008340198546648026,-0.0016389668453484774
1746728916443923000,9.2049228515625,0.00011983467265963554,0.000920305959880352,-0.0005984697490930557
1746728916453940200,9.214940185546874,-0.0008956645615398884,0.0017385412938892841,-0.0027015756350010633
1746728916463958000,9.2249580078125,-0.00003280024975538254,0.00205891951918602,0.002470016945153475
1746728916473976000,9.23497607421875,0.000298177357763052,-0.0006679603829979897,-0.0015720638912171125
1746728916483994000,9.244994140625,0.0035150095354765654,-0.0014059222303330898,0.00270710326731205
1746728916494011100,9.25501123046875,0.0007662707939743996,0.0009958399459719658,0.0013487843098118901
1746728916504029000,9.26502880859375,-0.00009126728400588036,0.000054945237934589386,-0.0005356685724109411
1746728916514047200,9.275047119140625,0.0001538037322461605,0.00075520109385252,0.0005721128545701504
1746728916524064000,9.28506396484375,0.001872341614216566,0.0011765128001570702,0.0024296678602695465
1746728916534082000,9.29508203125,-0.0009441133588552475,-0.0008550756610929966,0.0011911072069779038
1746728916544100000,9.30510009765625,-0.0003558211028575897,-0.0019842558540403843,-0.00126539240591228
1746728916554116900,9.315116943359374,0.0004918933846056461,-0.000046269502490758896,0.0007786573842167854
1746728916564135200,9.32513525390625,0.000797624234110117,-0.000729103572666645,0.0017491133185103536
1746728916574153000,9.335153076171874,-0.0006719962693750858,0.0008129612542688847,0.0013291543582454324
1746728916584171000,9.3451708984375,-0.0004112725146114826,-0.00015110289677977562,-0.002277564723044634
1746728916594188000,9.35518798828125,0.0005631987005472183,-0.0017717634327709675,-0.0006781516131013632
1746728916604206000,9.3652060546875,-0.0008674515411257744,-0.002531563164666295,0.000358350807800889
1746728916614224000,9.375223876953125,-0.000020241830497980118,0.0017914404161274433,-0.0007458790205419064
1746728916624241200,9.3852412109375,0.00023488933220505714,-0.0008821068331599236,0.0004528097342699766
1746728916634259000,9.395259033203125,0.0009268417488783598,0.00010451488196849823,-0.0008620037697255611
1746728916644277000,9.405277099609375,0.002876542042940855,-0.00008776551112532616,-0.0013381768949329853
1746728916654294500,9.41529443359375,-0.000861339271068573,0.0010850690305233002,-0.0007412782870233059
1746728916664311600,9.4253115234375,-0.0001281709410250187,-0.000197509303689003,0.0012054925318807364
1746728916674329600,9.43532958984375,-0.0007864376530051231,0.0014600511640310287,-0.0008463582489639521
1746728916684347600,9.44534765625,0.00012356461957097054,-0.0005543641746044159,-0.0007219885010272264
1746728916694364700,9.45536474609375,0.00017147604376077652,-0.0006158296018838882,0.001389161916449666
1746728916704382700,9.4653828125,0.00099812145344913,-0.000048576388508081436,0.0005561250727623701
1746728916714400500,9.475400390625,0.0008917613886296749,0.0006214650347828865,0.0012129306560382247
1746728916724418600,9.48541845703125,-0.0002893507480621338,-0.002531185280531645,-0.0017074919305741787
1746728916734435600,9.495435546875,-0.00020451704040169716,-0.0016573471948504448,-0.00022579822689294815
1746728916744453600,9.50545361328125,0.0018849989864975214,0.00017970148473978043,0.0026565410662442446
1746728916754471400,9.515471435546875,0.0010582362301647663,0.0020871423184871674,0.0018953979015350342
1746728916764488400,9.525488525390625,0.002348537789657712,-0.0017736423760652542,-0.0009469937067478895
1746728916774506500,9.535506591796874,0.0010512671433389187,-0.00022656098008155823,-0.0014897591900080442
1746728916784524800,9.54552490234375,0.0009375500958412886,-0.0018071471713483334,0.0017212139209732413
1746728916794542600,9.55554248046875,-0.0002019684761762619,0.0010725893080234528,0.00044709304347634315
1746728916804559400,9.565559326171876,0.00032879970967769623,0.0007205195724964142,-0.00151911866851151
1746728916814577700,9.57557763671875,-0.0013356148265302181,0.0010535488836467266,-0.0034065854270011187
1746728916824595500,9.585595458984375,-0.0007521160878241062,0.002666892483830452,-0.0003138564061373472
1746728916834612500,9.595612548828125,-0.001271330751478672,0.0013834275305271149,0.0017387822736054659
1746728916844630500,9.605630615234375,0.0010349666699767113,-0.0013620252721011639,-0.0018343809060752392
1746728916854648600,9.615648681640625,0.00203438731841743,-0.00031787529587745667,0.0005540936253964901
1746728916864666400,9.625666259765625,0.00029614195227622986,-0.0007024356164038181,-0.001289878971874714
1746728916874683600,9.63568359375,-0.00017881067469716072,-0.0008159270510077477,-0.001576711656525731
1746728916884701400,9.645701416015624,-0.0012949416413903236,-0.00032697105780243874,-0.0005918748211115599
1746728916894719500,9.655719482421874,-0.00011880509555339813,0.0011136271059513092,-0.0017222589813172817
1746728916904736500,9.665736572265626,-0.0009324005804955959,-0.0005364674143493176,-0.0005137166008353233
1746728916914754600,9.675754638671876,-0.0012933448888361454,-0.0008139628916978836,-0.0001141643151640892
1746728916924772600,9.685772705078126,0.0028103201184421778,0.0008118967525660992,0.00025175418704748154
1746728916934790700,9.695790771484376,-0.0006636073812842369,-0.0002185683697462082,-0.0011767297983169556
1746728916944807400,9.705807373046875,0.00010791048407554626,0.0002916930243372917,-0.0015122881159186363
1746728916954825700,9.71582568359375,0.0004333164542913437,-0.0015117027796804905,-0.0026349970139563084
1746728916964843500,9.725843505859375,0.0008192085660994053,-0.0004970384761691093,-0.0003611904103308916
1746728916974860500,9.735860595703125,-0.0019033672288060188,0.0012065372429788113,-0.0010577186476439238
1746728916984878600,9.745878662109375,-0.0007185265421867371,0.001848359126597643,0.0010901205241680145
1746728916994896600,9.755896728515625,0.0002454170025885105,0.0019304575398564339,0.002438625553622842
1746728917004914400,9.76591455078125,0.001829198794439435,0.0003589261323213577,-0.0015268214046955109
1746728917014931700,9.775931640625,0.001692886697128415,0.0017906706780195236,-0.0004165247082710266
1746728917024949500,9.785949462890626,0.0002393336035311222,-0.0008639683946967125,0.0007813652046024799
1746728917034967600,9.795967529296876,-0.0004625818692147732,0.001545958686619997,0.0009093021508306265
1746728917044984600,9.805984619140625,-0.0019670012407004833,-0.001621072180569172,0.0004903869703412056
1746728917055002400,9.81600244140625,-0.0012487778440117836,0.00004816800355911255,-0.001328395213931799
1746728917065020700,9.826020751953125,-0.0007483698427677155,-0.00031828274950385094,-0.001016539055854082
1746728917075037400,9.836037353515625,0.0009608061518520117,0.0010925373062491417,-0.000846395967528224
1746728917085055500,9.846055419921875,0.0017230026423931122,0.0009268885478377342,0.0001799862366169691
1746728917095073500,9.856073486328125,-0.000641901046037674,0.0003133164718747139,-0.0009638892952352762
1746728917105091600,9.866091552734375,-0.0015092925168573856,0.0026598279364407063,0.0003218846395611763
1746728917115108600,9.876108642578124,0.0013979829382151365,0.00048605212941765785,0.00016848929226398468
1746728917125126700,9.886126708984374,-0.0019336314871907234,0.0007742061279714108,-0.002463512821123004
1746728917135144400,9.89614453125,0.0014608839992433786,-0.0007780957967042923,-0.00111465435475111
1746728917145161700,9.90616162109375,-0.0023570237681269646,0.000003009103238582611,-0.00013194791972637177
1746728917155179500,9.916179443359376,0.00043171364814043045,0.0011728866957128048,-0.0036236410960555077
1746728917165197600,9.926197509765625,-0.0017451541498303413,-0.0023459482472389936,-0.0011652768589556217
1746728917175215400,9.93621533203125,0.0008509722538292408,0.0005532950162887573,0.0013784589245915413
1746728917185232600,9.946232666015625,-0.00039884913712739944,0.0015165605582296848,-0.0002844189293682575
1746728917195250400,9.95625048828125,0.00011040689423680305,-0.003059808164834976,0.0004649427719414234
1746728917205268700,9.966268798828125,0.0018417281098663807,-0.000006494112312793732,0.003039953066036105
1746728917215285500,9.976285400390625,-0.0018173055723309517,-0.0007005180232226849,0.0020825453102588654
1746728917225303600,9.986303466796874,-0.0020697731524705887,-0.0007399329915642738,0.0009488374926149845
1746728917235321600,9.996321533203124,0.001080524642020464,-0.001999600324779749,-0.0005759948398917913
1746728917245339600,10.006339599609374,0.0016296685207635164,0.0008113663643598557,0.000945202773436904
1746728917255356700,10.016356689453126,0.0008526118472218513,0.0020607057958841324,-0.0020454744808375835
1746728917265374700,10.026374755859376,-0.0018971017561852932,0.0009722718968987465,0.00047600618563592434
1746728917275392500,10.036392578125,0.0003559463657438755,-0.0007335180416703224,0.0007974468171596527
1746728917285409500,10.046409423828125,-0.0001998557709157467,-0.002386275678873062,-0.00008778786286711693
1746728917295427600,10.056427490234375,0.0008252467960119247,0.002104092389345169,-0.001330723986029625
1746728917305445600,10.066445556640625,0.0005243094637989998,0.0014082081615924835,-0.0004273797385394573
1746728917315463400,10.07646337890625,-0.0009161205962300301,0.003064320422708988,-0.003060002811253071
1746728917325480400,10.08648046875,-0.0009571332484483719,-0.0012675775215029716,0.0011576453689485788
1746728917335498500,10.09649853515625,-0.00205250084400177,0.0008223648183047771,0.0001260838471353054
1746728917345516800,10.106516845703124,0.00020346278324723244,-0.00016779825091362,0.00022195768542587757
1746728917355533600,10.116533447265626,0.0016515697352588177,0.000728595070540905,0.0002832782920449972
1746728917365551400,10.12655126953125,-0.0018893694505095482,-0.0002581062726676464,-0.0011801286600530148
1746728917375569700,10.136569580078126,-0.0020733769051730633,-0.0009705093689262867,0.000042365165427327156
1746728917385586400,10.14658642578125,0.002042538719251752,-0.00017369119450449944,-0.002165661659091711
1746728917395604700,10.156604736328125,-0.0008603762835264206,0.0010531400330364704,0.001646077143959701
1746728917405622500,10.16662255859375,0.0006333906203508377,-0.0017019002698361874,0.0014026642311364412
1746728917415640600,10.176640625,-0.002083160914480686,-0.0007122294045984745,6.356276571750641e-8
1746728917425657600,10.18665771484375,-0.0020163157023489475,0.0009551756083965302,-0.001090500969439745
1746728917435675600,10.196675537109375,0.00018274225294589996,-0.000013865064829587936,-0.00014006556011736393
1746728917445693400,10.206693359375,-0.004668205510824919,-0.00030015455558896065,0.0014439827064052224
1746728917455711500,10.21671142578125,0.0008498812094330788,0.00045331893488764763,0.0004418725147843361
1746728917465728500,10.226728515625,0.00007942831143736839,-0.00035095540806651115,0.0016504150116816163
1746728917475746600,10.23674658203125,0.00020568305626511574,-0.0013085310347378254,0.001121587585657835
1746728917485764600,10.2467646484375,-0.0013490705750882626,0.00023077614605426788,0.0007287715561687946
1746728917495781600,10.25678173828125,0.0014732133131474257,0.0006440985016524792,-0.0009655205067247152
1746728917505799400,10.26679931640625,-0.000386205967515707,0.00022118864580988884,-0.0003026598133146763
1746728917515817700,10.276817626953125,0.0006877384148538113,-0.00000943988561630249,0.00008316035382449627
1746728917525834500,10.28683447265625,0.0007330123335123062,-0.0005577849224209785,0.0002046006266027689
1746728917535852500,10.2968525390625,0.0020018250215798616,0.00015651481226086617,-0.0019497571047395468
1746728917545870600,10.30687060546875,-0.00000779610127210617,0.0010755718685686588,-0.0008842262905091047
1746728917555888600,10.316888671875,-0.0007588020525872707,0.0009983498603105545,-0.00005217967554926872
1746728917565905700,10.32690576171875,-0.0014168689958751202,0.0014542830176651478,-0.0008745638187974691
1746728917575923700,10.336923828125,0.0014987769536674023,-0.000041875988245010376,-0.0005973975639790297
1746728917585941500,10.34694140625,0.00040208734571933746,-0.0018192697316408157,-0.0013934166636317968
1746728917595958500,10.35695849609375,0.0009479455184191465,-0.00009849760681390762,-0.0007851819973438978
1746728917605976600,10.3669765625,-0.0007836418226361275,0.002431771717965603,-0.00022378750145435333
1746728917615994400,10.376994384765625,-0.0018288870342075825,-0.001077769324183464,-0.0012976587750017643
1746728917626012700,10.3870126953125,0.0009426646865904331,-0.00040292413905262947,0.00010715890675783157
1746728917636029400,10.397029541015625,0.0007732543163001537,-0.00001742132008075714,-0.0011438799556344748
1746728917646047500,10.407047607421875,-0.001422255765646696,-0.0000128941610455513,0.0007312516681849957
1746728917656066300,10.41706640625,0.0008496497757732868,0.0014470238238573074,0.002031765878200531
1746728917666083000,10.4270830078125,-0.0019820891320705414,-0.0006946902722120285,-0.001375749008730054
1746728917676100900,10.437100830078125,0.00029760226607322693,-0.00013531791046261787,0.0009329968597739935
1746728917686119200,10.447119140625,-0.00044328905642032623,-0.0014591752551496029,-0.0008686317596584558
1746728917696137000,10.457136962890624,-0.0010358747094869614,0.0014417138881981373,0.00035383948124945164
1746728917706154000,10.467154052734376,0.002012113342061639,0.0005463589914143085,0.0018300297670066357
1746728917716172000,10.477172119140626,0.0009072546381503344,-0.00033450545743107796,0.0021210317499935627
1746728917726190000,10.487190185546876,0.0017309703398495913,-0.001423738431185484,0.00012499233707785606
1746728917736207000,10.49720703125,0.000494680367410183,-0.0004925541579723358,-0.0004958219360560179
1746728917746225200,10.50722509765625,-0.0008920272812247276,-0.0006384956650435925,0.0015691930893808603
1746728917756243000,10.517242919921875,0.0021255696192383766,0.0017762277275323868,0.003044486278668046
1746728917766261000,10.527260986328125,0.0005114278756082058,0.0016792886890470982,-0.0017121857963502407
1746728917776278000,10.537278076171875,-0.0003308677114546299,0.0013628876768052578,-0.001679672161117196
1746728917786296000,10.547296142578125,0.001348787685856223,-0.00040438584983348846,0.0023438315838575363
1746728917796314000,10.557314208984375,0.0015596691519021988,0.0008694692514836788,-0.0007616875227540731
1746728917806331100,10.5673310546875,-0.001138379331678152,0.00105642294511199,0.0008351437281817198
1746728917816349000,10.577348876953126,0.0002513863146305084,0.001071528997272253,-0.0019171261228621006
1746728917826367200,10.5873671875,0.00016989326104521751,0.0015144129283726215,0.0016461831983178854
1746728917836384000,10.597384033203125,-0.000918049830943346,-0.0015918710269033909,-0.0004160916432738304
1746728917846402000,10.607402099609375,-0.001721525564789772,-0.0008445880375802517,-0.0015143791679292917
1746728917856420000,10.617420166015625,0.00018923310562968254,-0.001894199987873435,0.0018479973077774048
1746728917866438100,10.627438232421875,-0.0030302624218165874,0.0014027934521436691,0.0035396371968090534
1746728917876455200,10.637455078125,0.0008754977025091648,-0.0023852207232266665,0.0008261790499091148
1746728917886473200,10.64747314453125,0.0006099804304540157,-0.0023833566810935736,-0.0013890382833778858
1746728917896491000,10.657490966796875,-0.0005300929769873619,0.000836904626339674,0.00003086589276790619
1746728917906508000,10.667508056640624,0.0016672811470925808,-0.0012046750634908676,0.0002021072432398796
1746728917916526000,10.677526123046874,0.0007908809930086136,0.001201484352350235,-0.0014019990339875221
1746728917926544000,10.6875439453125,-0.0010048886761069298,0.0015580817125737667,0.00010375212877988815
1746728917936562200,10.697562255859374,0.001771839102730155,-0.0009147678501904011,-0.00008376222103834152
1746728917946579000,10.707578857421876,-0.0010814717970788479,-0.001221830490976572,-0.0029676994308829308
1746728917956597000,10.717596923828125,0.0002725599333643913,-0.0005021882243454456,-0.0007344773039221764
1746728917966615000,10.727614990234375,0.0018781798426061869,0.0006680050864815712,-0.0006521856412291527
1746728917976632000,10.737632080078125,0.0011387488339096308,-0.0002629728987812996,-0.0011486280709505081
1746728917986650000,10.747650146484375,-0.0007342523895204067,0.00033224374055862427,0.000666316132992506
1746728917996668200,10.757668212890625,-0.0008607241325080395,0.000308341346681118,0.001145834568887949
1746728918006686000,10.76768603515625,-0.00256461463868618,0.0006287195719778538,0.0005772497970610857
1746728918016703200,10.777703125,0.0007510436698794365,0.001677866093814373,-0.00030942168086767197
1746728918026721000,10.787720947265624,-0.001779758371412754,0.0015111523680388927,0.0016115164617076516
1746728918036739000,10.797739013671874,0.0006102961488068104,0.0008772937580943108,0.0012585996882990003
1746728918046756000,10.807756103515626,-0.0003324626013636589,-0.00073658162727952,0.001299345982261002
1746728918056774100,10.817774169921876,0.00024193618446588516,-0.00011233147233724594,0.0017727528465911746
1746728918066792000,10.8277919921875,-0.0011937739327549934,-0.003081489587202668,-0.0027466316241770983
1746728918076809200,10.837809326171875,0.001722558867186308,-0.0003918479196727276,-0.001977394800633192
1746728918086827000,10.847826904296875,-0.0019153193570673466,0.0014012586325407028,0.0003267719876021147
1746728918096845000,10.857844970703125,0.0016478665638715029,-0.0021759208757430315,0.0001954424660652876
1746728918106863000,10.867863037109375,0.0015312200412154198,-0.0012542009353637695,-0.0021326930727809668
1746728918116880100,10.877880126953125,0.0013658152893185616,-0.00033096643164753914,-0.001638403395190835
1746728918126898200,10.887898193359375,0.00014768540859222412,-0.0012982264161109924,-0.0030054037924855947
1746728918136916200,10.897916259765625,0.0008377197664231062,0.000475520733743906,0.0015836965758353472
1746728918146933000,10.90793310546875,-0.001048064325004816,0.0000843023881316185,-0.0007415094878524542
1746728918156951000,10.917950927734376,0.001570216380059719,-0.0008924840949475765,-0.0019181023817509413
1746728918166969000,10.927968994140626,-0.001123038586229086,0.000798090361058712,0.0002646243665367365
1746728918176987100,10.937987060546876,0.0003422643058001995,0.0011635716073215008,-0.00032755453139543533
1746728918187004200,10.948004150390625,0.003759632585570216,0.0003238772042095661,0.0007574174087494612
1746728918197022000,10.95802197265625,-0.0018665287643671036,-0.00022548623383045197,0.0009143608622252941
1746728918207040000,10.9680400390625,0.0008267259690910578,0.001877345610409975,-0.0006345335859805346
1746728918217057000,10.97805712890625,-0.0018908395431935787,-0.0016584261320531368,0.00028268550522625446
1746728918227075000,10.988074951171875,-0.0003398144617676735,-0.0020677538122981787,-0.0009503581095486879
1746728918237092900,10.9980927734375,0.0016888726968318224,0.0010919184423983097,0.0019655111245810986
1746728918247111200,11.008111083984375,0.000053425319492816925,-0.0029784569051116705,0.0024600601755082607
1746728918257128000,11.0181279296875,-0.000989365391433239,0.0011213067919015884,-0.00021133874543011189
1746728918267146000,11.02814599609375,-0.0012530186213552952,0.00011969218030571938,0.0006275568157434464
1746728918277164000,11.0381640625,0.0027699482161551714,-0.0010443353094160557,-0.0004558679647743702
1746728918287181000,11.04818115234375,0.0007291678339242935,-0.00033620093017816544,0.0016592146130278707
1746728918297199000,11.05819921875,-0.003116757143288851,0.00031125033274292946,-0.0004143407568335533
1746728918307217200,11.068217041015625,-0.0001233643852174282,-0.0007873037829995155,-0.0027246330864727497
1746728918317235000,11.07823486328125,-0.00041904812678694725,-0.00035615451633930206,0.0014366979012265801
1746728918327252200,11.088252197265625,0.00011225277557969093,0.0007402687333524227,-0.000011262716725468636
1746728918337270000,11.09827001953125,-0.0015852861106395721,-0.00009141815826296806,0.0013284891610965133
1746728918347288000,11.1082880859375,-0.001099259126931429,-0.0009899684228003025,-0.0021570560056716204
1746728918357305000,11.11830517578125,-0.0018178019672632217,0.000765673816204071,0.002385471947491169
1746728918367323100,11.1283232421875,-0.00010698754340410233,0.0012032310478389263,-0.0014398929197341204
1746728918377341000,11.1383408203125,0.002516442211344838,-0.000811960082501173,0.00009743147529661655
1746728918387358000,11.14835791015625,0.0008088233880698681,-0.0004348568618297577,0.0015437941765412688
1746728918397376000,11.1583759765625,-0.0007500159554183483,-0.0010369452647864819,0.0033313545864075422
1746728918407394000,11.16839404296875,0.0006771720945835114,-0.0006710267625749111,-0.0008354273159056902
1746728918417412000,11.178412109375,-0.000046011991798877716,0.001909666694700718,-0.0007463516667485237
1746728918427428900,11.188428955078125,-0.0004603997804224491,-0.0019364706240594387,0.00005019991658627987
1746728918437447200,11.198447265625,0.0000027203932404518127,-0.0016658296808600426,0.0011233447585254908
1746728918447465200,11.20846533203125,0.0008738401811569929,-0.0011353283189237118,0.00043944502249360085
1746728918457482000,11.21848193359375,0.003270543646067381,0.0021075974218547344,0.0010426139924675226
1746728918467500000,11.2285,0.00035784440115094185,0.0006271456368267536,0.002137705683708191
1746728918477518000,11.23851806640625,-0.00014994805678725243,0.000497074332088232,0.0006554520223289728
1746728918487535900,11.248535888671874,-0.00013769790530204773,0.00025392789393663406,0.001598743605427444
1746728918497553200,11.25855322265625,0.0026045283302664757,0.001822745893150568,0.00020076637156307697
1746728918507571000,11.268571044921876,-0.0026245885528624058,-0.0007637161761522293,-0.0009329414460808039
1746728918517589000,11.278589111328126,0.0005773557350039482,0.0009104544296860695,0.0029803127981722355
1746728918527606000,11.28860595703125,-0.0005739284679293633,-0.001360156573355198,-0.002090079477056861
1746728918537624000,11.2986240234375,0.00004675239324569702,-0.001969289733096957,0.0020672755781561136
1746728918547642000,11.30864208984375,0.00001692492514848709,-0.000022252555936574936,0.0011157281696796417
1746728918557660200,11.31866015625,0.0014702160842716694,-0.00013652397319674492,0.0011390694417059422
1746728918567677000,11.328677001953125,0.0014883256517350674,-0.0006371983326971531,-0.001051114173606038
1746728918577695200,11.3386953125,-0.0008118799887597561,0.0008471901528537273,-0.0001982506364583969
1746728918587713000,11.348713134765624,-0.0005929679609835148,0.000919627957046032,0.0005519618280231953
1746728918597730000,11.35872998046875,0.0005847951397299767,-0.0008548987098038197,-0.0017727392259985209
1746728918607748000,11.368748046875,0.00046468665823340416,0.0011488636955618858,-0.0002142575103789568
1746728918617766100,11.37876611328125,0.0008219284936785698,-0.0009459205903112888,0.00007894984446465969
1746728918627783200,11.388783203125,-0.0012026065960526466,0.0017233658581972122,-0.00005074613727629185
1746728918637801200,11.39880126953125,0.000718830619007349,0.00003713555634021759,0.0009719270747154951
1746728918647819000,11.408819091796875,-0.0004255296662449837,-0.0015833978541195393,-0.002292575780302286
1746728918657837300,11.41883740234375,-0.00017626816406846046,0.001430680975317955,0.0010087431874126196
1746728918667854600,11.4288544921875,-0.00022979779168963432,0.002811530139297247,-0.003349520033225417
1746728918677872400,11.438872314453125,-0.001985392067581415,-0.0010679727420210838,0.0007484282832592726
1746728918687890400,11.448890380859375,-0.00019415002316236496,0.000899038277566433,0.0025026523508131504
1746728918697907500,11.458907470703124,0.001501633320003748,-0.002918284386396408,0.0013455146690830588
1746728918707925500,11.468925537109374,0.0011967015452682972,0.0010700654238462448,0.0010879868641495705
1746728918717943600,11.478943603515624,-0.0021649464033544064,-0.0003202366642653942,-0.00004866509698331356
