time,seconds_elapsed,z,y,x
1746576145757738800,0.01973876953125,0.00005267001688480377,-0.000056824181228876114,-0.00036436785012483597
1746576145767704000,0.0297041015625,-0.00002962164580821991,-0.0001524314284324646,-0.0023886370472609997
1746576145777668000,0.039668212890625,0.00005386117845773697,-0.00041481852531433105,-0.0015558390878140926
1746576145787633000,0.0496328125,0.0002597235143184662,-0.0008284072391688824,0.0002284785732626915
1746576145797598000,0.059597900390625,0.00015962077304720879,0.00020899204537272453,-0.0004579448141157627
1746576145807562000,0.06956201171875,0.0007969150319695473,0.00041884928941726685,-0.0009578200988471508
1746576145817526800,0.07952685546875,0.0010155185591429472,0.00027457159012556076,0.0009830906055867672
1746576145827490800,0.08949072265625,-0.0005179294385015965,-0.000867658294737339,-0.0007040221244096756
1746576145837456000,0.099455810546875,4.2980536818504333e-7,-0.00031308503821492195,0.002100138459354639
1746576145847420000,0.109419921875,-0.00031062751077115536,-0.0011820741929113865,0.00044152187183499336
1746576145857385000,0.119385009765625,-0.00040756911039352417,-0.000013783108443021774,0.0011179959401488304
1746576145867349000,0.129348876953125,0.00008378410711884499,-0.0006012762896716595,0.00027750199660658836
1746576145877313800,0.139313720703125,-0.0014248506631702185,-0.00124000059440732,-0.0013444414362311363
1746576145887277800,0.14927783203125,-0.002098364057019353,0.0007531088776886463,-0.0004999530501663685
1746576145897243100,0.1592431640625,0.00022155558690428734,0.0015360149554908276,0.00019328156486153603
1746576145907207000,0.16920703125,-0.0006245309486985207,-0.00020436057820916176,-0.0002408139407634735
1746576145917172000,0.179171875,0.0006935219280421734,-0.00037114135921001434,-0.0003918139263987541
1746576145927136000,0.189135986328125,0.0012176320888102055,0.00045843329280614853,0.0009621372446417809
1746576145937100800,0.199100830078125,0.00013689463958144188,0.00023378804326057434,-0.0006213081069290638
1746576145947065900,0.20906591796875,0.000503079267218709,-0.00003093015402555466,0.00013289926573634148
1746576145957030000,0.21902978515625,-0.00010834983550012112,-0.0012768511660397053,-0.0007258863188326359
1746576145966995000,0.228994873046875,-0.00014669937081634998,-0.00033595645800232887,0.0009702811948955059
1746576145976959000,0.238958984375,-0.0001307041384279728,0.00011081481352448463,0.00022237049415707588
1746576145986924000,0.248924072265625,-0.000762139679864049,-0.001108646858483553,0.00027190521359443665
1746576145996887800,0.2588876953125,-0.001170206582173705,0.0001801997423171997,-0.0005657020956277847
1746576146006852900,0.268852783203125,0.00047216471284627914,-0.00015296181663870811,-0.0005417335778474808
1746576146016817000,0.27881689453125,-0.001922363881021738,-0.001046790275722742,-0.00017853593453764915
1746576146026782000,0.288781982421875,-0.001371089369058609,0.000807568896561861,-0.0002850624732673168
1746576146036746000,0.29874609375,0.0009704672265797853,-0.0006330632604658604,-0.00013410300016403198
1746576146046711000,0.3087109375,0.00022984202951192856,0.0012266221456229687,0.00022542383521795273
1746576146056675000,0.318675048828125,-0.000019342172890901566,-0.0009683631360530853,-0.0007690410129725933
1746576146066640000,0.328639892578125,-0.0006608976982533932,0.00028891535475850105,-0.0003471961244940758
1746576146076605000,0.33860498046875,0.0009330890607088804,0.00028685852885246277,-0.0010650125332176685
1746576146086569000,0.34856884765625,0.00042762095108628273,0.00009511085227131844,0.000613844022154808
1746576146096534000,0.358533935546875,-0.0017789618577808142,-0.0007187183946371078,0.00138807762414217
1746576146106498000,0.368498046875,-0.0002979778219014406,-0.00014853524044156075,0.001108712051063776
1746576146116462800,0.378462890625,-0.0009825816377997398,-0.0016880473122000694,0.0001593269407749176
1746576146126427000,0.388427001953125,-0.0005250507965683937,-0.00007417192682623863,-0.0011179251596331596
1746576146136392000,0.398391845703125,-0.000007919268682599068,0.00044274190440773964,-0.0007451046258211136
1746576146146356000,0.40835595703125,0.0001302987802773714,-0.001010811422020197,-0.001201570499688387
1746576146156320800,0.41832080078125,-0.0005399168003350496,-0.0005188933573663235,0.001115577295422554
1746576146166285000,0.42828515625,0.0005336033646017313,0.0006259996443986893,0.00032168859615921974
1746576146176249900,0.438249755859375,-0.00037416815757751465,-0.0003206576220691204,0.0011901701800525188
1746576146186215000,0.44821484375,0.00000879424624145031,0.0010980083607137203,-0.00019254302605986595
1746576146196179000,0.458178955078125,0.0007906942628324032,0.00040289759635925293,-0.000530559103935957
1746576146206143700,0.468143798828125,-0.0008253119885921478,-0.00020590098574757576,-0.0008064629510045052
1746576146216107800,0.478107666015625,0.0001279751304537058,0.0009521916508674622,0.0005411701276898384
1746576146226073000,0.488072998046875,0.000011594966053962708,-0.0004116129130125046,-0.0011893520131707191
1746576146236037000,0.498037109375,0.00022669322788715363,0.000067912507802248,0.0017009773291647434
1746576146246002000,0.508001953125,0.00045679020695388317,0.00023755570873618126,0.00046740099787712097
1746576146255966000,0.517966064453125,-0.0016727130860090256,-0.00022400310263037682,0.0002993447706103325
1746576146265931000,0.527930908203125,0.0013118914794176817,0.00023406045511364937,0.0002812352031469345
1746576146275894800,0.537894775390625,0.0002965293824672699,0.000545781571418047,-0.0009548519738018513
1746576146285859800,0.54785986328125,0.0007841542828828096,-0.0009202882647514343,-0.0016643181443214417
1746576146295824000,0.557823974609375,0.000500136986374855,0.0006394898518919945,0.0012527788057923317
1746576146305789000,0.567788818359375,0.0009033393580466509,-0.0005586664192378521,-0.0003552376292645931
1746576146315754000,0.57775390625,-0.0016006659716367722,-0.0002776975743472576,-0.0007695946842432022
1746576146325718000,0.587718017578125,0.0003365171141922474,0.0006946222856640816,0.0021668069530278444
1746576146335682800,0.597682861328125,-0.0008307455573230982,-0.0010319729335606098,-0.0009154845029115677
1746576146345646800,0.607646728515625,0.001540533034130931,0.0006572701968252659,0.0004981211386620998
1746576146355612200,0.617612060546875,-0.0009158195462077856,-0.0003825584426522255,0.0002619437873363495
1746576146365576000,0.627575927734375,-0.00011926819570362568,-0.0003857542760670185,0.0005418416112661362
1746576146375541000,0.637541015625,-0.0007918956689536572,-0.0008078170940279961,-0.0001850966364145279
1746576146385505000,0.647505126953125,0.0005143850576132536,0.00009925570338964462,-0.0009020199067890644
1746576146395469800,0.6574697265625,-0.0006931030657142401,0.0001561194658279419,-0.0006785071454942226
1746576146405433900,0.667433837890625,-0.0014196133706718683,0.00017902255058288574,-0.00039940793067216873
1746576146415399000,0.67739892578125,-0.0003428326454013586,-0.001316966488957405,0.0007130405865609646
1746576146425363000,0.687363037109375,-0.0007289911154657602,0.001067628152668476,0.00046323612332344055
1746576146435328000,0.697327880859375,-0.00013062055222690105,-0.0013973535969853401,-0.00027083745226264
1746576146445293000,0.70729296875,0.0009724607225507498,-0.0011230483651161194,-0.00001890258863568306
1746576146455257300,0.71725732421875,0.0006515933200716972,-0.00024375459179282188,0.0015941760502755642
1746576146465222400,0.727222412109375,-0.0008150092326104641,0.0009541353210806847,-0.00028281984850764275
1746576146475186400,0.7371865234375,-0.0004905331879854202,0.00024806195870041847,-0.0009323633275926113
1746576146485151200,0.747151123046875,0.0011390552390366793,0.0009660501964390278,-0.0002591162919998169
1746576146495115300,0.757115234375,0.00017202203162014484,-0.0003272863104939461,0.0007424908690154552
1746576146505080600,0.76708056640625,-0.0007781940512359142,-0.0005432688631117344,-0.00033582327887415886
1746576146515044400,0.77704443359375,-0.0005601143930107355,-0.0009995140135288239,0.0013528820127248764
1746576146525009400,0.787009521484375,-0.0011151174549013376,-0.0002261321060359478,0.00007589627057313919
1746576146534973400,0.796973388671875,0.0007572732865810394,-0.000772357452660799,-0.0002553509548306465
1746576146544938200,0.806938232421875,0.0006155932787805796,-0.0006407974287867546,-0.0000209929421544075
1746576146554902300,0.81690234375,0.0003618239425122738,0.0003031785599887371,0.000019368715584278107
1746576146564867600,0.82686767578125,0.0008726182859390974,-0.00021667033433914185,0.00034241052344441414
1746576146574832400,0.836832275390625,-0.0000672291498631239,0.000031070783734321594,-0.0005548321641981602
1746576146584796400,0.84679638671875,-0.0003372735809534788,-0.00021873367950320244,0.0005684890784323215
1746576146594761500,0.856761474609375,0.0009883500169962645,-0.0002488754689693451,-0.0006386968307197094
1746576146604725200,0.866725341796875,-0.00014802091754972935,0.000020369887351989746,0.0016846447251737118
1746576146614690300,0.876690185546875,0.0007401695474982262,-0.0008865064010024071,0.00005611265078186989
1746576146624654300,0.886654296875,-0.0015102014876902103,-0.001354956068098545,0.00026730122044682503
1746576146634619400,0.896619384765625,-0.0020627754274755716,0.000706985592842102,0.0012810504995286465
1746576146644583400,0.90658349609375,-0.0008459773380309343,0.0005618436262011528,-0.002148568630218506
1746576146654548500,0.916548583984375,-0.000675564631819725,0.0007453951984643936,0.00022080494090914726
1746576146664512500,0.926512451171875,0.0005236570723354816,0.0012063882313668728,-0.000511564314365387
1746576146674477300,0.936477294921875,-0.0006972930859774351,-0.0003399602137506008,-0.0005102711729705334
1746576146684441300,0.94644140625,-0.0009124765638262033,-0.001436383929103613,-0.000132635235786438
1746576146694406100,0.95640625,-0.0008391838055104017,0.001765943132340908,0.00021804636344313622
1746576146704371500,0.966371337890625,-0.0005169415380805731,0.00014487700536847115,-0.00023469096049666405
1746576146714335500,0.97633544921875,0.00020525488071143627,0.0007746163755655289,0.0007693558000028133
1746576146724300300,0.98630029296875,-0.0006261842790991068,-0.00036787986755371094,-0.00007113814353942871
1746576146734264300,0.996264404296875,-0.0007773973047733307,-0.0009706229902803898,-0.0015494883991777897
1746576146744229400,1.0062294921875,-0.0006967033259570599,0.0009886645711958408,0.0000907527282834053
1746576146754193400,1.016193359375,0.0005677042063325644,-0.0016537050250917673,0.0009934725239872932
1746576146764158500,1.026158447265625,-0.0004205948207527399,0.0013743089511990547,-0.0001575457863509655
1746576146774122500,1.03612255859375,-0.00020585744641721249,0.00007939385250210762,0.0005142400041222572
1746576146784087300,1.04608740234375,0.0004599329549819231,0.00006261607632040977,0.0008021276444196701
1746576146794051300,1.05605126953125,-0.002204765100032091,0.0007496858015656471,-0.0004520062357187271
1746576146804016400,1.066016357421875,0.0003294989001005888,-0.000623706728219986,0.0015802518464624882
1746576146813980400,1.07598046875,-0.0007081942167133093,-0.00003016553819179535,0.0005290587432682514
1746576146823945200,1.0859453125,0.0007080745417624712,-0.0003292388282716274,-0.000673358328640461
1746576146833909200,1.0959091796875,-0.001393609680235386,-0.00010431231930851936,0.0006522093899548054
1746576146843874600,1.10587451171875,0.000583787215873599,-0.000993009191006422,-0.000349405687302351
1746576146853839400,1.11583935546875,0.0014135453384369612,-0.0008331858552992344,0.0000451505184173584
1746576146863803400,1.125803466796875,0.00007557333447039127,0.0007508625276386738,0.00015673693269491196
1746576146873768400,1.1357685546875,-0.0007707518525421619,0.0005042883567512035,-0.00040303636342287064
1746576146883732200,1.145732177734375,0.00019517657347023487,0.0001942962408065796,-0.0011852066963911057
1746576146893697500,1.155697509765625,-0.0006839153356850147,0.000707047525793314,-0.0008155512623488903
1746576146903661600,1.16566162109375,-0.00046846549957990646,0.00011529307812452316,-0.0013295416720211506
1746576146913626400,1.17562646484375,0.0003598402254283428,-0.00024832552298903465,0.0011286614462733269
1746576146923590400,1.18559033203125,0.00010231253691017628,0.0013413149863481522,0.0016421189066022635
1746576146933555500,1.195555419921875,0.00046003260649740696,0.000273645855486393,0.0003984239883720875
1746576146943519200,1.205519287109375,-0.0019421386532485485,0.0005586040206253529,0.000997102353721857
1746576146953484300,1.215484375,0.0011612398084253073,-0.00011486280709505081,0.0004498884081840515
1746576146963448300,1.2254482421875,0.0012975938152521849,-0.00018623564392328262,0.0016842635814100504
1746576146973413400,1.235413330078125,-0.00001694168895483017,-0.0008118492551147938,-0.0011820117942988873
1746576146983378400,1.24537841796875,0.0006395275704562664,0.0003021508455276489,-0.0007622977718710899
1746576146993342500,1.255342529296875,0.00021525844931602478,-0.0008078045211732388,0.000984476413577795
1746576147003307300,1.265307373046875,-0.00024546822533011436,0.0014534853398799896,0.0007091052830219269
1746576147013271300,1.275271240234375,0.0015546404756605625,-0.0012352392077445984,0.001356982160359621
1746576147023236400,1.285236328125,-0.00073248241096735,0.00010779313743114471,-0.0014627724885940552
1746576147033200400,1.295200439453125,-0.00009159022010862827,-0.0006809313781559467,-0.0003447486087679863
1746576147043165400,1.30516552734375,-0.0012958717998117208,-0.001111830584704876,-0.00011997809633612633
1746576147053129500,1.31512939453125,0.0004501666408032179,-0.0006912862882018089,0.0005255532450973988
1746576147063094300,1.32509423828125,-0.0006944597698748112,0.0006117983721196651,0.00020810449495911598
1746576147073058300,1.335058349609375,-0.000016439007595181465,0.0007227133028209209,0.0012993714772164822
1746576147083023400,1.3450234375,0.0004418911412358284,-0.0008600032888352871,-0.00019466178491711617
1746576147092987400,1.3549873046875,-0.0008583336602896452,-0.000013101845979690552,-0.00015930132940411568
1746576147102952400,1.364952392578125,0.0007515472825616598,-0.0007404112257063389,0.001340324990451336
1746576147112917500,1.37491748046875,0.00031637540087103844,-0.00014079827815294266,0.0008851601742208004
1746576147122881500,1.384881591796875,-0.0017901852261275053,0.00047838641330599785,0.0008950135670602322
1746576147132846300,1.394846435546875,0.0005140586290508509,0.0021158340387046337,-0.0005511976778507233
1746576147142810400,1.404810302734375,0.00038383016362786293,0.00046973396092653275,0.0005478891544044018
1746576147152775200,1.414775146484375,0.0008612526580691338,-0.0009107524529099464,-0.0002923235297203064
1746576147162739200,1.4247392578125,-0.00022238749079406261,-0.000492369756102562,0.0005841227248311043
1746576147172704500,1.43470458984375,0.0008875415660440922,-0.0009274454787373543,-0.0006972742266952991
1746576147182668500,1.44466845703125,0.0006238885689526796,-0.0006198501214385033,0.0005813091993331909
1746576147192633300,1.45463330078125,-0.000023967120796442032,-0.0001524081453680992,0.00023591425269842148
1746576147202597400,1.464597412109375,0.0005534063093364239,0.0007874215953052044,0.0008274023421108723
1746576147212562400,1.4745625,-0.0006049044895917177,0.00024396274238824844,0.00009669177234172821
1746576147222526200,1.484526123046875,-0.00012526917271316051,0.0006745955906808376,-0.0019339686259627342
1746576147232491500,1.494491455078125,-0.00044630421325564384,-0.00010724086314439774,0.000178544782102108
1746576147242455600,1.50445556640625,0.0008812816813588142,-0.0003208261914551258,0.00028081005439162254
1746576147252420400,1.51442041015625,0.00036142044700682163,0.0003908248618245125,0.000992034561932087
1746576147262384400,1.52438427734375,0.0004727407358586788,-0.0004824255593121052,-0.0003960048779845238
1746576147272349400,1.534349365234375,-0.0010989322327077389,-0.0003024553880095482,0.001255926676094532
1746576147282314200,1.544314208984375,0.00025555165484547615,-0.0017573405057191849,-0.00035555195063352585
1746576147292278300,1.5542783203125,0.0001786507200449705,0.00009931204840540886,-0.00023176101967692375
1746576147302243600,1.56424365234375,-0.00034492695704102516,-0.000514280516654253,0.000946421641856432
1746576147312207400,1.574207275390625,0.00024577928707003593,-0.0003605131059885025,-0.00023242784664034843
1746576147322172400,1.58417236328125,-0.0005217436701059341,-0.0003597140312194824,-0.0017863824032247066
1746576147332136400,1.594136474609375,0.0000037071295082569122,0.0002978178672492504,0.0013616066426038742
1746576147342101200,1.604101318359375,0.0016008049715310335,-0.00039140786975622177,-0.0011739889159798622
1746576147352065300,1.614065185546875,0.0002486426383256912,0.0003477106802165508,-0.0006900029256939888
1746576147362030300,1.6240302734375,0.0006462526507675648,0.000544251874089241,-0.0009094472043216228
1746576147371994400,1.633994384765625,0.00021076248958706856,-0.001990110147744417,-0.0005519078113138676
1746576147381959400,1.64395947265625,0.0005109007470309734,0.00006851321086287498,-0.001803860068321228
1746576147391923500,1.65392333984375,-0.0002745154779404402,-0.0001380927860736847,0.00042342254891991615
1746576147401888300,1.66388818359375,-0.0012937074061483145,-0.0014598192647099495,0.00046523427590727806
1746576147411852300,1.673852294921875,0.00027046329341828823,0.0013601435348391533,0.0004816446453332901
1746576147421817300,1.6838173828125,0.00017059477977454662,-0.0006108619272708893,0.00003583123907446861
1746576147431782400,1.693782470703125,-0.000016913283616304398,-0.00017413869500160217,0.0008806586265563965
1746576147441746400,1.703746337890625,-0.00020812824368476868,0.001132940873503685,-0.0009737005457282066
1746576147451710000,1.7137099609375,-0.0011755849700421095,0.0004997663199901581,0.000116727314889431
1746576147461674000,1.723674072265625,0.001837515621446073,-0.002065390581265092,-0.0008025960996747017
1746576147471639000,1.73363916015625,0.0005524549633264542,-0.0004066335968673229,-0.001353805884718895
1746576147481602800,1.743602783203125,0.0003937305882573128,-0.00026122527197003365,0.0005420981906354427
1746576147491568000,1.753568115234375,-0.00021912157535552979,0.0014189565554261208,0.0003400631248950958
1746576147501532200,1.7635322265625,0.0000887399073690176,-0.0007227575406432152,0.000259369146078825
1746576147511497000,1.7734970703125,0.0006524468772113323,0.0006137643940746784,-0.0015292358584702015
1746576147521461000,1.7834609375,0.000002901768311858177,0.00027580931782722473,-0.0012679798528552055
1746576147531426000,1.793426025390625,-0.00010771793313324451,-0.0011693588458001614,-0.00017243996262550354
1746576147541389800,1.803389892578125,0.0009213276207447052,0.000547314528375864,0.0013900366611778736
1746576147551355100,1.813355224609375,-0.0011811687145382166,-0.00033794017508625984,-0.000055217184126377106
1746576147561319200,1.823319091796875,0.000695294700562954,0.0008564875461161137,-0.0004248642362654209
1746576147571284000,1.833283935546875,0.0005029425956308842,-0.0006934492848813534,0.0007120287045836449
1746576147581249000,1.8432490234375,0.0008989544585347176,0.0010093757882714272,0.00005396129563450813
1746576147591213000,1.853213134765625,0.0012788441963493824,-0.0006667091511189938,0.0007040379568934441
1746576147601177900,1.863177734375,-0.0004080019425600767,-0.00004166550934314728,-0.001934621948748827
1746576147611142000,1.873141845703125,-0.0003240145742893219,0.00037336768582463264,-0.0007590367458760738
1746576147621107200,1.883107177734375,-0.0009722276590764523,-0.000060727354139089584,-0.0007816734723746777
1746576147631071000,1.893071044921875,-0.00043741054832935333,0.00021546240895986557,-0.0010287631303071976
1746576147641036000,1.9030361328125,0.0004723253659904003,0.0009289230220019817,0.00004395795986056328
1746576147651000000,1.913,-0.00042537879198789597,-0.000029981136322021484,0.0004144366830587387
1746576147660964900,1.92296484375,0.00018847966566681862,-0.00024037063121795654,0.0006844811141490936
1746576147670929000,1.932928955078125,-0.0002265661023557186,-0.0005462160333991051,-0.0005346424877643585
1746576147680894000,1.94289404296875,-0.00032377149909734726,0.00035126926377415657,0.0005825534462928772
1746576147690858000,1.95285791015625,-0.00003531016409397125,-0.00024806661531329155,-0.0003552366979420185
1746576147700823000,1.962822998046875,0.0006475241389125586,-0.0016992229502648115,-0.0001626899465918541
1746576147710787000,1.972787109375,0.0007708920165896416,0.0005257460288703442,0.0007158061489462852
1746576147720752000,1.982752197265625,-0.0009207476396113634,0.0006304085254669189,0.0002103378064930439
1746576147730717000,1.992717041015625,-0.00029863533563911915,-0.000370638445019722,-0.0006482652388513088
1746576147740681000,2.002680908203125,-0.0004853231366723776,-0.0006318944506347179,-0.0007244315929710865
1746576147750646000,2.01264599609375,-0.0003693653270602226,-0.0008383197709918022,-0.0003475239500403404
1746576147760610000,2.022610107421875,-0.000005311332643032074,0.0004866030067205429,-0.000386139377951622
1746576147770575000,2.0325751953125,0.002421375596895814,0.0007433588616549969,-0.0009335493668913841
1746576147780539100,2.0425390625,-0.0014535235241055489,-0.00022549927234649658,0.0008310610428452492
1746576147790504000,2.05250390625,-0.000015229685232043266,-0.0011102701537311077,-0.00015753787010908127
1746576147800468000,2.062468017578125,0.0007618807721883059,-0.001524125225841999,0.00036417553201317787
1746576147810433000,2.07243310546875,0.000590156763792038,-0.0008624163456261158,0.00043945759534835815
1746576147820396800,2.082396728515625,0.000031159259378910065,-0.0005723978392779827,0.0006133620627224445
1746576147830362000,2.092362060546875,0.0007687674369663,0.005360341630876064,0.003087166929617524
1746576147840326100,2.102326171875,0.00024891854263842106,0.003992541693150997,0.0006517060101032257
1746576147850291000,2.112291015625,0.00034877238795161247,0.0026930966414511204,0.0013149376027286053
1746576147860255000,2.1222548828125,0.0002864545676857233,-0.0010377257131040096,-0.0005721785128116608
1746576147870220000,2.132219970703125,0.0002794929314404726,0.0005504842847585678,-0.0009756600484251976
1746576147880183800,2.142183837890625,-0.00042864144779741764,0.0013885810039937496,-0.0007428997196257114
1746576147890149000,2.152149169921875,-0.0009757897350937128,0.004880174528807402,0.001728948438540101
1746576147900114200,2.1621142578125,-0.001157949911430478,0.005649562459439039,0.0012756786309182644
1746576147910078000,2.172077880859375,-0.0009232757147401571,0.002801836933940649,0.0007458417676389217
1746576147920043000,2.18204296875,-0.000050824135541915894,-0.0014581549912691116,0.0003807223401963711
1746576147930007000,2.192007080078125,-0.0004060729406774044,-0.0015292228199541569,-0.00010207155719399452
1746576147939971800,2.201971923828125,0.000954802380874753,-0.002749483101069927,-0.0008000857196748257
1746576147949935900,2.211935791015625,0.0007295776158571243,-0.001131789293140173,-0.00022702524438500404
1746576147959901200,2.221901123046875,-0.00027949409559369087,0.002302889246493578,0.00027684494853019714
1746576147969865000,2.231864990234375,0.0005646550562232733,0.0012229993008077145,0.00048169028013944626
1746576147979830000,2.241830078125,0.001617136411368847,0.005606828723102808,0.002078787889331579
1746576147989794000,2.2517939453125,0.02730230987071991,0.0029767798259854317,-0.00031536025926470757
1746576147999758800,2.2617587890625,0.06166880950331688,0.011215800419449806,0.0005224701017141342
1746576148009723000,2.271722900390625,0.1083279401063919,-0.036300115287303925,-0.009856929071247578
1746576148019688000,2.28168798828125,0.1399865448474884,-0.003375723259523511,0.018941428512334824
1746576148029652200,2.29165234375,0.1423548310995102,0.008171824738383293,0.004735858179628849
1746576148039617000,2.301616943359375,0.1795320212841034,0.005952079780399799,0.008614219725131989
1746576148049582000,2.31158203125,0.19872750341892242,-0.0058018178679049015,0.0013421573676168919
1746576148059546000,2.321546142578125,0.21528011560440063,0.005887595005333424,-0.0020523080602288246
1746576148069511000,2.331510986328125,0.2565280795097351,-0.008561195805668831,-0.002280078362673521
1746576148079475000,2.341474853515625,0.2995152175426483,0.01881769672036171,0.0007471363060176373
1746576148089440000,2.35143994140625,0.31949326395988464,-0.004123498685657978,0.004562258720397949
1746576148099404000,2.361404052734375,0.31888899207115173,0.020762676373124123,0.004173437133431435
1746576148109369000,2.371369140625,0.3122543692588806,0.017708372324705124,0.006889399141073227
1746576148119333000,2.3813330078125,0.2938878834247589,0.003321175929158926,0.0020296627189964056
1746576148129298000,2.3912978515625,0.27739202976226807,-0.030565403401851654,-0.006255899555981159
1746576148139262000,2.401261962890625,0.26450926065444946,0.02555006369948387,0.006888398434966803
1746576148149227000,2.41122705078125,0.24483022093772888,-0.016626039519906044,-0.0021800175309181213
1746576148159190800,2.421190673828125,0.21642974019050598,0.004974593408405781,0.009386090561747551
1746576148169156000,2.431156005859375,0.1847950518131256,0.006324744783341885,0.00456722266972065
1746576148179120000,2.4411201171875,0.13830319046974182,0.005132979713380337,0.0051400684751570225
1746576148189085000,2.4510849609375,0.08335759490728378,-0.008113954216241837,-0.001759902574121952
1746576148199049000,2.461049072265625,0.03969400003552437,-0.010011190548539162,-0.00038837501779198647
1746576148209014000,2.471013916015625,0.011168881319463253,0.0011439924128353596,0.0004198946990072727
1746576148218979000,2.48097900390625,0.0014925517607480288,-0.005986887961626053,-0.0007724026218056679
1746576148228943000,2.490943115234375,0.0007342135068029165,0.0032192389480769634,0.0015790821053087711
1746576148238908200,2.500908203125,0.00045458157546818256,0.0010231956839561462,-0.00012800423428416252
1746576148248872000,2.510871826171875,0.0008171077352017164,-0.0035054723266512156,-0.0010110735893249512
1746576148258837000,2.5208369140625,0.002222724026069045,-0.001174673903733492,-0.0014028246514499187
1746576148268801000,2.530801025390625,-0.0009140365291386843,-0.000598070677369833,-0.00031660357490181923
1746576148278765800,2.540765869140625,-0.000008828239515423775,0.0008975602686405182,0.002229644451290369
1746576148288729900,2.550729736328125,-0.0005390837322920561,0.001391907688230276,0.000690022949129343
1746576148298695200,2.560695068359375,-0.0006306965369731188,-0.0005737715400755405,-0.0008764485828578472
1746576148308659200,2.5706591796875,-0.000841459957882762,-0.0004424690268933773,0.0013316967524588108
1746576148318624000,2.5806240234375,-0.0009650306310504675,0.000981789082288742,0.001266981940716505
1746576148328588000,2.590588134765625,-0.0012575846631079912,0.0009308499284088612,0.0006573144346475601
1746576148338552800,2.600552734375,0.0004377837758511305,0.0017950455658137798,0.001201398205012083
1746576148348516900,2.610516845703125,0.0027850039768964052,0.0029735187999904156,-0.00046875327825546265
1746576148358482200,2.620482177734375,0.0005625959020107985,0.00297245429828763,0.000933667179197073
1746576148368447000,2.630447021484375,-0.00019546598196029663,0.0015714424662292004,-0.00040423450991511345
1746576148378411000,2.640410888671875,-0.00029000802896916866,0.0034694774076342583,0.002132692839950323
1746576148388376000,2.6503759765625,0.0002491418272256851,0.0028432910330593586,0.00004789978265762329
1746576148398340000,2.660340087890625,0.001103484071791172,0.0017194366082549095,0.001192526426166296
1746576148408305000,2.670304931640625,0.00025093555450439453,0.0020440351217985153,0.0006223074160516262
1746576148418269000,2.68026904296875,-0.00002603325992822647,0.0011875624768435955,0.000048928894102573395
1746576148428234000,2.69023388671875,-0.0012799750547856092,0.002299246843904257,0.0004013362340629101
1746576148438198000,2.700197998046875,-0.0023060909006744623,0.002800720278173685,0.001194425392895937
1746576148448163000,2.7101630859375,-0.0005769706331193447,0.0017050555907189846,-0.0014229640364646912
1746576148458127000,2.720127197265625,0.0009982890915125608,0.00009810412302613258,-0.00038220081478357315
1746576148468092200,2.730092041015625,0.0009520601015537977,0.0004729866050183773,-0.0008244207128882408
1746576148478056200,2.74005615234375,-0.000016798032447695732,-0.000737686175853014,0.00006614020094275475
1746576148488021200,2.750021240234375,-0.00017335196025669575,-0.0012632585130631924,-0.0007801158353686333
1746576148497986000,2.759986083984375,-0.00012781191617250443,0.0008017565123736858,0.00033415062353014946
1746576148507950000,2.7699501953125,0.00022716796956956387,0.00187694001942873,0.0010717990808188915
1746576148517915100,2.7799150390625,-0.00034834141843020916,0.00045587727800011635,-0.0000688331201672554
1746576148527879200,2.789879150390625,0.0007983956020325422,0.00013556424528360367,0.0002863840200006962
1746576148537844200,2.79984423828125,-0.0007323892787098885,-0.001800287514925003,0.0004730713553726673
1746576148547808300,2.809808349609375,-0.0005742073990404606,-0.0059324149042367935,-0.0025090272538363934
1746576148557773000,2.81977294921875,0.0000966428779065609,-0.003667662851512432,-0.00009646918624639511
1746576148567737000,2.829737060546875,0.00008132541552186012,-0.0018456887919455767,-0.0007674070075154305
1746576148577702100,2.8397021484375,0.00037773512303829193,0.00032372213900089264,-0.0012513031251728535
1746576148587666000,2.849666015625,0.0008847319986671209,0.00035484554246068,0.0004597422666847706
1746576148597631200,2.85963134765625,-0.0001339272130280733,-0.0011477102525532246,-0.0014004753902554512
1746576148607595300,2.86959521484375,0.00034891371615231037,-0.002109677065163851,0.0006686914712190628
1746576148617560000,2.87956005859375,-0.000990922562777996,-0.0017102027777582407,0.00032194796949625015
1746576148627524000,2.889524169921875,-0.00028102356009185314,0.001473400741815567,0.0007536723278462887
1746576148637489200,2.8994892578125,0.00015333830378949642,-0.00036817556247115135,0.0003616549074649811
1746576148647454000,2.909453857421875,0.0008880442474037409,0.0011665327474474907,0.0020254538394510746
1746576148657418000,2.91941796875,0.001141577260568738,0.00015692831948399544,0.00002541998401284218
1746576148667383300,2.92938330078125,0.00082824332639575,0.0012769298627972603,0.000650486908853054
1746576148677347000,2.93934716796875,-0.0003038665745407343,-0.00013880664482712746,-0.0003724335692822933
1746576148687312100,2.94931201171875,-0.0003160112537443638,0.00016477983444929123,0.0010541025549173355
1746576148697276200,2.959276123046875,-0.000491247046738863,-0.00022404128685593605,0.0009294669143855572
1746576148707241000,2.969240966796875,0.0006438223645091057,0.0012107728980481625,0.00006361259147524834
1746576148717205000,2.979205078125,-0.0009426227770745754,0.0010794787667691708,-0.0009483885951340199
1746576148727170300,2.98917041015625,0.0014327408280223608,0.0009438991546630859,0.0013651824556291103
1746576148737134300,2.99913427734375,-0.00041282991878688335,-0.00041750865057110786,-0.00035335542634129524
1746576148747099100,3.00909912109375,-0.0006592622958123684,-0.0005298694595694542,-0.00016728369519114494
1746576148757063200,3.019063232421875,-0.0005018697120249271,0.00024138204753398895,-0.0010607740841805935
1746576148767028000,3.029028076171875,-0.00010992912575602531,-0.00011743186041712761,0.0010409755632281303
1746576148776992000,3.038991943359375,-0.0012574854772537947,-0.001091083511710167,0.00029156170785427094
1746576148786957000,3.04895703125,0.0007344798650592566,-0.0006756344810128212,-0.00012462353333830833
1746576148796922000,3.058922119140625,-0.00023304671049118042,-0.0007019997574388981,-0.00003540748730301857
1746576148806886100,3.06888623046875,0.00009655277244746685,-0.0006918208673596382,-0.0004953262396156788
1746576148816851200,3.078851318359375,0.0010062886867672205,-0.00020632706582546234,-0.0007754908874630928
1746576148826815200,3.088815185546875,-0.0001337218564003706,-0.0005886638537049294,-0.00028008176013827324
1746576148836780000,3.098780029296875,0.0014761590864509344,0.00025156373158097267,0.0005684010684490204
1746576148846744000,3.108744140625,-0.000003153691068291664,0.00022418098524212837,0.0004650568589568138
1746576148856709000,3.118709228515625,0.0009667696431279182,-0.0005358853377401829,-0.0006007403135299683
1746576148866673200,3.128673095703125,-0.0007249643094837666,-0.002230293583124876,-0.001277472823858261
1746576148876638200,3.13863818359375,-0.0005574515089392662,-0.0013144328258931637,-0.0008580246940255165
1746576148886602200,3.148602294921875,-0.00015699095092713833,-0.0002765399403870106,-0.0006176033057272434
1746576148896567000,3.158567138671875,-0.0007652570493519306,-0.0001361914910376072,-0.0010812594555318356
1746576148906531000,3.168531005859375,-0.0014009128790348768,-0.00023101037368178368,-0.0013897200115025043
1746576148916496100,3.17849609375,-0.0008637530263513327,-0.0005995919927954674,0.00020764395594596863
1746576148926461200,3.188461181640625,-0.0008539720438420773,-0.00011570611968636513,-0.0021801930852234364
1746576148936425200,3.19842529296875,-0.0016063153743743896,-0.0037431977689266205,-0.0010744486935436726
1746576148946390300,3.208390380859375,-0.0021096987184137106,0.01274312287569046,0.0034884607885032892
1746576148956354000,3.21835400390625,-0.0013477678876370192,-0.0036419755779206753,-0.0017550368793308735
1746576148966319000,3.228319091796875,-0.00131486845202744,0.0008162711746990681,0.0005017644725739956
1746576148976283100,3.238283203125,0.0006915570702403784,0.005265348590910435,0.0018309480510652065
1746576148986248000,3.248248046875,0.000514560379087925,0.000058051664382219315,-0.0008633588440716267
1746576148996212200,3.258212158203125,0.00032760645262897015,-0.000349411740899086,-0.00008305301889777184
1746576149006177300,3.26817724609375,0.0005377107299864292,0.0008492344059050083,-0.00028726598247885704
1746576149016141000,3.27814111328125,0.00005008582957088947,-0.0040094368159770966,-0.0012521292082965374
1746576149026106000,3.288106201171875,0.0007432571146637201,-0.0002452116459608078,-0.0001309397630393505
1746576149036070100,3.298070068359375,-0.0003848578780889511,0.0016120770014822483,-0.0008601131848990917
1746576149046035000,3.308034912109375,-0.0008122881408780813,-0.0016416381113231182,-0.001520493533462286
1746576149055999000,3.3179990234375,0.0005283469799906015,-0.004570582881569862,0.000646254513412714
1746576149065964300,3.32796435546875,-0.04988125339150429,-0.0017375806346535683,-0.001124147791415453
1746576149075929000,3.33792919921875,-0.2499845325946808,0.009261274710297585,0.0012045204639434814
1746576149085893000,3.34789306640625,-0.40838533639907837,0.009645335376262665,0.0001440132036805153
1746576149095858200,3.357858154296875,-0.46242833137512207,0.026809141039848328,0.00779713923111558
1746576149105822200,3.367822265625,-0.42271265387535095,-0.038784343749284744,-0.0041673025116324425
1746576149115787000,3.377787109375,-0.3513686954975128,-0.02785339765250683,-0.012812722474336624
1746576149125751000,3.3877509765625,-0.3124549984931946,0.001894460991024971,-0.005853012669831514
1746576149135716000,3.397716064453125,-0.306708961725235,0.007326777093112469,0.010811718180775642
1746576149145680100,3.40768017578125,-0.3222990930080414,0.02962506003677845,0.011821795254945755
1746576149155645200,3.417645263671875,-0.34900525212287903,-0.01748572662472725,0.004771075677126646
1746576149165609200,3.427609130859375,-0.36622878909111023,-0.024537017568945885,-0.013457763940095901
1746576149175574000,3.437573974609375,-0.37210556864738464,-0.03740860894322395,0.006244300864636898
1746576149185538000,3.4475380859375,-0.37447917461395264,0.04426439106464386,0.009254821576178074
1746576149195503400,3.45750341796875,-0.39565661549568176,-0.07462817430496216,-0.020005594938993454
1746576149205467100,3.467467041015625,-0.4243253767490387,0.042088113725185394,-0.00849112682044506
1746576149215432200,3.47743212890625,-0.44098609685897827,0.11593091487884521,0.03177639842033386
1746576149225397000,3.48739697265625,-0.4537581503391266,-0.1632760912179947,-0.04288967698812485
1746576149235361000,3.497361083984375,-0.41332632303237915,0.09650541096925735,0.02388509176671505
1746576149245326000,3.507326171875,-0.3754354417324066,-0.06385082006454468,-0.016630161553621292
1746576149255290000,3.5172900390625,-0.32637256383895874,0.06463871151208878,0.03333313763141632
1746576149265255200,3.527255126953125,-0.2909814417362213,-0.07749959826469421,-0.013340694829821587
1746576149275219200,3.53721923828125,-0.24668212234973907,0.02884042076766491,0.009965959936380386
1746576149285184300,3.547184326171875,-0.21226422488689423,-0.040914490818977356,-0.0024560410529375076
1746576149295148000,3.55714794921875,-0.17353147268295288,0.03139033168554306,0.00799660012125969
1746576149305113000,3.567113037109375,-0.10234692692756653,0.026453539729118347,0.008055588230490685
1746576149315077000,3.5770771484375,-0.07139300554990768,-0.09381907433271408,-0.023707933723926544
1746576149325042200,3.587042236328125,-0.04195233806967735,-0.008664635010063648,-0.003291439265012741
1746576149335006200,3.597006103515625,-0.024249769747257233,0.08473402261734009,0.02217397280037403
1746576149344971300,3.60697119140625,-0.01855391077697277,-0.07520202547311783,-0.022003473713994026
1746576149354936000,3.61693603515625,-0.004094012547284365,0.03327997773885727,0.01055526826530695
1746576149364900000,3.626900146484375,0.00034543941728770733,0.007309943903237581,0.003428270574659109
1746576149374865200,3.636865234375,0.0005670145619660616,-0.02016322687268257,-0.005897853057831526
1746576149384829000,3.646828857421875,0.000603341031819582,0.02789244055747986,0.007233277428895235
1746576149394794200,3.656794189453125,0.000582301989197731,-0.02349032275378704,-0.008081230334937572
1746576149404758300,3.66675830078125,0.0007693455554544926,0.018897585570812225,0.005630404222756624
1746576149414723000,3.67672314453125,-0.0007129700388759375,-0.013977272436022758,-0.004680823069065809
1746576149424687000,3.68668701171875,-0.0007440794724971056,0.00699868518859148,0.0022724110167473555
1746576149434652200,3.696652099609375,-0.0010604627896100283,-0.0031998897902667522,-0.0015276535414159298
1746576149444616200,3.7066162109375,-0.001136602833867073,-0.0005324860103428364,-0.0007039825432002544
1746576149454581500,3.71658154296875,-0.000578936655074358,0.0019812718965113163,0.0019136385526508093
1746576149464545500,3.726545654296875,-0.00163497612811625,-0.0017511663027107716,0.00059511698782444
1746576149474510300,3.73651025390625,-0.0005824950058013201,0.0008877599611878395,0.0009141638875007629
1746576149484475400,3.746475341796875,0.0003622747026383877,-0.001370477955788374,-0.0009026667103171349
1746576149494439400,3.756439453125,0.0007891794666647911,-0.0005235928110778332,-0.00008401134982705116
1746576149504404200,3.766404296875,0.0007466590031981468,-0.0013462682254612446,-0.0016312245279550552
1746576149514368300,3.7763681640625,0.00008299923501908779,0.000914489384740591,0.0007696151733398438
1746576149524333600,3.78633349609375,0.0004355618730187416,-0.000554913654923439,0.00008428795263171196
1746576149534297300,3.79629736328125,0.00062145059928298,0.00019450020045042038,0.0010363678447902203
1746576149544262400,3.806262451171875,-0.0008420068770647049,-0.000043691135942935944,0.000927989836782217
1746576149554226400,3.816226318359375,0.0003654705360531807,-0.0009741997346282005,0.0007154699414968491
1746576149564191200,3.826191162109375,0.0003854343667626381,-0.000987216830253601,0.0011209119111299515
1746576149574155300,3.8361552734375,-0.0005884836427867413,0.00011293543502688408,0.00011982955038547516
1746576149584120300,3.846120361328125,5.008187144994736e-7,-0.0000018347054719924927,-0.00029736943542957306
1746576149594084400,3.85608447265625,-0.00097474898211658,0.0003912481479346752,-0.0005077589303255081
1746576149604049400,3.86604931640625,0.00014412426389753819,0.00007113907486200333,-0.0005994457751512527
1746576149614014500,3.876014404296875,0.0005489247851073742,0.00044105248525738716,-0.00024817511439323425
1746576149623978500,3.885978515625,0.0013859840109944344,-0.0002820114605128765,-0.0002135983668267727
1746576149633943300,3.895943359375,0.0018206118838861585,-0.0005579148419201374,0.00019413186237215996
1746576149643907300,3.9059072265625,0.00014635268598794937,0.0005899472162127495,0.00015342049300670624
1746576149653872400,3.915872314453125,-0.0018872369546443224,0.0008267024531960487,0.0019012533593922853
1746576149663836400,3.92583642578125,-0.0003105758223682642,0.0012882663868367672,0.0006666476838290691
1746576149673801500,3.935801513671875,-0.0008733018767088652,0.0000674733892083168,0.0003923419862985611
1746576149683765500,3.945765625,-0.0004834153223782778,0.00012206798419356346,0.0003462694585323334
1746576149693730300,3.955730224609375,-0.0017074041534215212,0.0014781495556235313,0.00016996823251247406
1746576149703694300,3.9656943359375,0.0005282596684992313,0.0018112403340637684,0.0007802192121744156
1746576149713659400,3.975659423828125,-0.0005961267743259668,0.0005212053656578064,0.00025051645934581757
1746576149723623200,3.985623046875,-0.00020408956333994865,-0.00046928925439715385,-0.0011009890586137772
1746576149733588500,3.99558837890625,-0.002362581668421626,0.0005991710349917412,-0.0027580084279179573
1746576149743552500,4.005552490234375,0.0004475461319088936,-0.0003264141269028187,-0.0006661908701062202
1746576149753517300,4.015517333984375,-0.0009298408403992653,-0.00037301937118172646,0.00031944504007697105
1746576149763481300,4.0254814453125,-0.0008077782113105059,0.00448988564312458,0.0008865152485668659
1746576149773446400,4.0354462890625,-0.001620841445401311,0.0014813123270869255,0.00021886080503463745
1746576149783411200,4.0454111328125,0.0008926198352128267,0.0039014252834022045,0.0014362521469593048
1746576149793375500,4.05537548828125,0.0003501339815557003,0.0003783293068408966,0.0015923134051263332
1746576149803340500,4.065340576171875,-0.00001429487019777298,0.0024244426749646664,-0.0001588636077940464
1746576149813304300,4.07530419921875,0.001077068503946066,0.0010470557026565075,0.0008081300184130669
1746576149823269400,4.085269287109375,0.0008945437148213387,-0.0027055414393544197,-0.0008299537003040314
1746576149833233400,4.0952333984375,-0.00079682981595397,-0.001067431177943945,-0.0017607281915843487
1746576149843198200,4.1051982421875,0.0012659456115216017,-0.0041600666008889675,-0.0016593928448855877
1746576149853162200,4.115162353515625,0.0015442457515746355,-0.0015171458944678307,-0.0009113112464547157
1746576149863127600,4.12512744140625,0.0018974508857354522,-0.0006220191717147827,0.0005153799429535866
1746576149873091600,4.135091552734375,0.00039462908171117306,0.002852340694516897,0.0020323165226727724
1746576149883056400,4.145056396484375,0.0009766658768057823,0.0033550350926816463,-0.001466990914195776
1746576149893020400,4.1550205078125,-0.0002595735713839531,0.0015882938168942928,0.0007527540437877178
1746576149902985200,4.164985107421875,-0.001119072549045086,0.001062831375747919,-0.00017721299082040787
1746576149912950300,4.1749501953125,0.000410647364333272,0.0013302131555974483,0.00023664254695177078
1746576149922914300,4.184914306640625,-0.00019133626483380795,0.0021670712158083916,0.0009771361947059631
1746576149932879400,4.19487939453125,-0.0005133121740072966,0.00045199552550911903,0.000988854095339775
1746576149942843400,4.204843505859375,0.0007791793905198574,0.0012645972892642021,0.0007146927528083324
1746576149952808400,4.214808349609375,0.0011536197271198034,0.0016598105430603027,0.0013021863996982574
1746576149962772500,4.2247724609375,0.00018011708743870258,0.0013082767836749554,0.0009638904593884945
1746576149972737300,4.2347373046875,-0.0001032431609928608,0.0003852252848446369,0.0005534975789487362
1746576149982701300,4.244701416015625,0.002258061431348324,0.00337767181918025,0.001030521932989359
1746576149992666400,4.254666259765625,0.0003397867549210787,0.0001595080830156803,0.00039775483310222626
1746576150002630400,4.26463037109375,-0.0009578429162502289,0.0005180742591619492,0.0008233734406530857
1746576150012595500,4.274595458984375,0.004290448501706123,0.0064942073076963425,0.0010135229676961899
1746576150022559500,4.2845595703125,0.017629869282245636,-0.008788568899035454,-0.001885891892015934
1746576150032524300,4.294524169921875,0.052105553448200226,-0.00392483826726675,-0.0009452635422348976
1746576150042488300,4.30448828125,0.11292460560798645,-0.016377996653318405,-0.0034902705810964108
1746576150052453400,4.314453369140625,0.13132305443286896,0.014876330271363258,0.0027937241829931736
1746576150062418400,4.32441845703125,0.12169568985700607,-0.0011345497332513332,-0.0016613341867923737
1746576150072382500,4.334382568359375,0.06640180945396423,0.0020756246522068977,0.004808815661817789
1746576150082347500,4.344347412109375,0.019610965624451637,0.049021054059267044,0.011414241045713425
1746576150092311300,4.354311279296875,-0.07686364650726318,-0.1287473440170288,-0.0435134582221508
1746576150102276400,4.3642763671875,-0.14369651675224304,-0.17111913859844208,-0.05320042371749878
1746576150112240400,4.374240478515625,-0.25548723340034485,-0.14776641130447388,-0.05086536705493927
1746576150122205400,4.384205322265625,-0.4105171263217926,0.12217351794242859,0.04590940475463867
1746576150132169500,4.39416943359375,-0.5573835372924805,0.33964112401008606,0.10637781023979187
1746576150142134500,4.404134521484375,-0.6609266996383667,-0.1591564416885376,-0.03860447555780411
1746576150152098300,4.414098388671875,-0.7635167241096497,-0.21402448415756226,-0.06900019943714142
1746576150162063400,4.4240634765625,-0.8835944533348083,0.012095065787434578,0.0017620236612856388
1746576150172027400,4.43402734375,-0.9545080661773682,0.19603987038135529,0.05519542098045349
1746576150181992200,4.4439921875,-1.0009443759918213,-0.16092297434806824,-0.04321828484535217
1746576150191956200,4.453956298828125,-0.9895531535148621,-0.09183233231306076,-0.029001528397202492
1746576150201921500,4.463921630859375,-0.8860568404197693,0.17928877472877502,0.05771122872829437
1746576150211886300,4.47388623046875,-0.6958733201026917,-0.07738668471574783,-0.016965139657258987
1746576150221850400,4.483850341796875,-0.49312496185302734,-0.12660080194473267,-0.041450537741184235
1746576150231815400,4.4938154296875,-0.33783578872680664,0.07140256464481354,0.023365475237369537
1746576150241779200,4.503779296875,-0.15661245584487915,0.0705474242568016,0.02104213461279869
1746576150251744300,4.513744140625,-0.002873501507565379,-0.045667864382267,-0.013117167167365551
1746576150261708500,4.52370849609375,-0.0015614216681569815,0.012864883989095688,0.0023330184631049633
1746576150271673300,4.53367333984375,0.0006854874081909657,0.008354553952813148,0.0030030698981136084
1746576150281637400,4.543637451171875,-0.000887465663254261,0.01647908240556717,0.003577696392312646
1746576150291602400,4.5536025390625,0.0008686226792633533,0.00824086181819439,0.0025369329378008842
1746576150301566500,4.56356640625,-0.0015960526652634144,-0.008043562062084675,-0.0028405957855284214
1746576150311531300,4.57353125,0.000018621794879436493,0.00004525668919086456,-0.00022936612367630005
1746576150321495300,4.583495361328125,-0.00017349189147353172,-0.01467291172593832,-0.004183867946267128
1746576150331460400,4.59346044921875,-0.0005407419521361589,-0.003567263949662447,-0.00013479823246598244
1746576150341425400,4.60342529296875,0.0005510074552148581,0.009999288246035576,0.0029752636328339577
1746576150351389400,4.613389404296875,0.00011345022358000278,-0.0015843971632421017,-0.0005025584250688553
1746576150361354200,4.623354248046875,-0.00008109817281365395,-0.0027331786695867777,-0.0012874789535999298
1746576150371318300,4.633318359375,-0.0018446436151862144,0.002052255440503359,0.0010174871422350407
1746576150381283300,4.643283447265625,-0.000943934777751565,-0.00044979993253946304,-0.00019589345902204514
1746576150391247400,4.653247314453125,-0.0006864068564027548,-0.00025725364685058594,-0.0013953810557723045
1746576150401212400,4.66321240234375,-0.0014420028310269117,0.000746340025216341,-0.0003803456202149391
1746576150411176400,4.673176513671875,0.0009668262209743261,-0.00016898848116397858,-0.000009367242455482483
1746576150421141500,4.6831416015625,-0.00015416741371154785,-0.0015038014389574528,-0.0005582789890468121
1746576150431105300,4.693105224609375,-0.0007749502547085285,-0.0004896698519587517,0.0001959279179573059
1746576150441070300,4.7030703125,-0.001922969939187169,-0.00012717675417661667,0.0007067564874887466
1746576150451034400,4.713034423828125,0.0003090254031121731,0.0004246300086379051,0.0014330008998513222
1746576150460999200,4.722999267578125,-0.00040667480789124966,0.0035773743875324726,0.0006565586663782597
1746576150470963200,4.732963134765625,-0.0014636835549026728,-0.0015116599388420582,-0.001369308214634657
1746576150480928300,4.74292822265625,-0.00004277820698916912,-0.0005847080610692501,-0.0005241562612354755
1746576150490893300,4.752893310546875,0.000013148179277777672,0.00003873789682984352,0.00018317904323339462
1746576150500857300,4.762857421875,-0.0006500980816781521,-0.00011346768587827682,-0.0004661213606595993
1746576150510822400,4.772822509765625,-0.0011923173442482948,-0.0008719358593225479,-0.0006469497457146645
1746576150520786200,4.7827861328125,-0.0001626994926482439,0.00017269141972064972,-0.0009587090462446213
1746576150530751200,4.792751220703125,-0.0013928133994340897,0.00022382382303476334,0.00028898194432258606
1746576150540715300,4.80271533203125,-0.000004241243004798889,-0.0007234625518321991,-0.002116119023412466
1746576150550680000,4.81268017578125,-0.0011363509111106396,0.0013463464565575123,0.00047407159581780434
1746576150560644000,4.82264404296875,0.001138757448643446,0.0009669442661106586,0.0004970352165400982
1746576150570609400,4.832609375,0.0002612457610666752,0.00028464244678616524,0.0013244794681668282
1746576150580573400,4.842573486328125,-0.00011798832565546036,-0.00004079611971974373,-0.0003621005453169346
1746576150590538200,4.852538330078125,-0.00016352836973965168,0.0005602794699370861,0.0008586924523115158
1746576150600502300,4.862502197265625,-0.0015257550403475761,0.0000010807998478412628,-0.0013999827206134796
1746576150610467000,4.872467041015625,-0.0003544967621564865,0.0009350515902042389,-0.001078006811439991
1746576150620432100,4.88243212890625,-0.000621157931163907,0.00048062438145279884,-0.000170078594237566
1746576150630396400,4.892396484375,0.0007178792729973793,-0.0008911699987947941,0.001160703133791685
1746576150640361200,4.902361328125,0.00015223235823214054,-0.000010676681995391846,0.0004266439937055111
1746576150650325200,4.9123251953125,-0.000049635302275419235,-0.00012812204658985138,0.00040161050856113434
1746576150660290300,4.922290283203125,0.00008771661669015884,-0.00008722953498363495,0.0002460298128426075
1746576150670254300,4.93225439453125,-0.0021235060412436724,-0.0008313166908919811,0.0005664080381393433
1746576150680219100,4.94221923828125,-0.00012524868361651897,-0.0008919811807572842,0.0002322811633348465
1746576150690183200,4.95218310546875,0.00021670106798410416,0.0013157790526747704,0.000010706484317779541
1746576150700148200,4.962148193359375,-0.0002967666368931532,0.0016266023740172386,0.0014449278824031353
1746576150710112300,4.9721123046875,0.000025209737941622734,-0.00018141791224479675,-0.0007476527243852615
1746576150720077300,4.982077392578125,-0.0005369733553379774,0.0001208190806210041,0.0000591757707297802
1746576150730041300,4.992041259765625,-0.0008352475706487894,0.0005812793970108032,0.001844026381149888
1746576150740006100,5.002006103515625,-0.0002783704549074173,0.0017612935043871403,0.002223684685304761
1746576150749970200,5.01197021484375,-0.0011532190255820751,0.016343165189027786,0.005304163321852684
1746576150759935200,5.021935302734375,0.0006005626637488604,-0.017562096938490868,-0.003922274801880121
1746576150769900300,5.031900390625,0.0012311991304159164,-0.0024846107698976994,-0.001799468882381916
1746576150779864300,5.0418642578125,-0.001307829050347209,-0.000412769615650177,-0.000052230898290872574
1746576150789829400,5.051829345703125,-0.0017288748640567064,-0.0035174828954041004,-0.001279948279261589
1746576150799793200,5.061793212890625,0.0006453532259911299,0.0005381796509027481,0.0003190613351762295
1746576150809758200,5.07175830078125,0.008752814494073391,0.01246008649468422,0.003444280941039324
1746576150819722200,5.08172216796875,0.05229209363460541,0.028891324996948242,0.008156356401741505
1746576150829687300,5.091687255859375,0.10366260260343552,-0.028543470427393913,-0.007895580492913723
1746576150839651300,5.1016513671875,0.15470679104328156,-0.03163507208228111,-0.01079653576016426
1746576150849616400,5.111616455078125,0.18889166414737701,-0.06718800216913223,-0.017971090972423553
1746576150859580200,5.121580078125,0.223497211933136,-0.04649575054645538,-0.01972007378935814
1746576150869545200,5.131545166015625,0.2599782347679138,-0.034288085997104645,-0.006324905436486006
1746576150879509200,5.14150927734375,0.27164193987846375,0.017460737377405167,0.005087028257548809
1746576150889474000,5.15147412109375,0.26731112599372864,0.056016385555267334,0.014981736429035664
1746576150899438000,5.16143798828125,0.2607749104499817,-0.08517829328775406,-0.026312973350286484
1746576150909403400,5.1714033203125,0.25049352645874023,-0.09033577144145966,-0.030601195991039276
1746576150919368200,5.1813681640625,0.2582870125770569,0.06984185427427292,0.026746299117803574
1746576150929332200,5.191332275390625,0.27500954270362854,0.1841849386692047,0.062078990042209625
1746576150939297300,5.20129736328125,0.31574782729148865,0.06308037787675858,0.02313869819045067
1746576150949261300,5.21126123046875,0.3507708013057709,-0.06503178179264069,-0.013360723853111267
1746576150959226400,5.221226318359375,0.3814004063606262,-0.04639890044927597,-0.019490111619234085
1746576150969190400,5.2311904296875,0.40313366055488586,0.14578811824321747,0.04722606763243675
1746576150979155200,5.2411552734375,0.4169793725013733,0.054470647126436234,0.01634763740003109
1746576150989119200,5.251119140625,0.3928607106208801,-0.06648319959640503,-0.027774285525083542
1746576150999084300,5.261084228515625,0.36978018283843994,0.1247466504573822,0.05380621924996376
1746576151009048300,5.27104833984375,0.32695335149765015,-0.013319882564246655,-0.0005041565746068954
1746576151019013000,5.28101318359375,0.281769722700119,0.0060632494278252125,0.004249104298651218
1746576151028977200,5.29097705078125,0.2282835692167282,-0.020882880315184593,0.003145756898447871
1746576151038942500,5.3009423828125,0.17659078538417816,0.02301219291985035,-0.0015202127397060394
1746576151048907300,5.3109072265625,0.12489775568246841,-0.016112305223941803,-0.0025758901610970497
1746576151058871300,5.320871337890625,0.08658011257648468,0.011162719689309597,0.0006958772428333759
1746576151068836000,5.330836181640625,0.05006950721144676,0.0005662683397531509,0.0032535770442336798
1746576151078800100,5.340800048828125,0.016370421275496483,0.002389137167483568,0.00042135315015912056
1746576151088765200,5.35076513671875,-0.0006205467507243156,0.002444264944642782,0.0001276065595448017
1746576151098729500,5.3607294921875,0.00008186721242964268,0.00003257952630519867,0.0006816140376031399
1746576151108694300,5.3706943359375,-0.0018699634820222855,0.0019455282017588615,-0.0011016386561095715
1746576151118658300,5.380658203125,0.0006966027431190014,0.000369291752576828,-0.0006843786686658859
1746576151128623400,5.390623291015625,-0.0005915684159845114,-0.001264557708054781,0.0006970027461647987
1746576151138587100,5.400587158203125,0.0009549993555992842,0.00045907963067293167,0.0005007637664675713
1746576151148552200,5.41055224609375,-0.0013976374175399542,0.0008026272989809513,-0.000493926927447319
1746576151158516200,5.42051611328125,-0.000122319208458066,0.000418294221162796,0.00017688749358057976
1746576151168481300,5.430481201171875,-0.0005652031395584345,0.0008369428105652332,-0.00007850956171751022
1746576151178445300,5.4404453125,0.00012252526357769966,-0.0002462239935994148,0.0018546541687101126
1746576151188410400,5.450410400390625,0.0010732735972851515,0.0005940035916864872,-0.0009059784933924675
1746576151198375200,5.460375244140625,-0.001661862712353468,0.0011670775711536407,0.0005741706117987633
1746576151208339200,5.470339111328125,0.0016159559600055218,-0.0019099386408925056,-0.001996312290430069
1746576151218304300,5.48030419921875,-0.00022430834360420704,0.0007831142283976078,0.0011514960788190365
1746576151228268000,5.49026806640625,-0.000026435358449816704,-0.0001801508478820324,0.0008031544275581837
1746576151238233300,5.5002333984375,-0.0006592932622879744,0.0014798217453062534,0.00023475242778658867
1746576151248197400,5.510197265625,-0.0008273383136838675,-0.0004134196788072586,0.00036604609340429306
1746576151258162200,5.520162109375,0.0004872106947004795,-0.00173312914557755,0.0005323681980371475
1746576151268126200,5.530126220703125,0.0003388726618140936,0.0015849033370614052,0.0007243817672133446
1746576151278091300,5.54009130859375,-0.0008444790728390217,-0.001042742282152176,-0.00111839035525918
1746576151288055300,5.55005517578125,-0.0005427426658570766,0.000572731252759695,-0.001111199613660574
1746576151298020400,5.560020263671875,0.002052527852356434,-0.0002944599837064743,-0.001096503809094429
1746576151307984400,5.569984375,-0.0012188991531729698,0.0007598851807415485,0.00023214705288410187
1746576151317949200,5.57994921875,0.0007013964932411909,0.000020417850464582443,-0.0002870350144803524
1746576151327914200,5.589914306640625,-0.0007968980353325605,-0.0017801455687731504,-0.0009927726350724697
1746576151337878300,5.599878173828125,-0.000339986989274621,0.0007407474331557751,-0.0008847485296428204
1746576151347843000,5.609843017578125,-0.0003778038080781698,0.000758057925850153,-0.00039392756298184395
1746576151357807000,5.61980712890625,-0.0007541775703430176,-0.0008822199888527393,0.0005714339204132557
1746576151367772400,5.6297724609375,-0.0010817465372383595,0.0004589483141899109,0.0010944786481559277
1746576151377736400,5.639736328125,-0.0005208652000874281,-0.0007808185182511806,0.0002894522622227669
1746576151387701200,5.649701171875,0.00033374340273439884,-0.0004260856658220291,-0.00040430109947919846
1746576151397665300,5.659665283203125,-0.000621601939201355,0.00034965621307492256,-0.000023237429559230804
1746576151407630000,5.669630126953125,-0.000405619852244854,0.00016243569552898407,-0.00007703341543674469
1746576151417594000,5.679593994140625,0.0011425612028688192,-0.0014181025326251984,-0.001185341738164425
1746576151427559200,5.68955908203125,-0.0016385780181735754,0.0006104269996285439,0.0007627601735293865
1746576151437523500,5.6995234375,0.001040180679410696,0.00023736804723739624,0.0002159755676984787
1746576151447488300,5.70948828125,-0.00013746926560997963,0.0010349848307669163,0.0002383459359407425
1746576151457453000,5.719453125,0.00012802798300981522,0.0004459582269191742,0.00043244240805506706
1746576151467417900,5.72941796875,-0.0004299045540392399,0.0003748517483472824,-0.0006613177247345448
1746576151477383000,5.7393828125,0.00012995186261832714,-0.0007505281828343868,-0.00007234839722514153
1746576151487347000,5.749346923828125,-0.0008066815789788961,0.0009245998226106167,0.0010656202211976051
1746576151497312000,5.75931201171875,-0.0005151834338903427,0.0007051951251924038,0.0002727578394114971
1746576151507276000,5.769276123046875,0.0007673946674913168,-0.0004988200962543488,0.0005116434767842293
1746576151517241000,5.779240966796875,-0.0002960942219942808,0.0008034957572817802,0.0007736152037978172
1746576151527204900,5.789204833984375,-0.00038104900158941746,-0.00026336638256907463,0.0006148908287286758
1746576151537170000,5.799169921875,-0.00014799297787249088,-0.0011721355840563774,0.00011096009984612465
1746576151547134000,5.809134033203125,-0.0014553386718034744,-0.0007963636890053749,0.0007506515830755234
1746576151557099000,5.81909912109375,-0.0014523521531373262,-0.0008481442928314209,-0.000020706094801425934
1746576151567063000,5.82906298828125,-0.00124888657592237,0.001026454847306013,0.000450140330940485
1746576151577028000,5.839028076171875,-0.0018659583292901516,-0.002994668437168002,0.0011411667801439762
1746576151586992000,5.8489921875,0.0013572652824223042,0.0020850449800491333,0.0008671274408698082
1746576151596957000,5.85895703125,-0.0001851697452366352,-0.0008797305636107922,0.00005384813994169235
1746576151606922000,5.868921875,0.00037862127646803856,0.0016979430802166462,-0.0003134016878902912
1746576151616886000,5.878885986328125,-0.00007960875518620014,-0.0008917739614844322,0.0005808603018522263
1746576151626851000,5.88885107421875,-0.0008412729948759079,0.0021418328396975994,0.00023731263354420662
1746576151636815000,5.898815185546875,-0.0003284681588411331,-0.001265025231987238,0.000030091963708400726
1746576151646780000,5.90877978515625,-0.001177217811346054,0.001108650118112564,-0.00039814412593841553
1746576151656744000,5.918743896484375,-0.0012393193319439888,-0.0004566153511404991,-0.0008884374983608723
1746576151666709000,5.928708984375,0.0007292891386896372,-0.0012696785852313042,-0.0009582121856510639
1746576151676673000,5.938673095703125,0.0018587581580504775,0.0004780059680342674,0.00018351105973124504
1746576151686638000,5.94863818359375,-0.0011982843279838562,-0.0002647498622536659,-0.00031130434945225716
1746576151696602000,5.95860205078125,0.00035161618143320084,-0.0013249428011476994,0.00015082256868481636
1746576151706567200,5.968567138671875,0.000419792952015996,0.0005571129731833935,0.0001745247282087803
1746576151716531000,5.978531005859375,0.002244822448119521,-0.000627635046839714,-0.00011414662003517151
1746576151726496000,5.98849609375,-0.001039121299982071,-0.0002899463288486004,0.00025097280740737915
1746576151736460000,5.9984599609375,0.0005187643691897392,-0.001447375863790512,0.000667122658342123
1746576151746424800,6.0084248046875,0.0002130335196852684,0.000009106937795877457,-0.00028282683342695236
1746576151756390100,6.01839013671875,0.000009353971108794212,0.0013725780881941319,-0.0008064606226980686
1746576151766354200,6.028354248046875,0.0006298706866800785,-0.0015369257889688015,0.00006279489025473595
1746576151776319000,6.038319091796875,0.0009716348722577095,-0.0010856403969228268,-0.00009515928104519844
1746576151786283000,6.048282958984375,0.0002547120675444603,0.00024833669885993004,0.0010587885044515133
1746576151796248000,6.058248046875,-0.0005091589409857988,0.0002611149102449417,0.000012833625078201294
1746576151806211800,6.0682119140625,-0.0009158237371593714,-0.000619059894233942,-0.00003936421126127243
1746576151816177000,6.078177001953125,-0.0005340361967682838,-0.001409962773323059,-0.000039703212678432465
1746576151826141200,6.08814111328125,0.0014606716576963663,-0.0015090322121977806,0.0007083788514137268
1746576151836106000,6.09810595703125,0.00005081202834844589,0.00004642549902200699,0.0005905809812247753
1746576151846070000,6.108070068359375,-0.000006179558113217354,0.000569470226764679,0.0006057610735297203
1746576151856035000,6.11803515625,0.0006205302197486162,-0.00004534004256129265,-0.0005122385919094086
1746576151865999000,6.1279990234375,0.0010282602161169052,-0.0012520183809101582,0.00039510056376457214
1746576151875964000,6.1379638671875,0.00004384876228868961,-0.00029858434572815895,-0.0015793805941939354
1746576151885929200,6.14792919921875,0.00047528091818094254,-0.000551584642380476,-0.00021690735593438148
1746576151895893000,6.15789306640625,0.0006753243505954742,0.00037956424057483673,0.0006057233549654484
1746576151905858000,6.167858154296875,-0.001146544236689806,0.0007180520333349705,0.0011428827419877052
1746576151915822000,6.177822021484375,-0.0004571364261209965,0.0005387137643992901,0.0003265244886279106
1746576151925787000,6.187786865234375,-0.000595887191593647,0.00005348585546016693,0.0006040260195732117
1746576151935751000,6.1977509765625,0.0008837499190121889,0.00030196690931916237,0.0006839027628302574
1746576151945716000,6.207716064453125,-0.0023184348829090595,0.00013658450916409492,0.0010863062925636768
1746576151955680000,6.217679931640625,0.00036594108678400517,-0.0005206228233873844,-0.0007072794251143932
1746576151965645000,6.22764501953125,-0.00025963527150452137,-0.0011576507240533829,0.00002162763848900795
1746576151975609000,6.237609130859375,0.0001392995472997427,-0.0007922723889350891,-0.000301949679851532
1746576151985574000,6.247573974609375,-0.00003540376201272011,-0.00034060049802064896,0.000058642588555812836
1746576151995538000,6.257537841796875,0.0003932584077119827,-0.0006901980377733707,0.00022590020671486855
1746576152005503000,6.2675029296875,0.0002771446015685797,0.0007433812133967876,-0.00029048649594187737
1746576152015468000,6.277468017578125,0.00008458993397653103,0.000330301932990551,-0.00048206886276602745
1746576152025432000,6.28743212890625,0.0012012531515210867,-0.00038795266300439835,0.0004023667424917221
1746576152035397000,6.297397216796875,0.00025489600375294685,-0.0013407538644969463,0.00031615979969501495
1746576152045361200,6.307361083984375,-0.00012966454960405827,-0.0010693776421248913,0.00017767539247870445
1746576152055326000,6.317325927734375,0.0008170304354280233,-0.000730444211512804,0.0007865801453590393
1746576152065290000,6.3272900390625,-0.0008069651667028666,0.0020155413076281548,-0.0003215610049664974
1746576152075255000,6.337255126953125,0.0002865339629352093,-0.0031385791953653097,-0.0012499834410846233
1746576152085218800,6.34721875,-0.00010921177454292774,0.0007794634439051151,0.0007154294289648533
1746576152095184100,6.35718408203125,0.0012665928807109594,-0.0005038967356085777,0.001452773343771696
1746576152105148200,6.367148193359375,-0.0006386323366314173,-0.0010623615235090256,-0.0015685828402638435
1746576152115113000,6.377113037109375,-0.00006449222564697266,0.002565978094935417,0.0010419185273349285
1746576152125077000,6.387076904296875,0.0009528351947665215,-0.00008439971134066582,0.0007223393768072128
1746576152135042000,6.3970419921875,-0.0016644694842398167,-0.0007926318794488907,-0.00005354173481464386
1746576152145005800,6.407005859375,-0.00044660596176981926,-0.0008115405216813087,-0.00033344002440571785
1746576152154971100,6.41697119140625,-0.001451707212254405,0.0019112839363515377,-0.00006201444193720818
1746576152164936200,6.426936279296875,-0.0016650266479700804,0.000022570136934518814,-0.0012857373803853989
1746576152174900000,6.43689990234375,0.0011895170900970697,-0.0018091248348355293,-0.0002470230683684349
1746576152184865000,6.446864990234375,0.0005088129546493292,0.00016294606029987335,-0.0009929747320711613
1746576152194829000,6.4568291015625,-0.0005938010290265083,-0.0011686189100146294,-0.0005712443962693214
1746576152204793900,6.4667939453125,-0.0002643680199980736,-0.0009273365139961243,0.00026552053168416023
1746576152214758000,6.4767578125,0.0009989303071051836,-0.0016932575963437557,-0.0010550105944275856
1746576152224723200,6.48672314453125,-0.0005819222424179316,0.0004993230104446411,-0.0004667183384299278
1746576152234687000,6.49668701171875,-0.0002550415229052305,-0.0005883192643523216,-0.0003231125883758068
1746576152244652000,6.506652099609375,-0.00026542763225734234,-0.0007260050624608994,0.00032323645427823067
1746576152254616000,6.516615966796875,-0.000468546524643898,-0.000367593951523304,0.00015633134171366692
1746576152264580900,6.526580810546875,0.0012886072508990765,-0.0007992922328412533,0.0009651333093643188
1746576152274545000,6.536544921875,-0.0003918290603905916,0.0006054933182895184,0.001165021676570177
1746576152284510000,6.546510009765625,-0.00010474002920091152,0.00027739210054278374,0.0005090846680104733
1746576152294475000,6.55647509765625,-0.00031404895707964897,0.00007812678813934326,-0.00004283944144845009
1746576152304439000,6.56643896484375,0.00021725171245634556,-0.00015410128980875015,0.00069432333111763
1746576152314404000,6.576404052734375,0.00010647834278643131,-0.00028668995946645737,-0.00024766847491264343
1746576152324368100,6.5863681640625,0.0005078166723251343,-0.0006579342298209667,-0.0005989396013319492
1746576152334333000,6.5963330078125,-0.0001518111675977707,-0.0002487483434379101,-0.0014844383113086224
1746576152344297000,6.606296875,0.00042636110447347164,0.00038082292303442955,-0.0011344989761710167
1746576152354262000,6.616261962890625,-0.0001123286783695221,-0.0007830578833818436,0.0015336619690060616
1746576152364226000,6.62622607421875,-0.0003506815992295742,0.0012598531320691109,0.0009224666282534599
1746576152374191000,6.636191162109375,0.0008130867499858141,0.00021461909636855125,0.00028055068105459213
1746576152384155100,6.646155029296875,-0.0010788226500153542,-0.0009385296143591404,0.000541273970156908
1746576152394120000,6.656119873046875,0.0002704139333218336,0.0013951752334833145,0.0016250885091722012
1746576152404084000,6.666083984375,-0.0010190883185714483,0.0011160760186612606,0.00025435956194996834
1746576152414049000,6.676049072265625,0.0007450354751199484,-0.00043137185275554657,-0.0006289673037827015
1746576152424014000,6.68601416015625,-0.001160989049822092,-0.0001304345205426216,-0.00016397936269640923
1746576152433978000,6.69597802734375,-0.0009319595992565155,-0.000991931650787592,-0.0008398094214498997
1746576152443943000,6.70594287109375,0.0013951105065643787,-0.000967963133007288,-0.0004368731752038002
1746576152453907000,6.715906982421875,0.0004900579806417227,0.0009532519616186619,-0.00024404749274253845
1746576152463871700,6.725871826171875,-0.0006228771526366472,0.00025736819952726364,-0.00014923885464668274
1746576152473835800,6.735835693359375,0.0017801763024181128,0.0006750775501132011,-0.0005639595910906792
1746576152483800600,6.745800537109375,0.00008187838830053806,0.0003211433067917824,0.0017170379869639874
1746576152493764600,6.7557646484375,0.0002844745758920908,0.00017436034977436066,0.0007741651497781277
1746576152503729700,6.765729736328125,0.00009352597407996655,0.002017267979681492,0.0005382089875638485
1746576152513693700,6.775693603515625,0.0014677427243441343,-0.0003360491245985031,0.0007345704361796379
1746576152523658500,6.785658447265625,-0.00036637624725699425,-0.000642845407128334,0.00009780889376997948
1746576152533622800,6.795622802734375,-0.001572044799104333,0.0015176706947386265,-0.00046615907922387123
1746576152543587600,6.805587646484375,0.0014687525108456612,-0.000491684302687645,0.0006382539868354797
1746576152553552600,6.815552734375,0.0006451646331697702,0.000577323604375124,0.000525476410984993
1746576152563516700,6.8255166015625,0.0011096198577433825,0.00028970232233405113,-0.00029344577342271805
1746576152573481500,6.8354814453125,-0.00022260984405875206,-0.0012113484553992748,-0.000918801873922348
1746576152583445500,6.845445556640625,-0.0017541935667395592,-0.0015650163404643536,0.0008396832272410393
1746576152593410800,6.855410888671875,0.0012448355555534363,0.00022625457495450974,-0.00006940029561519623
1746576152603374600,6.86537451171875,-0.0004231024067848921,-0.00007601408287882805,-0.0015911301597952843
1746576152613339600,6.875339599609375,-0.0006298543885350227,-0.0011297864839434624,0.0006546531803905964
1746576152623303700,6.8853037109375,0.001163518289104104,-0.0006932942196726799,-0.001633534673601389
1746576152633268500,6.8952685546875,0.0006775427609682083,-0.0007065781392157078,0.0006703375838696957
1746576152643232500,6.905232421875,-0.0008511114865541458,0.0007198108360171318,-0.00007907580584287643
1746576152653197600,6.915197509765625,0.0007372552063316107,0.0011220495216548443,-0.0006843814626336098
1746576152663161600,6.92516162109375,0.00022885762155056,0.0006858236156404018,0.00000830693170428276
1746576152673126700,6.935126708984375,-0.00006728176958858967,-0.0002444591373205185,-0.0021150754764676094
1746576152683090700,6.945090576171875,0.0009151583071798086,0.0009321253746747971,-0.001153674442321062
1746576152693055700,6.9550556640625,-0.00020360155031085014,0.0004701893776655197,-0.0004982268437743187
1746576152703020500,6.9650205078125,-0.000007593072950839996,0.0005873688496649265,-0.00016985926777124405
1746576152712984600,6.974984619140625,0.0005362611263990402,0.0005267658270895481,-0.001118417363613844
1746576152722949600,6.98494970703125,-0.00044591259211301804,0.0006503365002572536,0.0007780194282531738
1746576152732913700,6.99491357421875,0.00032005016691982746,-0.002341060433536768,-0.0005298112519085407
1746576152742878700,7.004878662109375,-0.00047330535016953945,0.00022622710093855858,0.0005639488808810711
1746576152752842800,7.0148427734375,0.0002469252794981003,0.0013881758786737919,-0.002019815146923065
1746576152762807600,7.0248076171875,0.0013702467549592257,0.00030640000477433205,0.0002057887613773346
1746576152772771600,7.034771484375,-0.0008369870483875275,-0.0009074513800442219,-0.0002493276260793209
1746576152782736600,7.044736572265625,0.0003963231574743986,-1.126900315284729e-7,-0.0012735789641737938
1746576152792700400,7.054700439453125,-0.00012915395200252533,0.0003385921008884907,-0.000018109101802110672
1746576152802665700,7.064665771484375,0.00020933384075760841,0.00037827296182513237,0.0008122646249830723
1746576152812630500,7.074630615234375,0.0010705809108912945,0.0020161233842372894,0.00106049794703722
1746576152822594600,7.084594482421875,0.0003962686751037836,-0.00012026447802782059,0.00012892438098788261
1746576152832559600,7.0945595703125,-0.0003138161264359951,-0.0000028489157557487488,-0.0005217804573476315
1746576152842523600,7.104523681640625,-0.0018145074136555195,0.00047252560034394264,-0.00016917800530791283
1746576152852488400,7.114488525390625,-0.0013715785462409258,-0.0001738513819873333,-0.0011836737394332886
1746576152862452700,7.12445263671875,-0.0008906114380806684,-0.00014668749645352364,0.00033352896571159363
1746576152872417800,7.134417724609375,-0.0006396530661731958,0.0008475203067064285,-0.0011421055532991886
1746576152882381600,7.144381591796875,-0.0002982357982546091,-0.0011972547508776188,0.00018654530867934227
1746576152892346600,7.1543466796875,-0.00006385450251400471,-0.0001285932958126068,0.0010123122483491898
1746576152902310700,7.164310546875,0.00045599439181387424,0.0005861991085112095,-0.00026041222736239433
1746576152912275500,7.174275390625,-0.00029508606530725956,-0.00040638353675603867,-0.0007190057076513767
1746576152922239500,7.184239501953125,0.00009666476398706436,0.000750227365642786,0.00004984857514500618
1746576152932204800,7.194204833984375,0.0008340422064065933,0.0001688697375357151,-0.000009554438292980194
1746576152942169600,7.204169677734375,0.00048436899669468403,-0.0010577822104096413,-0.000646849162876606
1746576152952133600,7.214133544921875,0.00010362407192587852,0.0005755736492574215,-0.0015099761076271534
1746576152962098700,7.2240986328125,0.0001925735268741846,0.00004959944635629654,0.00007593631744384766
1746576152972062500,7.2340625,-0.0008811505977064371,-0.0006105359643697739,-0.0001252405345439911
1746576152982027500,7.244027587890625,0.001121812965720892,-0.0008922982960939407,-0.0013870461843907833
1746576152991991600,7.253991455078125,0.0006428009364753962,-0.0005898885428905487,0.0007046717219054699
1746576153001956600,7.26395654296875,0.0018566697835922241,0.0005044043064117432,-0.0008596694096922874
1746576153011920600,7.273920654296875,0.0010817022994160652,-0.00014745816588401794,-0.00003907224163413048
1746576153021885700,7.2838857421875,0.0006340248510241508,-0.0005506607703864574,-0.00012136390432715416
1746576153031849700,7.293849609375,0.0014708456583321095,-0.0006318339146673679,0.0009049270302057266
1746576153041814500,7.303814453125,0.0005544519517570734,-0.0008645942434668541,-0.00046633463352918625
1746576153051778600,7.313778564453125,-0.0007480410858988762,0.00030632270500063896,0.0002799280919134617
1746576153061743600,7.32374365234375,-0.00007585925050079823,-0.0000699819065630436,-0.00037307897582650185
1746576153071708700,7.333708740234375,0.0006537709850817919,-0.000210554338991642,-0.00029081664979457855
1746576153081672700,7.343672607421875,-0.0016629130113869905,0.000015814322978258133,0.0005928203463554382
1746576153091637500,7.353637451171875,-0.001522135455161333,0.0007672016508877277,-0.0002775704488158226
1746576153101601500,7.3636015625,-0.0019434476271271706,-0.0002605123445391655,0.0014580115675926208
1746576153111566600,7.373566650390625,0.0012398643884807825,-0.001012188382446766,0.0005831653252243996
1746576153121530600,7.383530517578125,-0.0016376811545342207,-0.0010177809745073318,-0.0008496157824993134
1746576153131495700,7.39349560546875,0.0006288918666541576,-0.000383179634809494,0.0011165258474647999
1746576153141459700,7.403459716796875,0.0018619354814291,0.0007191025651991367,0.00012343283742666245
1746576153151424800,7.4134248046875,-0.002104602288454771,-0.0005980506539344788,0.000017634592950344086
1746576153161388500,7.423388427734375,0.0003961056936532259,-0.0008989875204861164,-0.0007115388289093971
1746576153171353600,7.433353515625,-0.000055646058171987534,-0.00010554445907473564,-0.0006426982581615448
1746576153181318400,7.443318359375,0.00034356163814663887,-0.00017611822113394737,0.0007666465826332569
1746576153191282700,7.45328271484375,-0.0004044678062200546,0.0004674922674894333,0.000016973819583654404
1746576153201247700,7.463247802734375,0.0012962266337126493,0.0006621694192290306,-0.00009248172864317894
1746576153211211800,7.473211669921875,-0.0007796622812747955,-0.001047997735440731,-0.0006025875918567181
1746576153221176600,7.483176513671875,-0.0009048311039805412,0.000026055146008729935,0.0007633473724126816
1746576153231140600,7.493140625,0.0009519851300865412,-0.0005299425683915615,0.00020600808784365654
1746576153241105700,7.503105712890625,-0.000035514822229743004,0.0013220198452472687,-0.0011247736401855946
1746576153251069400,7.5130693359375,-0.0005650022067129612,0.00025688111782073975,0.00010183034464716911
1746576153261034800,7.52303466796875,-0.001180458813905716,-0.00008932966738939285,0.0004805317148566246
1746576153270998800,7.532998779296875,0.00041813310235738754,0.0008432469330728054,-0.0002017277292907238
1746576153280963600,7.542963623046875,-0.00023327604867517948,0.0000019543804228305817,-0.0014294451102614403
1746576153290928600,7.5529287109375,-0.0006604921072721481,-0.0001389710232615471,-0.0005947514437139034
1746576153300892700,7.562892578125,0.0005160924047231674,0.00014838436618447304,-0.00003921613097190857
1746576153310857500,7.572857421875,-0.0003690493758767843,0.00035505369305610657,0.0004986883141100407
1746576153320821500,7.582821533203125,-0.0008151286747306585,-0.0003096712753176689,0.0011277268640697002
1746576153330786800,7.592786865234375,0.0005034778732806444,0.00007135234773159027,0.0007169567979872227
1746576153340750600,7.60275048828125,-0.00010984810069203377,0.0006029196083545685,-0.0022391523234546185
1746576153350715600,7.612715576171875,-0.0009013337548822165,0.00010760640725493431,-0.00031890301033854485
1746576153360679700,7.6226796875,0.0006398377008736134,-0.0005608471110463142,-0.0003785579465329647
1746576153370644500,7.63264453125,-0.0013846924994140863,0.0003266320563852787,-0.0015589152462780476
1746576153380608500,7.6426083984375,0.0002467597369104624,0.001324784941971302,0.00015269825235009193
1746576153390573800,7.65257373046875,0.0007134354673326015,0.0005656937137246132,-0.0007745823822915554
1746576153400538600,7.66253857421875,0.0018143863417208195,0.0009276173077523708,0.001636377302929759
1746576153410502700,7.672502685546875,0.00016275071538984776,0.000338671263307333,-0.0006977487355470657
1746576153420467700,7.6824677734375,0.0007979145739227533,0.001340285874903202,-0.00014301203191280365
1746576153430431500,7.692431396484375,0.000384532380849123,0.00015872111544013023,0.0005505415610969067
1746576153440396500,7.702396484375,0.0010660351254045963,-0.00028416281566023827,0.00006664544343948364
1746576153450360600,7.712360595703125,-0.0008890691678971052,-0.0005867984145879745,0.0009260480292141438
1746576153460325000,7.7223251953125,-0.0007479216437786818,-0.0010959948413074017,-0.0014396379701793194
1746576153470289000,7.732288818359375,0.0005141510628163815,0.0005451827310025692,-0.001406078226864338
1746576153480254000,7.74225390625,0.0013826077338308096,0.0009579728357493877,-0.0020324536599218845
1746576153490218000,7.752218017578125,0.00028526922687888145,0.0012378520332276821,0.001742503372952342
1746576153500183000,7.76218310546875,-0.00041833799332380295,0.0010807258076965809,0.0006745755672454834
1746576153510148000,7.772148193359375,-0.002126362407580018,0.0010548997670412064,0.0002136826515197754
1746576153520112000,7.782112060546875,0.0007447917014360428,-0.00071370555087924,0.00028878403827548027
1746576153530077000,7.792076904296875,-0.001475385157391429,-0.0008257022127509117,0.00003385590389370918
1746576153540041000,7.802041015625,0.00046845595352351665,-0.0003940039314329624,0.0008767466060817242
1746576153550006000,7.812006103515625,0.000956227071583271,0.0007168473675847054,-0.0022826557978987694
1746576153559969800,7.8219697265625,0.0003636737819761038,-0.0004149959422647953,0.000049474649131298065
1746576153569935000,7.83193505859375,-0.0004158525262027979,0.0008746101520955563,0.000691764522343874
1746576153579899100,7.841899169921875,0.0011732554994523525,-0.0003318018279969692,0.00016126316040754318
1746576153589864000,7.851864013671875,0.00064689083956182,-0.0017624185420572758,-0.00007324106991291046
1746576153599828000,7.861827880859375,0.00008176802657544613,-0.00022470951080322266,-0.0006692567840218544
1746576153609793000,7.87179296875,-0.00017190538346767426,-0.0012197187170386314,-0.0005085007287561893
1746576153619757800,7.8817578125,-0.0006137238815426826,-0.0018138699233531952,-0.0009636352770030499
1746576153629722000,7.89172216796875,0.0004943914245814085,-0.0009620781056582928,0.00017204973846673965
1746576153639687200,7.901687255859375,0.0005772158037871122,0.0007988037541508675,-0.0012298384681344032
1746576153649651000,7.91165087890625,-0.001105999806895852,-0.000772145576775074,-0.00045301346108317375
1746576153659616000,7.921615966796875,-0.0007691101636737585,0.0009562456980347633,0.0005632489919662476
1746576153669580000,7.931580078125,-0.000598847633227706,0.0003568907268345356,-0.00023851124569773674
1746576153679544800,7.941544921875,-0.0013674360234290361,-0.0005115661770105362,-0.0012915250845253468
1746576153689508900,7.9515087890625,-0.00004589022137224674,-0.00007699057459831238,0.0009120199829339981
1746576153699474200,7.96147412109375,-0.0008011625614017248,0.0015070578083395958,0.001279003918170929
1746576153709439000,7.97143896484375,-0.00022730370983481407,-0.0005342746153473854,0.0017607398331165314
1746576153719403000,7.981403076171875,-0.00013169622980058193,-0.0000029741786420345306,-0.0009671361185610294
1746576153729368000,7.9913681640625,-0.000303841894492507,0.0010038497857749462,-0.0000667753629386425
1746576153739331800,8.001331787109375,0.0003371811471879482,-0.00021880725398659706,0.0005588014610111713
1746576153749297000,8.011296875,0.0003806948661804199,-0.00012284843251109123,-0.0009384611621499062
1746576153759261000,8.021260986328125,-0.000990833155810833,-0.00014948006719350815,0.00026315730065107346
1746576153769226000,8.03122607421875,-0.00015054154209792614,-0.0002532023936510086,0.001466630958020687
1746576153779190000,8.04118994140625,0.0003860853612422943,-0.000009789597243070602,0.0011941897682845592
1746576153789155000,8.051155029296876,-0.0017477760557085276,-0.0013794186525046825,0.0006610746495425701
1746576153799119000,8.061119140625,-0.0003480187151581049,0.00015669269487261772,0.000933782197535038
1746576153809084000,8.071083984375,0.0021388279274106026,0.0010889177210628986,-0.0009569753892719746
1746576153819049200,8.08104931640625,0.0006376039236783981,0.001241516787558794,0.0009157597087323666
1746576153829013000,8.091012939453124,0.0012262251693755388,0.00014605233445763588,0.00002905074506998062
1746576153838978000,8.10097802734375,0.000015818513929843903,-0.00046727340668439865,-0.0007821479812264442
1746576153848942000,8.110942138671875,-0.001808258006349206,0.00019722385331988335,0.00009351084008812904
1746576153858907000,8.120906982421875,-0.0005749480333179235,-0.0005063833668828011,-0.0005584307946264744
1746576153868871000,8.130870849609375,-0.0006767201703041792,-0.000274093821644783,0.0004483894445002079
1746576153878836000,8.1408359375,-0.00033530336804687977,-0.0001904708333313465,-0.00006799772381782532
1746576153888800000,8.150800048828126,0.0022215889766812325,-0.00033328356221318245,0.00035891542211174965
1746576153898765000,8.16076513671875,-0.0008021639660000801,-0.0005375482141971588,-0.0006416342221200466
1746576153908730000,8.170730224609375,-0.00023159384727478027,0.0001777810975909233,0.0006853067316114902
1746576153918694100,8.180694091796875,-0.00013465480878949165,0.0003751209005713463,0.0004557422362267971
1746576153928659000,8.190658935546875,0.00007406529039144516,-0.0004002181813120842,0.00006175646558403969
1746576153938623000,8.200623046875,-0.00016668438911437988,-0.0013445750810205936,0.0003571012057363987
1746576153948587800,8.210587890625,-0.0011008386500179768,-0.00025818729773163795,0.0007743360474705696
1746576153958552000,8.220552001953125,0.00007974077016115189,0.0011034873314201832,0.00027685752138495445
1746576153968517000,8.23051708984375,0.00016326270997524261,0.0010794452391564846,-0.0003924379125237465
1746576153978481200,8.240481201171875,0.00040108291432261467,-0.0001892847940325737,-0.00007525505498051643
1746576153988446000,8.250446044921874,-0.002081296406686306,0.0000030957162380218506,-0.0005955272354185581
1746576153998410000,8.260409912109376,-0.0013342797756195068,-0.00012606754899024963,-0.0008045854046940804
1746576154008375000,8.270375,-0.0006756801158189774,-0.0002844189293682575,0.0006530536338686943
1746576154018340000,8.280340087890625,-0.00000962335616350174,0.00022024987265467644,0.0013878196477890015
1746576154028304100,8.29030419921875,0.0002360094804316759,-0.0007510981522500515,-0.0005011418834328651
1746576154038269000,8.30026904296875,-0.0004492218140512705,-0.00003550667315721512,0.0004485412500798702
1746576154048233000,8.31023291015625,-0.0004297627601772547,0.00042429007589817047,0.00012309616431593895
1746576154058198000,8.320197998046876,-0.0002369498834013939,0.00012974441051483154,0.000117503572255373
1746576154068162000,8.330162109375,0.00006455066613852978,-0.00009589828550815582,0.0001194225624203682
1746576154078126800,8.340126953125,-0.0002971068024635315,-0.0013656937517225742,-0.0011080284602940083
1746576154088091000,8.3500908203125,-0.0003812466748058796,-0.000012604054063558578,-0.0010377108119428158
1746576154098056200,8.36005615234375,0.0004672363866120577,-0.0002600117586553097,0.0003274260088801384
1746576154108020000,8.37002001953125,0.00004045967943966389,-0.00001119077205657959,-0.00046400679275393486
1746576154117985000,8.379985107421875,0.0007248918991535902,-0.0002852301113307476,-0.00028557516634464264
1746576154127950000,8.3899501953125,0.0010723881423473358,-0.000664886087179184,-0.00042652152478694916
1746576154137913900,8.399913818359375,-0.0015201992355287075,-0.0007996419444680214,-0.0005429014563560486
1746576154147879200,8.409879150390625,-0.000868282513692975,-0.0002138698473572731,0.00022469321265816689
1746576154157843200,8.41984326171875,-0.00009516696445643902,-0.000043161213397979736,-0.0009257923811674118
1746576154167808000,8.42980810546875,0.00019939919002354145,-0.0012075044214725494,0.0017929133027791977
1746576154177772000,8.43977197265625,0.00027902773581445217,-0.00042639952152967453,-0.00010858383029699326
1746576154187737000,8.449737060546875,-0.00074025709182024,-0.0003372696228325367,-0.000964622013270855
1746576154197700900,8.459700927734374,-0.001032672356814146,0.00017964979633688927,-0.0012517105787992477
1746576154207666000,8.469666015625,-0.0004956938792020082,0.00029724277555942535,-0.0005968040786683559
1746576154217631000,8.479630859375,0.0002790195867419243,-0.0006409888155758381,-0.000807459931820631
1746576154227595000,8.489594970703125,-0.0011355720926076174,-0.0009246836416423321,-0.0005835909396409988
1746576154237560000,8.49956005859375,-0.0005083975847810507,-0.0011294810101389885,0.00024172291159629822
1746576154247524000,8.509524169921875,-0.0010515516623854637,0.0001563001424074173,-0.0004966109991073608
1746576154257489000,8.519489013671874,-0.0002773706801235676,-0.0004319921135902405,0.0007553412578999996
1746576154267453000,8.529452880859376,-0.0012936270795762539,-0.0005091987550258636,-0.00011315662413835526
1746576154277418000,8.53941796875,0.0003356949891895056,0.0019457032904028893,-0.00018266541883349419
1746576154287381800,8.5493818359375,-0.00047481083311140537,-0.0003606029786169529,-0.0002712644636631012
1746576154297347000,8.55934716796875,-0.0012050496879965067,0.0001179669052362442,-0.000826000701636076
1746576154307312000,8.56931201171875,0.0004157768562436104,-0.0001108488067984581,-0.0005812617018818855
1746576154317276000,8.57927587890625,-0.0004990191664546728,0.0016106185503304005,-0.0005277320742607117
1746576154327241000,8.589240966796876,-0.0003350169863551855,0.0003203609958291054,0.0008476488292217255
1746576154337205000,8.599205078125,-0.0012990811374038458,0.0015352950431406498,0.0004969104193150997
1746576154347170000,8.609170166015625,-0.001022223848849535,-0.0018855617381632328,-0.000079302117228508
1746576154357134000,8.619134033203125,-0.0012608431279659271,-0.0008858111687004566,-0.0012612128630280495
1746576154367099100,8.62909912109375,-0.001481901854276657,-0.0006579915061593056,-0.00016379449516534805
1746576154377063000,8.63906298828125,-0.00033993832767009735,-0.0004049912095069885,0.0004466022364795208
1746576154387028000,8.649028076171875,-0.0007836706936359406,0.0014044027775526047,0.001203643623739481
1746576154396992000,8.658991943359375,-0.0010795476846396923,-0.0001482199877500534,0.0010350658558309078
1746576154406956800,8.668956787109375,0.0005086299497634172,-0.000040409155189991,-0.00010918173938989639
1746576154416922000,8.678922119140625,-0.0000650149304419756,0.0009878375567495823,0.00032384833320975304
1746576154426886100,8.68888623046875,0.0004930344875901937,-0.0003497051075100899,0.0010220916010439396
1746576154436851000,8.698850830078126,-0.00020311609841883183,0.00039491476491093636,-0.000979007687419653
1746576154446815000,8.70881494140625,-0.0008247944060713053,0.000967671163380146,0.0005649589002132416
1746576154456780300,8.7187802734375,0.0005515271332114935,-0.00008188048377633095,0.00007866555824875832
1746576154466744000,8.728744140625,0.001197051489725709,-0.0008832463063299656,0.002050788141787052
1746576154476709400,8.73870947265625,-0.00015503517352044582,-0.0004779133014380932,0.0005234652198851109
1746576154486673400,8.74867333984375,-0.0018975255079567432,-0.0016833283007144928,-0.0005970844067633152
1746576154496638200,8.75863818359375,-0.0013555726036429405,0.0006173765286803246,0.0004343576729297638
1746576154506603300,8.768603271484375,0.0013517225161194801,0.0006661517545580864,0.00044126762077212334
1746576154516567300,8.7785673828125,-0.000344444764778018,0.0012331386096775532,-0.00006286846473813057
1746576154526532000,8.788531982421874,0.0001500365324318409,0.0005482691340148449,-0.00006918376311659813
1746576154536496000,8.79849609375,-0.0014414682518690825,0.0014995504170656204,-0.0021608304232358932
1746576154546461400,8.80846142578125,-0.00009167171083390713,0.0008120178245007992,-0.00034952349960803986
1746576154556425200,8.81842529296875,0.0012401749845594168,-0.0014380873180925846,-0.0005844146944582462
1746576154566390300,8.828390380859375,0.0008969549089670181,-0.0006516491994261742,0.001153165940195322
1746576154576354300,8.838354248046874,-0.0004870900884270668,0.0004245340824127197,-0.0000934600830078125
1746576154586319000,8.848319091796874,-0.0009714600164443254,-0.0005946396850049496,-0.000478135421872139
1746576154596283100,8.858283203125,-0.00034748134203255177,-0.00039170682430267334,0.0016286913305521011
1746576154606248200,8.868248291015625,-0.0007659087423235178,0.0014787157997488976,-0.00012173457071185112
1746576154616213200,8.878213134765625,0.0003076116554439068,0.00045526307076215744,-0.00023891357704997063
1746576154626177300,8.88817724609375,0.0004853720311075449,0.0006533139385282993,0.00032236799597740173
1746576154636142300,8.898142333984374,0.0003641981165856123,0.0002945861779153347,-0.00047045527026057243
1746576154646106400,8.9081064453125,-0.00010238774120807648,0.00033439695835113525,-0.00008968822658061981
1746576154656071200,8.9180712890625,-0.0005034594796597958,-0.0014919987879693508,-0.000020712614059448242
1746576154666035200,8.92803515625,0.0011255505960434675,-0.0021304364781826735,-0.0012260302901268005
1746576154676000300,8.938000244140625,0.0004405854269862175,0.0004301927983760834,0.00030635250732302666
1746576154685964300,8.94796435546875,0.00008239084854722023,-0.00008911639451980591,0.0007888278923928738
1746576154695929300,8.957929443359374,0.0005090292543172836,-0.0005064336583018303,-0.0025134920142591
1746576154705894100,8.96789404296875,-0.00023256614804267883,0.001634947955608368,-0.00026905443519353867
1746576154715858200,8.977858154296875,0.0010060700587928295,0.0004088287241756916,0.000311780720949173
1746576154725823200,8.9878232421875,-0.0008937087841331959,0.0009810496121644974,0.0016142907552421093
1746576154735787300,8.997787353515625,-0.0006380453705787659,-0.0006037973798811436,-0.000016096513718366623
1746576154745752300,9.00775244140625,0.0016367197968065739,-0.000054778531193733215,-0.00030217738822102547
1746576154755716400,9.01771630859375,0.0002548054326325655,-0.0005413377657532692,0.0005273972637951374
1746576154765681200,9.02768115234375,-0.0005112737417221069,0.0002756677567958832,0.00017085624858736992
1746576154775645200,9.037645263671875,-0.0013773338869214058,0.0007872609421610832,0.0010454379953444004
1746576154785610200,9.0476103515625,0.0009544405620545149,-0.0007809153757989407,4.186294972896576e-7
1746576154795574300,9.05757421875,0.0005163503810763359,-0.00011326093226671219,-0.0009596510790288448
1746576154805539300,9.067539306640626,0.0009467385243624449,-0.0014367662370204926,-0.0004444718360900879
1746576154815504400,9.07750439453125,-0.0015608938410878181,-0.0003254287876188755,-0.0012138588353991508
1746576154825468400,9.087468505859375,0.00024027354083955288,0.00046658096835017204,-0.001661759801208973
1746576154835433200,9.09743310546875,-0.00046972534619271755,0.00008574873208999634,-0.0004404345527291298
1746576154845397200,9.107397216796874,-0.00025255721993744373,0.00019981712102890015,0.000939883291721344
1746576154855362300,9.1173623046875,0.0004896658938378096,0.00034948671236634254,0.0007835556752979755
1746576154865326000,9.127326171875,0.0004227319732308388,-0.0005889632739126682,0.00023426301777362823
1746576154875291400,9.13729150390625,0.0007257997058331966,0.00033222418278455734,0.0007296111434698105
1746576154885255400,9.14725537109375,-0.00023575732484459877,0.0011011497117578983,0.0003134487196803093
1746576154895220200,9.15722021484375,0.0004015369340777397,-0.00006478233262896538,-0.00029987748712301254
1746576154905185300,9.167185302734374,-0.0006371121853590012,-0.0007232730276882648,-0.00008459016680717468
1746576154915149300,9.1771494140625,-0.0007606828585267067,-0.0021376777440309525,-0.00031042611226439476
1746576154925114000,9.187114013671875,-0.0004533282481133938,-0.0008040140382945538,-0.0008745761588215828
1746576154935078100,9.197078125,0.0016090236604213715,0.0004111863672733307,0.001368604600429535
1746576154945043200,9.207043212890625,-0.00019619567319750786,0.00019309436902403831,-0.0008754725567996502
1746576154955007200,9.21700732421875,0.00017371750436723232,0.0002112039364874363,-0.0003979676403105259
1746576154964972300,9.22697216796875,-0.0007521547377109528,-0.00045956484973430634,0.00024323118850588799
1746576154974936300,9.236936279296875,0.0004028582479804754,0.0013676299713551998,0.0006086165085434914
1746576154984901000,9.246901123046875,0.0017519178800284863,0.00011376151815056801,0.0007067038677632809
1746576154994865200,9.256865234375,-0.0003306739963591099,-0.0009163492359220982,0.0014001913368701935
1746576155004830500,9.26683056640625,-0.0012918892316520214,-0.0009713075123727322,-0.0000920519232749939
1746576155014795300,9.276795166015624,0.00005140923894941807,-0.0008511990308761597,0.0002845190465450287
1746576155024759300,9.28675927734375,0.0009154889266937971,-0.0001440434716641903,-0.000831573735922575
1746576155034724400,9.296724365234375,0.0009873942472040653,-0.00018052849918603897,-0.0011434298940002918
1746576155044688100,9.306688232421875,-0.0006039738655090332,-0.00005103554576635361,0.00011801859363913536
1746576155054653200,9.316653076171875,-0.00026149163022637367,-0.00022973353043198586,0.0004687565378844738
1746576155064617200,9.3266171875,0.0016528069972991943,-0.00015842262655496597,-0.0009077172726392746
1746576155074582300,9.336582275390626,0.0006043205503374338,-0.0012995870783925056,-0.0015583271160721779
1746576155084546300,9.34654638671875,0.0010423676576465368,-0.00037522148340940475,0.0005044550634920597
1746576155094511400,9.356511474609375,0.0007768506184220314,-0.0003326111473143101,-0.00010594166815280914
1746576155104476200,9.36647607421875,-0.0007286956533789635,0.0000064568594098091125,-0.00006101885810494423
1746576155114440200,9.376440185546874,-0.00036410894244909286,-0.0010713241063058376,0.00013605505228042603
1746576155124405200,9.3864052734375,0.0008890512399375439,0.0006249039433896542,0.0005578929558396339
1746576155134369300,9.396369384765626,0.0009324606508016586,0.0005940115079283714,-0.0001513068564236164
1746576155144334300,9.406334228515625,0.0009952320251613855,0.0001624501310288906,-0.0012998771853744984
1746576155154298400,9.41629833984375,-0.0004902794025838375,-0.00017790170386433601,-0.0005174404941499233
1746576155164263200,9.42626318359375,-0.0020337821915745735,-0.0012749824672937393,-0.0009817508980631828
1746576155174227200,9.436227294921874,0.002244585892185569,0.0001974795013666153,0.0008536996319890022
1746576155184192300,9.446192138671876,0.0017159315757453442,-0.000057592056691646576,0.00040282728150486946
1746576155194156300,9.45615625,0.000725235790014267,0.0006614611484110355,0.0011447840370237827
1746576155204121300,9.466121337890625,0.000051996903494000435,-0.001019307877868414,0.0005671307444572449
1746576155214086400,9.47608642578125,-0.0005117941182106733,-0.00045525049790740013,0.0007109413854777813
1746576155224050200,9.48605029296875,-0.0006246445700526237,-0.000729111023247242,0.0007505952380597591
1746576155234015200,9.49601513671875,0.0008885636925697327,-0.0008614701218903065,0.0011572600342333317
1746576155243979300,9.505979248046875,-0.00039538065902888775,-0.00003208918496966362,0.0002377019263803959
1746576155253944000,9.515944091796875,0.00127522018738091,0.00006511621177196503,0.0008294563740491867
1746576155263908000,9.525908203125,0.000024046516045928,-0.0008705398067831993,0.000614924356341362
1746576155273873400,9.535873291015625,0.000994236208498478,-0.000925400760024786,-0.000003461260348558426
1746576155283837400,9.54583740234375,0.00032841390930116177,-0.0002940674312412739,0.00015776744112372398
1746576155293802200,9.55580224609375,0.0018357629887759686,-0.0008850228041410446,0.0008065137080848217
1746576155303767300,9.565767333984375,-0.001978106563910842,-0.0003478541038930416,0.0005733282305300236
1746576155313731000,9.57573095703125,0.0006688092835247517,-0.00008420087397098541,0.00034003565087914467
1746576155323696400,9.5856962890625,0.00031589390709996223,-0.0005582473240792751,-0.00013270974159240723
1746576155333660400,9.595660400390624,-0.0010630909819155931,-0.001426437869668007,0.0009123147465288639
1746576155343625200,9.605625244140626,-0.0015670661814510822,0.0005628098733723164,0.00090402876958251
1746576155353589200,9.61558935546875,-0.00019686995074152946,0.0007218006066977978,0.0009271982125937939
1746576155363554300,9.62555419921875,-0.0011152031365782022,0.000634967815130949,-0.00014779064804315567
1746576155373518300,9.635518310546875,0.00010479101911187172,-0.0008177864365279675,0.0003100070171058178
1746576155383483100,9.645483154296874,-0.0002616029232740402,0.0008904929272830486,-0.00013043731451034546
1746576155393447200,9.655447265625,0.000966113992035389,0.000015112105756998062,0.0017638688441365957
1746576155403412200,9.665412109375,0.000009021954610943794,0.000459844246506691,-0.0003893384709954262
1746576155413377300,9.675377197265625,-0.0015907392371445894,-0.00006612995639443398,0.0009949724189937115
1746576155423341300,9.68534130859375,-0.0007308372296392918,0.0004773181863129139,0.0012867222540080547
1746576155433306000,9.69530615234375,-0.0010647973977029324,0.000462937168776989,0.0014449143782258034
1746576155443270100,9.705270263671874,-0.00044524017721414566,-0.0016646150033921003,0.0007932032458484173
1746576155453235200,9.715235107421876,-0.00042473385110497475,-0.00011518783867359161,0.0021620681509375572
1746576155463199500,9.725199462890625,0.0011054251808673143,-0.00008454592898488045,-0.0006422009319067001
1746576155473164500,9.73516455078125,0.0007560185622423887,-0.00028028804808855057,-0.0006584459915757179
1746576155483128600,9.745128662109375,0.0009280028752982616,0.0007057022303342819,-0.000898121390491724
1746576155493093400,9.75509326171875,0.00021933577954769135,0.0012963912449777126,0.00025422824546694756
1746576155503057400,9.765057373046876,0.0009392399806529284,0.000466945581138134,0.0006572538986802101
1746576155513022500,9.7750224609375,-0.0005742344073951244,-0.00006914883852005005,-0.00003197230398654938
1746576155522987500,9.784987548828125,-0.0011728748213499784,-0.0007482506334781647,0.0004082154482603073
1746576155532951600,9.79495166015625,0.000048450892791152,-0.0005634273402392864,0.00027718814089894295
1746576155542916600,9.80491650390625,0.00010042847134172916,0.00018277019262313843,0.00025587668642401695
1746576155552880600,9.814880615234374,-0.00038213632069528103,-0.0017155311070382595,-0.0007499991916120052
1746576155562845400,9.824845458984376,-0.00110616534948349,-0.0006053652614355087,-0.00012473994866013527
1746576155572809500,9.8348095703125,-0.000150623032823205,-0.00014756806194782257,-0.000189188402146101
1746576155582774500,9.8447744140625,-0.00045237853191792965,0.0015576579608023167,0.0012326911091804504
1746576155592738300,9.85473828125,0.0006965089123696089,0.0006876029074192047,0.0004238891415297985
1746576155602703600,9.86470361328125,-0.0011408173013478518,-0.00029023783281445503,0.0003114813007414341
1746576155612668400,9.87466845703125,0.0007273899391293526,0.00014945026487112045,-0.00009704800322651863
1746576155622632400,9.884632568359375,-0.00019380799494683743,-0.0001288820058107376,0.0004145619459450245
1746576155632597500,9.894597412109375,-0.00017702998593449593,0.0011249342933297157,-0.0005383170209825039
1746576155642561500,9.9045615234375,0.000862132990732789,-0.0008388785645365715,0.0006937677972018719
1746576155652526600,9.914526611328125,-0.0004550665616989136,0.0005619442090392113,-0.0002620411105453968
1746576155662490600,9.92449072265625,0.0010094349272549152,-0.0007998174987733364,-0.00046974746510386467
1746576155672455400,9.934455322265626,0.00180838315282017,0.00039327889680862427,-0.0006023729220032692
1746576155682419500,9.94441943359375,-0.0013538370840251446,0.001244641374796629,0.0008769473060965538
1746576155692384500,9.954384521484375,-0.002542139496654272,0.000008668284863233566,-0.0006242766976356506
1746576155702349300,9.964349365234375,0.00019746157340705395,0.0009203273802995682,0.00022726226598024368
1746576155712313300,9.974313232421874,-0.0005197278223931789,0.0005165925249457359,0.0009196838364005089
1746576155722278700,9.984278564453126,-0.000104118837043643,0.0005254312418401241,0.0010067904368042946
1746576155732242700,9.99424267578125,-0.0008612556848675013,0.00053049111738801,0.0014502070844173431
1746576155742207500,10.00420751953125,-0.0009199262131005526,-0.0004165475256741047,0.00047998083755373955
1746576155752171500,10.014171630859375,-0.0010030169505625963,-0.000106023158878088,0.00009595323354005814
1746576155762136600,10.024136474609374,-0.0009322338737547398,-0.0008910107426345348,0.0003301170654594898
1746576155772100400,10.034100341796876,0.0012164046056568623,0.000775062944740057,0.0009647486731410027
1746576155782065400,10.0440654296875,0.0005064599681645632,0.00010470254346728325,-0.000037777237594127655
1746576155792029700,10.05402978515625,0.0006015347316861153,-0.0005248687230050564,0.00012387661263346672
1746576155801994500,10.063994384765625,-0.0008825655095279217,0.00220413226634264,-0.0006772181950509548
1746576155811959600,10.07395947265625,-0.00025405967608094215,0.0019380822777748108,0.000013339333236217499
1746576155821923600,10.083923583984374,-0.001699268352240324,-0.00009315460920333862,0.001108106691390276
1746576155831888400,10.093888427734376,-0.0005839364603161812,0.0004834197461605072,-0.0009300103411078453
1746576155841852400,10.103852294921875,-0.0019984564278274775,-0.00015439093112945557,0.00018393388018012047
1746576155851817700,10.113817626953125,0.0008109123446047306,-0.0009107287041842937,0.00022920779883861542
1746576155861781500,10.123781494140625,-0.000630705151706934,0.0016959398053586483,-0.0009396462701261044
1746576155871746600,10.13374658203125,-0.0006639943458139896,0.00010390207171440125,0.0007043229416012764
1746576155881710600,10.143710693359376,0.0009936627466231585,0.0003683357499539852,0.0012476942501962185
1746576155891675400,10.15367529296875,-0.0015475256368517876,0.0005214675329625607,-0.0010825712233781815
1746576155901639400,10.163639404296875,-0.0011893240734934807,0.0009512114338576794,0.00019128387793898582
1746576155911604500,10.1736044921875,0.0015878204721957445,0.00028835050761699677,0.0007297750562429428
1746576155921569500,10.183569580078125,-0.00129607692360878,0.0007958174683153629,0.00008735619485378265
1746576155931533600,10.193533447265626,0.000885052140802145,0.0004149852320551872,0.00047111744061112404
1746576155941498600,10.20349853515625,-0.000032695475965738297,0.0002713380381464958,0.000028911512345075607
1746576155951462400,10.21346240234375,0.00047437031753361225,0.0004329918883740902,0.0014510396867990494
1746576155961427500,10.223427490234375,0.00033039157278835773,0.0005947975441813469,-0.0006413431838154793
1746576155971391500,10.2333916015625,0.001048113452270627,0.0001346035860478878,-0.0009926138445734978
1746576155981356500,10.2433564453125,0.00003049825318157673,0.0009920964948832989,0.0000797472894191742
1746576155991320600,10.253320556640626,-0.0010243798606097698,-0.0002713073045015335,-0.00018869945779442787
1746576156001285600,10.26328564453125,-0.0009527150541543961,-0.0004927134141325951,0.00014504743739962578
1746576156011250400,10.27325048828125,-0.001229950226843357,-0.0003760671243071556,-0.00010662106797099113
1746576156021214500,10.28321435546875,-0.002137623494490981,-0.00008233729749917984,-0.00011452659964561462
1746576156031179500,10.293179443359374,0.00003498326987028122,0.0004300549626350403,-0.0007944316603243351
1746576156041143300,10.303143310546876,0.00009216018952429295,-0.0008591292425990105,0.0002781301736831665
1746576156051108600,10.313108642578126,-0.0005965330637991428,0.001089239027351141,-0.0026015457697212696
1746576156061072600,10.32307275390625,0.001491678413003683,0.0019458918832242489,-0.00016893958672881126
1746576156071037400,10.333037353515625,-0.000909960363060236,0.0006510629318654537,0.0009285490959882736
1746576156081001500,10.34300146484375,-0.00014204345643520355,0.00009596394374966621,-0.0007401648908853531
1746576156090966500,10.352966552734374,-0.0011178257409483194,0.00035002967342734337,0.0006587933748960495
1746576156100931300,10.362931396484376,-0.00044105155393481255,-0.0004296754486858845,0.00038903113454580307
1746576156110895400,10.372895263671875,-0.0004959129728376865,0.0001820526085793972,-0.0011129919439554214
1746576156120860700,10.382860595703125,-0.0003814161755144596,-0.0006745047867298126,0.0008587944321334362
1746576156130824400,10.392824462890625,-0.0004812846891582012,-0.0004225699231028557,0.001172514632344246
1746576156140789500,10.40278955078125,-0.00029871566221117973,-0.0007384493947029114,-0.0009776703082025051
1746576156150753500,10.41275341796875,-0.0024359021335840225,0.00029006320983171463,-0.00023145275190472603
1746576156160718300,10.42271826171875,0.0005908843595534563,-0.0007734508253633976,-0.001033363863825798
1746576156170682400,10.432682373046875,-0.0008096718229353428,0.00028781918808817863,-0.0021801209077239037
1746576156180647700,10.442647705078125,-0.000028422335162758827,-0.0006308644078671932,0.00015700561925768852
1746576156190611700,10.45261181640625,0.0013212678022682667,-0.0014058444648981094,-0.0005748309195041656
1746576156200576500,10.462576416015626,0.0003170447889715433,0.00018451688811182976,-0.0012988573871552944
1746576156210541600,10.47254150390625,-0.000647285720333457,0.0005171457305550575,-0.00018698768690228462
1746576156220505600,10.482505615234375,-0.001029511447995901,-0.00042688800022006035,0.00015468616038560867
1746576156230470400,10.492470458984375,0.0004091281443834305,0.0008133458904922009,0.001693993341177702
1746576156240434400,10.502434326171874,0.00010392512194812298,0.0004028650000691414,0.0006429930217564106
1746576156250399500,10.5123994140625,0.00020192936062812805,-0.0011175335384905338,-0.002122966106981039
1746576156260363500,10.522363525390626,-0.0004837771411985159,-0.00001657102257013321,-0.00014186836779117584
1746576156270328600,10.53232861328125,-0.0005053489003330469,-0.000653865747153759,0.0009060855954885483
1746576156280292600,10.542292724609375,-0.00008797668851912022,-0.000737491063773632,-0.0008532186038792133
1746576156290257400,10.55225732421875,0.00046569458208978176,-0.000533493235707283,-0.0014785290695726871
1746576156300222500,10.562222412109374,-0.0015799198299646378,-0.0010280744172632694,-0.000021920539438724518
1746576156310186800,10.572186767578126,0.0004912205040454865,-0.00019557029008865356,-0.0009300587698817253
1746576156320151600,10.582151611328126,-0.0016036685556173325,-0.0011000768281519413,-0.0004484313540160656
1746576156330115600,10.592115478515625,-0.0005447957664728165,-0.00005558505654335022,-0.0011706803925335407
1746576156340080400,10.602080322265625,-0.0004749258514493704,0.0018024635501205921,-0.0011689206585288048
1746576156350044400,10.61204443359375,0.00020204996690154076,0.0005925893783569336,0.001080918125808239
1746576156360009500,10.622009521484374,0.000249277101829648,0.00030369171872735023,-0.00039088260382413864
1746576156369973500,10.631973388671875,-0.000058850739151239395,0.0010198154486715794,-0.0008713165298104286
1746576156379938600,10.6419384765625,-0.0005342266522347927,-0.00035288091748952866,-0.000060634221881628036
1746576156389903600,10.651903564453125,0.00019760988652706146,0.0003778906539082527,0.00038810819387435913
1746576156399867600,10.66186767578125,0.0004577010404318571,-0.000422078650444746,-0.0016481606289744377
1746576156409832400,10.67183251953125,-0.00009383959695696831,0.0005654217675328255,0.000012054108083248138
1746576156419796500,10.68179638671875,-0.0019082855433225632,0.0007690028287470341,-0.0004601390101015568
1746576156429761500,10.691761474609375,0.00016551767475903034,0.00027605192735791206,0.00045945029705762863
1746576156439725300,10.701725341796875,-0.0013524165842682123,0.001749920193105936,-0.00008381251245737076
1746576156449690600,10.711690673828125,-0.0006778377573937178,0.0013794740661978722,0.0005180616863071918
1746576156459655000,10.721655029296874,-0.00014497200027108192,0.00007499149069190025,0.00008632149547338486
1746576156469620000,10.731619873046874,0.0002305337693542242,-0.00030770478770136833,-0.0008561708964407444
1746576156479584000,10.741583984375,-0.00011174194514751434,-0.0007511554285883904,0.000050201546400785446
1746576156489548800,10.751548828125,-0.0009530344977974892,0.0010603265836834908,-0.00029307976365089417
1746576156499513900,10.761513916015625,0.00028876797296106815,0.0006577568128705025,-0.0004034196026623249
1746576156509478000,10.771477783203125,0.00026213633827865124,-0.0016006040386855602,-0.0004817168228328228
1746576156519443000,10.78144287109375,0.000050174305215477943,-0.0013683149591088295,-0.00045245932415127754
1746576156529407000,10.791406982421876,0.002987641142681241,0.0007441043853759766,-0.0011225109919905663
1746576156539372000,10.8013720703125,-0.0008574377279728651,0.0007586563006043434,-0.0021935547702014446
1746576156549336000,10.811336181640625,-0.0011810117866843939,-0.00020088069140911102,-0.0013834214769303799
1746576156559300900,10.82130078125,-0.00046264450065791607,-0.0012340415269136429,-0.00003273598849773407
1746576156569265000,10.831264892578124,0.00022365199401974678,0.0010677282698452473,-0.000528350006788969
1746576156579230000,10.84122998046875,0.0012747745495289564,0.0005453391931951046,0.001509666908532381
1746576156589193700,10.85119384765625,-0.0016730783972889185,-0.000010196119546890259,0.0015695877373218536
1746576156599159000,10.861158935546875,0.001014095265418291,-0.0009577414020895958,0.000619624275714159
1746576156609123800,10.871123779296875,-0.00019311578944325447,0.000455598346889019,0.00009551411494612694
1746576156619088000,10.881087890625,0.0006098046433180571,-0.001002380158752203,0.000302052590996027
1746576156629053000,10.891052978515624,-0.0009380243718624115,-0.0008604335598647594,0.001971055520698428
1746576156639017000,10.901016845703126,0.0011379795614629984,0.0009107021614909172,0.0014664526097476482
1746576156648981800,10.910981689453125,-0.000005315523594617844,0.0011202930472791195,0.00018360791727900505
1746576156658946000,10.920946044921875,0.0006100859027355909,0.0005271867848932743,0.0003266790881752968
1746576156668911000,10.9309111328125,-0.000736940884962678,-0.0005047880113124847,0.00018499884754419327
1746576156678875000,10.940875,0.00012379908002912998,-0.001204637810587883,-0.000806738156825304
1746576156688840000,10.95083984375,0.0007642891723662615,0.0010270914062857628,-0.0016264589503407478
1746576156698804700,10.9608046875,-0.00002101273275911808,-0.00003916025161743164,-0.000008180271834135056
1746576156708768800,10.970768798828125,0.0001651423517614603,0.00025005917996168137,-0.0005655800923705101
1746576156718734000,10.980734130859375,-0.0017636995762586594,0.0005439184606075287,-0.0001958967186510563
1746576156728698000,10.990697998046874,0.000028874026611447334,-0.0023109903559088707,0.0001401938498020172
1746576156738663000,11.000662841796874,0.0011654878035187721,0.0008893324993550777,0.0010275901295244694
1746576156748627000,11.010626953125,-0.000402581412345171,0.000797719694674015,0.0005170623771846294
1746576156758592000,11.020592041015625,0.001256556948646903,-0.0008098417893052101,0.0010373028926551342
1746576156768555800,11.0305556640625,0.00039715482853353024,0.00023331819102168083,-0.00002716248854994774
1746576156778520800,11.040520751953125,-0.00010625366121530533,-0.0013069254346191883,0.00020724069327116013
1746576156788486000,11.05048583984375,0.0004620649851858616,-0.0009910743683576584,-0.0010220743715763092
1746576156798450000,11.060449951171876,-0.0004952459130436182,0.0006046700291335583,0.0006493446417152882
1746576156808415000,11.0704150390625,0.0005345987156033516,0.0000693746842443943,0.0004565315321087837
1746576156818379000,11.08037890625,-0.00036924355663359165,-0.0012460197322070599,0.0011654766276478767
1746576156828343800,11.09034375,-0.0010827041696757078,-0.0009717145003378391,0.000620061531662941
1746576156838307800,11.100307861328124,-0.0012618540786206722,0.00014835596084594727,0.00033078668639063835
1746576156848273200,11.110273193359374,-0.00014119595289230347,0.000182444229722023,-0.00024978257715702057
1746576156858237000,11.12023681640625,0.0003744920250028372,0.00035095540806651115,0.000028083566576242447
1746576156868202000,11.130201904296875,0.0004466637037694454,0.0012170150876045227,-0.0004211915656924248
1746576156878167000,11.1401669921875,0.0020819883793592453,0.00012046843767166138,0.0020797743927687407
1746576156888130800,11.150130859375,-0.0004381607286632061,-0.0010981941595673561,0.0013814936392009258
1746576156898095900,11.160095947265624,-0.0005669738166034222,0.0009416262619197369,0.0004708273336291313
1746576156908060000,11.170059814453126,0.0007020223420113325,0.0008055390790104866,-0.00022399146109819412
1746576156918025000,11.18002490234375,0.0012868894264101982,-0.0006871549412608147,0.0010694852098822594
1746576156927989000,11.189989013671875,-0.00041380547918379307,-0.002478130627423525,0.0014934604987502098
1746576156937954000,11.1999541015625,-0.0006774715147912502,-0.00019428739324212074,0.0007281964644789696
1746576156947917800,11.209917724609374,0.0006221514195203781,0.0008347579278051853,0.0010717441327869892
1746576156957883000,11.2198828125,-0.0004773528780788183,0.0014618798159062862,0.000549564603716135
1746576156967847000,11.229846923828125,0.0007378475274890661,-0.001634843647480011,-0.00018120696768164635
1746576156977811700,11.239811767578125,-0.00031235069036483765,-0.0010309405624866486,0.0008232910186052322
1746576156987777000,11.249777099609375,0.0004056377802044153,-0.00047300849109888077,0.0006954590789973736
1746576156997741000,11.259740966796874,0.0007843221537768841,-0.0006614280864596367,0.00031380727887153625
1746576157007705900,11.269705810546874,-0.0009994630236178637,0.00014364579692482948,0.00030874740332365036
1746576157017670000,11.279669921875,0.002060001716017723,0.00043769320473074913,-0.0013246149756014347
1746576157027635000,11.289635009765625,-0.00015228614211082458,0.0003620591014623642,0.0017627878114581108
1746576157037599000,11.299598876953125,0.002005192916840315,-0.0010312413796782494,-0.0022751535288989544
1746576157047564000,11.30956396484375,0.0000475030392408371,-0.0002741045318543911,-0.0010618166998028755
1746576157057529000,11.319529052734374,-0.0001583362463861704,0.00037245452404022217,-0.00031038979068398476
1746576157067492900,11.329492919921876,0.00047629489563405514,-0.0011519389227032661,-0.0010246499441564083
1746576157077458000,11.3394580078125,0.0017444398254156113,-0.0008156257681548595,0.00018421560525894165
1746576157087422000,11.349421875,0.0009359039831906557,-0.00010749092325568199,0.0005019307136535645
1746576157097386800,11.35938671875,0.00042902398854494095,0.00025377608835697174,-0.0005856575444340706
1746576157107350800,11.369350830078124,-0.00023117358796298504,0.00039039598777890205,-0.00031161820515990257
1746576157117316000,11.379316162109374,-0.0008820267394185066,0.0001287856139242649,-0.00023231329396367073
1746576157127279900,11.38927978515625,-0.0006628488190472126,-0.00027175387367606163,0.00015064934268593788
1746576157137245000,11.399244873046875,-6.05359673500061e-8,0.00004766788333654404,0.00042500346899032593
1746576157147209000,11.409208984375,-0.0014371024444699287,-0.001471665222197771,-0.0001771370880305767
1746576157157173800,11.419173828125,-0.0006156296003609896,-0.00036167632788419724,0.0005955789238214493
1746576157167138800,11.429138916015624,0.0006104896310716867,-0.0008045602589845657,0.0013015829026699066
1746576157177102800,11.439102783203126,-0.0009277672506868839,-0.00035410793498158455,-0.0015791081823408604
