time,seconds_elapsed,z,y,x
1746738970992078600,0.02307861328125,0.0006705750711262226,-0.0010351184755563736,-0.033093150705099106
1746738971002156500,0.033156494140625,0.001508994959294796,0.0066641285084187984,-0.035050541162490845
1746738971012235500,0.043235595703125,0.0026168699841946363,0.0080159492790699,-0.03533390164375305
1746738971022314500,0.053314453125,0.005586693529039621,0.006110893562436104,-0.02855876460671425
1746738971032393500,0.0633935546875,0.0055454145185649395,0.0059473756700754166,-0.018232623115181923
1746738971042472700,0.07347265625,0.0032225779723376036,-0.0014213877730071545,-0.005653250962495804
1746738971052550700,0.083550537109375,0.002354387426748872,0.00011152774095535278,0.0023532763589173555
1746738971062629400,0.09362939453125,0.0017740284092724323,-0.0010738875716924667,0.005731725599616766
1746738971072708600,0.10370849609375,-0.002585299778729677,-0.00023126369342207909,0.0037625841796398163
1746738971082787600,0.11378759765625,-0.0033572944812476635,0.003209848888218403,0.005744279362261295
1746738971092866600,0.123866455078125,-0.000546594150364399,0.005110546946525574,0.004254506900906563
1746738971102944500,0.133944580078125,0.0004151714965701103,0.010984999127686024,0.007118792738765478
1746738971113023500,0.1440234375,0.003910836763679981,0.008970850147306919,0.006996021140366793
1746738971123102700,0.154102783203125,0.007999636232852936,0.0009240894578397274,0.006985213607549667
1746738971133181700,0.164181640625,0.007072856649756432,-0.00014570262283086777,0.0007454273873008788
1746738971143260400,0.174260498046875,0.005911641288548708,0.001551483292132616,-0.002217518864199519
1746738971153338600,0.184338623046875,0.00330627104267478,0.002122997771948576,-0.0068516856990754604
1746738971163417600,0.19441748046875,0.0021408437751233578,0.004277433268725872,-0.017251931130886078
1746738971173496600,0.20449658203125,-0.00043043820187449455,0.005722730420529842,-0.016399718821048737
1746738971183575600,0.214575439453125,-0.002360248938202858,0.008829731494188309,-0.02035594917833805
1746738971193654500,0.224654541015625,-0.0002973643131554127,0.0043811858631670475,-0.020758885890245438
1746738971203732500,0.234732421875,0.0028822608292102814,0.0008408264257013798,-0.017937354743480682
1746738971213811700,0.244811767578125,0.0037336733657866716,0.006234526168555021,-0.01551840454339981
1746738971223890400,0.254890380859375,0.004929699003696442,0.007148523349314928,-0.006883371155709028
1746738971233969400,0.264969482421875,0.003606640500947833,0.006118146236985922,-0.0020278957672417164
1746738971244048600,0.275048583984375,0.0019837026484310627,0.007795076817274094,0.0026534833014011383
1746738971254126600,0.285126708984375,0.0009647770784795284,0.0030650366097688675,0.005187481176108122
1746738971264205600,0.29520556640625,0.002892604796215892,-0.000575630459934473,0.009172908030450344
1746738971274284500,0.305284423828125,0.0015719430521130562,-0.006679329089820385,0.003328867256641388
1746738971284363500,0.315363525390625,0.0006427946500480175,-0.002238442189991474,-0.004151351749897003
1746738971294442800,0.32544287109375,0.0025251167826354504,0.00690072774887085,-0.015571251511573792
1746738971304520700,0.335520751953125,0.0004965239204466343,0.013757377862930298,-0.018982024863362312
1746738971314599400,0.345599365234375,-0.0012638256885111332,0.013180004432797432,-0.01878335326910019
1746738971324678700,0.3556787109375,-0.0016979486681520939,0.01036711223423481,-0.005515554919838905
1746738971334757600,0.365757568359375,-0.0024452321231365204,0.004068470094352961,0.00545400520786643
1746738971344836400,0.37583642578125,-0.0032098530791699886,0.00041250232607126236,0.011700215749442577
1746738971354915600,0.38591552734375,-0.000019119586795568466,-0.0019366717897355556,0.008645836263895035
1746738971364993500,0.39599365234375,0.0017865661066025496,-0.004321428015828133,-0.0003759256505873054
1746738971375072500,0.406072509765625,0.0014091962948441505,-0.0006289551965892315,-0.009505242109298706
1746738971385151700,0.41615185546875,0.0026838902849704027,0.0007245722226798534,-0.013371636159718037
1746738971395230500,0.42623046875,0.004332386888563633,-0.0006962246261537075,-0.01565582863986492
1746738971405309400,0.436309326171875,0.003737513441592455,-0.0007798010483384132,-0.011794332414865494
1746738971415387600,0.4463876953125,0.0028405608609318733,-0.0025302967987954617,-0.01080816425383091
1746738971425466600,0.456466552734375,0.003238094039261341,-0.003731429111212492,-0.011556158773601055
1746738971435545300,0.46654541015625,0.0010154196061193943,0.004889489617198706,-0.011119401082396507
1746738971445624600,0.47662451171875,0.0043877530843019485,0.0062897177413105965,-0.010388699360191822
1746738971455703600,0.48670361328125,0.003757648868486285,0.006793322041630745,-0.007540448568761349
1746738971465781500,0.496781494140625,0.0023775917943567038,0.00297934515401721,-0.0032691950909793377
1746738971475860500,0.506860595703125,0.005924656055867672,0.00399986794218421,0.008020477369427681
1746738971485939500,0.516939453125,0.0028625039849430323,0.0031498055905103683,0.011567963287234306
1746738971496018400,0.527018310546875,0.003923507407307625,-0.0015378911048173904,0.011211632750928402
1746738971506097400,0.537097412109375,0.0021770133171230555,-0.002484584227204323,0.006637844722718
1746738971516175600,0.547175537109375,-0.00133835943415761,0.001522141508758068,0.00228677224367857
1746738971526254300,0.55725439453125,-0.0018745376728475094,0.0030040834099054337,-0.002706493716686964
1746738971536333300,0.567333251953125,-0.0016332552768290043,0.007229987531900406,-0.006649303715676069
1746738971546412500,0.57741259765625,0.003750408999621868,0.0032702405005693436,-0.007829777896404266
1746738971556491300,0.5874912109375,0.005617551039904356,-0.001096012070775032,-0.009467088617384434
1746738971566569200,0.5975693359375,0.0026126366574317217,-0.007572537753731012,-0.01266366895288229
1746738971576648400,0.6076484375,0.004152742680162191,-0.002681909129023552,-0.015123897232115269
1746738971586727400,0.6177275390625,0.0013821371830999851,-0.0013172733597457409,-0.013039006851613522
1746738971596806400,0.627806396484375,0.0013238140381872654,-0.00016439100727438927,-0.005252723582088947
1746738971606885400,0.637885498046875,-0.0023204064927995205,0.0002917940728366375,-0.003701588837429881
1746738971616963300,0.64796337890625,-0.002149431500583887,-0.0029290327802300453,-0.005657414440065622
1746738971627042600,0.65804248046875,-0.0004883757792413235,-0.004025001544505358,-0.007299334742128849
1746738971637121500,0.66812158203125,-0.0012010377831757069,-0.004417285323143005,-0.008826125413179398
1746738971647200300,0.6782001953125,-0.0019452585838735104,-0.0011547422036528587,-0.006057450082153082
1746738971657279500,0.688279541015625,-0.001795855350792408,-0.0011073378846049309,-0.0031727140303701162
1746738971667357400,0.698357421875,-0.00008062506094574928,0.0010291440412402153,0.0002263713104184717
1746738971677436400,0.7084365234375,0.0011952952481806278,-0.00003239186480641365,0.0023712811525911093
1746738971687515400,0.718515380859375,0.0035008706618100405,-0.004038006067276001,-0.0018933253595605493
1746738971697594400,0.728594482421875,0.0018113614059984684,-0.0012105279602110386,-0.004861950874328613
1746738971707673600,0.738673583984375,0.0028384728357195854,0.0012116325087845325,-0.009516611695289612
1746738971717752600,0.748752685546875,-0.0013874312862753868,0.002508325967937708,-0.004775120411068201
1746738971727830500,0.75883056640625,-0.0032848212867975235,-0.00031711580231785774,0.001719438238069415
1746738971737909200,0.7689091796875,-0.00323315616697073,-0.0011365707032382488,0.008950186893343925
1746738971747988500,0.778988525390625,-0.005336898844689131,-0.0022627273574471474,0.014797516167163849
1746738971758067500,0.7890673828125,-0.00346842547878623,-0.0046648988500237465,0.017404217272996902
1746738971768146400,0.799146484375,0.00024177134037017822,-0.004477647133171558,0.01299845241010189
1746738971778224400,0.809224365234375,0.0010545682162046432,0.0009229774586856365,0.008774412795901299
1746738971788303400,0.819303466796875,-0.002804036717861891,0.005325967445969582,-0.0030475163366645575
1746738971798382600,0.829382568359375,-0.0015134685672819614,0.008558246307075024,-0.007848929613828659
1746738971808461300,0.83946142578125,-0.002075178548693657,0.01124831847846508,-0.01038303691893816
1746738971818540300,0.849540283203125,-0.0029646740294992924,0.010929537937045097,-0.0076434435322880745
1746738971828618500,0.859618408203125,-0.002969005610793829,0.010131671093404293,-0.009736676700413227
1746738971838697500,0.869697509765625,-0.005225501488894224,0.007264778017997742,-0.007414666004478931
1746738971848776400,0.8797763671875,-0.0062127625569701195,0.013557768426835537,-0.008247241377830505
1746738971858855400,0.88985546875,-0.007354459725320339,0.005339253693819046,-0.007631784304976463
1746738971868934400,0.899934326171875,-0.004259622655808926,0.014697144739329815,-0.006731409579515457
1746738971879012400,0.910012451171875,-0.002699277363717556,0.017443664371967316,-0.000006927730282768607
1746738971889091600,0.920091552734375,-0.004172193817794323,0.013224196620285511,0.0053272973746061325
1746738971899170300,0.93017041015625,-0.0029782988131046295,0.0030397363007068634,0.023392317816615105
1746738971909249500,0.94024951171875,-0.00159081956371665,-0.0009132567793130875,0.02968636341392994
1746738971919328500,0.95032861328125,0.0016984506510198116,-0.0007936805486679077,0.028169160708785057
1746738971929406500,0.960406494140625,0.0023400827776640654,0.0012583322823047638,0.01978331245481968
1746738971939485400,0.9704853515625,0.0034170651342719793,0.003847723826766014,0.004645371809601784
1746738971949564400,0.980564453125,0.0025296583771705627,0.0036973333917558193,-0.006234358996152878
1746738971959643400,0.990643310546875,0.002824203809723258,0.002046705689281225,-0.009647732600569725
1746738971969722600,1.00072265625,0.006020060274749994,-0.00007644109427928925,-0.010401078499853611
1746738971979800600,1.010800537109375,-0.00011905841529369354,-0.005554030649363995,-0.009604526683688164
1746738971989879300,1.02087939453125,-0.0009359479881823063,-0.006403629668056965,-0.005895865149796009
1746738971999958500,1.03095849609375,-0.0016129235737025738,-0.013718800619244576,-0.008650372736155987
1746738972010037500,1.04103759765625,0.0021779665257781744,-0.013100117444992065,-0.0095772510394454
1746738972020116200,1.0511162109375,0.0039047598838806152,-0.012263884767889977,-0.014035382308065891
1746738972030194400,1.0611943359375,0.006067856680601835,-0.005593150854110718,-0.011025299318134785
1746738972040273400,1.0712734375,0.001372703816741705,-0.003202964086085558,-0.01000424288213253
1746738972050352400,1.081352294921875,0.0024881898425519466,-0.005519020836800337,-0.001990165561437607
1746738972060431400,1.091431396484375,0.0029883314855396748,-0.005624216049909592,0.004885850008577108
1746738972070510300,1.10151025390625,0.0037840839941054583,-0.003768258960917592,0.005160421598702669
1746738972080588300,1.11158837890625,0.0027134933043271303,-0.003126170951873064,0.004210738465189934
1746738972090667500,1.12166748046875,0.004712461959570646,-0.0012936494313180447,-0.00503575662150979
1746738972100746500,1.13174658203125,0.004603272303938866,0.00006616022437810898,-0.012369569391012192
1746738972110825500,1.141825439453125,0.007004000246524811,-0.0009092618711292744,-0.01483822800219059
1746738972120904400,1.151904541015625,0.0041381726041436195,0.0018268702551722527,-0.014827841892838478
1746738972130982400,1.161982421875,0.00286607863381505,-0.0027726255357265472,-0.006451344583183527
1746738972141061600,1.1720615234375,-0.0039047421887516975,-0.0024397303350269794,0.003756285645067692
1746738972151140400,1.182140380859375,-0.005533566698431969,-0.004108061082661152,0.010927652940154076
1746738972161219300,1.19221923828125,-0.006064601242542267,-0.0011793826706707478,0.014881648123264313
1746738972171298600,1.202298583984375,-0.004061981104314327,-0.0004795505665242672,0.015361103229224682
1746738972181376500,1.21237646484375,-0.0017178668640553951,0.0025964006781578064,0.008813189342617989
1746738972191455500,1.22245556640625,0.0017817930784076452,0.0035157231613993645,0.006308486219495535
1746738972201534500,1.232534423828125,0.002239856868982315,0.00592428632080555,0.004334018565714359
1746738972211613400,1.242613525390625,0.002192725893110037,-0.0011828308925032616,0.004352852702140808
1746738972221692400,1.2526923828125,0.0001649949699640274,-0.0015439554117619991,0.007275405805557966
1746738972231771400,1.262771484375,0.0006206482648849487,-0.001790683250874281,0.007743736729025841
1746738972241849300,1.272849365234375,-0.0001514018513262272,-0.0021206489764153957,-0.00026066001737490296
1746738972251928300,1.28292822265625,-0.0006360262632369995,-0.0068685440346598625,-0.006688479799777269
1746738972262007600,1.293007568359375,0.0011315136216580868,-0.007295182440429926,-0.013733339495956898
1746738972272086300,1.303086181640625,0.0006667771376669407,-0.007945207878947258,-0.023349164053797722
1746738972282164200,1.313164306640625,-0.0004165968857705593,-0.009599030949175358,-0.026840833947062492
1746738972292243500,1.323243408203125,0.0005557448603212833,-0.006233322899788618,-0.026642287150025368
1746738972302322400,1.333322509765625,0.0007560146041214466,-0.005037297494709492,-0.022252598777413368
1746738972312401400,1.3434013671875,-0.0009544151835143566,-0.0030724508687853813,-0.013693630695343018
1746738972322480400,1.35348046875,-0.003043665084987879,0.000044246669858694077,-0.0007061935029923916
1746738972332559400,1.363559326171875,-0.0017227372154593468,-0.0037065495271235704,0.005747977178543806
1746738972342637600,1.373637451171875,0.0005649179220199585,-0.00533533887937665,0.011046603322029114
1746738972352716500,1.383716552734375,-0.00011289771646261215,-0.004650825634598732,0.006590681616216898
1746738972362795300,1.393795166015625,0.0005520936101675034,-0.004693170078098774,0.0011192170204594731
1746738972372874500,1.40387451171875,0.002151132095605135,-0.0012643039226531982,-0.003750992240384221
1746738972382953500,1.413953369140625,0.003939178306609392,-0.002374841831624508,-0.01032527070492506
1746738972393031400,1.424031494140625,0.003658039728179574,-0.004536362364888191,-0.01604650914669037
1746738972403110400,1.4341103515625,0.0034319371916353703,-0.007669304497539997,-0.018299277871847153
1746738972413189400,1.444189453125,0.0006371666677296162,-0.010478921234607697,-0.01686740666627884
1746738972423268400,1.454268310546875,-0.0020960355177521706,-0.010868808254599571,-0.017328932881355286
1746738972433347600,1.46434765625,-0.0011338284239172935,-0.008529692888259888,-0.011898288503289223
1746738972443425500,1.474425537109375,-0.0007434091530740261,-0.0011929511092603207,-0.011712400242686272
1746738972453504300,1.484504150390625,-0.0007044626399874687,-0.0005520014092326164,-0.011784510686993599
1746738972463583500,1.49458349609375,0.0005115363746881485,0.0018405825830996037,-0.011120318435132504
1746738972473662500,1.504662353515625,0.0037354466039687395,-0.002891761250793934,-0.005021320190280676
1746738972483741400,1.514741455078125,0.0010208864696323872,-0.0010139667429029942,-0.000124831945868209
1746738972493819000,1.52481884765625,0.0011946503072977066,-0.004078705329447985,0.00550378393381834
1746738972503898000,1.534898193359375,-0.0003318735398352146,-0.005042237229645252,0.013524159789085388
1746738972513977000,1.54497705078125,-0.0030542053282260895,-0.0007068580016493797,0.012102453038096428
1746738972524056300,1.555056396484375,-0.0020776246674358845,-0.00022242916747927666,0.005649613682180643
1746738972534135000,1.565135009765625,-0.0011266451328992844,-0.002181310672312975,-0.00022664482821710408
1746738972544214000,1.575214111328125,0.0013405075296759605,-0.0019067386165261269,-0.005501834210008383
1746738972554292200,1.585292236328125,0.007172185927629471,-0.0030025364831089973,-0.010897038504481316
1746738972564371200,1.59537109375,0.010152263566851616,-0.007615930400788784,-0.008543869480490685
1746738972574450000,1.605449951171875,0.006371408235281706,-0.004206424579024315,-0.003431672463193536
1746738972584529200,1.615529052734375,0.0035023847594857216,-0.0006055645644664764,0.0011694708373397589
1746738972594608000,1.625608154296875,-0.0005060574039816856,0.005503228399902582,0.0025374367833137512
1746738972604686000,1.63568603515625,-0.005251544062048197,0.005666479934006929,0.006084234919399023
1746738972614765000,1.64576513671875,-0.0034958343021571636,0.004799447488039732,0.003407851094380021
1746738972624844000,1.655843994140625,-0.004412228707224131,0.0026292377151548862,-0.004433027934283018
1746738972634923000,1.665923095703125,-0.00280250096693635,0.00015054037794470787,-0.013891870155930519
1746738972645002200,1.676002197265625,-0.0019082115031778812,-0.0023783971555531025,-0.011708610691130161
1746738972655080200,1.686080078125,-0.0021061203442513943,-0.006366075482219458,-0.007807072717696428
1746738972665159000,1.696158935546875,-0.000042436644434928894,-0.006414811126887798,-0.0016895256703719497
1746738972675238100,1.706238037109375,-0.00022505223751068115,-0.0036040644627064466,-0.0022392887622117996
1746738972685317000,1.716317138671875,0.00046417349949479103,-0.00328608276322484,-0.0007183574489317834
1746738972695396000,1.72639599609375,-0.001500636339187622,-0.0003172038123011589,-0.0048774294555187225
1746738972705474000,1.73647412109375,0.00007888441905379295,-0.00346665782853961,-0.007292650174349546
1746738972715553000,1.746552978515625,0.0021374665666371584,0.0013156621716916561,-0.008918430656194687
1746738972725632300,1.75663232421875,0.004561741836369038,0.002500236500054598,-0.007738916669040918
1746738972735711000,1.7667109375,0.0014744577929377556,0.004754301626235247,-0.0042032040655612946
1746738972745790000,1.7767900390625,0.0042028664611279964,0.003818999510258436,-0.000046275556087493896
1746738972755869200,1.786869140625,0.006151460111141205,-0.00012719212099909782,0.0028625084087252617
1746738972765947100,1.796947021484375,0.002222498646005988,0.0047804806381464005,-0.000479758542496711
1746738972776026000,1.807026123046875,0.004913540091365576,0.0031840805895626545,-0.005844804458320141
1746738972786105000,1.81710498046875,0.0017614224925637245,0.002944928128272295,-0.0054155029356479645
1746738972796184000,1.82718408203125,-0.0013792375102639198,-0.001530457753688097,-0.002006995026022196
1746738972806263300,1.83726318359375,-0.001099871937185526,-0.00005746353417634964,0.0037299867253750563
1746738972816341200,1.84734130859375,-0.0030182176269590855,-0.003406643634662032,0.007170272059738636
1746738972826420000,1.857419921875,-0.004180687014013529,0.0024610995315015316,0.014253747649490833
1746738972836499200,1.867499267578125,-0.004030154086649418,0.002553710248321295,0.012049506418406963
1746738972846578200,1.877578125,-0.0038466621190309525,-0.0008487445302307606,0.008755975402891636
1746738972856657200,1.8876572265625,-0.0031656865030527115,0.0023516318760812283,0.002149666892364621
1746738972866735000,1.897735107421875,0.0003510182723402977,0.003041657153517008,-0.003837652038782835
1746738972876814000,1.90781396484375,-0.0007633720524609089,0.006447288673371077,-0.013711618259549141
1746738972886893000,1.91789306640625,0.0017232215031981468,0.004099712241441011,-0.011490807868540287
1746738972896972300,1.92797216796875,0.002699358621612191,0.004277502652257681,-0.011760548688471317
1746738972907051000,1.938051025390625,0.0020617980044335127,0.006352637428790331,-0.011488640680909157
1746738972917130000,1.9481298828125,0.001011418178677559,0.01214627642184496,-0.011815209873020649
1746738972927208200,1.958208251953125,-0.005284560844302177,0.016941562294960022,-0.010345944203436375
1746738972937287200,1.968287109375,-0.007371686864644289,0.021824410185217857,-0.0054970537312328815
1746738972947366000,1.978365966796875,-0.0052920239977538586,0.021076062694191933,0.004018687177449465
1746738972957445000,1.988445068359375,-0.00010388484224677086,0.018259895965456963,0.013878501020371914
1746738972967524000,1.998524169921875,-0.004447500687092543,0.023406455293297768,0.024876290932297707
1746738972977602000,2.00860205078125,-0.0014339028857648373,0.020324252545833588,0.03164498880505562
1746738972987681000,2.018680908203125,-0.0005300259217619896,0.018491998314857483,0.0355803407728672
1746738972997760000,2.028760009765625,0.0022901783231645823,0.011679260060191154,0.04335267096757889
1746738973007839200,2.038839111328125,0.006672143470495939,0.00023485952988266945,0.04385813698172569
1746738973017918200,2.048918212890625,0.007242782041430473,0.0014340346679091454,0.03528684005141258
1746738973027996200,2.05899609375,0.005938898306339979,0.0032452503219246864,0.020877275615930557
1746738973038075100,2.0690751953125,0.002621789462864399,0.006488204002380371,0.004871970508247614
1746738973048154000,2.079154052734375,0.0033589524682611227,0.006247454322874546,-0.011917928233742714
1746738973058233000,2.089233154296875,0.002643929561600089,0.012987775728106499,-0.02478632889688015
1746738973068312000,2.09931201171875,0.0023419270291924477,0.013769680634140968,-0.024400969967246056
1746738973078391000,2.10939111328125,0.0017868466675281525,0.01186387613415718,-0.01856163516640663
1746738973088469000,2.119468994140625,0.0019756646361202,0.007168191019445658,-0.006907910108566284
1746738973098548200,2.12954833984375,0.00024198880419135094,0.0034295637160539627,0.00493775075301528
1746738973108627200,2.139627197265625,0.0030111437663435936,0.003992822021245956,0.011165286414325237
1746738973118706000,2.149705810546875,0.008815455250442028,-0.0004242728464305401,0.019573835656046867
1746738973128785200,2.15978515625,0.012511391192674637,-0.015037037432193756,0.03161399066448212
1746738973138863000,2.169863037109375,0.0023207692429423332,-0.007602951489388943,0.035157863050699234
1746738973148942000,2.179942138671875,-0.0033557582646608353,-0.001181271392852068,0.019777309149503708
1746738973159021000,2.19002099609375,-0.0069214170798659325,0.028744645416736603,0.006560154724866152
1746738973169100000,2.20010009765625,-0.006889193318784237,0.03377988561987877,-0.005568946246057749
1746738973179179300,2.21017919921875,-0.002388955093920231,0.023684175685048103,-0.011273902840912342
1746738973189258000,2.220258056640625,0.007789380848407745,0.019713137298822403,-0.007439217530190945
1746738973199336000,2.2303359375,0.010903337970376015,0.000016085803508758545,0.007827173918485641
1746738973209415200,2.240415283203125,0.006961327511817217,-0.008656498044729233,0.020768804475665092
1746738973219494100,2.250494140625,0.008426409214735031,-0.012845870107412338,0.029667938128113747
1746738973229573000,2.260572998046875,0.0016502616927027702,-0.005975447595119476,0.02060014009475708
1746738973239652000,2.270652099609375,-0.0054991887882351875,0.00339354295283556,0.010291827842593193
1746738973249730000,2.28072998046875,-0.005776956677436829,0.008202679455280304,-0.012867819517850876
1746738973259809000,2.29080908203125,-0.004479730501770973,0.005115276202559471,-0.028514690697193146
1746738973269888300,2.30088818359375,-0.0023084552958607674,0.002529347315430641,-0.03733934089541435
1746738973279967000,2.310967041015625,-0.0002475176006555557,0.0009641065262258053,-0.04329374432563782
1746738973290046200,2.321046142578125,0.0020854114554822445,0.0028600110672414303,-0.039901942014694214
1746738973300125200,2.331125244140625,0.00033812224864959717,0.0006102831102907658,-0.03721548989415169
1746738973310203100,2.341203125,-0.000174802727997303,0.0006076204590499401,-0.028103217482566833
1746738973320281900,2.35128173828125,-0.00015939166769385338,0.002473569940775633,-0.022073812782764435
1746738973330361000,2.361361083984375,0.0005644555203616619,0.004507160279899836,-0.014443324878811836
1746738973340440000,2.371440185546875,0.0023778320755809546,-0.004241253715008497,-0.0014102814020588994
1746738973350519300,2.381519287109375,0.007548092864453793,-0.007363543845713139,0.010198970325291157
1746738973360597200,2.39159716796875,0.005964316427707672,-0.005182358436286449,0.017316196113824844
1746738973370676000,2.401676025390625,0.006751546636223793,0.0033168536610901356,0.01957003027200699
1746738973380755200,2.411755126953125,0.005675251130014658,0.004187266808003187,0.01830565370619297
1746738973390834200,2.421834228515625,-0.000015657860785722733,0.002930521499365568,0.014653128571808338
1746738973400913000,2.431912841796875,-0.001614429522305727,0.002262554597109556,0.013548003509640694
1746738973410992000,2.4419921875,-0.0026032612659037113,0.0024769394658505917,0.00508687412366271
1746738973421070000,2.452070068359375,-0.00022111646831035614,-0.004607096780091524,-0.00020167564798612148
1746738973431149000,2.462149169921875,-0.0010972963646054268,-0.008037514053285122,-0.008402081206440926
1746738973441228000,2.47222802734375,0.000023905187845230103,-0.0060805147513747215,-0.01323266513645649
1746738973451307000,2.48230712890625,0.003531021997332573,-0.0077079725451767445,-0.017309432849287987
1746738973461386200,2.49238623046875,0.0046831765212118626,-0.005486906040459871,-0.017263375222682953
1746738973471464200,2.502464111328125,0.007028089836239815,-0.006274668965488672,-0.017200257629156113
1746738973481543200,2.512543212890625,0.004181661643087864,-0.009642419405281544,-0.008754495531320572
1746738973491622100,2.5226220703125,0.002733701141551137,-0.004739539697766304,-0.00023530989710707217
1746738973501701400,2.532701416015625,0.0014450806193053722,-0.0012317895889282227,0.015342161059379578
1746738973511780400,2.5427802734375,-0.00042818719521164894,0.0014255121350288391,0.02582835778594017
1746738973521859300,2.552859375,-0.0008788704872131348,-0.0015335711650550365,0.033289555460214615
1746738973531937300,2.562937255859375,-0.0012530446983873844,-0.003912306856364012,0.036952998489141464
1746738973542016300,2.573016357421875,-0.0003793332725763321,-0.004990877117961645,0.02662474289536476
1746738973552095500,2.583095458984375,-0.0007428550161421299,-0.00136471726000309,0.012725172564387321
1746738973562174200,2.59317431640625,-0.001675865612924099,-0.0005349908024072647,0.000026974747015628964
1746738973572253200,2.603253173828125,-0.0023528416641056538,-0.00131902564316988,-0.010837922804057598
1746738973582331400,2.613331298828125,0.000011608004570007324,-0.0018287505954504013,-0.017626997083425522
1746738973592410400,2.623410400390625,0.0008835266344249249,-0.0015312754549086094,-0.021848905831575394
1746738973602489300,2.6334892578125,0.000902014784514904,-0.00752214714884758,-0.022156596183776855
1746738973612568300,2.643568359375,0.0010112044401466846,-0.004693071357905865,-0.021865777671337128
1746738973622647300,2.653647216796875,0.0018570299725979567,-0.002868486102670431,-0.019070861861109734
1746738973632726300,2.663726318359375,0.0027020510751754045,-0.0021555577404797077,-0.012626278214156628
1746738973642804500,2.673804443359375,0.00011319760233163834,-0.00412331148982048,-0.009966384619474411
1746738973652883200,2.68388330078125,0.00028443895280361176,-0.004676183685660362,0.0014865396078675985
1746738973662962200,2.693962158203125,0.0010779132135212421,-0.006506076082587242,0.015672234818339348
1746738973673041400,2.70404150390625,-0.001308811828494072,-0.005968650337308645,0.025326194241642952
1746738973683120000,2.7141201171875,-0.0039040972478687763,-0.0038672774098813534,0.02683514542877674
1746738973693198000,2.724197998046875,-0.0023642578162252903,-0.00004723900929093361,0.02165769413113594
1746738973703277300,2.73427734375,0.0012277020141482353,0.004316176287829876,0.010210190899670124
1746738973713356300,2.744356201171875,0.0009768321178853512,0.005956950597465038,0.003219126258045435
1746738973723435500,2.754435546875,0.005822098348289728,0.0019276924431324005,-0.0041357604786753654
1746738973733514200,2.76451416015625,0.006757666822522879,-0.004644456319510937,-0.010294852778315544
1746738973743592200,2.77459228515625,0.006579394452273846,-0.007719193585216999,-0.016857393085956573
1746738973753671400,2.78467138671875,0.003030732274055481,-0.006332751829177141,-0.01707177795469761
1746738973763750400,2.79475048828125,0.00013199355453252792,-0.0009252955205738544,-0.014492865651845932
1746738973773829000,2.8048291015625,-0.0021700430661439896,0.004746971186250448,-0.008683179505169392
1746738973783908400,2.814908447265625,-0.0030847666785120964,-0.00009253481402993202,-0.003170717041939497
1746738973793987300,2.8249873046875,0.000051637645810842514,0.0008195973932743073,0.004004371352493763
1746738973804065300,2.835065185546875,0.0005811452865600586,0.0026156241074204445,0.005324485246092081
1746738973814144300,2.845144287109375,0.004681081976741552,-0.0007231808267533779,0.005081071984022856
1746738973824223200,2.85522314453125,0.004800971131771803,-0.003374118125066161,0.004065191838890314
1746738973834302500,2.865302490234375,0.004195901099592447,-0.002772243693470955,0.0024012490175664425
1746738973844381400,2.87538134765625,0.005236207973212004,0.00376719469204545,0.0003332180785946548
1746738973854459400,2.88545947265625,-0.0012991889379918575,0.005831410642713308,-0.005620012059807777
1746738973864538000,2.8955380859375,-0.003001172561198473,0.006312296260148287,-0.008013208396732807
1746738973874617300,2.905617431640625,-0.004389478359371424,0.00025227339938282967,-0.013112097047269344
1746738973884696300,2.9156962890625,-0.0005518407560884953,0.001066950149834156,-0.01950834132730961
1746738973894775300,2.925775390625,-0.0009372001513838768,0.005022809840738773,-0.021289994940161705
1746738973904854300,2.935854248046875,-0.00033436669036746025,-0.0042805299162864685,-0.014878944493830204
1746738973914932200,2.94593212890625,0.0006765690632164478,-0.005876828916370869,-0.004337088204920292
1746738973925011500,2.956011474609375,0.0033818490337580442,-0.00794991571456194,0.008271302096545696
1746738973935090200,2.966090087890625,0.0023320310283452272,-0.007601574063301086,0.015258371829986572
1746738973945169200,2.976169189453125,0.0013827746734023094,-0.0036626073997467756,0.018942076712846756
1746738973955248400,2.986248291015625,-0.0012814514338970184,-0.0011453875340521336,0.012364868074655533
1746738973965326300,2.996326416015625,0.0011619096621870995,0.0028265556320548058,0.007707230746746063
1746738973975405300,3.0064052734375,0.0026668619830161333,0.004248684272170067,-0.0054511819034814835
1746738973985484300,3.016484375,0.005112939514219761,0.003929775208234787,-0.014104051515460014
1746738973995563300,3.026563232421875,0.007080483250319958,0.0010463707149028778,-0.015802349895238876
1746738974005642500,3.036642578125,0.006504216697067022,0.0024108928628265858,-0.0137331523001194
1746738974015720400,3.046720458984375,0.0017174510285258293,-0.001869339495897293,-0.017117232084274292
1746738974025799200,3.056799072265625,0.0009709671139717102,0.0006675873883068562,-0.013205846771597862
1746738974035878400,3.06687841796875,-0.004083446692675352,0.0021448428742587566,-0.009599660523235798
1746738974045957400,3.076957275390625,-0.0028249546885490417,0.0021661841310560703,-0.00739519577473402
1746738974056036400,3.087036376953125,0.0005071922205388546,0.001878828275948763,-0.00007203569111879915
1746738974066114300,3.0971142578125,0.0034323728177696466,0.0019335616379976273,-0.0018345086136832833
1746738974076193300,3.107193359375,0.008243372663855553,0.007534455507993698,-0.008564316667616367
1746738974086272300,3.117272216796875,0.012245388701558113,0.007688757032155991,-0.007900283671915531
1746738974096351500,3.1273515625,0.005505193956196308,0.0018170196563005447,-0.007811600808054209
1746738974106430200,3.13743017578125,0.002244833391159773,-0.00043704593554139137,-0.007558966521173716
1746738974116509200,3.14750927734375,0.0013137925416231155,-0.0009276000782847404,-0.0055006095208227634
1746738974126587400,3.15758740234375,-0.001267876010388136,0.0016817650757730007,-0.00856750551611185
1746738974136666400,3.167666259765625,-0.00006785569712519646,0.0019984147511422634,-0.010800033807754517
1746738974146745000,3.1777451171875,0.000932539813220501,-0.005755204241722822,-0.010971101932227612
1746738974156824300,3.18782421875,0.0025528070982545614,-0.0078093004412949085,-0.010025945492088795
1746738974166903300,3.1979033203125,0.002399854362010956,-0.009307485073804855,-0.007503436412662268
1746738974176981200,3.207981201171875,-0.00004412839189171791,-0.0057724048383533955,-0.005616853479295969
1746738974187060500,3.218060546875,-0.004030071198940277,0.000661902129650116,-0.001931447652168572
1746738974197139200,3.22813916015625,-0.003919282928109169,0.00998642761260271,0.002575686201453209
1746738974207218400,3.238218505859375,-0.003974564839154482,0.007551940158009529,0.009216717444360256
1746738974217297400,3.24829736328125,-0.0016160695813596249,0.0024770209565758705,0.014735586009919643
1746738974227376000,3.258376220703125,-0.000405922532081604,-0.005295357666909695,0.018201883882284164
1746738974237454300,3.268454345703125,0.0031174395699054003,-0.0028393901884555817,0.014178645797073841
1746738974247533300,3.278533203125,0.0019706757739186287,-0.00010251719504594803,0.014378456398844719
1746738974257612300,3.2886123046875,0.0025294069200754166,0.0032400162890553474,0.009167714975774288
1746738974267691300,3.298691162109375,-0.0031878966838121414,0.00524983461946249,0.007413691375404596
1746738974277770200,3.308770263671875,-0.0032233167439699173,0.002238864079117775,0.006340171210467815
1746738974287848200,3.31884814453125,-0.00209102313965559,-0.0023330883122980595,0.003093671053647995
1746738974297927400,3.328927490234375,-0.003649504855275154,-0.005673225037753582,-0.000048326473915949464
1746738974308006400,3.33900634765625,-0.0007009594701230526,-0.00826619379222393,-0.0007689574849791825
1746738974318085000,3.349085205078125,0.0026767279487103224,-0.010387668386101723,-0.00502522150054574
1746738974328164400,3.359164306640625,0.0014755940064787865,-0.0031603584066033363,-0.006840812508016825
1746738974338242300,3.3692421875,-0.000027227681130170822,0.0055804019793868065,-0.007256797980517149
1746738974348321300,3.3793212890625,-0.0004276190884411335,0.006147691980004311,-0.007991398684680462
1746738974358400300,3.389400146484375,0.001591323409229517,0.007498713210225105,-0.004214236978441477
1746738974368479200,3.399479248046875,-0.002590253483504057,-0.0010356884449720383,-0.0020071747712790966
1746738974378558500,3.409558349609375,0.002980546560138464,-0.005400076974183321,-0.001672149170190096
1746738974388637200,3.41963720703125,0.0021393250208348036,-0.0029707513749599457,-0.002602672204375267
1746738974398715100,3.429715087890625,0.0009406362660229206,-0.005362536292523146,-0.0024972110986709595
1746738974408794400,3.43979443359375,0.00047234026715159416,-0.0028841067105531693,-0.0028193597681820393
1746738974418873300,3.449873291015625,0.0009708842262625694,0.002436090260744095,-0.0056825242936611176
1746738974428952300,3.459952392578125,-0.0007484829984605312,0.0030075344257056713,-0.0032279540318995714
1746738974439031300,3.47003125,-0.002098439261317253,0.004312483128160238,-0.004049539566040039
1746738974449109200,3.480109130859375,-0.00012782402336597443,0.0005640625022351742,-0.0029672589153051376
1746738974459188200,3.490188232421875,-0.0007768361829221249,-0.0018421034328639507,-0.005034404806792736
1746738974469267500,3.500267333984375,0.006092787720263004,-0.0032418612390756607,-0.0016753595555201173
1746738974479346200,3.51034619140625,0.00285544921644032,-0.004204060882329941,0.003070393344387412
1746738974489425200,3.520425048828125,0.002326509915292263,0.002335202880203724,0.008918169885873795
1746738974499504000,3.530504150390625,0.0014364817179739475,0.006895333528518677,0.01150889229029417
1746738974509582000,3.54058203125,-0.0025420510210096836,0.007064315490424633,0.012697734870016575
1746738974519661300,3.550661376953125,-0.0009087338112294674,0.002546529285609722,0.011822087690234184
1746738974529740000,3.560739990234375,-0.0013282941654324532,0.0009468607604503632,0.0064061107113957405
1746738974539819000,3.570819091796875,-0.000569026917219162,-0.002227893564850092,-0.0010664529399946332
1746738974549898200,3.580898193359375,-0.00003115134313702583,-0.0043966080993413925,-0.007008606102317572
1746738974559976200,3.59097607421875,-0.00016643991693854332,0.0000063963234424591064,-0.01149576622992754
1746738974570055000,3.601054931640625,-0.00008722534403204918,-0.0018272260203957558,-0.0027455829549580812
1746738974580134100,3.611134033203125,0.0017237239517271519,-0.0015864763408899307,0.0038899490609765053
1746738974590213000,3.621213134765625,-0.00041228486225008965,-0.0008427472785115242,0.010915007442235947
1746738974600292000,3.6312919921875,0.00010330323129892349,-0.005284367129206657,0.016733482480049133
1746738974610371000,3.64137109375,0.0025258981622755527,0.0007992568425834179,0.011730625294148922
1746738974620449000,3.651448974609375,0.0036441595293581486,0.000794196967035532,0.006755840498954058
1746738974630528300,3.6615283203125,0.0030196888837963343,-0.004299182444810867,0.003198311198502779
1746738974640607200,3.671607177734375,0.005010934546589851,-0.0014735683798789978,-0.0059568374417722225
1746738974650686000,3.68168603515625,0.005345345940440893,0.0016608736477792263,-0.008299729786813259
1746738974660765200,3.69176513671875,0.004304050002247095,0.004266777541488409,-0.008509853854775429
1746738974670843100,3.701843017578125,-0.0019737430848181248,0.00984268169850111,-0.006373551208525896
1746738974680922000,3.711922119140625,-0.0008493564091622829,0.006164058111608028,-0.0014903793344274163
1746738974691001000,3.7220009765625,-0.0024514426477253437,0.003251618705689907,0.008032535202801228
1746738974701080000,3.732080078125,-0.0016772621311247349,-0.0016893441788852215,0.006714271381497383
1746738974711159000,3.742158935546875,-0.0024660490453243256,-0.0019999537616968155,0.009435944259166718
1746738974721238000,3.752238037109375,-0.002613588236272335,0.002530882600694895,0.006630037445574999
1746738974731316000,3.76231591796875,-0.0012563946656882763,0.0031455103307962418,0.003101199632510543
1746738974741395000,3.77239501953125,0.002030744915828109,0.0029625510796904564,0.0010047594550997019
1746738974751474200,3.78247412109375,0.00349676376208663,0.00016274861991405487,0.0029757171869277954
1746738974761553200,3.79255322265625,0.00614474480971694,-0.005533220246434212,0.004048438742756844
1746738974771632000,3.802632080078125,0.003983333706855774,-0.004650011658668518,0.004290645942091942
1746738974781710000,3.8127099609375,0.005261118523776531,-0.007528622634708881,0.004198500420898199
1746738974791789000,3.8227890625,0.002934652380645275,-0.00300817983224988,0.0008892412297427654
1746738974801868300,3.832868408203125,0.00025098491460084915,-0.003208449576050043,-0.006422733888030052
1746738974811947000,3.842947021484375,-0.002214948646724224,-0.0018562721088528633,-0.008000030182301998
1746738974822026000,3.85302587890625,0.00014887284487485886,0.0003339117392897606,-0.004346705507487059
1746738974832105200,3.863105224609375,-0.005477100145071745,-0.004350555129349232,-0.00011026796710211784
1746738974842183200,3.87318310546875,-0.003546840976923704,-0.008499493822455406,0.008289875462651253
1746738974852262100,3.88326220703125,-0.005609828047454357,-0.00879277940839529,0.013525604270398617
1746738974862341000,3.893341064453125,-0.0034044645726680756,-0.0024043885059654713,0.007399267517030239
1746738974872420000,3.903420166015625,-0.0023766844533383846,-0.004708615131676197,0.0053015504963696
1746738974882499000,3.9134990234375,-0.0003020819276571274,0.0007617836818099022,-0.0024727496784180403
1746738974892578000,3.923578125,0.0011323373764753342,0.0023891571909189224,-0.0017401918303221464
1746738974902656000,3.933656005859375,0.0018836150411516428,0.005903463810682297,-0.005622015334665775
1746738974912735000,3.94373486328125,-0.00003736373037099838,-0.0017240107990801334,0.004967057146131992
1746738974922814200,3.953814208984375,-0.0016288687475025654,-0.0004398343153297901,0.012765325605869293
1746738974932893000,3.963892822265625,-0.00014646584168076515,0.001712950412184,0.018931115046143532
1746738974942972200,3.97397216796875,-0.0013062725774943829,-0.006475471425801516,0.021780164912343025
1746738974953051100,3.984051025390625,-0.004596469458192587,0.0010084779933094978,0.014396056532859802
1746738974963129000,3.994129150390625,-0.0013484777882695198,0.0030718958005309105,0.012112129479646683
1746738974973208000,4.0042080078125,-0.0007622078992426395,0.003584682010114193,0.005247006192803383
1746738974983287000,4.014287109375,0.00015711551532149315,0.003614243119955063,0.004444329533725977
1746738974993366000,4.024365966796875,0.0004319981671869755,0.0028453506529331207,0.0006382607389241457
1746738975003445200,4.0344453125,-0.001581085380166769,0.007367664948105812,-0.0002235382271464914
1746738975013524000,4.04452392578125,-0.005503921303898096,0.00886409543454647,0.006601611152291298
1746738975023602000,4.054601806640625,-0.002531834412366152,0.0035313805565238,0.010857874527573586
1746738975033681200,4.06468115234375,-0.003357372712343931,0.0018966472707688808,0.010686289519071579
1746738975043760000,4.074760009765625,-0.001828452106565237,0.00213180435821414,0.01196194440126419
1746738975053839000,4.084839111328125,-0.0006353151984512806,0.006724874954670668,0.007472309283912182
1746738975063918000,4.09491796875,-0.0016931225545704365,0.010744649916887283,0.00643633957952261
1746738975073997000,4.1049970703125,-0.0028462442569434643,0.011627251282334328,0.009323601610958576
1746738975084075300,4.1150751953125,-0.0005575236864387989,0.014401998370885849,0.009719880297780037
1746738975094154200,4.125154296875,0.0008065556176006794,0.013952023349702358,0.016107600182294846
1746738975104233000,4.13523291015625,-0.000053911469876766205,0.005720991641283035,0.029088113456964493
1746738975114312200,4.145312255859375,0.0029166098684072495,-0.008529236540198326,0.04001912102103233
1746738975124391200,4.15539111328125,0.005569384433329105,-0.006582997739315033,0.03339477255940437
1746738975134469000,4.16546923828125,0.003624709090217948,-0.0037042517215013504,0.029615487903356552
1746738975144548000,4.175548095703125,0.00010321103036403656,0.005360616371035576,0.014891937375068665
1746738975154627000,4.185626953125,-0.002073390409350395,0.007576365955173969,0.011303327977657318
1746738975164706000,4.1957060546875,-0.0022656708024442196,0.004973658360540867,0.005090439226478338
1746738975174785000,4.205784912109375,0.0001903320662677288,0.0013769245706498623,0.006757835391908884
1746738975184864000,4.215864013671875,0.0006262911483645439,0.00289732264354825,0.00996987335383892
1746738975194942000,4.22594189453125,-0.0007299073040485382,-0.001854246947914362,0.009637407958507538
1746738975205021200,4.236021240234375,0.0020935761276632547,-0.0018433276563882828,0.00788052100688219
1746738975215100200,4.24610009765625,0.0019366075284779072,0.0006876131519675255,0.00454200804233551
1746738975225179100,4.25617919921875,0.004274330101907253,-0.001604569610208273,0.000257514591794461
1746738975235258000,4.266258056640625,0.004836938809603453,-0.0016593905165791512,-0.004218030720949173
1746738975245337000,4.276337158203125,0.004504043608903885,-0.0027190623804926872,-0.010072191245853901
1746738975255415300,4.286415283203125,0.0019751423969864845,0.00008457852527499199,-0.010924145579338074
1746738975265494000,4.296493896484375,0.0035394830629229546,-0.002788972109556198,-0.0075262184254825115
1746738975275573000,4.306572998046875,0.0009042173624038696,0.0016058306209743023,-0.00837848149240017
1746738975285652200,4.31665234375,-0.0015924959443509579,0.0031539262272417545,-0.0069201341830194
1746738975295731000,4.32673095703125,-0.0010356293059885502,0.003420241642743349,-0.004826889839023352
1746738975305810200,4.33681005859375,-0.000507257878780365,0.0002172579988837242,0.0006930442759767175
1746738975315888000,4.34688818359375,0.002595131052657962,-0.0010080672800540924,0.00339240743778646
1746738975325967000,4.356967041015625,0.0012409137561917305,-0.00021497812122106552,0.0029090435709804296
1746738975336046000,4.367046142578125,-0.0017990129999816418,-0.0008482816629111767,0.0034001132007688284
1746738975346125000,4.377125,-0.0009129797108471394,-0.003562042722478509,0.0021303179673850536
1746738975356204000,4.3872041015625,0.0029167591128498316,-0.0003977641463279724,0.0017962626880034804
1746738975366283300,4.397283203125,0.00384140876121819,0.0035623563453555107,-0.006020381581038237
1746738975376361200,4.407361328125,0.0005333032459020615,0.003977807238698006,-0.003399316919967532
1746738975386440000,4.41743994140625,0.004722189158201218,-0.002135744784027338,0.00032804341753944755
1746738975396519200,4.427519287109375,0.007269849069416523,-0.0035250247456133366,0.0066840569488704205
1746738975406598100,4.43759814453125,0.005772087257355452,-0.005180711857974529,0.00859487522393465
1746738975416677000,4.447677001953125,0.0038545718416571617,-0.0016032005660235882,0.0037634449545294046
1746738975426756000,4.457756103515625,0.001093139871954918,-0.000314230564981699,0.00003981313784606755
1746738975436834000,4.467833984375,-0.0023780609481036663,0.009128140285611153,-0.008537687361240387
1746738975446913000,4.4779130859375,-0.0012566037476062775,-0.00040277978405356407,-0.0116189643740654
1746738975456992300,4.4879921875,-0.0004222029820084572,-0.0042243292555212975,-0.011879895813763142
1746738975467071000,4.498071044921875,-0.0011793393641710281,-0.007863539271056652,-0.009672402404248714
1746738975477150200,4.508150146484375,0.00006124144420027733,-0.013945842161774635,0.000927891640458256
1746738975487229200,4.518229248046875,-0.0002913610078394413,-0.008481834083795547,0.005249402951449156
1746738975497308700,4.52830859375,-0.0024656387977302074,-0.0035238247364759445,0.0027063684538006783
1746738975507386600,4.53838671875,-0.0032422165386378765,-0.0016577476635575294,-0.005717210005968809
1746738975517465600,4.548465576171875,-0.00045327330008149147,0.00200499314814806,-0.012606163509190083
1746738975527544800,4.558544921875,-0.00013848766684532166,0.008976882323622704,-0.01996287889778614
1746738975537623600,4.56862353515625,0.002666269429028034,0.008922943845391273,-0.020178373903036118
1746738975547702800,4.578702880859375,0.002891040174290538,0.006827834527939558,-0.022810908034443855
1746738975557781800,4.58878173828125,0.004954569973051548,0.002676410134881735,-0.013624695129692554
1746738975567859700,4.598859619140625,0.000131318811327219,0.001489971298724413,-0.005506048444658518
1746738975577938700,4.608938720703125,-0.0015369942411780357,-0.0027025057934224606,0.0028310043271631002
1746738975588017700,4.619017578125,-0.000011535827070474625,-0.002069738693535328,0.007201251573860645
1746738975598096600,4.6290966796875,-0.0005913861095905304,-0.006216905079782009,0.014012172818183899
1746738975608175900,4.63917578125,0.0013103773817420006,-0.006715981289744377,0.017939802259206772
1746738975618254600,4.649254638671875,0.0009422958828508854,-0.005552530288696289,0.021140065044164658
1746738975628332500,4.65933251953125,0.001993445446714759,-0.0019892207346856594,0.02230999246239662
1746738975638411800,4.669411865234375,0.0017414698377251625,-0.0004455670714378357,0.020769963040947914
1746738975648490800,4.67949072265625,-0.00242451298981905,0.0014045313000679016,0.01683034934103489
1746738975658569500,4.689569580078125,0.00041055260226130486,-0.0009093997068703175,0.011427953839302063
1746738975668648700,4.699648681640625,-0.0013042567297816277,0.000016049016267061234,0.004860333167016506
1746738975678727700,4.709727783203125,0.0007766247726976871,-0.0014408822171390057,-0.0029237810522317886
1746738975688805600,4.7198056640625,-0.002086539287120104,-0.0017266394570469856,-0.0072468905709683895
1746738975698884600,4.729884521484375,0.0012919767759740353,-0.003572296816855669,-0.0069164494052529335
1746738975708963600,4.739963623046875,0.0013955733738839626,-0.005657818168401718,-0.0011200793087482452
1746738975719042800,4.750042724609375,0.0017967810854315758,-0.0012267576530575752,0.0045911818742752075
1746738975729121800,4.760121826171875,-0.0010101906955242157,-0.002873389981687069,0.004441512282937765
1746738975739200500,4.770200439453125,-0.002114578615874052,-0.003833687398582697,0.004931678529828787
1746738975749278700,4.78027880859375,0.00048599811270833015,-0.005553024355322123,0.0018719729268923402
1746738975759357700,4.790357666015625,0.0025886211078613997,-0.005382627248764038,-0.002023099921643734
1746738975769436700,4.800436767578125,0.003836045740172267,-0.006436972413212061,-0.004329930059611797
1746738975779515600,4.810515625,0.0035151017364114523,-0.0037451358512043953,-0.004959292244166136
1746738975789594600,4.8205947265625,0.0030285422690212727,0.0025223474949598312,-0.0007275292882695794
1746738975799673900,4.830673828125,0.00010222895070910454,0.00324131827801466,0.003017614595592022
1746738975809751800,4.840751708984375,-0.0035239309072494507,0.0045728981494903564,0.0033771414309740067
1746738975819830800,4.850830810546875,-0.0028513018041849136,0.0004283464513719082,0.004688437096774578
1746738975829909500,4.860909423828125,-0.002161809243261814,-0.00334348832257092,0.007937493734061718
1746738975839988700,4.87098876953125,0.0001459331251680851,-0.004904455970972776,0.008538474328815937
1746738975850067700,4.881067626953125,0.0029896562919020653,-0.007420610636472702,0.008444198407232761
1746738975860146700,4.891146728515625,0.003094394924119115,-0.010371615178883076,0.007474455516785383
1746738975870224600,4.901224609375,0.0027476514223963022,-0.010839000344276428,0.0038384415674954653
1746738975880303600,4.9113037109375,-0.0007775342091917992,-0.008473934605717659,0.002260708948597312
1746738975890382800,4.9213828125,-0.0026049958541989326,-0.006692811846733093,-0.0021646658424288034
1746738975900461600,4.931461669921875,-0.004502497613430023,0.0005163648165762424,-0.011452440172433853
1746738975910540500,4.94154052734375,-0.006033815443515778,-0.007800953462719917,-0.0196139644831419
1746738975920619800,4.951619873046875,-0.000904490239918232,-0.006880520842969418,-0.02337869442999363
1746738975930697700,4.96169775390625,0.0036545752082020044,0.00002718670293688774,-0.026107635349035263
1746738975940776700,4.971776611328125,0.0034677782095968723,0.000002557411789894104,-0.020994869992136955
1746738975950855700,4.981855712890625,0.00548459030687809,-0.0017958753742277622,-0.008531544357538223
1746738975960934700,4.9919345703125,0.0014207479543983936,0.0030273250304162502,0.004883361514657736
1746738975971014000,5.002013916015625,0.0005986304022371769,0.002430510241538286,0.015302978456020355
1746738975981092600,5.012092529296875,0.000024726148694753647,0.0028098365291953087,0.022894451394677162
1746738975991170600,5.022170654296875,-0.001121764536947012,0.0016231322661042213,0.0244555976241827
1746738976001249800,5.032249755859375,-0.002184143289923668,0.0009336811490356922,0.02263360656797886
1746738976011328800,5.042328857421875,0.00037621939554810524,-0.001712169498205185,0.0163863617926836
1746738976021407500,5.052407470703125,-0.00016937730833888054,0.0003697620704770088,0.005503134336322546
1746738976031486700,5.06248681640625,0.003153182566165924,0.0015996103174984455,-0.0036296439357101917
1746738976041565700,5.072565673828125,0.0032716931309551,-0.0029733036644756794,-0.00662889564409852
1746738976051643600,5.0826435546875,0.004997421521693468,-0.0024683685041964054,-0.010962125845253468
1746738976061723000,5.092722900390625,0.001413977239280939,-0.004513592924922705,-0.010101351886987686
1746738976071801600,5.102801513671875,0.0001838630996644497,-0.000986236147582531,-0.0012844245648011565
1746738976081880600,5.112880615234375,0.0014472296461462975,-0.0042261043563485146,0.002684227656573057
1746738976091959800,5.122959716796875,0.0017364490777254105,-0.0038106516003608704,0.003507410641759634
1746738976102038500,5.13303857421875,-0.0008473498746752739,-0.0006617298349738121,0.005554848816245794
1746738976112116500,5.143116455078125,0.0014064833521842957,-0.0029411292634904385,0.005122085101902485
1746738976122195700,5.15319580078125,0.00019485829398036003,-0.0013124290853738785,0.002464954275637865
1746738976132274700,5.163274658203125,-0.0023921364918351173,0.0021536746062338352,0.004321177955716848
1746738976142353700,5.173353759765625,-0.004220315720885992,0.002839796245098114,0.0033087576739490032
1746738976152432600,5.1834326171875,-0.003974239807575941,0.0031553804874420166,0.004217161796987057
1746738976162511600,5.19351171875,-0.0034312247298657894,0.006682957988232374,0.002369261346757412
1746738976172589800,5.20358984375,-0.000658608041703701,0.0034895609132945538,0.005785031709820032
1746738976182668800,5.213668701171875,-0.0013388926163315773,-0.0016622347757220268,0.005320405121892691
1746738976192747500,5.22374755859375,-0.0002067824825644493,-0.0031120595522224903,0.004976591095328331
1746738976202826800,5.23382666015625,0.00044279592111706734,-0.0034307516179978848,0.002559562446549535
1746738976212905700,5.24390576171875,-0.0027013318613171577,-0.0016965013928711414,-0.004058126360177994
1746738976222984700,5.253984619140625,-0.0003238515928387642,0.0015131854452192783,-0.004712018184363842
1746738976233063700,5.264063720703125,-0.0012394464574754238,-0.0016005821526050568,-0.006261711474508047
1746738976243141600,5.2741416015625,-0.0007654372602701187,-0.0032630166970193386,-0.005961630027741194
1746738976253220900,5.284220947265625,-0.00027115456759929657,-0.004614304751157761,-0.000926923705264926
1746738976263299600,5.294299560546875,-0.0006756884977221489,-0.005059584975242615,-0.0046295165084302425
1746738976273378600,5.304378662109375,0.0005043582059442997,-0.0017516729421913624,-0.005129924509674311
1746738976283457800,5.314457763671875,0.0004396000877022743,0.0007980819791555405,-0.011097926646471024
1746738976293536800,5.324536865234375,0.0017144549638032913,0.007916711270809174,-0.012967466376721859
1746738976303614700,5.33461474609375,0.003258974989876151,0.00683608977124095,-0.010868532583117485
1746738976313693700,5.344693603515625,0.003734082914888859,0.006308516953140497,0.0002975687966682017
1746738976323772700,5.354772705078125,0.0025409176014363766,0.006245712749660015,0.011586128734052181
1746738976333851600,5.3648515625,0.0009925556369125843,0.002542853355407715,0.017969459295272827
1746738976343930600,5.3749306640625,-0.0027726278640329838,-0.002881296444684267,0.019806640222668648
1746738976354009600,5.385009521484375,-0.002516964916139841,-0.0041055516339838505,0.01473518367856741
1746738976364087600,5.395087646484375,-0.005689351819455624,-0.004864861257374287,0.002449098275974393
1746738976374166800,5.405166748046875,-0.005294139496982098,-0.001324987504631281,-0.011747414246201515
1746738976384245800,5.415245849609375,-0.003779909573495388,0.00413906155154109,-0.02753741852939129
1746738976394324700,5.42532470703125,0.0010800929740071297,0.0027262545190751553,-0.03502596169710159
1746738976404403700,5.43540380859375,0.0014274460263550282,0.00024556461721658707,-0.032791655510663986
1746738976414482700,5.445482666015625,0.002126792212948203,-0.008804122917354107,-0.024777404963970184
1746738976424561000,5.455560791015625,0.001987552735954523,-0.008361546322703362,-0.012337123975157738
1746738976434639600,5.4656396484375,0.001223491970449686,-0.0016397284343838692,-0.0044075618498027325
1746738976444718600,5.475718505859375,-0.001743050292134285,0.0041443887166678905,0.0003189595299772918
1746738976454797800,5.4857978515625,-0.00323122413828969,0.013735231012105942,0.0052774990908801556
1746738976464876500,5.49587646484375,-0.0006459411233663559,0.010403705760836601,0.016721731051802635
1746738976474955800,5.505955810546875,0.0005873683840036392,0.00025919172912836075,0.023534895852208138
1746738976485033700,5.51603369140625,0.002602283377200365,-0.006136743817478418,0.02724968083202839
1746738976495113500,5.526113525390625,0.00044645462185144424,-0.005777483806014061,0.023447751998901367
1746738976505192400,5.5361923828125,-0.0016889120452106,-0.006107938475906849,0.009567500092089176
1746738976515271400,5.546271484375,-0.00348095316439867,0.0016431915573775768,-0.006812272127717733
1746738976525350700,5.5563505859375,-0.0004281713627278805,0.004805163014680147,-0.017795948311686516
1746738976535429400,5.566429443359375,0.0007763761095702648,0.0024354825727641582,-0.022892173379659653
1746738976545508400,5.57650830078125,-0.000541122630238533,-0.0011244537308812141,-0.019687114283442497
1746738976555586600,5.586586669921875,0.0003204098902642727,-0.005289903841912746,-0.011273124255239964
1746738976565665500,5.59666552734375,-0.001956745982170105,-0.006072695832699537,-0.009441763162612915
1746738976575744500,5.60674462890625,0.00008669774979352951,-0.006317174062132835,-0.003799323458224535
1746738976585823500,5.616823486328125,-0.002724688034504652,0.002066101413220167,-0.0063203671015799046
1746738976595902500,5.62690234375,-0.00030067935585975647,0.003448015544563532,-0.007161126937717199
1746738976605981700,5.636981689453125,0.0017733878921717405,0.0066360426135361195,-0.0023295541759580374
1746738976616059600,5.6470595703125,0.0024783264379948378,0.005397672299295664,0.0015546662034466863
1746738976626138400,5.657138427734375,-0.0008317902684211731,0.0028735273517668247,0.00601414917036891
1746738976636217300,5.66721728515625,-0.0003244583494961262,0.0002809399738907814,0.005692971870303154
1746738976646296600,5.677296630859375,-0.000635175034403801,-0.001535068266093731,0.0044402009807527065
1746738976656375300,5.687375244140625,-0.004222985822707415,-0.0018264180980622768,-0.0040201288647949696
1746738976666454500,5.69745458984375,-0.0021197395399212837,0.0004457957111299038,-0.009331312030553818
1746738976676532500,5.707532470703125,-0.00025552650913596153,-0.0010559610091149807,-0.01219847146421671
1746738976686611500,5.717611572265625,0.002806311007589102,-0.0033531629014760256,-0.008192609064280987
1746738976696690400,5.7276904296875,0.002595654921606183,-0.0034477051813155413,-0.007267426699399948
1746738976706769400,5.737769287109375,0.0027065956965088844,-0.005766431801021099,-0.002215847373008728
1746738976716848400,5.747848388671875,-0.0010868110693991184,-0.004817547742277384,0.0010566450655460358
1746738976726927600,5.757927734375,-0.0013099806383252144,-0.003248636145144701,0.00047494517639279366
1746738976737006300,5.76800634765625,-0.0020436812192201614,-0.001975378952920437,-0.003442298388108611
1746738976747084300,5.778084228515625,-0.002053725067526102,0.0004031350836157799,-0.009908272884786129
1746738976757163500,5.78816357421875,-0.001253445167094469,-0.004737298469990492,-0.011878745630383492
1746738976767242500,5.798242431640625,0.000040238723158836365,-0.01071032416075468,-0.013796336948871613
1746738976777321500,5.808321533203125,-0.003147298935800791,-0.01236521266400814,-0.013834419660270214
1746738976787400400,5.818400390625,-0.0018331832252442837,-0.010040666908025742,-0.01578974351286888
1746738976797479400,5.8284794921875,-0.005365866702049971,-0.007278969045728445,-0.017496297135949135
1746738976807557600,5.8385576171875,-0.0031204763799905777,-0.00578964501619339,-0.016737978905439377
1746738976817636600,5.84863671875,-0.001970789860934019,-0.005005344282835722,-0.018755855038762093
1746738976827715300,5.85871533203125,-0.00006347429007291794,-0.007688654586672783,-0.01921970397233963
1746738976837794600,5.868794677734375,-0.00026321131736040115,-0.007644179742783308,-0.014461700804531574
1746738976847873500,5.87887353515625,0.0027427750173956156,-0.0059466371312737465,-0.015786176547408104
1746738976857952300,5.8889521484375,0.002012802753597498,-0.0038882801309227943,-0.011860943399369717
1746738976868030500,5.899030517578125,-0.0006241481751203537,-0.0049153221771121025,-0.009850021451711655
1746738976878109400,5.909109375,0.00044351303949952126,-0.0017115394584834576,-0.0029029001016169786
1746738976888188400,5.9191884765625,-0.004135371185839176,-0.002910899929702282,0.00033819914096966386
1746738976898267400,5.929267333984375,-0.004421660676598549,-0.005236105993390083,0.003581130411475897
1746738976908346400,5.939346435546875,-0.0059998128563165665,-0.0074269529432058334,0.011418536305427551
1746738976918425600,5.949425537109375,-0.006294624879956245,-0.004633030854165554,0.014123243279755116
1746738976928504600,5.959504638671875,-0.007629891857504845,-0.003127062227576971,0.012139581143856049
1746738976938582500,5.96958251953125,-0.006652778014540672,-0.0013177106156945229,0.004449969623237848
1746738976948661500,5.97966162109375,-0.0038895616307854652,-0.004399074241518974,-0.0006351862102746964
1746738976958740500,5.989740478515625,-0.0035843625664711,0.0004659881815314293,-0.012794381007552147
1746738976968819500,5.9998193359375,-0.00007971655577421188,-0.0006245789118111134,-0.017071131616830826
1746738976978898400,6.0098984375,-0.0006744004786014557,-0.005964483134448528,-0.0199180506169796
1746738976988977400,6.019977294921875,0.0025840860325843096,-0.008747654035687447,-0.017286015674471855
1746738976999055400,6.030055419921875,0.0007702070288360119,0.0010000481270253658,-0.011503493413329124
1746738977009134600,6.040134521484375,-0.004293564707040787,0.008418679237365723,-0.008966554887592793
1746738977019213300,6.05021337890625,-0.004155612550675869,0.006207989528775215,0.003552698530256748
1746738977029292500,6.06029248046875,-0.0007516373880207539,0.00015111872926354408,0.012323904782533646
1746738977039371500,6.07037158203125,0.0001093628816306591,-0.004605020396411419,0.012410190887749195
1746738977049450500,6.080450439453125,0.003067181445658207,-0.00636336300522089,0.006664120592176914
1746738977059529500,6.090529541015625,0.001877547474578023,-0.006980150938034058,-0.0043190219439566135
1746738977069607400,6.100607421875,0.003151071025058627,-0.0027976566925644875,-0.012865638360381126
1746738977079686400,6.110686279296875,0.0031758383847773075,0.0015041478909552097,-0.015121068805456161
1746738977089765600,6.120765625,0.0026199298445135355,-0.00017849961295723915,-0.014223412610590458
1746738977099844400,6.13084423828125,-0.0012160874903202057,0.00190702173858881,-0.009265139698982239
1746738977109923300,6.14092333984375,-0.0009595532901585102,0.002340547740459442,-0.005967037286609411
1746738977120002600,6.15100244140625,0.0006620455533266068,-0.00217137997969985,-0.0041837845928967
1746738977130080500,6.16108056640625,-0.004324193112552166,-0.002634274773299694,-0.00467267818748951
1746738977140159500,6.171159423828125,0.002566736191511154,-0.005413017235696316,-0.007227448280900717
1746738977150238500,6.181238525390625,-0.0008647055365145206,-0.0021027615293860435,-0.004863230977207422
1746738977160317400,6.1913173828125,0.0021662379149347544,-0.003820233978331089,0.002335026627406478
1746738977170396700,6.201396728515625,0.0017567966133356094,-0.004365828819572926,0.0032698921859264374
1746738977180475400,6.211475341796875,-0.0020296857692301273,-0.0000509750097990036,0.00718047795817256
1746738977190554400,6.221554443359375,-0.00034459028393030167,0.000021908432245254517,0.003540373407304287
1746738977200632600,6.231632568359375,0.0006530298851430416,0.003645139280706644,-0.0022645187564194202
1746738977210711600,6.241711669921875,0.0013124658726155758,-0.0006719767116010189,-0.01076320931315422
1746738977220790300,6.251790283203125,0.0032682912424206734,-0.0023979712277650833,-0.015364885330200195
1746738977230869500,6.261869384765625,0.007727147080004215,-0.001894105225801468,-0.015925992280244827
1746738977240948500,6.271948486328125,0.007176938466727734,-0.002356163691729307,-0.016868218779563904
1746738977251027700,6.28202783203125,0.0035622629802674055,0.0012247818522155285,-0.012567896395921707
1746738977261105700,6.292105712890625,0.002011504489928484,0.001932383980602026,0.0006981072947382927
1746738977271184400,6.302184326171875,0.0007191500626504421,0.0029274211265146732,0.01066856924444437
1746738977281263600,6.312263671875,-0.00248196953907609,0.004480842966586351,0.021083924919366837
1746738977291342600,6.322342529296875,-0.0036067753098905087,0.003455439116805792,0.023617027327418327
1746738977301421300,6.33242138671875,-0.004033146891742945,0.005265057552605867,0.024399731308221817
1746738977311500500,6.34250048828125,-0.0034650200977921486,0.005286102648824453,0.018303200602531433
1746738977321579500,6.35257958984375,-0.002227182500064373,0.005092224571853876,0.013019222766160965
1746738977331657500,6.362657470703125,0.0025766310282051563,0.00042218156158924103,0.005125220865011215
1746738977341736400,6.372736328125,0.0023806223180145025,-0.004585093818604946,-0.003275987459346652
1746738977351815400,6.3828154296875,0.004772215150296688,-0.003946730401366949,-0.005917332135140896
1746738977361894400,6.392894287109375,0.0032763173803687096,-0.003691333346068859,-0.014455425553023815
1746738977371973600,6.4029736328125,0.0020123841241002083,0.0005367407575249672,-0.015949256718158722
1746738977382052400,6.41305224609375,0.00006348267197608948,-0.0026630470529198647,-0.010840249247848988
1746738977392130300,6.42313037109375,-0.0007936754263937473,-0.0010913368314504623,-0.003937963861972094
1746738977402209500,6.43320947265625,-0.0011089937761425972,-0.0013914750888943672,-0.0030434082727879286
1746738977412288500,6.44328857421875,-0.0044774762354791164,0.0001675873063504696,-0.0018240534700453281
1746738977422367500,6.453367431640625,-0.002627644222229719,-0.0022297906689345837,-0.0018168629612773657
1746738977432446500,6.463446533203125,-0.004535685759037733,-0.00026925792917609215,-0.0022630386520177126
1746738977442525400,6.473525390625,-0.0020637395791709423,0.003805645275861025,-0.0005799208302050829
1746738977452604400,6.4836044921875,-0.003361231181770563,-0.0004580761305987835,0.003793788608163595
1746738977462682400,6.493682373046875,0.0006060795858502388,-0.0012796614319086075,0.00517490366473794
1746738977472761300,6.50376123046875,0.0028765425086021423,-0.005268552340567112,0.007992305792868137
1746738977482840600,6.513840576171875,0.003343661082908511,-0.00023624347522854805,0.004413282964378595
1746738977492918800,6.523918701171875,0.0016139340586960316,0.0024353615008294582,0.005925552453845739
1746738977502997800,6.533997802734375,0.0004924768581986427,0.0018950062803924084,0.0017073717899620533
1746738977513076700,6.54407666015625,0.0029721823520958424,0.0030573117546737194,0.004387094639241695
1746738977523155700,6.55415576171875,0.0036273200530558825,0.0006865649484097958,0.0026368650142103434
1746738977533233700,6.564233642578125,0.0004860851913690567,0.0006931214593350887,0.004375326447188854
1746738977543313000,6.57431298828125,0.0031247453298419714,-0.0008112979121506214,0.00430262228474021
1746738977553391600,6.5843916015625,-0.0007217703387141228,0.0005225385539233685,0.001219780184328556
1746738977563470600,6.594470703125,0.0024537830613553524,-0.001241273246705532,-0.0010582878021523356
1746738977573549800,6.6045498046875,0.0015380708500742912,-0.00019304221495985985,-0.0027326615527272224
1746738977583628500,6.614628662109375,0.0019071849528700113,0.00018805637955665588,-0.0038314820267260075
1746738977593707800,6.624707763671875,0.003791485447436571,-0.0021904991008341312,-0.00804496556520462
1746738977603785700,6.63478564453125,0.002818099921569228,-0.0026118112727999687,-0.009792531840503216
1746738977613864700,6.64486474609375,0.004137315787374973,-0.003504949389025569,-0.011102977208793163
1746738977623943700,6.654943603515625,0.004036648198962212,-0.0023901499807834625,-0.01171097718179226
1746738977634022700,6.665022705078125,0.0021718256175518036,0.006269307341426611,-0.010349422693252563
1746738977644101600,6.6751015625,0.0012303981930017471,0.005310835782438517,-0.0037445167545229197
1746738977654180900,6.685180908203125,0.0011559445410966873,0.00350382924079895,0.0020554240327328444
1746738977664258800,6.6952587890625,-0.0013064146041870117,-0.0010829335078597069,0.007942074909806252
1746738977674337500,6.705337646484375,0.00239450647495687,-0.005036935210227966,0.011746424250304699
1746738977684416800,6.715416748046875,0.00012389523908495903,-0.004302701912820339,0.015370187349617481
1746738977694495700,6.725495849609375,-0.0011675497516989708,0.0023215659894049168,0.011206747964024544
1746738977704574500,6.735574462890625,-0.00021387171000242233,-0.0007293517701327801,0.006837033201009035
1746738977714653700,6.74565380859375,0.0017033005133271217,0.0003086114302277565,0.0039499117992818356
1746738977724732700,6.755732666015625,0.0005320427007973194,0.0016146255657076836,-0.005406571552157402
1746738977734810600,6.765810546875,0.00007789675146341324,0.004896395839750767,-0.009280587546527386
1746738977744889900,6.775889892578125,-0.0021170806139707565,0.00040577352046966553,-0.013230587355792522
1746738977754968600,6.785968505859375,-0.00146114407107234,-0.004249432124197483,-0.008802816271781921
1746738977765047800,6.7960478515625,-0.002336525358259678,-0.005256639327853918,-0.00804354902356863
1746738977775126800,6.806126708984375,-0.001955350860953331,-0.003962866961956024,-0.014248471707105637
1746738977785205500,6.81620556640625,-0.00048768287524580956,-0.004037701524794102,-0.016407497227191925
1746738977795284700,6.82628466796875,0.0008884891867637634,-0.006697682663798332,-0.016940349712967873
1746738977805362700,6.83636279296875,0.003567362669855356,-0.009635682217776775,-0.013834303244948387
1746738977815441700,6.846441650390625,0.0040336414240300655,-0.00978848896920681,-0.006865208502858877
1746738977825520600,6.856520751953125,0.005061621777713299,-0.0019912859424948692,0.0019213585183024406
1746738977835599600,6.866599609375,0.002836628118529916,-0.003138764761388302,0.008061395958065987
1746738977845678600,6.8766787109375,0.0021029270719736814,0.0007854034192860126,0.014204243198037148
1746738977855757800,6.8867578125,0.0024276082403957844,0.004929032642394304,0.014471311122179031
1746738977865836500,6.89683642578125,0.003945876378566027,0.008045198395848274,0.01021531317383051
1746738977875914500,6.90691455078125,0.004347565583884716,0.005661616567522287,0.00566115090623498
1746738977885993700,6.91699365234375,0.0035400954075157642,0.0014194673858582973,-0.0005786356050521135
1746738977896072700,6.92707275390625,0.00432533910498023,-0.00011847913265228271,-0.0011544497683644295
1746738977906151700,6.937151611328125,-0.0006832676008343697,0.0016418700106441975,-0.0030452939681708813
1746738977916230700,6.947230712890625,-0.0023232349194586277,-0.0023275655694305897,-0.001205871463753283
1746738977926309600,6.9573095703125,-0.0026976759545505047,-0.0028902916237711906,0.004963341169059277
1746738977936388600,6.967388671875,-0.003656958229839802,0.00013676099479198456,0.007971962913870811
1746738977946466600,6.977466552734375,-0.0009543821215629578,0.004104871302843094,0.005825189873576164
1746738977956545500,6.987545654296875,-0.0032096626237034798,0.007481982000172138,0.005891853012144566
1746738977966624800,6.997624755859375,0.0003773495554924011,0.0047154901549220085,0.00784741248935461
1746738977976703700,7.007703857421875,0.004660921171307564,-0.0006516207940876484,0.005215761251747608
1746738977986782700,7.01778271484375,0.003975157160311937,-0.004554483573883772,0.0005267335218377411
1746738977996861700,7.02786181640625,0.003209327347576618,-0.0021407408639788628,-0.004125506617128849
1746738978006940700,7.037940673828125,0.000910487025976181,-0.0027828291058540344,-0.00855647400021553
1746738978017019000,7.048018798828125,0.0009864340536296368,-0.0007599778473377228,-0.010329436510801315
1746738978027097600,7.05809765625,0.0015057502314448357,-0.005728904157876968,-0.012732939794659615
1746738978037176600,7.068176513671875,0.0009891237132251263,-0.0032011503353714943,-0.01699936017394066
1746738978047255800,7.078255859375,-0.002191755920648575,-0.0001771310344338417,-0.01695302128791809
1746738978057334800,7.088334716796875,-0.003793473355472088,0.00014035124331712723,-0.010875482112169266
1746738978067413500,7.09841357421875,-0.004228102043271065,-0.004642685875296593,-0.004441017750650644
1746738978077492700,7.10849267578125,-0.0005420241504907608,-0.009088616818189621,0.0033861054107546806
1746738978087570700,7.11857080078125,0.00024866871535778046,-0.005329298786818981,0.005344593897461891
1746738978097649700,7.128649658203125,0.0015659043565392494,-0.0014668749645352364,0.0029761751648038626
1746738978107728600,7.138728759765625,0.0010657627135515213,-0.0027023153379559517,-0.003481191350147128
1746738978117807600,7.1488076171875,0.0005362024530768394,0.0004791906103491783,-0.008141117170453072
1746738978127886800,7.158886962890625,0.0009457962587475777,0.0027213064022362232,-0.014376909472048283
1746738978137965600,7.168965576171875,0.0018715362530201674,-0.0038461678195744753,-0.011273297481238842
1746738978148044500,7.17904443359375,0.0019277289975434542,-0.008576740510761738,-0.010766764171421528
1746738978158122800,7.189122802734375,-0.0006042635068297386,-0.007047125604003668,-0.01191916223615408
1746738978168201700,7.19920166015625,-0.0012239809148013592,-0.005943777970969677,-0.013871259987354279
1746738978178280700,7.20928076171875,0.00084270304068923,-0.005832938477396965,-0.00758790597319603
1746738978188359700,7.219359619140625,-0.00035092560574412346,-0.004530386533588171,0.0014529932523146272
1746738978198438700,7.229438720703125,-0.000546447467058897,-0.004924362991005182,0.008429070934653282
1746738978208518000,7.239517822265625,-0.0013531185686588287,0.00021074432879686356,0.017275026068091393
1746738978218596600,7.2495966796875,-0.0018500136211514473,0.007680259644985199,0.015331415459513664
1746738978228674600,7.259674560546875,-0.001965328585356474,0.005967580713331699,0.012221641838550568
1746738978238753800,7.26975390625,-0.0011029290035367012,0.006838615983724594,0.013648467138409615
1746738978248832800,7.279832763671875,0.002605256624519825,0.002587677910923958,0.0074275885708630085
1746738978258911500,7.289911376953125,0.002108839573338628,-0.0018886900506913662,0.005438993684947491
1746738978268990700,7.29999072265625,0.0002651331014931202,-0.004851456731557846,0.0014375940663740039
1746738978279069700,7.310069580078125,-0.0009214119054377079,0.0007483935914933681,-0.0032852909062057734
1746738978289148700,7.320148681640625,-0.0019115754403173923,0.0039404588751494884,-0.006718904711306095
1746738978299227000,7.330226806640625,0.0018616358283907175,0.002179852221161127,-0.008862507529556751
1746738978309305600,7.3403056640625,0.0009138169698417187,-0.002106239553540945,-0.0006333394558168948
1746738978319384600,7.350384521484375,0.002588534029200673,-0.002726936247199774,0.003923160023987293
1746738978329463800,7.3604638671875,0.0031073179561644793,-0.0014685927890241146,0.01100530382245779
1746738978339542500,7.37054248046875,-0.0002662171609699726,0.0004376545548439026,0.011888226494193077
1746738978349621800,7.380621826171875,-0.0004995102062821388,0.002907469868659973,0.007956601679325104
1746738978359700700,7.39070068359375,0.0006398321129381657,0.004833512008190155,0.008933897130191326
1746738978369778700,7.40077880859375,-0.0004238346591591835,0.003986893221735954,0.0074553107842803
1746738978379857700,7.410857666015625,-0.0025660796090960503,0.004792403895407915,0.0026343835052102804
1746738978389936600,7.4209365234375,-0.0008813641034066677,0.0001989835873246193,-0.0025625089183449745
1746738978400015600,7.431015625,-0.0002606459893286228,-0.0018555819988250732,-0.00888365600258112
1746738978410094800,7.4410947265625,-0.00010751420632004738,-0.0034689251333475113,-0.006875898223370314
1746738978420173600,7.451173583984375,-0.0012713619507849216,-0.0036530555225908756,-0.00927172601222992
1746738978430252800,7.461252685546875,0.002793154213577509,-0.0071782818995416164,-0.004647679161280394
1746738978440331800,7.471331787109375,0.003996360581368208,-0.00431648176163435,0.0030875320080667734
1746738978450409700,7.48140966796875,0.0031558668706566095,-0.0006610271520912647,0.008571513928472996
1746738978460488700,7.49148876953125,0.0025049392133951187,0.0014262199401855469,0.00685112364590168
1746738978470567700,7.501567626953125,0.00026601972058415413,0.0009516440331935883,0.01112043671309948
1746738978480646700,7.511646728515625,-0.0031664976850152016,0.004383532330393791,0.011525758542120457
1746738978490725600,7.5217255859375,-0.000700144562870264,0.002299875020980835,0.010301769711077213
1746738978500803800,7.531803955078125,0.002339316299185157,0.00007350556552410126,0.005901900585740805
1746738978510883000,7.541883056640625,0.0034415984991937876,-0.001971535850316286,0.00041445717215538025
1746738978520961000,7.5519609375,0.004071230534464121,0.0007384768687188625,-0.006304397247731686
1746738978531040000,7.5620400390625,0.0025063571520149708,0.002196823712438345,-0.010686095803976059
1746738978541119000,7.572118896484375,-0.0008963583968579769,0.004592209588736296,-0.015006021596491337
1746738978551198000,7.582197998046875,-0.0025994502939283848,0.004215372260659933,-0.010332973673939705
1746738978561277200,7.592277099609375,-0.0021074796095490456,0.0033128028735518456,0.0003157263854518533
1746738978571356200,7.602356201171875,-0.000711450818926096,0.002912263385951519,0.010704717598855495
1746738978581435000,7.612434814453125,-0.0038930955342948437,0.001275158952921629,0.01349797286093235
1746738978591513000,7.62251318359375,-0.00323849031701684,0.008286729454994202,0.013374402187764645
1746738978601592000,7.632592041015625,0.00018577370792627335,0.008255896158516407,0.007162713445723057
1746738978611671000,7.642671142578125,0.0009785969741642475,0.001040327362716198,0.004712339024990797
1746738978621750000,7.65275,0.0023534137289971113,-0.0028201788663864136,0.005981044378131628
1746738978631829000,7.6628291015625,0.005719116423279047,-0.006756863556802273,0.00630594976246357
1746738978641908200,7.672908203125,0.002409052336588502,-0.009769868105649948,0.009603280574083328
1746738978651987200,7.6829873046875,-0.000399251002818346,-0.007151447702199221,0.00879953894764185
1746738978662065200,7.693065185546875,-0.0014012698084115982,-0.004116030875593424,0.0023294994607567787
1746738978672144100,7.70314404296875,-0.0025970288552343845,0.003635631874203682,-0.006571051198989153
1746738978682223000,7.71322314453125,-0.0027882643043994904,0.005036848597228527,-0.009339661337435246
1746738978692302000,7.723302001953125,-0.000627641100436449,-0.0027912468649446964,-0.010726368986070156
1746738978702381000,7.733381103515625,0.0001913793385028839,-0.00484243081882596,-0.007622421253472567
1746738978712460000,7.7434599609375,-0.0001987735740840435,-0.005904765799641609,-0.0037025148048996925
1746738978722539000,7.7535390625,-0.0021274443715810776,-0.005654330365359783,-0.004335477016866207
1746738978732617200,7.7636171875,-0.0021913601085543633,-0.0013839518651366234,-0.001572980429045856
1746738978742696000,7.773696044921875,0.0015165521763265133,-0.00008873036131262779,-0.0007567080319859087
1746738978752775000,7.78377490234375,-0.0011506038717925549,0.001866030041128397,-0.00015723046089988202
1746738978762854100,7.793854248046875,-0.0001920280046761036,0.0025382828898727894,0.0002498242538422346
1746738978772933000,7.80393310546875,-0.0013262680731713772,0.0030259075574576855,0.004689846653491259
1746738978783012000,7.81401220703125,-0.0003066742792725563,0.0005823718383908272,0.0069917854852974415
1746738978793091000,7.824091064453125,-0.002161832060664892,-0.002308222930878401,0.007832279428839684
1746738978803169000,7.8341689453125,-0.003053761553019285,-0.00541561096906662,0.01024672668427229
1746738978813248300,7.844248291015625,-0.006465271580964327,-0.0022839996963739395,0.004306811839342117
1746738978823327000,7.854326904296875,-0.002412111032754183,-0.0023003416135907173,-0.00009706357377581298
1746738978833406000,7.864406005859375,-0.002750865649431944,0.001661110669374466,-0.003073412459343672
1746738978843485200,7.874485107421875,-0.0014814636670053005,0.0016935826279222965,-0.0073717208579182625
1746738978853564000,7.88456396484375,0.001981444424018264,0.00040993932634592056,-0.005902454257011414
1746738978863643100,7.89464306640625,0.0015892689116299152,-0.00034486735239624977,-0.0026402128860354424
1746738978873722000,7.90472216796875,0.0024060604628175497,-0.0003736293874680996,-0.0032892252784222364
1746738978883800000,7.914800048828125,0.0009760912507772446,-0.0003184257075190544,-0.0032214599195867777
1746738978893879300,7.92487939453125,0.0003545093350112438,0.007050008047372103,-0.0027886962052434683
1746738978903958000,7.9349580078125,-0.002917557954788208,0.017535384744405746,-0.0046438188292086124
1746738978914037000,7.945037109375,-0.00647873617708683,0.01833939179778099,0.003191733732819557
1746738978924116200,7.9551162109375,-0.0029358193278312683,0.005077802110463381,0.008565421216189861
1746738978934195000,7.96519482421875,0.0019108678679913282,-0.0036773397587239742,0.011434976942837238
1746738978944274000,7.97527392578125,0.0024761806707829237,-0.005954090505838394,0.0101865129545331
1746738978954352000,7.98535205078125,0.0013102488592267036,-0.011430082842707634,0.004340076353400946
1746738978964431000,7.99543115234375,0.0012761224061250687,0.0014525535516440868,-0.008980776183307171
1746738978974510000,8.005510009765626,0.0013400381430983543,0.003109306562691927,-0.019702130928635597
1746738978984589000,8.015589111328126,-0.000036549754440784454,0.0028627291321754456,-0.019696064293384552
1746738978994668000,8.02566796875,0.0026495144702494144,0.0011540446430444717,-0.013781717047095299
1746738979004747300,8.035747314453126,0.0018772741314023733,-0.009631745517253876,-0.005393582861870527
1746738979014826000,8.045825927734375,0.0031454714480787516,-0.009816302917897701,0.0023069470189511776
1746738979024905000,8.055905029296875,0.002775481902062893,-0.006512694526463747,0.004368584603071213
1746738979034983200,8.065983154296875,-0.0002109869383275509,0.004684033337980509,0.0011932976776733994
1746738979045062100,8.076062255859375,-0.000577285885810852,0.009229601360857487,0.0024261721409857273
1746738979055140900,8.086140869140625,-0.002522192895412445,0.006766976788640022,0.007537577301263809
1746738979065220000,8.09622021484375,-0.0038087270222604275,0.0038778833113610744,0.014095805585384369
1746738979075299000,8.106299072265625,-0.0033754310570657253,-0.0009914403781294823,0.013661710545420647
1746738979085378000,8.1163779296875,-0.0031138695776462555,-0.004057989455759525,0.011338206939399242
1746738979095457000,8.12645703125,-0.0016041239723563194,-0.004090213682502508,0.0062150838784873486
1746738979105535000,8.136534912109376,0.0005994522944092751,-0.003406298579648137,-0.005288201849907637
1746738979115614000,8.146614013671876,0.0011115781962871552,-0.009424243122339249,-0.008565488271415234
1746738979125693200,8.156693115234376,0.0009924573823809624,-0.0076550631783902645,-0.012097727507352829
1746738979135772000,8.16677197265625,0.001928824931383133,-0.00821166392415762,-0.008061707019805908
1746738979145851100,8.17685107421875,-0.0012199818156659603,-0.0043030837550759315,-0.006040615029633045
1746738979155930000,8.18693017578125,-0.0018820436671376228,0.0018027457408607006,-0.004165483172982931
1746738979166008800,8.1970087890625,-0.0006852196529507637,0.0008866745047271252,-0.0030183098278939724
1746738979176088000,8.207088134765625,0.0025939305778592825,0.0009095785208046436,-0.00207022437825799
1746738979186166000,8.217166015625,0.0027220286428928375,0.0018909531645476818,-0.0030990035738795996
1746738979196245000,8.227244873046875,0.002232806058600545,0.0033993669785559177,0.00021689831919502467
1746738979206324200,8.23732421875,0.002293373690918088,-0.0005195876583456993,0.00012098551815142855
1746738979216403000,8.24740283203125,0.00045073265209794044,0.0021704710088670254,0.0037223780527710915
1746738979226482200,8.257482177734374,0.0017519909888505936,0.0042830887250602245,0.0028197027277201414
1746738979236561200,8.26756103515625,0.000021202489733695984,0.005857283715158701,0.004352085292339325
1746738979246639900,8.277639892578126,-0.0015673344023525715,-0.0012953253462910652,0.002767018275335431
1746738979256718000,8.287718017578126,-0.0034041167236864567,-0.00350388465449214,-0.0006993523566052318
1746738979266797000,8.297797119140625,-0.00008281273767352104,-0.0014840709045529366,-0.009770488366484642
1746738979276876000,8.3078759765625,0.00016938894987106323,0.001968983095139265,-0.011947888880968094
1746738979286955000,8.317955078125,0.0008053132332861423,0.00026995502412319183,-0.00801826547831297
1746738979297034000,8.328033935546875,0.0028263863641768694,-0.004260081797838211,0.00017814581224229187
1746738979307113200,8.33811328125,0.0025470589753240347,-0.005398651584982872,0.007005562540143728
1746738979317192200,8.348192138671875,-0.0015715197660028934,-0.0020766244269907475,0.012288208119571209
1746738979327271000,8.35827099609375,-0.002494153566658497,-0.0011931993067264557,0.009839854203164577
1746738979337348900,8.368348876953124,-0.003106413409113884,-0.0002501741982996464,0.008370588533580303
1746738979347428000,8.378427978515624,0.00029048649594187737,-0.0034884088672697544,0.000053464747907128185
1746738979357507000,8.388507080078124,-0.0014040828682482243,-0.001494766678661108,-0.010091315023601055
1746738979367586000,8.3985859375,-0.00274551659822464,-0.0004985346458852291,-0.017222078517079353
1746738979377665000,8.4086650390625,-0.0039165085181593895,-0.0010756412521004677,-0.018786951899528503
1746738979387744000,8.418743896484376,-0.003346819896250963,-0.008749132044613361,-0.017331281676888466
1746738979397823000,8.428822998046876,-0.004054688382893801,-0.004991944879293442,-0.012720552273094654
1746738979407901000,8.43890087890625,-0.00189547473564744,-0.006706209387630224,-0.012324303388595581
1746738979417980000,8.44897998046875,-0.0022874921560287476,-0.0023673870600759983,-0.015280678868293762
1746738979428059100,8.45905908203125,0.0000567752867937088,0.0010071606375277042,-0.011793379671871662
1746738979438138000,8.46913818359375,-0.00020474707707762718,0.003411994781345129,-0.008816498331725597
1746738979448217000,8.479217041015625,0.004922409076243639,-0.002046280074864626,0.00025421445025131106
1746738979458296000,8.489296142578125,0.0034275767393410206,0.002331158146262169,0.008805890567600727
1746738979468375000,8.499375,0.0005120993591845036,-0.0008749379776418209,0.01577548123896122
1746738979478454000,8.5094541015625,-0.0016237557865679264,-0.0012134257704019547,0.013779175467789173
1746738979488532000,8.519531982421874,-0.005418303422629833,0.0015743295662105083,0.010790128260850906
1746738979498611700,8.52961181640625,-0.0009202240034937859,-0.00222173985093832,0.00221448321826756
1746738979508690700,8.539690673828124,-0.0015576323494315147,-0.000478111207485199,-0.003129261313006282
1746738979518769400,8.549769287109376,0.0017188549973070621,0.0015871701762080193,-0.010964547283947468
1746738979528848600,8.5598486328125,0.0005616354756057262,-0.0023025665432214737,-0.013963949866592884
1746738979538927600,8.569927734375,0.0024745839182287455,-0.001427984330803156,-0.01186218298971653
1746738979549006600,8.580006591796876,0.004806750454008579,0.00013589998707175255,-0.0034992180299013853
1746738979559084500,8.59008447265625,0.0017856608610600233,0.001280792523175478,0.0029022223316133022
1746738979569163500,8.60016357421875,-0.0022656526416540146,0.0056755985133349895,0.007129080593585968
1746738979579242800,8.61024267578125,-0.0003543025813996792,0.005825267639011145,0.009121657349169254
1746738979589321700,8.62032177734375,0.002680255100131035,0.004314806777983904,0.006624775473028421
1746738979599400400,8.630400390625,0.002089566085487604,0.0025043892674148083,0.000694448419380933
1746738979609479700,8.640479736328125,0.004735340364277363,-0.0012163268402218819,-0.0017276701983064413
1746738979619558700,8.65055859375,0.0020950823090970516,0.0034375470131635666,-0.004878455772995949
1746738979629637400,8.660637451171874,0.0026369981933385134,0.0020245444029569626,0.0004791537066921592
1746738979639715600,8.670715576171874,0.00243779388256371,-0.0016788472421467304,0.003201170591637492
1746738979649794600,8.680794677734376,-0.00016715843230485916,-0.0005612736567854881,0.009518495760858059
1746738979659873500,8.69087353515625,-0.0014851568266749382,0.0010821628384292126,0.00862447265535593
1746738979669952500,8.700952392578126,0.0003390316851437092,0.0023058434017002583,0.0036516357213258743
1746738979680031500,8.711031494140625,-0.00007855193689465523,0.001102627720683813,-0.00122221524361521
1746738979690110700,8.72111083984375,0.003554299008101225,0.0020566703751683235,-0.0046062227338552475
1746738979700189700,8.731189697265625,0.004105573520064354,-0.002731693908572197,-0.002077285200357437
1746738979710267600,8.741267578125,0.005762056913226843,-0.0013455445878207684,0.0015161747578531504
1746738979720346600,8.7513466796875,0.006136497016996145,0.00033038295805454254,-0.0007472457364201546
1746738979730425600,8.761425537109375,-0.0005998564884066582,0.0053903888911008835,-0.005182212684303522
1746738979740504600,8.771504638671875,0.0000922991894185543,0.006216768175363541,-0.01068883016705513
1746738979750583600,8.78158349609375,-0.0017147311009466648,0.005437484476715326,-0.0114996787160635
1746738979760662500,8.79166259765625,-0.000599931925535202,0.0043866015039384365,-0.008592838421463966
1746738979770741800,8.80174169921875,0.0004985840059816837,0.0005253804847598076,-0.00663347914814949
1746738979780820700,8.81182080078125,-0.0009115599095821381,-0.0006677159108221531,0.0003839502460323274
1746738979790898700,8.821898681640626,-0.0006696442142128944,-0.0011008577421307564,0.012219796888530254
1746738979800977700,8.831977783203126,0.0017599575221538544,-0.0029757232405245304,0.02186230570077896
1746738979811056600,8.842056640625,-0.0016713449731469154,0.000633592251688242,0.03032463975250721
1746738979821135600,8.852135498046875,-0.002807715442031622,-0.0029869750142097473,0.035054679960012436
1746738979831214600,8.862214599609375,-0.004231403581798077,0.0012987498193979263,0.03034401126205921
1746738979841293600,8.87229345703125,-0.002596222795546055,0.002766418270766735,0.0232235174626112
1746738979851372500,8.88237255859375,0.0005749543197453022,0.0054296888411045074,0.006211817264556885
1746738979861450800,8.89245068359375,0.0003613685257732868,0.006485366262495518,-0.005392907187342644
1746738979871529500,8.902529541015625,0.00308494851924479,0.0021186312660574913,-0.01171080768108368
1746738979881608400,8.9126083984375,0.003651669016107917,0.0019010510295629501,-0.019042756408452988
1746738979891687700,8.922687744140624,0.0031611889135092497,-0.00010131578892469406,-0.02245946414768696
1746738979901766700,8.9327666015625,0.0027838191017508507,0.008565143682062626,-0.023594770580530167
1746738979911845600,8.942845703125,-0.0017607146874070168,0.00714208884164691,-0.018626928329467773
1746738979921924600,8.952924560546874,-0.0027649924159049988,0.0019284184090793133,-0.006066660862416029
1746738979932003600,8.963003662109376,-0.003214913886040449,0.001703409943729639,0.006992096547037363
1746738979942081800,8.973081787109376,-0.0030601839534938335,0.00035744765773415565,0.01330645103007555
1746738979952160500,8.983160400390625,-0.0028120907954871655,-0.004569875076413155,0.01974186860024929
1746738979962239500,8.993239501953125,-0.001804350409656763,-0.002845478244125843,0.019485939294099808
1746738979972318700,9.003318603515625,0.0009517921134829521,0.0009582145139575005,0.012502260506153107
1746738979982397400,9.0133974609375,0.0014993376098573208,0.003008582629263401,0.002459213836118579
1746738979992476700,9.0234765625,0.0011853119358420372,0.0011027120053768158,-0.00883236713707447
1746738980002555600,9.0335556640625,0.004439428448677063,0.0015232246369123459,-0.017142493277788162
1746738980012634600,9.043634521484375,0.004972254857420921,0.0008466634899377823,-0.02288401499390602
1746738980022712800,9.053712890625,0.0024222780484706163,0.00016516074538230896,-0.021237915381789207
1746738980032791600,9.06379150390625,0.0004968857392668724,-0.005195159465074539,-0.019689485430717468
1746738980042870500,9.07387060546875,0.001217004843056202,-0.007809318136423826,-0.012944762594997883
1746738980052949800,9.08394970703125,-0.002245485782623291,-0.006623832508921623,-0.006141944322735071
1746738980063028500,9.094028564453126,-0.0022295061498880386,0.0034626242704689503,0.0006821397691965103
1746738980073107500,9.104107421875,-0.006287289317697287,0.004926310386508703,0.008471593260765076
1746738980083186700,9.114186767578126,-0.006235890556126833,0.002939059864729643,0.016714343801140785
1746738980093265400,9.124265380859375,-0.004839328583329916,0.0008261078037321568,0.01728319562971592
1746738980103343400,9.13434326171875,-0.0038955039344727993,0.001434373203665018,0.015243479050695896
1746738980113422600,9.144422607421875,-0.0035946047864854336,0.0005622864700853825,0.006214369088411331
1746738980123501600,9.15450146484375,0.0007876269519329071,-0.0006337394006550312,-0.00459433626383543
1746738980133580800,9.164580810546875,0.002834988059476018,-0.000529890414327383,-0.012540915980935097
1746738980143659500,9.174659423828125,0.0034171552397310734,0.0011175409890711308,-0.019748495891690254
1746738980153738500,9.184738525390625,0.0031159152276813984,0.002277686260640621,-0.021544668823480606
1746738980163817700,9.194817626953125,0.002033872762694955,0.0018923263996839523,-0.017379751428961754
1746738980173895700,9.204895751953124,0.0034223697148263454,-0.0019139046780765057,-0.010999798774719238
1746738980183974400,9.214974365234376,0.0004793102853000164,-0.0016710241325199604,-0.0010949705028906465
1746738980194053600,9.2250537109375,0.0004878304898738861,-0.0052326517179608345,0.00710499519482255
1746738980204132600,9.235132568359376,-0.0007785027846693993,0.00030698953196406364,0.012360211461782455
1746738980214211600,9.245211669921876,-0.0032490394078195095,0.0027405433356761932,0.01116667129099369
1746738980224290600,9.25529052734375,-0.0013920175842940807,0.002884887158870697,0.009769576601684093
1746738980234369500,9.26536962890625,0.0011082333512604237,0.001397047657519579,0.008020537905395031
1746738980244448800,9.27544873046875,0.0026201095897704363,0.0006907773204147816,0.00023159105330705643
1746738980254526700,9.285526611328125,0.0024574303533881903,0.0005313684232532978,-0.0071442569606006145
1746738980264605400,9.29560546875,0.004564257338643074,0.003699997439980507,-0.01447061263024807
1746738980274684700,9.3056845703125,0.0032524578273296356,0.0037709325551986694,-0.021030444651842117
1746738980284763600,9.315763671875,0.0014966358430683613,0.0019061872735619545,-0.020757734775543213
1746738980294842400,9.32584228515625,0.0024424390867352486,0.003918626811355352,-0.01938837766647339
1746738980304921600,9.335921630859374,0.002752164611592889,-0.0014162175357341766,-0.018391290679574013
1746738980315000600,9.34600048828125,-0.0009952075779438019,0.0007434934377670288,-0.012747297994792461
1746738980325079600,9.35607958984375,-0.002224522642791271,-0.0003846217878162861,-0.004112530499696732
1746738980335157800,9.36615771484375,-0.0032226364128291607,-0.002794161904603243,0.0002631435636430979
1746738980345236500,9.376236572265626,-0.004737974610179663,-0.004044782370328903,0.005227542482316494
1746738980355315700,9.386315673828125,-0.004271465819329023,0.0014567850157618523,0.008760196156799793
1746738980365394700,9.396394775390625,-0.005160162691026926,0.0017324229702353477,0.010786594823002815
1746738980375473400,9.406473388671875,-0.0038923085667192936,0.0007765726186335087,0.007260920479893684
1746738980385552600,9.416552734375,-0.0028014774434268475,-0.00003116391599178314,0.004157805349677801
1746738980395631600,9.426631591796875,0.00001820223405957222,-0.006151176989078522,-0.004281344823539257
1746738980405709600,9.43670947265625,0.0009838645346462727,-0.001488247886300087,-0.011613027192652225
1746738980415788500,9.44678857421875,0.0023638384882360697,6.835907697677612e-7,-0.020938800647854805
1746738980425867500,9.456867431640624,0.00010787462815642357,-0.002503753174096346,-0.024007827043533325
1746738980435946800,9.46694677734375,0.0013962732627987862,0.006330902688205242,-0.020314600318670273
1746738980446025700,9.477025634765624,-0.001772355753928423,0.002900218591094017,-0.0125964917242527
1746738980456104400,9.4871044921875,-0.0023894463665783405,0.005490482319146395,-0.002125081140547991
1746738980466183700,9.49718359375,-0.004534889478236437,0.006423653569072485,0.0069062309339642525
1746738980476262700,9.5072626953125,-0.005097350105643272,0.005009808111935854,0.01442507654428482
1746738980486340600,9.517340576171875,-0.002309020608663559,0.003657188732177019,0.016447214409708977
1746738980496419000,9.527419189453125,-0.002547639422118664,-0.0023791324347257614,0.016482101753354073
1746738980506498300,9.537498291015625,0.0005229846574366093,-0.0007351632229983807,0.010923552326858044
1746738980516577300,9.547577392578125,0.0024761082604527473,-0.00139999995008111,0.005047508981078863
1746738980526656500,9.557656494140625,0.00017380528151988983,0.001536934170871973,-0.006352418102324009
1746738980536735200,9.5677353515625,-0.0005385116674005985,-0.0023414655588567257,-0.013733548112213612
1746738980546814200,9.577814208984375,0.0013334243558347225,-0.004677058197557926,-0.016862496733665466
1746738980556893400,9.5878935546875,0.0017129620537161827,-0.0004914687015116215,-0.01855979859828949
1746738980566971400,9.597971435546874,0.0006407732143998146,-0.000642736442387104,-0.019557951018214226
1746738980577050000,9.608050048828124,-0.0009616506285965443,-0.0012491382658481598,-0.012485661543905735
1746738980587129300,9.61812939453125,0.000003212597221136093,0.0012550326064229012,-0.006710862275213003
1746738980597208300,9.628208251953126,-0.0008249897509813309,0.003921507857739925,-0.0014374960446730256
1746738980607287300,9.638287353515626,0.0013939561322331429,0.006314358673989773,-0.0025024940259754658
1746738980617366300,9.6483662109375,-0.0019579012878239155,0.0068832323886454105,0.002158248797059059
1746738980627445200,9.6584453125,-0.0012644138187170029,0.008704835548996925,0.0016900652553886175
1746738980637524500,9.6685244140625,-0.004393172450363636,0.00688428059220314,-0.0006516245193779469
1746738980647602400,9.6786025390625,-0.0016328059136867523,0.0003803088329732418,0.0006954023847356439
1746738980657681200,9.68868115234375,-0.0013036774471402168,-0.0035969961900264025,-0.0023184833116829395
1746738980667760400,9.698760498046875,-0.001199281308799982,-0.004140014760196209,-0.00641442509368062
1746738980677839400,9.70883935546875,0.0007259557023644447,-0.0018972265534102917,-0.014462245628237724
1746738980687918300,9.71891845703125,0.0028354458045214415,-0.0004292922094464302,-0.019044747576117516
1746738980697997300,9.728997314453125,0.003112300531938672,-0.005154987797141075,-0.02388334460556507
1746738980708076300,9.739076171875,0.006217013578861952,-0.004965903237462044,-0.02244577184319496
1746738980718155300,9.7491552734375,0.006171092391014099,-0.0034555408637970686,-0.02236737683415413
1746738980728233200,9.759233154296876,0.0037438874132931232,-0.0014081024564802647,-0.016310550272464752
1746738980738312200,9.769312255859376,0.0028064940124750137,-0.0009198291227221489,-0.009057654067873955
1746738980748391400,9.779391357421876,0.0011785035021603107,-0.0002489788457751274,-0.0007416671141982079
1746738980758470400,9.789470458984376,-0.0006301645189523697,0.0018611801788210869,0.007919183000922203
1746738980768549000,9.799549072265625,-0.0012693232856690884,-0.0011790846474468708,0.006442193407565355
1746738980778628400,9.80962841796875,-0.0005769380368292332,0.002228234428912401,0.010524681769311428
1746738980788707300,9.819707275390625,-0.001692269928753376,-0.0028773113153874874,0.0063224793411791325
1746738980798786300,9.829786376953125,-0.004000051412731409,-0.003938664682209492,0.000548648415133357
1746738980808864300,9.8398642578125,0.00008204206824302673,-0.0018076030537486076,-0.011195359751582146
1746738980818943200,9.849943115234375,-0.00021113362163305283,0.0005158809944987297,-0.02094893530011177
1746738980829022500,9.8600224609375,0.0003766259178519249,-0.003842648584395647,-0.02545899711549282
1746738980839101400,9.870101318359374,0.0034349984489381313,-0.004079883918166161,-0.02832147665321827
1746738980849180200,9.88018017578125,0.003790264017879963,-0.0009900843724608421,-0.02669668197631836
1746738980859259400,9.89025927734375,-0.0002527153119444847,0.0009735124185681343,-0.021651938557624817
1746738980869338400,9.90033837890625,-0.0014527356252074242,-0.004999957513064146,-0.009270637296140194
1746738980879416300,9.910416259765626,0.0006080153398215771,-0.0036789800506085157,0.0019147931598126888
1746738980889495300,9.920495361328125,-0.0032317303121089935,-0.0020661698654294014,0.014095825143158436
1746738980899574300,9.93057421875,-0.0036035077646374702,-0.00031085219234228134,0.0208604633808136
1746738980909653500,9.940653564453125,-0.003614959307014942,0.0006641307845711708,0.017945898696780205
1746738980919732200,9.950732177734375,-0.002085238229483366,-0.0018811062909662724,0.017395272850990295
1746738980929811200,9.960811279296875,0.001072471495717764,0.001253168098628521,0.01282102707773447
1746738980939890400,9.970890380859375,0.003986540716141462,0.0016498551703989506,0.007451548241078854
1746738980949969400,9.980969482421875,0.0009806309826672077,-0.00009930925443768501,0.0012676878832280636
1746738980960047400,9.99104736328125,0.0017049727030098438,0.001697649247944355,-0.0009432543884031475
1746738980970126300,10.001126220703124,-0.0016793725080788136,0.0019415952265262604,-0.0015355413779616356
1746738980980205300,10.011205322265624,-0.0011770245619118214,0.004474037326872349,-0.006456348579376936
1746738980990284300,10.0212841796875,0.0006965091452002525,0.0035208920016884804,-0.010652424767613411
1746738981000363300,10.03136328125,0.0019431726541370153,0.000445373822003603,-0.013305536471307278
1746738981010442200,10.041442138671876,0.0017927042208611965,-0.004505708813667297,-0.006860420107841492
1746738981020521500,10.051521484375,0.003915394656360149,-0.00754642253741622,-0.004632588475942612
1746738981030600200,10.06160009765625,0.0015678182244300842,-0.006980767007917166,0.0037531733978539705
1746738981040678100,10.07167822265625,-0.0022328528575599194,-0.004320602864027023,0.006789318285882473
1746738981050757400,10.08175732421875,-0.0042725675739347935,0.0005537807010114193,0.006714216433465481
1746738981060836400,10.09183642578125,-0.0031367293559014797,0.004877156112343073,0.006959227845072746
1746738981070915300,10.101915283203125,-0.002098896075040102,0.00245421240106225,0.0008323591900989413
1746738981080994300,10.111994384765625,-0.00014272984117269516,0.002695562317967415,-0.000013601791579276323
1746738981091073300,10.1220732421875,0.0034639891237020493,0.002564268186688423,-0.0016969859134405851
1746738981101152500,10.132152587890625,0.00360376900061965,-0.004410209134221077,-0.0008651537355035543
1746738981111231200,10.142231201171874,0.003283390775322914,-0.00039522768929600716,0.004408704116940498
1746738981121309200,10.15230908203125,0.0023550111800432205,0.0021878229454159737,0.005610475316643715
1746738981131388200,10.16238818359375,0.002177910879254341,0.006641693413257599,0.006097301375120878
1746738981141467400,10.17246728515625,-0.00048327120020985603,0.0009573325514793396,0.007673585321754217
1746738981151546000,10.182546142578126,-0.0006430605426430702,0.0007520029321312904,0.012339710257947445
1746738981161625300,10.192625244140626,0.0012377784587442875,0.0016440791077911854,0.01161789521574974
1746738981171704300,10.202704345703125,-0.001234433613717556,0.005755999591201544,0.013269588351249695
1746738981181783300,10.212783203125,-0.0012520491145551205,0.0029688593931496143,0.010252240113914013
1746738981191862300,10.2228623046875,0.0014955340884625912,-0.001370761077851057,0.0129396365955472
1746738981201940200,10.232940185546875,0.0019607869908213615,-0.0020698136650025845,0.01656494103372097
1746738981212019200,10.243019287109375,-0.000861897598952055,-0.0066168950870633125,0.016332445666193962
1746738981222098400,10.253098388671875,0.00032016681507229805,-0.007682394236326218,0.006756729446351528
1746738981232177200,10.26317724609375,0.00224217027425766,-0.007072796579450369,-0.004943602718412876
1746738981242256400,10.27325634765625,0.005894467234611511,-0.0025404631160199642,-0.017897553741931915
1746738981252335400,10.28333544921875,0.0030595320276916027,0.003752586431801319,-0.02261640876531601
1746738981262414300,10.293414306640624,0.005908238235861063,0.004633012227714062,-0.019531643018126488
1746738981272493300,10.303493408203124,0.003261056262999773,0.005295073613524437,-0.005882942583411932
1746738981282571300,10.3135712890625,0.006789022125303745,0.0006452365778386593,0.007478851359337568
1746738981292650200,10.323650146484376,0.003535970812663436,0.004253020975738764,0.017240134999155998
1746738981302729500,10.3337294921875,0.0009283935651183128,0.007822413928806782,0.01637122966349125
1746738981312808200,10.34380810546875,-0.004069294780492783,0.008237600326538086,0.011090980842709541
1746738981322887400,10.353887451171875,-0.0009788451716303825,0.009072369895875454,0.0018990946700796485
1746738981332966400,10.36396630859375,-0.0015066834166646004,0.0053924135863780975,-0.0040267049334943295
1746738981343045000,10.374045166015625,0.0009778528474271297,-0.0008747130632400513,-0.00880647636950016
1746738981353124400,10.384124267578125,0.0029581792186945677,-0.005762145854532719,-0.01235833391547203
1746738981363202300,10.394202392578125,0.0009029419161379337,-0.0074192071333527565,-0.009422914125025272
1746738981373281300,10.40428125,0.0001990683376789093,-0.001982630230486393,-0.004058508668094873
1746738981383360500,10.414360595703124,-0.004120349884033203,-0.0012195352464914322,-0.003778273705393076
1746738981393439200,10.424439208984374,-0.0010446654632687569,-0.0005694576539099216,-0.005902410950511694
1746738981403518200,10.434518310546874,0.004223257303237915,-0.001153530552983284,-0.007574259303510189
1746738981413597400,10.444597412109376,0.002364903688430786,-0.001421977300196886,-0.005640271585434675
1746738981423676200,10.45467626953125,0.0020946701988577843,-0.0036893743090331554,-0.003551050089299679
1746738981433755400,10.46475537109375,0.00023897970095276833,-0.006348008289933205,0.004226712044328451
1746738981443833300,10.474833251953125,0.0018323096446692944,-0.0047997888177633286,0.007692564278841019
1746738981453912300,10.484912353515625,-0.0029371450655162334,-0.003530259942635894,0.011964273639023304
1746738981463991300,10.4949912109375,-0.004219990689307451,-0.00035761063918471336,0.01671290025115013
1746738981474070300,10.5050703125,-0.005076730158179998,0.0033058333210647106,0.016807176172733307
1746738981484149200,10.515149169921875,-0.004876686725765467,-0.003810548223555088,0.01317573245614767
1746738981494228500,10.525228515625,-0.0015141796320676804,-0.0010957219637930393,0.00682302750647068
1746738981504307200,10.53530712890625,0.000985423568636179,-0.00027691712602972984,-0.0018847523024305701
1746738981514385400,10.545385498046874,0.0037311427295207977,-0.0002827760763466358,-0.012106496840715408
1746738981524464400,10.55546435546875,0.004203515127301216,-0.0014040558598935604,-0.011585386469960213
1746738981534543400,10.56554345703125,0.00431430246680975,-0.002632305957376957,-0.011442376300692558
1746738981544622300,10.575622314453126,0.004742764867842197,-0.0013876636512577534,-0.008440767414867878
1746738981554701300,10.585701416015626,0.0018095592968165874,-0.00014210352674126625,-0.004229511134326458
1746738981564780300,10.5957802734375,-0.0010568737052381039,0.0017595752142369747,-0.00018078004359267652
1746738981574859300,10.605859375,0.0003918856382369995,-0.0008479258976876736,0.004680554382503033
1746738981584938200,10.615938232421875,-0.0024851690977811813,-0.0015359185636043549,0.008956962265074253
1746738981595016200,10.62601611328125,-0.002047878224402666,-0.001495172269642353,0.00852126907557249
1746738981605095400,10.636095458984375,0.0017449958249926567,0.0000012582167983055115,0.006772105116397142
1746738981615174400,10.64617431640625,0.00020196009427309036,-0.0014083529822528362,0.0028788300696760416
1746738981625253400,10.65625341796875,0.002489350736141205,0.0011072452180087566,0.004455477464944124
1746738981635332400,10.666332275390625,0.00016307923942804337,0.0015147090889513493,0.005761225242167711
1746738981645411300,10.676411376953125,0.0010972409509122372,0.0009932201355695724,0.0014150303322821856
1746738981655490300,10.686490234375,-0.00024019880220294,0.003482476808130741,0.00226111663505435
1746738981665569300,10.6965693359375,-0.00320091238245368,0.004430011380463839,-0.0005202603060752153
1746738981675647200,10.706647216796876,-0.00157451955601573,0.005550137255340815,-0.006795466877520084
1746738981685726500,10.7167265625,0.0004615425132215023,0.0024854131042957306,-0.0074016861617565155
1746738981695805200,10.72680517578125,-0.000234873965382576,-0.0001710904762148857,-0.008648845367133617
1746738981705884400,10.736884521484376,0.0035317104775458574,-0.002518358640372753,-0.0023689286317676306
1746738981715963400,10.74696337890625,0.002882431959733367,-0.005456091836094856,0.0014657570281997323
1746738981726042400,10.75704248046875,0.001326883677393198,-0.0014422209933400154,0.0082771684974432
1746738981736121300,10.767121337890625,-0.003059609327465296,0.0047371117398142815,0.008386890403926373
1746738981746200300,10.777200439453125,-0.004311563912779093,0.002907009329646826,0.010986081324517727
1746738981756278300,10.7872783203125,-0.0013482645153999329,0.0029701259918510914,0.005302362609654665
1746738981766357500,10.797357421875,0.000566472765058279,-0.0006637987680733204,0.005191659089177847
1746738981776436200,10.807436279296875,0.0004399726167321205,-0.005471869371831417,-0.0029022202361375093
1746738981786515200,10.81751513671875,0.0014650626108050346,-0.005865874700248241,-0.011059231124818325
1746738981796594400,10.827594482421874,0.0035583071876317263,-0.008138882927596569,-0.014206554740667343
1746738981806673400,10.83767333984375,0.00241717672906816,0.0016891960985958576,-0.014179838821291924
1746738981816752400,10.84775244140625,0.002821710892021656,0.009427541866898537,-0.010376045480370522
1746738981826831400,10.857831298828126,-0.0008368617855012417,0.003618114162236452,-0.0004352355026639998
1746738981836909300,10.867909423828126,-0.00426994264125824,0.0032665771432220936,0.010199299082159996
1746738981846988500,10.877988525390625,-0.0014658221043646336,-0.0014471989125013351,0.019862551242113113
1746738981857067300,10.8880673828125,0.00016163568943738937,0.00009770086035132408,0.02056882157921791
1746738981867146200,10.898146240234375,-0.0037343446165323257,0.0005415561608970165,0.017202487215399742
1746738981877225500,10.9082255859375,-0.00015212642028927803,-0.003351719118654728,0.02110534906387329
1746738981887304200,10.91830419921875,-0.0005629328079521656,-0.006338606122881174,0.014180932193994522
1746738981897383400,10.928383544921875,0.002509023528546095,-0.004173456225544214,0.011161440052092075
1746738981907462400,10.93846240234375,0.0006940793246030807,-0.00021147122606635094,0.0015303847612813115
1746738981917540400,10.948540283203124,0.00005891546607017517,0.002326520625501871,-0.005123256705701351
1746738981927619600,10.95861962890625,0.0009946683421730995,0.0026924917474389076,-0.008119718171656132
1746738981937698300,10.9686982421875,0.003066607750952244,-0.0010841363109648228,-0.008695759810507298
1746738981947777300,10.97877734375,0.0030285653192549944,-0.002324013039469719,-0.007772608660161495
1746738981957856500,10.9888564453125,0.00434789527207613,-0.002314426004886627,-0.004587202332913876
1746738981967935200,10.998935302734376,0.0028692311607301235,0.001899475697427988,-0.00007151767204049975
1746738981978014200,11.00901416015625,-0.0000756923109292984,0.003452364820986986,0.006386647932231426
1746738981988093400,11.019093505859376,-0.001167171634733677,0.006586483214050531,0.012269345112144947
1746738981998171400,11.02917138671875,-0.004230605438351631,0.007004599552601576,0.01514662429690361
1746738982008250000,11.03925,-0.005564622115343809,0.00517433462664485,0.01831260323524475
1746738982018329300,11.049329345703125,-0.004137433599680662,0.0022464548237621784,0.022139033302664757
1746738982028408300,11.059408203125,-0.003033360932022333,0.0008841552771627903,0.017929572612047195
1746738982038487600,11.069487548828125,-0.0025609158910810947,0.00001090439036488533,0.010850092396140099
1746738982048566300,11.079566162109375,0.0014572599902749062,-0.0022354479879140854,0.0010935449972748756
1746738982058645200,11.089645263671875,0.004411770962178707,-0.0037140350323170424,-0.011742359027266502
1746738982068724500,11.099724365234374,0.005149543285369873,-0.008269088342785835,-0.02292659878730774
1746738982078802400,11.109802490234374,0.005667794495820999,-0.008440596051514149,-0.030303021892905235
1746738982088881200,11.119881103515626,0.007381386123597622,-0.006496547255665064,-0.02565489523112774
1746738982098960400,11.12996044921875,0.003947772551327944,-0.002468249760568142,-0.016190553084015846
1746738982109039400,11.140039306640626,-0.0004170713946223259,-0.004391833208501339,-0.002813522471114993
1746738982119118300,11.150118408203125,-0.0015792748890817165,0.00015285098925232887,0.010507876053452492
1746738982129197300,11.160197265625,-0.0020851586014032364,0.000049948226660490036,0.026134196668863297
1746738982139276300,11.1702763671875,-0.0035688052885234356,-0.0016211853362619877,0.031846944242715836
1746738982149355500,11.18035546875,-0.004945548716932535,-0.0011413213796913624,0.0258674044162035
1746738982159433500,11.19043359375,-0.00413248548284173,0.0027213268913328648,0.018827073276042938
1746738982169512200,11.20051220703125,-0.0008747153915464878,-0.0015733507461845875,0.010208156891167164
1746738982179591400,11.21059130859375,0.002650510985404253,0.00004558451473712921,-0.004339892882853746
1746738982189670400,11.22067041015625,0.00192959513515234,-0.0007073110900819302,-0.014817513525485992
1746738982199749000,11.2307490234375,0.004169313237071037,-0.0004428592510521412,-0.018626365810632706
1746738982209828400,11.240828369140624,0.0020342913921922445,-0.003415270010009408,-0.02065747231245041
1746738982219907300,11.2509072265625,-0.0010216860100626945,-0.0012455927208065987,-0.01929020695388317
1746738982229986300,11.260986328125,0.000550608616322279,0.0024043461307883263,-0.016151277348399162
1746738982240064300,11.271064208984376,-0.0014321147464215755,-0.004040503408759832,-0.009680063463747501
1746738982250143200,11.281143310546875,-0.0021967473439872265,-0.0026163868606090546,-0.004033082164824009
1746738982260222500,11.291222412109375,-0.003211944829672575,-0.0014414000324904919,0.004755349364131689
1746738982270301400,11.301301513671875,-0.0021749851293861866,0.0028893910348415375,0.007180241402238607
1746738982280380200,11.311380126953125,-0.0019502141512930393,0.0007308991625905037,0.01091559138149023
1746738982290459400,11.32145947265625,-0.0008554277010262012,-0.002075948752462864,0.011839989572763443
1746738982300538400,11.331538330078125,0.0012780306860804558,-0.0011110850609838963,0.013012578710913658
1746738982310617300,11.341617431640625,0.0005331444554030895,0.0016428898088634014,0.007163478061556816
1746738982320695300,11.3516953125,0.0021592704579234123,0.0017776456661522388,-0.007924661040306091
1746738982330774300,11.361774169921874,0.000840434804558754,0.007188247051090002,-0.015900282189249992
1746738982340853500,11.371853515625,0.0024175590369850397,0.007713422644883394,-0.023092148825526237
1746738982350932500,11.381932373046874,0.002590169897302985,0.0024423706345260143,-0.018284890800714493
1746738982361011200,11.39201123046875,0.00017201947048306465,-0.0007243943400681019,-0.014648077078163624
1746738982371090400,11.40209033203125,-0.0008404385298490524,-0.00034218979999423027,-0.005138279404491186
1746738982381169400,11.41216943359375,-0.000703019555658102,-0.002598952502012253,0.0031859627924859524
1746738982391248400,11.422248291015626,-0.0008904691785573959,-0.009515787474811077,0.00954573042690754
1746738982401326300,11.432326416015625,0.00031594280153512955,-0.005187884904444218,0.011438439600169659
1746738982411405300,11.4424052734375,-0.0005776602774858475,-0.006268030498176813,0.0025700577534735203
1746738982421484300,11.452484375,-0.00034623127430677414,0.0027251983992755413,-0.00226917234249413
1746738982431563300,11.462563232421875,-0.0015671737492084503,0.005646847188472748,-0.006525746546685696
1746738982441642200,11.472642333984375,-0.0017341538332402706,0.0025117741897702217,-0.013251292519271374
1746738982451721500,11.482721435546875,0.002255447907373309,-0.001122904010117054,-0.014563193544745445
1746738982461800400,11.492800537109375,0.004326055757701397,-0.00046457070857286453,-0.015646032989025116
1746738982471879200,11.502879150390624,0.0041109491139650345,-0.0049799419939517975,-0.008614517748355865
1746738982481957400,11.512957275390624,0.0015130359679460526,-0.0052513182163238525,-0.0044152457267045975
1746738982492036400,11.523036376953126,0.003147989511489868,-0.000659087672829628,0.00030758953653275967
1746738982502115800,11.53311572265625,0.0017061540856957436,0.0017380239441990852,0.00952452328056097
1746738982512195000,11.543195068359376,-0.0021849931217730045,0.00903992634266615,0.013197177089750767
1746738982522274000,11.553274169921876,-0.0023991116322577,0.005977557972073555,0.016635319218039513
1746738982532353300,11.563353271484376,-0.0038945130072534084,0.005088404286652803,0.017610160633921623
1746738982542432000,11.573431884765625,-0.002635636832565069,0.0036079534329473972,0.014874562621116638
1746738982552511000,11.583510986328125,0.00042581744492053986,0.002707112580537796,0.009586098603904247
1746738982562589200,11.593589111328125,0.00012967409566044807,-0.0022463672794401646,0.005505870562046766
1746738982572668200,11.603668212890625,0.0018131767865270376,-0.0027543604373931885,-0.002018079860135913
1746738982582747000,11.613746826171875,0.00244487845338881,-0.006360813044011593,-0.010131665505468845
1746738982592826000,11.623826171875,0.0012732776813209057,-0.004018870182335377,-0.0134727843105793
1746738982602905000,11.633905029296875,-0.0018724482506513596,0.0014033252373337746,-0.01392525527626276
1746738982612984000,11.643984130859375,-0.00271054869517684,0.003214586526155472,-0.012641189619898796
1746738982623063000,11.65406298828125,-0.0008774949237704277,-0.0018235817551612854,-0.009256844408810139
1746738982633142000,11.66414208984375,0.00222737155854702,-0.0039527202025055885,-0.0016672138590365648
1746738982643220000,11.674219970703126,0.00367879425175488,-0.0007428121753036976,0.0009477440034970641
1746738982653299200,11.68429931640625,0.001884776633232832,0.004019246436655521,0.003775109304115176
1746738982663378000,11.6943779296875,0.0037404673639684916,0.007742611691355705,0.0009793227072805166
1746738982673457200,11.70445703125,0.002238405402749777,0.005528849549591541,0.008105689659714699
1746738982683536100,11.7145361328125,0.003845889586955309,0.0025860564783215523,0.012164346873760223
1746738982693614800,11.72461474609375,0.001128130592405796,0.00478111207485199,0.014470740221440792
1746738982703694000,11.734694091796875,-0.0013789692893624306,0.004743294790387154,0.016877705231308937
1746738982713773000,11.74477294921875,-0.00034185731783509254,0.0038039861246943474,0.01763487420976162
1746738982723851000,11.75485107421875,-0.0011522569693624973,0.0022218013182282448,0.0166055615991354
1746738982733930000,11.764929931640625,-0.0004768804647028446,0.005816297139972448,0.01301582995802164
