time,seconds_elapsed,roll,rotationRateZ,quaternionY,rotationRateY,quaternionZ,quaternionW,yaw,devicelocation,accelerationZ,pitch,gravityX,gravityZ,quaternionX,rotationRateX,accelerationX,gravityY,accelerationY
1746738892857744600,0.47974462890625,0.1827267194359457,0.015219798311591148,0.08752256713550188,0.0067228595726192,5.78918636078234e-18,0.9825288616211422,0.030380877828968325,right,0.0009396672248840332,-0.32863770688407307,1.6866151163369416,-9.12730170867145,-0.16424654467789893,-0.03774238005280495,0.0019356012344360352,3.1651345947265623,0.002895146608352661
1746738892897744600,0.51974462890625,0.18301618388521676,0.008567333221435547,0.08760675474378042,0.00032949913293123245,0.0002143395224662329,0.9824516566482137,0.030940803409420996,right,-0.0017372965812683105,-0.3294353933252848,1.6887969904206692,-9.124327661296725,-0.16466275360356158,-0.02413146384060383,0.0005174428224563599,3.172537564459443,0.005975276231765747
1746738892937003800,0.559003662109375,0.18410007765571612,0.002677852986380458,0.08804514391794363,-0.00023960648104548454,0.0005075397053871865,0.9822991633514389,0.03184193592481918,right,0.0017064878484234214,-0.33072629574685103,1.6979346749916673,-9.118457892480492,-0.16533630197863958,-0.0212258193641901,0.001030783518217504,3.1845135411962864,0.00736203184351325
1746738892977004000,0.599004150390625,0.18424816421771037,0.003274435643106699,0.08806432956614026,0.002061244333162904,0.0005195357889324714,0.9821198176390509,0.03209279466103502,right,0.0005645155906677246,-0.33284653326331415,1.698044126715511,-9.111548259222507,-0.1663881291316702,-0.008139117620885372,0.00041425228118896484,3.204171889129281,0.004173576831817627
1746738893017004000,0.639004150390625,0.1843969724865707,0.00387101829983294,0.08808343074758451,0.004362095147371292,0.0005315164193967658,0.9819394431069894,0.03234415294330746,right,-0.0005816817283630371,-0.3349668465571124,1.698150509699434,-9.104596540388464,-0.16743980350709478,0.004947584122419357,-0.00020197033882141113,3.2238167930588126,0.0009864568710327148
1746738893057004000,0.679004150390625,0.18452395160091506,0.0026651278603821993,0.08813506522601175,0.0028452733531594276,0.0005492717608594749,0.981913456164411,0.032425614629453,right,-0.0006568431854248047,-0.33521514917517503,1.6991596867419778,-9.103593500825761,-0.1675652622445045,0.005407024174928665,0.00018858909606933594,3.2261163021728394,0.0009890496730804443
1746738893097004000,0.719004150390625,0.18465089537100493,0.0014592373045161366,0.08818668507056564,0.0013284514425322413,0.0005669933859323248,0.9818872936153703,0.03250704200619279,right,-0.0007319450378417969,-0.33546339367851447,1.700168279262632,-9.10259046126306,-0.16769071817221257,0.005866463761776686,0.0005791932344436646,3.2284152267649766,0.0009916722774505615
1746738893137003800,0.759003662109375,0.18477002631428027,-0.0004053490702062845,0.08827514803936472,0.007536604069173336,0.00044687422838757783,0.9819211598749411,0.03223756342249654,right,-0.0006848573684692383,-0.33498991495758723,1.7015332840055226,-9.103889268901943,-0.16744650927899823,0.017208486795425415,0.0012263357639312744,3.224030435809493,-0.0000165402889251709
1746738893177003800,0.799003662109375,0.1850491933031304,0.01064985804259777,0.08841408579998461,-0.006546187214553356,0.0004901386113134943,0.9819548529150942,0.03231976625794313,right,-0.002524435520172119,-0.33442939450937287,1.7044069397456942,-9.105188661062718,-0.16717515067662864,0.040089625865221024,0.0006291866302490234,3.218838712385297,-0.0012840032577514648
1746738893217004000,0.839004150390625,0.1849280527414936,0.017372174188494682,0.08835445809751787,-0.01576196774840355,0.000691270831476714,0.9820723388495732,0.03257810779347883,right,-0.0008308291435241699,-0.33306026380821463,1.704112632974237,-9.109718705707788,-0.16651461732359082,0.053917549550533295,0.0002069920301437378,3.206152833813429,-0.00042301416397094727
1746738893257004000,0.879004150390625,0.1843251976214646,0.02037310041487217,0.08805176705776223,-0.0255526565015316,0.0011054072138201932,0.9822882192545273,0.03309776869227115,right,-0.0006873011589050293,-0.3307331084970371,1.6999834242150187,-9.118053987854719,-0.16539501985414257,0.05693657323718071,0.0002699345350265503,3.1845766695603728,-0.0006213486194610596
1746738893297004000,0.919004150390625,0.18419823416196593,0.02208470180630684,0.08796246699585793,0.0010518957860767841,0.0016224095244374976,0.9824921181765093,0.033895080473265504,right,0.0018988251686096191,-0.32827466423681584,1.7002546423718332,-9.12593918814659,-0.16422306221675323,0.04037259519100189,0.0018234699964523315,3.1617645337715743,0.00315740704536438
1746738893337004000,0.959004150390625,0.1841326826535993,0.015353335067629814,0.08793019419996662,-0.00007910572458058596,0.001710137927713014,0.982541490779086,0.03400766833290958,right,0.001031041145324707,-0.3276960416293089,1.6999910229995845,-9.127847652116417,-0.16394385206338716,0.0341058149933815,0.0018057376146316528,3.1563927776053546,0.0020947158336639404
1746738893377004000,0.999004150390625,0.1840670804689803,0.00862196832895279,0.08789790846774095,-0.0012101073516532779,0.0017978843599359235,0.9825907992267767,0.034120319047426406,right,0.00016289949417114258,-0.32711751889535684,1.6997262345835566,-9.129752608954906,-0.16366466977291413,0.027839036658406258,0.001788124442100525,3.15102072917819,0.0010320842266082764
1746738893417003800,1.039003662109375,0.18400718130546553,-0.006469340994954109,0.08789106771451753,-0.00820293091237545,0.001728452951933069,0.9826283466801776,0.03392788250801912,right,-0.002191305160522461,-0.326684689764091,1.699428712941706,-9.131194624456763,-0.16344361613874017,0.013078437186777592,0.0004774332046508789,3.1470009721428154,-0.0024392306804656982
1746738893457004000,1.079004150390625,0.18356715115867217,0.021842433139681816,0.0876456334637856,-0.008020713925361633,0.001947420498636284,0.9826514289231073,0.034295527021182375,right,-0.002550780773162842,-0.32663373612868896,1.6954397894360125,-9.132098879820107,-0.1634343199517893,-0.007887174375355244,-0.0020054876804351807,3.146527801673114,-0.006945013999938965
1746738893497004000,1.119004150390625,0.183565245483956,0.02586566098034382,0.0875749809489189,-0.0032983869314193726,0.0023955538802604426,0.9826666239243268,0.03518820950703011,right,-0.0016251206398010254,-0.32643257283439947,1.6955378429830072,-9.132724318242072,-0.16337464292586634,-0.0018067643977701664,-0.0016911327838897705,3.144659085191786,-0.004778265953063965
1746738893537004000,1.159004150390625,0.1834773659641475,0.007813412696123123,0.08747826539966264,-0.002576896920800209,0.0028060830033777434,0.9827145908283936,0.03595565912907231,right,-0.0019999146461486816,-0.3258692648029103,1.6950582427725196,-9.134613492989539,-0.16313147788620086,0.0004855275619775057,-0.0005754530429840088,3.139426152974367,-0.0006110668182373047
1746738893576995800,1.198995849609375,0.18323938822778796,-0.011401026509702206,0.0873740817275274,0.006207043305039406,0.0028019941721747917,0.9827544623928536,0.0358728678135482,right,-0.0006564340437762439,-0.32550035564884466,1.6930952721364796,-9.136154877212643,-0.1629463736123348,-0.005102816969156265,0.0002841287641786039,3.135998516613245,-0.0006648604176007211
1746738893616996000,1.23899609375,0.18345367917941097,-0.0031572971493005753,0.08749242548204256,0.005559257231652737,0.002712728611792973,0.9827490841274926,0.03572221592966878,right,-0.0021292567253112793,-0.3254527405886097,1.695080308473855,-9.13593860411346,-0.16291670205988776,0.00020002014935016632,-0.000287666916847229,3.135556325803697,-0.0027208328247070312
1746738893656996000,1.27899609375,0.18366797189922268,0.0050864312797784805,0.08761076191962199,0.0049114711582660675,0.002623477685283121,0.9827437030524324,0.035571584948376075,right,-0.0036020874977111816,-0.32540516501772554,1.6970651986807583,-9.135721746492385,-0.16288702910259098,0.005502856336534023,-0.0008594393730163574,3.135114134994149,-0.00477677583694458
1746738893696996000,1.31899609375,0.18384562290579154,0.0043442584574222565,0.08768629519446121,0.0031933682039380074,0.0027224532222053636,0.9827591128990744,0.035774500987827355,right,-0.0030355453491210938,-0.32511116329149314,1.6988566121421753,-9.136326142126322,-0.16275177066939445,-0.0018732799217104912,0.00034837424755096436,3.132382079681754,-0.001330941915512085
1746738893736995800,1.358995849609375,0.18380409587725013,0.001024787314236164,0.08765017011563024,-0.006390425376594067,0.002848933882293787,0.9827761608102349,0.03600652046325725,right,-0.0026779770851135254,-0.32491660904890546,1.698588608855754,-9.136995419690013,-0.162666327837426,-0.004407390020787716,0.00026103854179382324,3.130574153476953,-0.0027803778648376465
1746738893776995800,1.398995849609375,0.18352008535284534,0.008774920366704464,0.08748835269089568,-0.005209262482821941,0.003013030852147135,0.9827918736541036,0.03628915452674888,right,-0.0006113052368164062,-0.3248713846915524,1.6960193428896366,-9.137616766458748,-0.16265606157734605,-0.006329411640763283,0.0008376836776733398,3.1301538822382686,-0.0019073188304901123
1746738893816995800,1.438995849609375,0.18362198820127065,0.014722133055329323,0.08749064779432073,-0.0035406514070928097,0.003257064474459468,0.9827667474802496,0.03682627524779075,right,-0.0011395812034606934,-0.32512006065808374,1.696808301310241,-9.136678608825802,-0.1628018475936549,-0.013216352090239525,0.000634804368019104,3.1324647895291444,-0.0014724135398864746
1746738893856996000,1.47899609375,0.18363808775287785,0.009165785275399685,0.08742610779093984,-0.010682307183742523,0.00365560754198089,0.9827443050844309,0.03766418953655599,right,-0.0007463693618774414,-0.3253742292831146,1.6968099087454378,-9.135867876964808,-0.1629633423273819,-0.006020368076860905,-0.0002260953187942505,3.1348265502244232,0.0004782676696777344
1746738893896641500,1.5186416015625,0.18341545520589622,-0.0012232514563947916,0.08728717836706025,-0.004366979468613863,0.003814219510812211,0.9827330307247043,0.037974302322018656,right,0.00472787581384182,-0.3256291925757642,1.694630080488324,-9.135459296163916,-0.163101693089411,-0.01304484624415636,-0.0008653797558508813,3.137195617443323,0.002134211827069521
1746738893936641500,1.5586416015625,0.1833274557463242,-0.003407213371247053,0.0872579915791456,-0.0016792621463537216,0.0036679192102085575,0.9827000021508846,0.037706359444093146,right,0.002448856830596924,-0.32609661287579994,1.6935586518645285,-9.13416516470015,-0.16331938000797852,-0.014279607683420181,-0.0007510185241699219,3.1415383228227496,0.001785576343536377
1746738893976641500,1.5986416015625,0.18323928455476146,-0.005591175518929958,0.08722878565012203,0.001008454943075776,0.003521622304680238,0.9826669122318785,0.037438332400155365,right,0.0001696944236755371,-0.3265639978964244,1.6924856158055364,-9.132869864192605,-0.1635370480781245,-0.015514370054006577,-0.0006365031003952026,3.1458798591583967,0.0014370083808898926
1746738894016641500,1.6386416015625,0.1832058983624729,0.00004284363240003586,0.08720502567036087,-0.0009933887049555779,0.003458984321053782,0.982608655821927,0.037376232995888346,right,-0.00038629770278930664,-0.3273115036262176,1.691751748573035,-9.130611856132745,-0.16390131955410345,-0.01740157976746559,-0.0000168532133102417,3.152822225642204,0.000022172927856445312
1746738894056641500,1.6786416015625,0.1831414674141595,0.005185290705412626,0.0871533716412029,-0.007769896183162928,0.0034980531424667607,0.9825640709892307,0.03750076200298926,right,-0.0019716620445251465,-0.3278990529422925,1.6908258658997715,-9.128898037952185,-0.16419512660684463,-0.01079777255654335,-0.0008483082056045532,3.158277568438649,-0.001522451639175415
1746738894096641500,1.7186416015625,0.18283323243059735,0.015378467738628387,0.08695242628554375,-0.013027273118495941,0.0037719707685978246,0.9825504440031052,0.03803752779096831,right,-0.0008625984191894531,-0.32822318000565703,1.6878256611704825,-9.128411715739965,-0.16437707438001867,-0.006996009964495897,0.00010661780834197998,3.1612866871267555,-0.000799328088760376
1746738894136641500,1.7586416015625,0.18283101676577854,0.016459055244922638,0.0868599488899955,-0.0037020689342170954,0.00426960832571811,0.9825219031734493,0.039081271300740156,right,-0.002148747444152832,-0.3285515655906918,1.6876165484644472,-9.127394063130021,-0.16458367164809318,-0.016028573736548424,-0.0016915351152420044,3.1643349687814712,0.0013132095336914062
1746738894176641500,1.7986416015625,0.18277939911190005,0.013501608744263649,0.08679593899432697,-0.0026766802184283733,0.004511917484377798,0.9825271512987012,0.039561170275828575,right,-0.0021010637283325195,-0.32850215840464225,1.687173919263482,-9.127634886148572,-0.16458012160458316,-0.0012034978717565536,-0.001288682222366333,3.163876411359012,0.000409543514251709
1746738894216641500,1.8386416015625,0.18264685066045214,0.0021499237045645714,0.08670209430256527,-0.005185406655073166,0.004722695914975542,0.9825472538492305,0.03995003672301071,right,-0.0014737844467163086,-0.32831258919231265,1.6860729722842573,-9.128447956097126,-0.16450361024952256,-0.001860284712165594,-0.0005866736173629761,3.1621167082101103,0.0011566877365112305
1746738894256641500,1.8786416015625,0.18256694599881462,0.0005523358704522252,0.08665981951624638,-0.0023526852019131184,0.0047382692817965096,0.9825457811005542,0.03997408728750828,right,0.00014454126358032227,-0.32837299571690903,1.6853088560439646,-9.128394764605163,-0.16453412480914584,-0.001280446071177721,0.00004406273365020752,3.16267726470232,-0.00015038251876831055
1746738894296641500,1.9186416015625,0.18248705011908273,-0.0010452517308294773,0.08661754642746508,0.0004800360184162855,0.00475384264861765,0.9825443083518776,0.03999814054835154,right,0.0017628669738769531,-0.32843346973797594,1.6845447398036717,-9.128340988591313,-0.1645646700413624,-0.0007006073137745261,0.0006747841835021973,3.1632386979773637,-0.0014575421810150146
1746738894336641500,1.9586416015625,0.18285796798353718,0.0010414088610559702,0.08680399158065008,0.005247987806797028,0.004722446670889504,0.9825412930634347,0.039980936548537196,right,5.960464477539063e-8,-0.3282710665696448,1.6880239602215588,-9.128220577082038,-0.16448507425753686,0.0020919886883348227,1.4901161193847656e-8,3.161731216023862,2.9802322387695312e-8
1746738894376641500,1.9986416015625,0.18302735898447625,-0.002017183927819133,0.08688368869982696,0.005274906754493713,0.004726144827158449,0.9825320252576597,0.04001897311612341,right,-0.001576840877532959,-0.3282936957707972,1.6895571611382065,-9.127864603251219,-0.16449823664125734,-0.0016285746823996305,-0.0003063082695007324,3.1619413516432044,0.000625312328338623
1746738894416641500,2.0386416015625,0.18302738238935545,-0.006178390234708786,0.08689337307004827,-0.0007443916983902454,0.004636621482012418,0.9825153468327371,0.03985689309791279,right,-0.0009306073188781738,-0.32850566277430815,1.689435288324207,-9.127205262559652,-0.16459526318444367,-0.005340453702956438,-0.0011165142059326172,3.1639088523238894,-0.0007890760898590088
1746738894456641500,2.0786416015625,0.18291864436323027,-0.0026167065370827913,0.08684467432850095,-0.0016738586127758026,0.004581853112660503,0.9825011601560881,0.039749773940700964,right,-0.001147627830505371,-0.3287434143002495,1.6883059920333325,-9.12664879772067,-0.1647070872800151,-0.005347393918782473,-0.00016005337238311768,3.1661157147184014,-0.0010960102081298828
1746738894496641500,2.1186416015625,0.182882468753554,0.008097143843770027,0.0868080188373471,-0.0028567176777869463,0.004686096968636467,0.9824961973121095,0.03996310478508552,right,-0.0019504427909851074,-0.3288191973603745,1.6879321902848778,-9.126474025675654,-0.16475345956850349,0.0011447471333667636,0.0004031062126159668,3.166818894551694,-0.0006800293922424316
1746738894536641500,2.1586416015625,0.1827464489836356,0.004695729818195105,0.08672732578948787,-0.011111925356090069,0.004794880597682937,0.9825096633145586,0.040152328857756575,right,-0.0010192394256591797,-0.32872009653026196,1.6867478028059004,-9.127011785814165,-0.16471268775261536,0.0018023457378149033,0.0016315579414367676,3.1658991493582724,-0.00008320808410644531
1746738894576641500,2.1986416015625,0.18254567898121743,0.0070748766884207726,0.08661530754527717,-0.01128085795789957,0.004895174592818543,0.9825200859373917,0.0403203558002377,right,0.0006988048553466797,-0.3286940445562732,1.6849303781203924,-9.12743147253096,-0.16470668742797315,-0.00036297598853707314,0.000884324312210083,3.1656574495568868,-0.0019478201866149902
1746738894616641500,2.2386416015625,0.1823448959746464,0.009454023092985153,0.08650328930106577,-0.011449789628386497,0.004995442715285623,0.9825304528344364,0.040488334447560295,right,0.0024169087409973145,-0.3286680253649931,1.6831126611739395,-9.127850574725866,-0.16470068710333025,-0.0025282977148890495,0.00013712048530578613,3.1654160420164463,-0.0038124918937683105
1746738894656641500,2.2786416015625,0.18153878435536275,0.0003072901163250208,0.08607376560529885,-0.0031113242730498314,0.005304617533654728,0.9825868942435813,0.04095564422894956,right,-0.000745236873626709,-0.32838309276773536,1.6759167583204806,-9.130091047129035,-0.1645788893960138,-0.004495525732636452,0.0005040019750595093,3.1627710804656144,0.003642529249191284
1746738894696641500,2.3186416015625,0.18146769037382232,-0.009597023949027061,0.08604792360440612,0.0003213901072740555,0.005241701255538406,0.9825825869505027,0.040824765030645936,right,0.0002301335334777832,-0.3284794813676962,1.6752125555738806,-9.129910429865122,-0.1646203884863003,-0.0021038404665887356,-0.00004445016384124756,3.1636659834787246,0.0015704333782196045
1746738894736641500,2.3586416015625,0.18132496505924037,-0.009708777070045471,0.08602731778416008,0.0001446004753233865,0.004925945637400288,0.9825731111373452,0.040178306466024084,right,-0.0018026232719421387,-0.328693383645521,1.6737874912068247,-9.129483728885651,-0.16469724535040242,-0.00783471018075943,-0.0022539496421813965,3.165651312077045,0.001073002815246582
1746738894776641500,2.3986416015625,0.18124304256290155,0.012818615883588791,0.08598377465986727,-0.0003404818708077073,0.004866880186878392,0.982530616696744,0.040098298805261716,right,-0.0019639134407043457,-0.3292662788365064,1.6727124093212187,-9.127835377156734,-0.16497488724212425,-0.012805618345737457,-0.0009598731994628906,3.1709681231856344,-0.002726435661315918
1746738894816641500,2.4386416015625,0.18152521886923273,0.019305016845464706,0.08607115151150825,-0.00011049251770600677,0.005098140433256502,0.982489856392754,0.040648276226248045,right,-0.002377629280090332,-0.3296037743163284,1.6750946282826362,-9.126309775024652,-0.16516494303599874,-0.01839645951986313,-0.0013998448848724365,3.174099991470575,-0.0017540454864501953
1746738894856641500,2.4786416015625,0.1818632039900913,0.01176524069160223,0.08610891536556645,-0.005056655965745449,0.005756330645760661,0.9824306715770312,0.04209265697910187,right,-0.0035704374313354492,-0.3301076927855315,1.677889665828645,-9.12416867134273,-0.1654754175710222,-0.0022935867309570312,-0.0014510750770568848,3.1787752898052335,0.003118366003036499
1746738894896641500,2.5186416015625,0.18167155873115762,0.0025763651356101036,0.08600102938630905,-0.008259041234850883,0.005845066694631677,0.9824338451616368,0.04224644266694531,right,-0.003127872943878174,-0.330165012708353,1.6761080431088804,-9.124311294683814,-0.16550961578659884,-0.005842925049364567,-0.0020855218172073364,3.179306912463903,0.004561960697174072
1746738894936641500,2.5586416015625,0.18140012839746597,0.004151919856667519,0.08586705429390189,0.0002569099888205528,0.00588621912663106,0.9824533772949686,0.04227524763191874,right,-0.0006501078605651855,-0.33006715771979467,1.6736875379636882,-9.125071757662296,-0.16546201266085656,0.010317168198525906,-0.002387210726737976,3.17839914996922,-0.0017503201961517334
1746738894976641500,2.5986416015625,0.18142944728224875,0.010311635211110115,0.08588041108482584,0.0017533571226522326,0.005971497119060565,0.9824949660817103,0.04240325640267489,right,-0.00014251470565795898,-0.3295322443667546,1.6742615384593604,-9.126693805906177,-0.16520499177485673,0.017965063452720642,-0.00193844735622406,3.173436266864836,-0.0010385215282440186
1746738895016641500,2.6386416015625,0.18180262749471018,0.0041755689308047295,0.08605256646967469,0.009003407321870327,0.00613642890487036,0.9825460849370384,0.042721761552890966,right,-0.001965641975402832,-0.32868732289523206,1.6781515316352247,-9.12870222311914,-0.16480499862637768,0.011284961365163326,-0.00038729608058929443,3.1655949057146904,0.0004162788391113281
1746738895056641500,2.6786416015625,0.18184465900205024,-0.00047791143879294395,0.08608520118394633,0.0020420807413756847,0.006113561072743991,0.9825718396095933,0.042650092919443904,right,-0.0010624527931213379,-0.3283475452328091,1.6787296237841247,-9.12968889606893,-0.16463522346986856,0.011214216239750385,-0.0005377233028411865,3.1624411178588865,-0.0005911886692047119
1746738895096641500,2.7186416015625,0.18174323783885182,0.0010147240245714784,0.08605514935892943,0.00011829042341560125,0.006066784887702603,0.9826097106534004,0.04249898995529148,right,-0.0006919503211975098,-0.3279364186669965,1.6780385727800429,-9.131137341311574,-0.1644265557163696,0.004212172701954842,-0.0027047842741012573,3.158624482180178,-0.001902073621749878
1746738895135649300,2.757649169921875,0.18190693434719318,0.010768619365990162,0.08611585479749775,0.005598144605755806,0.0061937276292843,0.9826134386972324,0.04277089716797588,right,-0.0013128680875524879,-0.32778993829736613,1.679616928012669,-9.131316789531708,-0.1643668661289094,-0.0022990170400589705,0.0005682575283572078,3.157264592003822,-0.0013297208352014422
1746738895175649300,2.797649169921875,0.18198629339607347,0.006960687227547169,0.08612704607372226,0.003389360150322318,0.006368036583430048,0.9826165088152482,0.043129953762982565,right,-0.000278472900390625,-0.32769491261186334,1.6803958034306763,-9.13147870209515,-0.16433592180937373,-0.00037168897688388824,0.0005401819944381714,3.1563822562113404,-0.0023629963397979736
1746738895215649000,2.83764892578125,0.18206561414573186,0.0031527550891041756,0.08613823284271004,0.0011805756948888302,0.006542345537575772,0.9826195789332642,0.043488988703163076,right,0.0007559061050415039,-0.32759984812526993,1.6811745327182113,-9.131640614658593,-0.16430496145111662,0.0015556388534605503,0.0005121529102325439,3.1554996281579135,-0.00339624285697937
1746738895255649000,2.87764892578125,0.18188583645723938,0.004060774575918913,0.08604097267583166,-0.005024178884923458,0.006620375326212995,0.9826320306241558,0.04361172259883115,right,-0.002369523048400879,-0.3275362894806747,1.6795691433481872,-9.132139796352385,-0.16427844291335297,-0.0010921771172434092,-0.0009514987468719482,3.154909553310275,-0.0018579959869384766
1746738895295649000,2.91764892578125,0.1812488313992499,0.0020999431144446135,0.08572561363422344,-0.003893866902217269,0.006685676924543896,0.9826586399386502,0.04363891813048662,right,0.001149594783782959,-0.3275445497984451,1.6737468669354916,-9.133181998881698,-0.16428154620135194,-0.003975557163357735,0.0011313408613204956,3.1549861256778238,-0.0014923512935638428
1746738895335649300,2.957649169921875,0.1810005184939865,0.004393245559185743,0.08557997716211288,-0.006660112179815769,0.00679877685328067,0.982643297583902,0.04385724252549741,right,0.00003451108932495117,-0.32785879318419986,1.6713003505662083,-9.132622026911378,-0.16444435835897417,-0.005426208488643169,0.000033974647521972656,3.1579037666901946,-0.00004476308822631836
1746738895375649300,2.997649169921875,0.18082898158693417,0.0012566389050334692,0.08549175458912107,-0.0050783343613147736,0.006835666968588344,0.9826501134664003,0.04390407941416258,right,0.000006139278411865234,-0.3278636921365667,1.6697309092923998,-9.132893245068193,-0.16444817677014376,-0.0014202473685145378,0.000516936182975769,3.15794935939759,0.00020381808280944824
1746738895415649300,3.037649169921875,0.18062461883203915,0.002404913306236267,0.08538554149908276,-0.005304144695401192,0.006871801393060598,0.98265070164084,0.04395276765629092,right,-0.001834869384765625,-0.32796292054900356,1.6678081245362757,-9.132925978294015,-0.16449827919366458,-0.008799995295703411,0.00018136203289031982,3.158870565895736,-0.00002491474151611328
1746738895455649000,3.07764892578125,0.18048998978432174,0.007041734643280506,0.08529844581658007,-0.0057629807852208614,0.006983715974742852,0.9826431735396164,0.04417274360606287,right,-0.0013061761856079102,-0.3281194973205099,1.6664898815445601,-9.132663527965546,-0.16458406788638705,-0.007323978468775749,0.00022746622562408447,3.1603242718353868,-0.0003120601177215576
1746738895495649000,3.11764892578125,0.18035539142080337,0.011678555980324745,0.08521136026071148,-0.006221816875040531,0.007095608078831501,0.9826355283674182,0.04439266394646533,right,-0.0007774233818054199,-0.3282760565964976,1.665171784683317,-9.132401077637075,-0.1646698433500856,-0.005847961641848087,0.0002735555171966553,3.161777393253147,-0.0005991458892822266
1746738895535649000,3.15764892578125,0.18020799099222126,0.013127394951879978,0.08506310222381194,-0.014020804315805435,0.007588908494404675,0.9826529154183076,0.0453547793223648,right,-0.001924753189086914,-0.32809304075714063,1.663929383406788,-9.133215316629409,-0.1646204082992354,0.008935077115893364,-0.0015582144260406494,3.1600784803807733,0.0003024637699127197
1746738895575649300,3.197649169921875,0.1793433969755765,-0.00024532878887839615,0.08464442943409976,-0.011933833360671997,0.007856756176190275,0.9828080888605562,0.04561540985846677,right,-0.0010636448860168457,-0.32660175710998296,1.6568709893278777,-9.13927739314735,-0.16389585455303796,0.016348356381058693,-0.0010613054037094116,3.1462305722922084,0.000359952449798584
1746738895615649300,3.237649169921875,0.17927856586298574,0.002238928573206067,0.08462418005790999,-0.006583489943295717,0.007883655089360392,0.982857305507709,0.0456048892218094,right,-0.0019341111183166504,-0.32602006908502756,1.656604593476653,-9.141184103551506,-0.16360949990666296,0.013819649815559387,-0.0011420994997024536,3.1408272519439455,-0.0010322034358978271
1746738895655649300,3.277649169921875,0.17924932058308984,0.0017338583711534739,0.08461750941194042,-0.002267652191221714,0.007908454104399899,0.9828934514136133,0.04560951636047684,right,-0.0016140937805175781,-0.32558231727543374,1.6565822355143724,-9.142584617999196,-0.16339459378552373,0.005972534418106079,-0.0014887750148773193,3.1367601486355063,-0.0009402930736541748
1746738895695649000,3.31764892578125,0.17921354547427407,0.0016286701429635286,0.08459940372002424,-0.0029790550470352173,0.00794188043705444,0.9829087010886637,0.04565528003001046,right,-0.0014411211013793945,-0.32540806865903277,1.6563525184117256,-9.143181414848566,-0.16331080504474832,0.00009711878374218941,-0.0008532851934432983,3.135141023001075,-0.0013692677021026611
1746738895735649000,3.35764892578125,0.1791298917805907,0.0052384380251169205,0.0845472012975113,-0.0006917000282555819,0.008029808458893156,0.9829188881614246,0.04581175898779279,right,-0.0010042786598205566,-0.3253168188900477,1.655638671053946,-9.14360168608725,-0.163272271500844,0.000996455317363143,-0.0007194578647613525,3.134293174000084,-0.0012014806270599365
1746738895775649000,3.39764892578125,0.179168703776113,0.003957398235797882,0.08454733920162558,-0.0016132956370711327,0.008152571885171902,0.9829222654593058,0.04606091809599533,right,-0.001639723777770996,-0.3252411338804724,1.6560357075475156,-9.14377061291337,-0.16324579016414395,0.0010587178403511643,-0.0007814019918441772,3.1335899941667913,0.000428617000579834
1746738895815649300,3.437649169921875,0.17905122135898738,-0.0009251860901713371,0.08447917426742879,-0.006387787871062756,0.008241800330786147,0.982935116131317,0.04621297345555964,right,-0.001094222068786621,-0.32513432586471314,1.655021123677492,-9.144294344526529,-0.16319927566264592,0.002948462963104248,-0.0006867498159408569,3.1325974759981032,-0.00038510560989379883
1746738895855649300,3.477649169921875,0.17885832969071552,0.0036000139079988003,0.08438270161112214,-0.007525005843490362,0.00830661877297177,0.9829626072248401,0.046289750946647897,right,-0.0015562772750854492,-0.3248872791074798,1.6533948376499115,-9.145375125500559,-0.16308038134063,0.0034680012613534927,-0.0030760914087295532,3.1303014740154147,-0.0018765628337860107
1746738895895649300,3.517649169921875,0.17844178874381536,0.001175090903416276,0.08417648375037902,-0.008421136066317558,0.008400954198530198,0.9830056130408263,0.04638225983864622,right,0.0008819699287414551,-0.3245620143834048,1.6497659796282649,-9.147064393761754,-0.1629227845577305,0.010800186544656754,-0.0012765973806381226,3.1272783268019557,-0.0023684799671173096
1746738895935649300,3.557649169921875,0.1782709910261859,-0.00045408913865685463,0.0841019830697387,0.0008849361911416054,0.008418690556844926,0.9830435398283586,0.0463541416750909,right,0.0003725290298461914,-0.3241766073343487,1.648417195367813,-9.148531543704866,-0.16273157455615275,0.006292709149420261,-0.0013734996318817139,3.1236960844010113,-0.0006029605865478516
1746738895975649000,3.59764892578125,0.17840100611400017,-0.004318986088037491,0.08418162670913512,0.006841408554464579,0.008348463891879354,0.9830564770887179,0.046211864318576,right,0.0001500844955444336,-0.3239520748105191,1.649731054445356,-9.149007344523072,-0.16261584437978102,0.0010834094136953354,-0.001904994249343872,3.1216087567329405,-0.00001874566078186035
1746738896015649000,3.63764892578125,0.1787123624070086,-0.008442971855401993,0.08435762915679663,0.01149492897093296,0.008175048190068798,0.9830398829318095,0.04591605792637909,right,-0.0003184080123901367,-0.3240110300095732,1.6525468425184486,-9.148311763474345,-0.16263362893355374,-0.0021901142317801714,-0.001503080129623413,3.1221567460045216,0.00009986758232116699
1746738896055649300,3.677649169921875,0.17906083674241374,-0.004962718114256859,0.08454713664326453,0.01231530774384737,0.007999183368318105,0.9830073718039061,0.045638122694951634,right,-0.0016612410545349121,-0.3242486732321664,1.6556025768272578,-9.147005357050896,-0.1627400392504082,-0.0053434548899531364,-0.0001863539218902588,3.1243659464865923,0.00018599629402160645
1746738896095649300,3.717649169921875,0.17953011060857288,0.0035133613273501396,0.08476979256339941,0.010963610373437405,0.007951509973906553,0.9829583808642407,0.045653166352572175,right,-0.0018485188484191895,-0.32461523271488885,1.659690138401836,-9.145099815690516,-0.16292258104208257,-0.005883186589926481,-0.0009013563394546509,3.127773124581575,-0.0007517635822296143
1746738896135649300,3.757649169921875,0.17984714571590563,0.009091060608625412,0.08491212099619455,0.00736797833815217,0.008025084159692162,0.9829532372545601,0.04584469055038883,right,-0.0019422173500061035,-0.3245009892193608,1.6626533721216021,-9.144924459123612,-0.1628758621929571,0.009266102686524391,-0.0007373243570327759,3.1267113405689595,-0.0009596347808837891
1746738896175649300,3.797649169921875,0.17997761873651627,0.004139981232583523,0.08497548776485733,0.0036192908883094788,0.008090139432844399,0.9829829892232708,0.04595639969724446,right,-0.0016341209411621094,-0.32405105604237566,1.664098164102435,-9.146090580293535,-0.1626601403014874,0.012259634211659431,-0.0003303438425064087,3.122528794187307,-0.00047275424003601074
1746738896215649000,3.83764892578125,0.18000076336048354,-0.0045024678111076355,0.08500646355567114,0.008870789781212807,0.008054882677438858,0.9830251427268974,0.04583790522765189,right,0.00005179643630981445,-0.32351262479153087,1.6646106436692176,-9.14770502975285,-0.1623907371661317,0.015090428292751312,0.00015439093112945557,3.1175229487240315,-0.0008654296398162842
1746738896255649000,3.87764892578125,0.18016517733668275,-0.013793233782052994,0.0851383774615283,0.012615657411515713,0.007814805579609063,0.9830617086098917,0.04532727634386936,right,-0.001441657543182373,-0.3229876902307051,1.6664076100885867,-9.149040077748895,-0.16211182409481756,0.014497466385364532,-0.00010381639003753662,3.1126418986842035,-0.0013751983642578125
1746738896295649000,3.91764892578125,0.18051108777901761,-0.01589995063841343,0.08537710623375605,0.017081353813409805,0.007426783093340294,0.9830784894563467,0.04456082638261952,right,-0.0013172030448913574,-0.3226256721992964,1.6697744561731815,-9.14957082362473,-0.16190264174117572,0.0071794576942920685,-0.0004051327705383301,3.109275052599609,-0.0024749338626861572
1746738896335649300,3.957649169921875,0.18097046304933773,-0.012066882103681564,0.08565532425272344,0.014320903457701206,0.007086710776034213,0.9830688876686698,0.04393530295180168,right,-0.0020251870155334473,-0.3225268578952474,1.6740326981395481,-9.149104959678649,-0.1618290283769972,0.0037384070456027985,-0.00004932284355163574,3.1083558919280767,-0.0027933120727539062
1746738896375649300,3.997649169921875,0.18140890213982963,-0.005117228254675865,0.08589945332487042,0.014541023410856724,0.006885271911354056,0.98305530691116,0.04359284616830218,right,-0.001238703727722168,-0.3224759611329937,1.6780723289191721,-9.14852569848597,-0.1617908697301676,-0.0007216576486825943,0.00044114887714385986,3.1078824291974305,-0.0023174285888671875
1746738896415649300,4.037649169921875,0.18194166956450944,0.001302290242165327,0.08616455761037475,0.009780490770936012,0.006816652873642187,0.9830295166241951,0.0435444994496482,right,-0.0020629167556762695,-0.32251366840359297,1.6829248835168777,-9.147515060138701,-0.16180914701011373,-0.0028611719608306885,-0.0002824366092681885,3.1082331423312426,-0.0013413429260253906
1746738896455649000,4.07764892578125,0.18230907425113874,0.0041694967076182365,0.08633595174254612,0.008498800918459892,0.006833503955196603,0.9830086194595038,0.043644891027596576,right,-0.00013077259063720703,-0.3225729639021245,1.6862522743739188,-9.14671484967172,-0.16184386026023762,-0.0018721683882176876,-0.0003122687339782715,3.1087846387341616,-0.0014760196208953857
1746738896495649000,4.11764892578125,0.18253382662127857,0.004780210088938475,0.08643007892234886,0.00631982646882534,0.006902657779712436,0.9829923072770487,0.04382980872861393,right,-0.0007805228233337402,-0.3226488669703525,1.6882650755010544,-9.146103439775109,-0.16188989710401525,-0.003070333506911993,-0.002094164490699768,3.109490741176903,-0.001575559377670288
1746738896535649000,4.15764892578125,0.18247255392485184,-0.001622629351913929,0.08639965872924212,0.002841872861608863,0.00691478925773999,0.9829975647039031,0.04384117943540175,right,-0.0007123947143554688,-0.3226149580817956,1.6877238082312047,-9.146310945045947,-0.1618735261423901,0.0008968403562903404,-0.0007897019386291504,3.109175391617417,-0.001076042652130127
1746738896575649300,4.197649169921875,0.18257583152354823,-0.007894373498857021,0.08646265768612137,0.006875018589198589,0.006798970368457926,0.9829770130954525,0.043642702318565124,right,-0.0015199780464172363,-0.3228270300897578,1.688548714748025,-9.14548793822527,-0.1619694697643627,-0.0104215694591403,-0.0003239959478378296,3.1111475684732195,0.0007114112377166748
1746738896615649300,4.237649169921875,0.18273511510236157,-0.007566811051219702,0.08655003009292582,0.006879141554236412,0.0066567907330294445,0.9829333610340506,0.04342484098030557,right,-0.0010457038879394531,-0.32330197855627385,1.6897366093583404,-9.143764767694472,-0.16219384678786672,-0.008799988776445389,0.000009834766387939453,3.1155645081326364,-0.00004431605339050293
1746738896655649300,4.277649169921875,0.18284280233793127,-0.0011773868463933468,0.0866082814405358,0.0035475611221045256,0.006551174818009015,0.9828964054428081,0.04326717958359989,right,-0.001617133617401123,-0.323716695312506,1.6904862586818634,-9.142311646276712,-0.16239105609626128,-0.00882288720458746,-0.0006345659494400024,3.119420306777954,0.000050514936447143555
1746738896695649000,4.31764892578125,0.18295934239959075,0.005531950853765011,0.08664961449185593,0.0019053244031965733,0.006602681133834674,0.9828727388563846,0.043412954460988265,right,-0.002280712127685547,-0.3239446358200586,1.6914222243577242,-9.141414989697934,-0.16250971184240004,-0.004003975074738264,-0.0005873888731002808,3.121539490889013,0.0006382763385772705
1746738896735649000,4.35764892578125,0.1830939262650686,0.009551974013447762,0.08668283467488963,-0.003207077272236347,0.006790720056910079,0.9828655254634692,0.0438178998560625,right,-0.002219080924987793,-0.3239452677489105,1.692652204544097,-9.141185272595285,-0.1625280163462109,0.001306053251028061,-0.0007223188877105713,3.1215453361079093,0.0012685656547546387
1746738896775649000,4.39764892578125,0.183059982641145,0.00974191166460514,0.08664616307457439,-0.0029687604401260614,0.006987130595354332,0.9829024674998684,0.04416776925591111,right,-0.003022491931915283,-0.32348190130469756,1.6926050044015049,-9.142664112976194,-0.16231549812902024,0.009590709581971169,-0.001397252082824707,3.1172374097809192,0.002899378538131714
1746738896815649300,4.437649169921875,0.1828499111131877,0.005527745932340622,0.08653745968595289,-0.008482136763632298,0.007119880162667816,0.9829524821321666,0.04435314253891321,right,-0.003328680992126465,-0.32295653143348435,1.6909819332443177,-9.14462810652554,-0.16206475111007085,0.008692420087754726,-0.00010231137275695801,3.1123519758269187,0.0026848316192626953
1746738896855649300,4.477649169921875,0.18230642963923385,0.0070715309120714664,0.08627296046645852,-0.017892887815833092,0.007240782378783622,0.983022190440931,0.04445352259113838,right,-0.0032941699028015137,-0.32236695922773095,1.6863440443105995,-9.147349055922032,-0.16177755163029922,0.0184878371655941,0.0002445429563522339,3.106868575979769,-0.0008387267589569092
1746738896895649300,4.517649169921875,0.18146346149526682,0.018703559413552284,0.08584969626284245,-0.027212385088205338,0.007541283387837625,0.9831461494913168,0.04481922302895428,right,-0.003251791000366211,-0.3212364560339069,1.6792653380960225,-9.15221636969745,-0.16123484878600508,0.02888239547610283,-0.0010721385478973389,3.0963512736186383,-0.003079831600189209
1746738896935649300,4.557649169921875,0.1805755712778578,0.025969810783863068,0.08537454554843917,-0.027595175430178642,0.00805291638348076,0.9832822530756935,0.04559301046589195,right,-0.0010006427764892578,-0.31994789287596326,1.671853746665269,-9.157620859089493,-0.1606314592918128,0.02131025120615959,-0.0014937818050384521,3.084358638007939,-0.0030610263347625732
1746738896975649000,4.59764892578125,0.1800297363965154,0.018689973279833794,0.08504946874719979,-0.015526102855801582,0.008590313549743964,0.9833732309562351,0.04651086673122485,right,0.0007253885269165039,-0.31903254876039755,1.6673597962468862,-9.161305685082077,-0.16021855581093553,0.011093085631728172,-0.0015049278736114502,3.075836601117253,-0.002102077007293701
1746738897015649000,4.63764892578125,0.17977489168204625,0.002155294641852379,0.0848943363309566,-0.004432985559105873,0.008847742182155305,0.9834082291629246,0.046961406185629766,right,0.0007415413856506348,-0.31869701410155554,1.6652094863452016,-9.162745362496375,-0.16007172333712683,0.00020979903638362885,-0.001505926251411438,3.0727117470949885,-0.001709282398223877
1746738897055649300,4.677649169921875,0.1798425469718648,-0.00636561494320631,0.0849294688799767,0.006760343909263611,0.008806226947481987,0.9833936828480692,0.04690237252970347,right,-0.0011234879493713379,-0.3188502147921859,1.665745054526627,-9.162169608435034,-0.1601447914163401,-0.007463196758180857,-0.0018340200185775757,3.0741385650277135,-0.0021945834159851074
1746738897095649300,4.717649169921875,0.18002313247354562,-0.006771007087081671,0.08502594771083669,0.004564579110592604,0.00866846990193245,0.9833499099705991,0.04669616411589721,right,-0.00302886962890625,-0.3193242740130801,1.6671385547116397,-9.160433578422666,-0.16036974852393163,-0.008813058026134968,-0.0024949312210083008,3.0785528743386266,-0.003948956727981567
1746738897135649300,4.757649169921875,0.18010418160757818,-0.0014283983036875725,0.08506801199258236,0.0002997131086885929,0.008600236031991997,0.9833234387983303,0.04659883883323632,right,-0.0031978487968444824,-0.31962460781698904,1.667715331686288,-9.159388453283906,-0.1605135199736716,-0.004327342379838228,-0.0034144967794418335,3.0813489347979424,-0.003309786319732666
1746738897175649300,4.797649169921875,0.1800768246433877,-0.006357701029628515,0.08505163184549412,-0.00711889797821641,0.008605276173600032,0.9833171300787572,0.04661349518906423,right,-0.004893958568572998,-0.3197189556578097,1.6674125493474303,-9.159148214787244,-0.16056038629653854,0.0011836700141429901,-0.0029641836881637573,3.0822274711981414,-0.001054227352142334
1746738897215649000,4.83764892578125,0.17983785606347355,-0.01134556345641613,0.08496494264648813,-0.0010949037969112396,0.008451059635920207,0.9833363610511427,0.046251825452291756,right,-0.002621769905090332,-0.3196232152971605,1.6652765602320432,-9.159836781573295,-0.16049694743708504,0.0006249370635487139,-0.0022844523191452026,3.0813360753163694,0.00033101439476013184
1746738897255649000,4.87764892578125,0.17966295600748755,-0.011974447406828403,0.08491899608948324,-0.0005042674019932747,0.008216181320815147,0.9833441312205076,0.04574765844968515,right,-0.0011581778526306152,-0.31964553273075863,1.6636622569032014,-9.160060068935156,-0.16048577384685622,-0.004553625360131264,-0.0020085424184799194,3.081543872848153,-0.00028949975967407227
1746738897295649000,4.91764892578125,0.17951168291418831,-0.005297611467540264,0.08487028124837342,-0.0019780579023063183,0.008030060611944034,0.9833318579152183,0.0453686986193155,right,-0.0011805891990661621,-0.3199048058977526,1.6621338782921433,-9.159525231406093,-0.16059645685246682,-0.005978906527161598,-0.001753583550453186,3.0839576559916138,-0.0022156238555908203
1746738897335649300,4.957649169921875,0.1794202562703535,0.006845205090939999,0.08481065313365707,-0.002976510673761368,0.008069576170274277,0.9833066698707331,0.0454683015017412,right,-0.0012447834014892578,-0.3202698135691026,1.6610953290246426,-9.158568953594564,-0.1607796669636909,-0.012204566970467567,-0.0009645074605941772,3.0873551894754168,-0.0019457638263702393
1746738897375649300,4.997649169921875,0.17949209419143952,0.014441557228565216,0.08478583539953627,-0.0011455746134743094,0.008349632419545597,0.9832606072012785,0.04609793024866995,right,-0.0014289021492004395,-0.3207849393944747,1.661469130773097,-9.15688319246471,-0.16105975094864877,-0.019511321559548378,-0.001358717679977417,3.092149730275571,0.0011763274669647217
1746738897415649300,5.037649169921875,0.17959674572874412,0.009551780298352242,0.08477647928068871,-0.0008734746952541173,0.008637518959595705,0.983216682718427,0.046744541962461084,right,-0.00022304058074951172,-0.3212529062957954,1.662168803475052,-9.155284525096416,-0.16131750961265107,-0.006160684861242771,-0.001440286636352539,3.096504418353736,-0.0002402663230895996
1746738897455649000,5.07764892578125,0.17961655872813484,-0.0017983131110668182,0.08477039271139919,-0.0007758504361845553,0.008726096377905392,0.9832119966259761,0.046931641800602227,right,-0.0017790794372558594,-0.3212920416938178,1.662328524081409,-9.155132549405097,-0.16134474547219496,0.0008480604737997055,-0.0013859719038009644,3.096868575491011,0.0028182566165924072
1746738897495649000,5.11764892578125,0.17958019550916157,-0.008680648170411587,0.08477588410279814,0.004320924170315266,0.008577394824274345,0.9832103220011782,0.046628611383703236,right,-0.0011779069900512695,-0.3213498145156865,1.661963636291772,-9.15501681407094,-0.1613601234456249,0.0005247319350019097,-0.0017594397068023682,3.097406043368578,0.00115126371383667
1746738897535649000,5.15764892578125,0.1796372817071876,-0.007163785398006439,0.08484397717367749,0.007119838614016771,0.008352109184175373,0.9832213486198537,0.04616600229971797,right,-0.0015801787376403809,-0.3212035870600867,1.6625671551428733,-9.155367527204751,-0.1612689109779777,0.008502824231982231,-0.0022880882024765015,3.0960455686703323,-0.0014647841453552246
1746738897575649300,5.197649169921875,0.1797591741467918,-0.00163705600425601,0.08493918887264686,0.003108236938714981,0.008202696997087304,0.9832550125726509,0.045837341334990234,right,-0.0021404623985290527,-0.32072676570826425,1.6639469190634786,-9.156616650483011,-0.16102120306593637,0.010955451056361198,-0.0013812333345413208,3.0916081707447765,-0.002564072608947754
1746738897615649300,5.237649169921875,0.17987314000390084,0.0007760494481772184,0.08501176432810253,0.0019056578166782856,0.008157061904140239,0.9832824680462007,0.04572497322769252,right,-0.002082526683807373,-0.3203196035163084,1.665215477694571,-9.15766411370933,-0.16081686913388754,0.0058767967857420444,-0.00045669078826904297,3.0878187153339383,-0.0015524625778198242
1746738897655649300,5.277649169921875,0.17988759383961817,0.0004202374548185617,0.08502266542165159,-0.0005424225237220526,0.008165705365713207,0.983298166798704,0.045725385691357104,right,-0.0016303658485412598,-0.3201114827064182,1.6654627304539082,-9.158272600996494,-0.16071469099450683,0.0032473807223141193,-0.0013701915740966797,3.085881609791517,-0.0020879805088043213
1746738897695649000,5.31764892578125,0.1798619918406748,0.0018369191093370318,0.08500454206571378,-0.002871455391868949,0.008214170169289381,0.983305127384343,0.04581235748273551,right,-0.0017911791801452637,-0.32003243368414985,1.665272030187398,-9.158554925069213,-0.16067943835518192,-0.0008867462165653706,-0.001620665192604065,3.085145696732402,-0.002693742513656616
1746738897735649000,5.35764892578125,0.17985929221060978,0.005262612830847502,0.08498416475926142,0.0012891844380646944,0.008327020964799385,0.9833023963839861,0.046043762034950225,right,-0.0007480978965759277,-0.32005708471921257,1.6652335978731512,-9.15848478244245,-0.16070136610381103,-0.002644340507686138,-0.0014008283615112305,3.0853751215741037,-0.0023404359817504883
1746738897775649000,5.39764892578125,0.18005353570270421,0.005274009425193071,0.0850514910072305,0.003075989428907633,0.008465554090344963,0.9832837488889383,0.04636803207565381,right,-0.0011157989501953125,-0.320171443160215,1.6669493157498538,-9.157813751313089,-0.16077216381569578,-0.0034245431888848543,-0.0019191205501556396,3.086439535935223,-0.0008292794227600098
1746738897815649300,5.437649169921875,0.18015415215647557,-0.0007242113351821899,0.08508663252087546,0.0017376700416207314,0.008514668411018927,0.98326406177854,0.046502245376770925,right,-0.0012980103492736816,-0.3203614025542156,1.6677657466992735,-9.15706907042563,-0.16087162004185396,-0.004110192880034447,-0.0011658817529678345,3.0882077146515248,0.0002860128879547119
1746738897855649300,5.477649169921875,0.18012192181966202,-0.002684896346181631,0.08507694539224228,0.0018729361472651362,0.008446487220159345,0.9832497191596419,0.046377785907144094,right,0.0003261566162109375,-0.32056877694506264,1.6673558507241308,-9.156492731842398,-0.16096806814269338,-0.004731127060949802,-0.0015657246112823486,3.09013780593127,-0.00279843807220459
1746738897895649300,5.517649169921875,0.17994361418186816,-0.006516789086163044,0.08500720827799398,0.0003106234362348914,0.008330435356177258,0.9832480272172789,0.04612488299080841,right,-0.0005794167518615723,-0.32070020004516425,1.6656503619804977,-9.156390440511704,-0.16102113783764782,-0.0007958491332828999,-0.00038670003414154053,3.091360917985439,-0.001986980438232422
1746738897935649300,5.557649169921875,0.17995961650350054,-0.007618052884936333,0.08503307840492365,0.0022537456825375557,0.008191697832992426,0.9832347892605386,0.045861581800068704,right,-0.001094818115234375,-0.3208735636135852,1.6657009231239557,-9.15583631376028,-0.16109518908199902,-0.002562245586887002,-0.0007903128862380981,3.092974490661919,0.0004649162292480469
1746738897975649000,5.59764892578125,0.17988481012431048,-0.00863378681242466,0.08502065256606242,-0.0013511916622519493,0.008023742204815491,0.9832267970119929,0.045522715269941116,right,-0.0008892416954040527,-0.3210337184563326,1.6649274545334278,-9.155473325666785,-0.16115915631230468,-0.00018941331654787064,-0.000506967306137085,3.0944647292196747,0.0005368292331695557
1746738898015649000,5.63764892578125,0.17963249634002573,-0.004516362212598324,0.08492075258847497,-0.0030947851482778788,0.007870220607020693,0.983225622981114,0.04518487144549245,right,-0.0011513233184814453,-0.3212022576545655,1.662524046653509,-9.155379802164434,-0.16122660010646925,-0.0037159824278205633,-0.0007163286209106445,3.096033001449704,-0.00001800060272216797
1746738898055649300,5.677649169921875,0.1793641074237249,0.00736735574901104,0.08477831178748842,-0.005901657976210117,0.007920758275608362,0.9832191972029584,0.04526450831816103,right,-0.0016682147979736328,-0.32142509300159744,1.6599436747714875,-9.15514657793045,-0.16133839097951094,-0.005394705571234226,-0.0009634494781494141,3.0981065928533673,0.00006285309791564941
1746738898095649300,5.717649169921875,0.1792755415014789,0.013463225215673447,0.08468820686141532,-0.007375903427600861,0.008185689414359648,0.9832078418599821,0.04580423921195536,right,-0.0019185543060302734,-0.32158925202975464,1.6590421958871184,-9.15479294218719,-0.16144155195025547,-0.004851543810218573,-0.0023713409900665283,3.0996339485511184,0.000356823205947876
1746738898135649300,5.757649169921875,0.17904430858319337,0.009926661849021912,0.08454301087009032,-0.004391822032630444,0.008417940535032281,0.9832266135536046,0.04622595898106091,right,-0.0008397102355957031,-0.32145293182068374,1.6570004609264433,-9.15559198361039,-0.1613914606001876,0.004302395042032003,-0.0020465999841690063,3.0983655360504985,-0.0002796351909637451
1746738898175649300,5.797649169921875,0.1787859425852676,-0.0007405821233987808,0.08441351794295722,-0.005278416443616152,0.008486581813461659,0.9832533099703387,0.04630395806379909,right,-0.001957118511199951,-0.32124706841915723,1.6547482980854809,-9.156647045621275,-0.16129253695557935,0.004488346166908741,-0.002515852451324463,3.096450057817995,0.0007526874542236328
1746738898215649000,5.83764892578125,0.1785155696541022,-0.0026923837140202522,0.08429916428723652,-0.0008977716788649559,0.008415726477929484,0.9832757754029585,0.046103385946858644,right,-0.0008022189140319824,-0.3211172623606522,1.652343867292255,-9.157489926186203,-0.16121915866110492,0.0036792594473809004,-0.002787455916404724,3.095242143332958,-0.0012395381927490234
1746738898255649000,5.87764892578125,0.1784680941201536,-0.0004548993892967701,0.08429377753121244,0.00025855377316474915,0.008338729130825109,0.9832928045261192,0.045922081286820286,right,-0.0017850399017333984,-0.3209357834792083,1.6520087901189922,-9.158120625305175,-0.1611221530733645,0.00491273682564497,-0.0020969510078430176,3.0935534595936534,-0.0026845037937164307
1746738898295649000,5.91764892578125,0.17844708668591192,-0.00027345336275175214,0.0842939119510525,0.0018732281168922782,0.008317105296765312,0.9833141325111207,0.045850758036275543,right,-0.001542806625366211,-0.32067919932243655,1.6519573521926998,-9.158936617863178,-0.16099299312282112,0.006143936887383461,-0.0019202381372451782,3.091165687674284,-0.0016765594482421875
1746738898335649300,5.957649169921875,0.17840149789705764,0.0006607861141674221,0.08428432613814418,0.0006167171522974968,0.008289249890955253,0.983339752316465,0.04575900868006037,right,-0.0017437338829040527,-0.3203824712870588,1.6517025006487964,-9.159913938462733,-0.16084313678390136,0.004037556238472462,-0.002360895276069641,3.0884038217455148,-0.0027317404747009277
1746738898375649300,5.997649169921875,0.1784219340022287,0.0017249833326786757,0.0842895084030341,0.0014613706152886152,0.008317075553208458,0.9833384762505716,0.045819115658485864,right,-0.0026516318321228027,-0.32038428688798215,1.6518886708706617,-9.159874775496124,-0.16084665055033456,-0.006988401524722576,-0.0018770098686218262,3.0884207728803155,-0.0021041035652160645
1746738898415649300,6.037649169921875,0.17850817513620676,0.00532930251210928,0.08431095462186952,0.0005973740480840206,0.008387977955103985,0.9833091434340866,0.04600700510746471,right,-0.0025844573974609375,-0.3207016758454105,1.6525044646814464,-9.15876710651517,-0.1610108772299783,-0.011301502585411072,-0.003172576427459717,3.091374654249847,-0.00373077392578125
1746738898455649000,6.07764892578125,0.17866954560256154,0.009028315544128418,0.08435148751707572,0.004257456865161657,0.008553282759051054,0.9832716390896432,0.04640408829834694,right,-0.0007345676422119141,-0.32107075853495587,1.6537794530533254,-9.157377113461495,-0.16120964627829293,-0.01380447018891573,-0.0022496283054351807,3.09480959713459,-0.002433478832244873
1746738898495649000,6.11764892578125,0.17905657890597568,0.0059842015616595745,0.08449747620246205,0.007934080436825752,0.008713130772308777,0.9832144860190254,0.04683897472780609,right,-0.0011109113693237305,-0.3215656562547503,1.657050583678484,-9.155227826473116,-0.16147281720751297,-0.01354476623237133,-0.002299368381500244,3.099414460581541,-0.0008656680583953857
1746738898535649000,6.15764892578125,0.17938468643087055,-0.0005017784424126148,0.08463540577307722,0.005295315757393837,0.008753185564289641,0.9831625500660763,0.047018684607588956,right,-0.002798616886138916,-0.3220388347985839,1.6597925758630037,-9.153239283004403,-0.1617143057768475,-0.009246855974197388,-0.002808809280395508,3.1038164949327705,-0.00046372413635253906
1746738898575649300,6.197649169921875,0.17946702848984525,-0.004831605590879917,0.08467768933995076,0.0022045793011784554,0.008673977815089917,0.9831292639549043,0.046907191634953646,right,-0.0012121200561523438,-0.32242382687851096,1.6603328202195464,-9.151926446840166,-0.16189905698247245,-0.007689494173973799,-0.0032299160957336426,3.1073975682899353,-0.0010867714881896973
1746738898615649300,6.237649169921875,0.1794762353431215,-0.007265564054250717,0.08469078580916894,-0.003737909719347954,0.00857898959828248,0.9831087793167178,0.04674025600073356,right,-0.0024157166481018066,-0.3226882195333277,1.6602704225078224,-9.151102855497598,-0.16202189603426276,-0.00023195846006274223,-0.0022637099027633667,3.1098566518798467,-0.0013704001903533936
1746738898655649300,6.277649169921875,0.17952616529620521,-0.00724502420052886,0.08473669373240833,0.001635038759559393,0.008431492003650858,0.9831010469715948,0.04645655487795972,right,-0.002716362476348877,-0.32277499280320493,1.6606791494391857,-9.150753895929455,-0.1620527116766863,-0.0016430047107860446,-0.0019357651472091675,3.110663876609504,0.0014083385467529297
1746738898695649000,6.31764892578125,0.17960783475274594,-0.009420529007911682,0.08480220671822009,0.0018160021863877773,0.00824763193352477,0.9830874292240934,0.04610977139269174,right,-0.0015737414360046387,-0.3229221336719732,1.6613446276105939,-9.150168204995989,-0.16211062807228574,-0.0013260303530842066,-0.0007044821977615356,3.1120322423532603,0.00025832653045654297
1746738898735649000,6.35764892578125,0.1794976184579191,-0.008711668662726879,0.08478122175592882,-0.0008219927549362183,0.008035215325824826,0.9830838463244918,0.045671362140393246,right,-0.0014113783836364746,-0.3230492143621256,1.66026545407176,-9.14996186876893,-0.1621540156338636,0.00005465152207762003,-0.0009882748126983643,3.113213853353262,-0.001063227653503418
1746738898775649000,6.39764892578125,0.17936595051605406,0.003920955583453178,0.08471828741032113,-0.0031388860661536455,0.008008427852721933,0.9830763046043751,0.04561096520376227,right,-0.0016945600509643555,-0.32321818395899593,1.658966792563349,-9.14966259356141,-0.16223392817751048,-0.0033487151376903057,-0.001452028751373291,3.1147853404536843,-0.0022409260272979736
1746738898815649300,6.437649169921875,0.17945390353614066,0.012406226247549057,0.08471907603019584,0.00010372395627200603,0.008234603584225342,0.9830586129011174,0.04609975384958561,right,-0.001994490623474121,-0.32336900061866247,1.6596876541838048,-9.149054690796136,-0.1623290798298259,-0.003154447767883539,-0.0014201700687408447,3.116187608467042,0.000692903995513916
1746738898855649300,6.477649169921875,0.17946574141016375,0.00727485679090023,0.08468801639874092,-0.00370888807810843,0.00846883133384581,0.9830620745211535,0.04657123504818984,right,-0.00046831369400024414,-0.3232943061922923,1.6598375840485096,-9.149263949632644,-0.16231240401430397,0.005046291742473841,-0.0014681816101074219,3.1154931964620944,-0.0004628002643585205
1746738898895649300,6.517649169921875,0.17932448145542634,-0.0005151843652129173,0.08461969648734902,-0.0026964033022522926,0.008528231729437102,0.9830948544118127,0.046636579498864024,right,-0.0009563565254211426,-0.32295074289306247,1.6587359064169227,-9.150550482311845,-0.16214582351813714,0.00976608507335186,-0.0016400814056396484,3.112298199813068,-0.0006853938102722168
1746738898935649300,6.557649169921875,0.17905104782695316,-0.003159981919452548,0.0845074141324783,-0.003347811521962285,0.008479166572487434,0.9831385059515114,0.04645459497422628,right,-0.0018569231033325195,-0.32255434947906814,1.6564533484376966,-9.152216954219341,-0.16194224603334634,0.011183129623532295,-0.0015844106674194336,3.1086116202548144,-0.0024430453777313232
1746738898975649000,6.59764892578125,0.17898926072112792,-0.0008375493343919516,0.08449704774001203,0.002854803344234824,0.008418447119767448,0.9831695859381451,0.04628802698076635,right,-0.0015193819999694824,-0.32220269919195066,1.6560824692986904,-9.15339476582706,-0.16176219662382726,0.008986974135041237,-0.0023708194494247437,3.1053406357601285,-0.002706587314605713
1746738899015649000,6.63764892578125,0.17909025619654856,-0.0012668762356042862,0.08455666878551758,0.003770913928747177,0.008392543756636436,0.9831868801244166,0.04622666499367554,right,-0.0017339587211608887,-0.32193229589259037,1.657156382140517,-9.154053521996737,-0.16162719083493976,0.004052686505019665,-0.002562612295150757,3.1028254380688067,-0.0031931400299072266
1746738899055649300,6.677649169921875,0.17920854799816463,-0.0021519330330193043,0.08462649750907021,0.0025569829158484936,0.00832270787849683,0.9831877857661787,0.046097694458134844,right,-0.0018839836120605469,-0.3218643685277666,1.658276764472574,-9.15406462791264,-0.16158885686380683,0.0001921572256833315,-0.00196857750415802,3.102193569906056,-0.002268165349960327
1746738899095649300,6.717649169921875,0.17933908016882527,-0.0018155932193621993,0.08470066500568281,0.0027565357740968466,0.008255480108550392,0.9831847311315961,0.045979956659709165,right,-0.0019136667251586914,-0.3218383183458815,1.6594861402623355,-9.153927265268564,-0.16157162750904128,-0.0018393055070191622,-0.001392364501953125,3.101950993321836,-0.0025572776794433594
1746738899135649300,6.757649169921875,0.17944747497824795,0.0022782511077821255,0.08475218261873045,0.0009381490526720881,0.008250105499118227,0.9831764162809756,0.045991199604688615,right,-0.0015620589256286621,-0.3218848932228445,1.6604525010764597,-9.153605193707346,-0.16159543282242708,-0.001823133323341608,-0.0012943148612976074,3.1023844163030385,-0.0023161768913269043
1746738899175649300,6.797649169921875,0.1795001366831067,0.005686684977263212,0.08476418813818173,-0.000751564628444612,0.00832373061342822,0.9831703524931008,0.04615348342397365,right,-0.0017619729042053223,-0.32192610256375614,1.660911789151281,-9.153392427739501,-0.16162275870457188,-0.00020647409837692976,-0.0015888214111328125,3.102767862662673,-0.002799510955810547
1746738899215649000,6.83764892578125,0.17956923553173929,0.007800331339240074,0.08477067569062068,0.0015985778300091624,0.008485727450280946,0.983166196986859,0.046494135705946224,right,-0.0007644295692443848,-0.3219234577183508,1.6615457031406462,-9.153285460233688,-0.16163618849795636,-0.0020463343244045973,-0.0016975104808807373,3.102743020482361,-0.0016842484474182129
1746738899255649000,6.87764892578125,0.17977424145886,0.004978386219590902,0.08484718110228504,0.0012286545243114233,0.00862137126075725,0.9831584221070296,0.04680108817011415,right,-0.0023037195205688477,-0.32189483171365924,1.663437946628034,-9.153031777733563,-0.16163602282035794,0.00007702945731580257,-0.0017091929912567139,3.102476770761609,-0.000014156103134155273
1746738899295649000,6.91764892578125,0.17971841634183103,0.0015732068568468094,0.0848145347884566,-0.0016733233351260424,0.008684169529026436,0.9831734947789419,0.04690401731219115,right,-0.0010044574737548828,-0.32172823947980256,1.6630194289550184,-9.153633250758052,-0.16155830351075898,0.004578175023198128,-0.001750946044921875,3.100926910971105,-0.00044789910316467285
1746738899335649300,6.957649169921875,0.17967990521770302,0.00438892375677824,0.08479501364486161,0.002438540803268552,0.008725063466652703,0.9831916805962589,0.04696082749114108,right,0.00006598234176635742,-0.32151463204047365,1.6627851818077266,-9.154348705551028,-0.16145561015037205,0.0030605443753302097,-0.001982644200325012,3.0989395365461707,-0.0028153657913208008
1746738899375649300,6.997649169921875,0.17956187466370926,0.001148144481703639,0.08474104733917603,0.0024735264014452696,0.008760933651822584,0.9832216343869463,0.046984504611141995,right,0.00006622076034545898,-0.32119579075017074,1.6618810725748538,-9.155516580286621,-0.16129946324916106,0.010242588818073273,-0.000566631555557251,3.0959727956950664,-0.001949697732925415
1746738899415649300,7.037649169921875,0.17960163059862358,-0.004372450523078442,0.08477991303810663,0.00639706663787365,0.008692890474447594,0.9832466552460519,0.046821567639950816,right,-0.0007841587066650391,-0.32086477675660185,1.662428038933128,-9.156458245050906,-0.16113011060028504,0.005666177254170179,-0.00006370246410369873,3.0928926575973628,0.000018924474716186523
1746738899455649000,7.07764892578125,0.17963792983153254,-0.006545595824718475,0.08482343899769947,0.002602282678708434,0.008563996035077208,0.9832614492356967,0.04654726086485591,right,-0.001837611198425293,-0.3206720974567456,1.6628668687418102,-9.156984314751625,-0.16102396960029208,0.002533236052840948,-0.00020490586757659912,3.0910993444398045,-0.0009917914867401123
1746738899495649000,7.11764892578125,0.17951175725556257,-0.0018945937044918537,0.08478275383373778,-0.003642030293121934,0.008458412417690237,0.9832749236075801,0.0463032700122033,right,-0.0026154518127441406,-0.32058063294405953,1.6617619762398301,-9.157472390529513,-0.1609681648084618,-0.0002975806128233671,-0.0007899999618530273,3.090248280568421,-0.00295373797416687
1746738899535649000,7.15764892578125,0.1792900412988735,0.010957235470414162,0.08465973420107967,-0.006749656051397324,0.008560504740904933,0.9832829373784745,0.046475424536242524,right,-0.0026404857635498047,-0.3205891294314499,1.6597269632808864,-9.15781433583498,-0.1609786850736396,-0.0035904482938349247,-0.0010236352682113647,3.0903271910235284,-0.002530217170715332
1746738899575649300,7.197649169921875,0.1792048015585902,0.015829147771000862,0.08456302599056736,-0.007021518424153328,0.008894667901668296,0.9832800177213212,0.04714547233156,right,-0.0015456080436706543,-0.32063523075681594,1.6589209075950084,-9.157816089400649,-0.1610293075220324,-0.004364982713013887,-0.0020990073680877686,3.0907562300905584,-0.0014525949954986572
1746738899615649300,7.237649169921875,0.17895524184048128,0.008919816464185715,0.08439888872829504,-0.009686063975095749,0.009202167088283236,0.9833047347685544,0.047710101114683656,right,-0.0015003681182861328,-0.3204219393783185,1.6567527697756885,-9.158878165674208,-0.1609472356662739,0.0057923155836761,-0.0030431151390075684,3.0887711937531828,0.00005841255187988281
1746738899655649300,7.277649169921875,0.1785782524184037,-0.0020505767315626144,0.08421608429368276,-0.0070421756245195866,0.009276285995687963,0.9833491337236528,0.047764780567937044,right,-0.0006374120712280273,-0.3200537534843945,1.6535016590252518,-9.160620625427365,-0.16076691329470932,0.008449329994618893,-0.002838701009750366,3.0853441419139505,-0.0006378293037414551
1746738899695649000,7.31764892578125,0.1783520975136179,-0.004202062264084816,0.08412894745103859,0.001307640690356493,0.009192553903541088,0.9833819009306439,0.047531223184120175,right,-0.0006214380264282227,-0.31977181372035246,1.6515842810966073,-9.161849874961376,-0.160617492247663,0.0064795129001140594,-0.002589806914329529,3.0827196386292575,-0.001316845417022705
1746738899735649000,7.35764892578125,0.17840869045495955,-0.0035775918513536453,0.08417953792862608,0.004561501555144787,0.009095730819619533,0.9834034649098629,0.04731617709580988,right,-0.0013375282287597656,-0.3194782204878376,1.6522632032714784,-9.162646578297018,-0.16046444125972426,0.00821653287857771,-0.002660199999809265,3.079986122012138,-0.002580016851425171
1746738899775649000,7.39764892578125,0.17850760916909622,-0.0031562834046781063,0.0842492425772035,0.002825207309797406,0.009013616765401843,0.9834268781464329,0.04713336108718379,right,-0.002844393253326416,-0.3191355408080723,1.653356843727082,-9.16352160756588,-0.1602888103204134,0.005631616339087486,-0.0018475204706192017,3.076795509277284,-0.0024033784866333008
1746738899815649300,7.437649169921875,0.17855170272594328,-0.004570709075778723,0.08428960458637445,0.002575733931735158,0.008916656595367254,0.9834362690851455,0.04693101260891747,right,-0.0023198723793029785,-0.31900315364324183,1.6538332290671764,-9.163849524345993,-0.16021542800240074,-0.0017474866472184658,-0.002332836389541626,3.075562752611935,-0.0030621886253356934
1746738899855649300,7.477649169921875,0.1785617445124577,-0.0004417719319462776,0.08429576254473013,-0.00003981008194386959,0.008877015784780827,0.983420816641363,0.04687029948386264,right,-0.0005287528038024902,-0.3191990350823968,1.6538183237589894,-9.16323986801505,-0.1603091676617936,-0.007389615289866924,-0.003551572561264038,3.077386753168702,-0.0037186145782470703
1746738899895649300,7.517649169921875,0.1786672264945247,0.000366523745469749,0.08433197301179732,0.00325416075065732,0.00888944592425298,0.9833793435480034,0.04695654950653751,right,-0.0005733966827392578,-0.31966812583330634,1.6545280794635413,-9.161643538734316,-0.16054376557962033,-0.013071222230792046,-0.0029034167528152466,3.08175430072844,-0.0026771128177642822
1746738899935649300,7.557649169921875,0.17893496520127358,-0.0016782890306785703,0.08444773484285131,0.006992899812757969,0.008887799217390427,0.9833298304843254,0.04704205736628813,right,-0.0010433793067932129,-0.320151116993945,1.6567157987661658,-9.1597344902426,-0.16078588376306613,-0.008267322555184364,-0.0025880634784698486,3.0862504431039093,-0.0009584426879882812
1746738899975649000,7.59764892578125,0.1791315780202188,-0.0023181273136287928,0.08454219405111077,0.003891273634508252,0.008850664663531228,0.9833046714524024,0.047018994495570635,right,-0.002334415912628174,-0.3203682720721986,1.6583973221123218,-9.158748986336589,-0.1608924652634721,-0.0016394061967730522,-0.002970293164253235,3.0882717197984455,-0.0017605125904083252
1746738900015649000,7.63764892578125,0.17921375770906567,0.0013345230836421251,0.08458787711597962,0.0014931068290024996,0.008831322429461193,0.9833109342762271,0.046981680466733,right,-0.002536177635192871,-0.3202462927381189,1.6592171140626073,-9.158983379614353,-0.16083131767921,0.004203211050480604,-0.0032977312803268433,3.087136286027729,-0.001742035150527954
1746738900055649300,7.677649169921875,0.1792729277725729,-0.0016522817313671112,0.08461524986467797,-0.0006865635514259338,0.008867212637958602,0.9833227369141911,0.04704678544421284,right,-0.003755509853363037,-0.320058603158958,1.6598622800983487,-9.15945508877933,-0.16074213441254537,0.004802070092409849,-0.0037785768508911133,3.085389150099456,-0.0023671090602874756
1746738900095649300,7.717649169921875,0.1791656593807057,-0.0065026190131902695,0.08458692831197605,0.006660970859229565,0.00876404032778088,0.9833467945033126,0.04679741170126483,right,-0.002020537853240967,-0.3198235370443968,1.6590090242698787,-9.160346484661101,-0.16061561348419687,0.0013065407983958721,-0.0015041828155517578,3.0832009924054145,-0.001414179801940918
1746738900135649300,7.757649169921875,0.179261977299499,-0.007644261233508587,0.08466197624657255,0.005518508143723011,0.008578739579898324,0.983340372406099,0.04644096128579983,right,-0.0016064643859863281,-0.31987373485899073,1.659863741403073,-9.160034349972008,-0.16062560722747873,-0.0006615128368139267,-0.0013428032398223877,3.083668317656219,-0.0018114447593688965
1746738900175649300,7.797649169921875,0.1793554484020265,-0.005791883450001478,0.08473397465593409,0.004427273292094469,0.008406853525624397,0.9833353804517163,0.04610954568898797,right,-0.0010654330253601074,-0.31990485810356933,1.6607026764452457,-9.159784759125113,-0.1606272618893923,-0.0012240237556397915,-0.0009312331676483154,3.0839579482525585,-0.0013915300369262695
1746738900215649000,7.83764892578125,0.1793410605569943,0.001499769277870655,0.08473636425730559,-0.0017543258145451546,0.008338506207775062,0.9833308413566241,0.04597500211963375,right,-0.0031279325485229492,-0.3199777012914451,1.6605308270096777,-9.159587190726398,-0.16065729351925945,-0.0036107911728322506,-0.0017388463020324707,3.08463628590554,-0.0017689168453216553
1746738900255649000,7.87764892578125,0.17926472126625662,0.012585463002324104,0.0846719416992962,-0.006906268186867237,0.008498180708916598,0.9833273138182952,0.046293771190335384,right,-0.0029209256172180176,-0.3200469466339955,1.6597935987763106,-9.159504188618063,-0.16070449491178881,-0.0034377595875412226,-0.0007570981979370117,3.0852807212889193,-0.0008558034896850586
1746738900295649000,7.91764892578125,0.17905475655624997,0.012386110611259937,0.08452187334764054,-0.015434267930686474,0.008808030216816674,0.9833367704298902,0.046885910593136744,right,-0.002767503261566162,-0.3200068692466175,1.6578922951996324,-9.15997414421737,-0.1607089417756454,0.0041283126920461655,-0.0038260072469711304,3.084907796323299,-0.0020118355751037598
1746738900335649300,7.957649169921875,0.1787680046168777,0.004800545983016491,0.08435339575581727,-0.009016153402626514,0.009078993653936048,0.9833856785458293,0.0473437735170731,right,-0.00367581844329834,-0.3195103866001284,1.655537841027975,-9.16195508890152,-0.16048304308562916,0.006393370218575001,-0.003430098295211792,3.0802856894806028,0.0016019642353057861
1746738900375649300,7.997649169921875,0.1784619135331831,-0.003326219506561756,0.08420660026157896,-0.0039721946232020855,0.00911791061244904,0.983416564690446,0.047351441975320666,right,-0.0015785694122314453,-0.319279521755831,1.652859561729431,-9.163160957559942,-0.16036853730014863,0.0015174434520304203,-0.0035077333450317383,3.0781361102312803,-0.0001869797706604004
1746738900415649300,8.037649169921876,0.17835575737314543,-0.0040391613729298115,0.08417646857107094,0.00345412315800786,0.009012957655325983,0.9834327705626185,0.04710798043596485,right,-0.0016697049140930176,-0.3191431504944837,1.6519612977154552,-9.163749571102857,-0.1602908000789492,0.0031051435507833958,-0.0034342557191848755,3.076866236425936,-0.003950685262680054
1746738900455649000,8.07764892578125,0.1786054658425709,-0.002163141965866089,0.08431229698700496,0.009031236171722412,0.008926696837443467,0.9834296072809876,0.046965226570778174,right,-0.002576112747192383,-0.31905712881332154,1.6542964626647532,-9.16359701088965,-0.16024363741651768,-0.0007883789949119091,-0.003027617931365967,3.0760654414370654,-0.0037831664085388184
1746738900495649000,8.11764892578125,0.1789697253359264,-0.0019095735624432564,0.08449802797595675,0.007458775769919157,0.008849269964640033,0.9834109704964396,0.04687154918163249,right,-0.0029740333557128906,-0.31910456862643316,1.6576083636917174,-9.16284999191463,-0.16026460992655847,-0.0019187720026820898,-0.0028491318225860596,3.0765070477247236,-0.003709644079208374
1746738900535649000,8.15764892578125,0.17921296712488202,-0.0001571114407852292,0.08462165240932028,0.004986703395843506,0.008794640321570032,0.9833958467840681,0.04680620387110428,right,-0.0027889609336853027,-0.31916992288457396,1.6598011975608764,-9.162249103412032,-0.16029503722230984,-0.002793061314150691,-0.002429455518722534,3.0771155350118873,-0.0030812323093414307
1746738900575649300,8.197649169921876,0.17944453273327632,0.0028981296345591545,0.08472889511182101,0.004727425519376993,0.008797335182314705,0.9833764537431776,0.04686071183507595,right,-0.0019332170486450195,-0.3192903372016937,1.6618566687859593,-9.161499746349453,-0.16035752136313947,-0.003503017593175173,-0.002248987555503845,3.078236940257251,-0.0027664005756378174
1746738900615649300,8.237649169921875,0.1796801059059899,0.004387182183563709,0.08482856021297908,0.001782777952030301,0.008869967770011469,0.9833619013726677,0.04705128950728205,right,-0.0027939677238464355,-0.31933764160642114,1.6639888585090636,-9.1609643242985,-0.16038988817959293,-0.002552105113863945,-0.0016354471445083618,3.07867737750113,-0.0011796057224273682
1746738900655649300,8.277649169921874,0.1797646894026656,0.002734262030571699,0.08485653824574525,0.0001122176181524992,0.008947006321665563,0.9833577313259589,0.04722155035811719,right,-0.0015749335289001465,-0.3193352981936041,1.664764957448095,-9.160831053307652,-0.16039633725975536,-0.0008059638785198331,-0.0015594065189361572,3.0786554579302665,-0.0013364553451538086
1746738900695649000,8.31764892578125,0.17974128277817125,0.004369932692497969,0.08483134539585714,-0.0015787751181051135,0.009033075493244813,0.9833580788166013,0.047392615623491174,right,-0.0005987882614135742,-0.31933349775154024,1.6645514608278869,-9.160875476971269,-0.16040260711908572,-0.00437910296022892,-0.0033757835626602173,3.0786387990564106,-0.0026321113109588623
1746738900735649000,8.35764892578125,0.17961008337988632,0.005182177759706974,0.08474410213671005,-0.0038139191456139088,0.009168958598078888,0.9833556596996168,0.04765571839978794,right,-0.0013604164123535156,-0.31942021881013066,1.6633018991582094,-9.160831053307652,-0.1604557751571039,-0.0016714103985577822,-0.0015001296997070312,3.0794460237860677,-0.0024968385696411133
1746738900775649000,8.39764892578125,0.179761074728435,0.0036097338888794184,0.08479032290595091,0.0018455577082931995,0.00928897320659385,0.9833289146338324,0.047947360439693464,right,-0.001408398151397705,-0.3196640928287242,1.664550730175525,-9.159840288704633,-0.16058864600967043,-0.008283187635242939,-0.00096873939037323,3.081716599066555,-0.000423431396484375
1746738900815649300,8.437649169921874,0.17987818091321658,0.000009493902325630188,0.08482803928828649,0.0011754039442166686,0.009359792369610332,0.9833031787061375,0.04813447554987868,right,-0.0005982518196105957,-0.3199188033971863,1.6654828964591026,-9.158872904977201,-0.1607222662361657,-0.002612657379359007,-0.00142747163772583,3.084088004373014,-0.0006318986415863037
1746738900855649300,8.477649169921875,0.17988326118119333,-0.0008093184442259371,0.0848338265300275,0.0011836675694212317,0.009320938625053673,0.9832944334931338,0.048066897742068154,right,-0.0025631189346313477,-0.3200317287369051,1.665467114368081,-9.1585216073215,-0.16077490602495742,-0.0014550022315233946,-0.00211922824382782,3.08513897473067,-0.0010642707347869873
1746738900895649300,8.517649169921874,0.1797926567823112,0.005997603293508291,0.08478504722525569,-0.0020006345584988594,0.009340768341602601,0.9832916579797745,0.04810015443131194,right,-0.0029778480529785156,-0.3201140487127367,1.6645919389687478,-9.158422823122143,-0.16081634073215628,0.0005967908073216677,-0.001949608325958252,3.0859052829280493,-0.002295851707458496
1746738900935649300,8.557649169921875,0.17978477989973085,0.012819011695683002,0.08474891912463109,-0.002490624086931348,0.009547839607205547,0.9832945070768747,0.048514709985334255,right,-0.0016279816627502441,-0.3200573043908236,1.664551168566942,-9.158608116561174,-0.16080599014555047,0.0011613070964813232,-0.003201693296432495,3.0853771674007175,-0.0024947524070739746
1746738900975649000,8.59764892578125,0.17965061068895097,0.0134835634380579,0.08464328538293026,-0.002269866643473506,0.009839752199159309,0.9833159653321278,0.04906435254100985,right,-0.0006109476089477539,-0.3198215741532125,1.6634522674143313,-9.159546858716011,-0.16071280062900997,0.008387597277760506,-0.0022744685411453247,3.083182872226834,-0.0031784772872924805
1746738901015649000,8.63764892578125,0.17960994532272892,0.007525590714067221,0.08459628281987283,-0.002331916941329837,0.010057192317281857,0.9833389159875754,0.049471970066256435,right,-0.0022734999656677246,-0.3195237604466721,1.6632437392301858,-9.160517165052891,-0.1605835274826472,0.004294323734939098,-0.003281429409980774,3.080410192643106,-0.00038689374923706055
1746738901055649300,8.677649169921875,0.17961069277205297,0.0007377564907073975,0.08458060514293986,0.0029308132361620665,0.010161593982389144,0.9833407811915478,0.04968088540920803,right,-0.0005145668983459473,-0.3194860244859563,1.6632713578894733,-9.16063056229949,-0.16057382593235855,-0.002330795396119356,-0.002970680594444275,3.0800588949874044,-0.0021061599254608154
1746738901095649300,8.717649169921875,0.17985247971178775,0.0015401702839881182,0.08469379585632139,0.007925562560558319,0.010174295598771477,0.9833289350170947,0.04974775123957708,right,-0.0012884736061096191,-0.319502482279235,1.6654770512402057,-9.160178142356871,-0.1605859689697412,-0.0015473694074898958,-0.003329440951347351,3.080212039722502,-0.0031602680683135986
1746738901135649300,8.757649169921875,0.1801669147417681,0.0036112084053456783,0.08484120962690216,0.006905212067067623,0.010198848659687364,0.9833177266487442,0.04984574818114835,right,-0.0016447901725769043,-0.319467517366706,1.668376572073996,-9.159760209205746,-0.16057456375756182,-0.0009515505516901612,-0.0024820715188980103,3.079886461029947,-0.003174424171447754
1746738901175649300,8.797649169921876,0.18044351020218172,0.00231728982180357,0.08496777961253509,0.0037663248367607594,0.010242581456921071,0.9833092085768024,0.04997515689487328,right,-0.0018006563186645508,-0.31941764836837905,1.6709376547336576,-9.159449243560433,-0.16055697158457055,-0.0007357644499279559,-0.002111583948135376,3.0794223506495353,-0.003180593252182007
1746738901215649000,8.83764892578125,0.18060141129575888,0.003230258822441101,0.08503548912953926,0.0038918056525290012,0.010293193344610043,0.9833030113217381,0.0501024509663106,right,-0.001147449016571045,-0.31940250393166403,1.6723922374561428,-9.159231216895579,-0.16055575437848177,-0.0012814172077924013,-0.0012648850679397583,3.079281188613176,-0.0019874870777130127
1746738901255649000,8.87764892578125,0.1808606198084746,0.00518290139734745,0.08514600225710157,0.004025282338261604,0.010373150008630087,0.9832895411574478,0.05030905838978011,right,-0.0012137293815612793,-0.3194199440401022,1.6747566284999251,-9.15874431016147,-0.16057445409287507,-0.0015271781012415886,-0.001739799976348877,3.079443685698509,-0.002287745475769043
1746738901295649000,8.91764892578125,0.18103390354744642,0.004706431645900011,0.08521268318855645,-0.0002536410465836525,0.010477780314359943,0.9832833509417322,0.050547225808467704,right,-0.0008819103240966797,-0.31938883541030705,1.6763609949566423,-9.158548495328425,-0.160570217158206,0.0002715684240683913,-0.0016047656536102295,3.0791540551021694,-0.0018207132816314697
1746738901335649300,8.957649169921876,0.18110910155566484,0.004423483274877071,0.08523351197483543,-0.0007026250241324306,0.010591079020176324,0.9832884847700328,0.05077832389247385,right,-0.001088857650756836,-0.31926619999650424,1.6771176585428416,-9.158793410000204,-0.1605202143850996,0.00042410119203850627,-0.0023910701274871826,3.0780121915906666,-0.0024386942386627197
1746738901375649300,8.997649169921875,0.18099312468962409,-0.0032669734209775925,0.08517383678963182,-0.005105184856802225,0.010636652286464885,0.9833024340239678,0.050840740738341335,right,-0.002012014389038086,-0.31914652894725953,1.676121779373288,-9.159350459361075,-0.16046346436671544,0.003432535333558917,-0.002041727304458618,3.0768978006079792,-0.001590341329574585
1746738901415649300,9.037649169921876,0.18100816663075514,-0.007130077108740807,0.08519347198922901,0.002468755468726158,0.010558927348303139,0.9833020017762361,0.05068594187929856,right,-0.0016838312149047852,-0.31915537952088396,1.6762546119727193,-9.159298436912893,-0.1604612863733785,-0.0006934942211955786,-0.001706734299659729,3.076980218194425,-0.0002467930316925049
1746738901455649000,9.07764892578125,0.18105235997657626,-0.0055553000420331955,0.08523359894385091,0.003089831443503499,0.010434299098191857,0.9832975258838236,0.050444394519439696,right,-0.0014852285385131836,-0.3192052917361643,1.6766317747220396,-9.159073395985365,-0.16047574287139454,-0.001241712598130107,-0.002249777317047119,3.0774449130967256,-0.0008184313774108887
1746738901495649000,9.11764892578125,0.18109524186672413,-0.0032376404851675034,0.08527627681111935,0.0020184474997222424,0.010295890189298183,0.9832958779541522,0.05017137872225156,right,-0.002213895320892334,-0.3192211800311357,1.6770156594730912,-9.158953568997978,-0.16047213215745065,-0.000854581012390554,-0.0027998536825180054,3.0775927971348165,-0.0003966391086578369
1746738901535649000,9.15764892578125,0.1810907804273334,0.0016616820357739925,0.08527801017890949,0.0015631732530891895,0.01025192056061622,0.9832869618160732,0.050092782550079075,right,-0.0017341971397399902,-0.31934318780039106,1.6769072306625543,-9.158591165426373,-0.16052869733697397,-0.0030338363721966743,-0.0017200857400894165,3.0787288154274224,-0.0004361867904663086
1746738901575649300,9.197649169921876,0.18117203473116014,0.008542021736502647,0.08529103428886453,0.00017931638285517693,0.010388993811032475,0.9832719327503375,0.05039699701021147,right,-0.001118779182434082,-0.31947118197748736,1.6775803076185285,-9.158067433813214,-0.1606049707073827,-0.003372124396264553,-0.0034229010343551636,3.0799206555604934,-0.0009741485118865967
1746738901615649300,9.237649169921875,0.18114136566599673,0.010029908269643784,0.08524270317149794,-0.0002886778675019741,0.010614142120583848,0.9832798688206792,0.050839090159179166,right,-0.000802457332611084,-0.31935678490596,1.6773630116060376,-9.15846549322009,-0.16056745357174632,0.008458799682557583,-0.0020208507776260376,3.0788556566774843,-0.001958698034286499
1746738901655649300,9.277649169921874,0.18104337909428872,0.003723026253283024,0.08518314379828103,-0.002376812743023038,0.010752554649754793,0.9833110130177495,0.05107019797826885,right,-0.0026583075523376465,-0.31899381810204336,1.6766666999049484,-9.159728060501813,-0.16039847346902944,0.00829463079571724,-0.0023799240589141846,3.0754759511113163,-0.001643449068069458
1746738901695649000,9.31764892578125,0.18085622998817538,0.00008449982851743698,0.08509899103199756,-0.0011916718212887645,0.010776761989922565,0.9833458158850898,0.05105641738434003,right,-0.0018627047538757324,-0.31865093656485843,1.675141974555701,-9.161078890588879,-0.16022841304295715,0.007275227922946215,-0.00273016095161438,3.072282708027959,-0.0023627877235412598
1746738901735649000,9.35764892578125,0.18083015889406917,0.002378500299528241,0.08509446050834416,0.0001550441375002265,0.010792982982401814,0.9833771145818482,0.0510484118641593,right,-0.0018779635429382324,-0.318262984255287,1.6751172785058617,-9.162294111597538,-0.1600373302779503,0.01015317253768444,-0.003226056694984436,3.0686694859668613,-0.0032756924629211426
1746738901775649000,9.39764892578125,0.18085063208184707,0.0017977372044697404,0.08511025004095561,0.0007405151845887303,0.010835175230990875,0.9834126521919385,0.05109290806012609,right,-0.002255380153656006,-0.3177917291714238,1.6755648761428892,-9.163681182041763,-0.15980778501118373,0.007755161263048649,-0.0032814443111419678,3.064279726575315,-0.004048734903335571
1746738901815649300,9.437649169921874,0.1809524282966075,0.0015237872721627355,0.08515909857154037,0.0010734150419011712,0.010877792218781641,0.9834279580638321,0.05117165607244666,right,-0.0024393200874328613,-0.31753363016601827,1.6766399580284952,-9.164288500285148,-0.15968486762188483,0.0030524488538503647,-0.004631027579307556,3.061875295782089,-0.004121840000152588
1746738901855649300,9.477649169921875,0.18103415826897482,0.002903182990849018,0.08519020357874178,0.0019020121544599533,0.010914906762152607,0.9834181615747215,0.05126736809070531,right,-0.0017293095588684082,-0.31760698849251995,1.6773485446892678,-9.16393018836677,-0.15972545014705983,-0.005312435328960419,-0.0033919215202331543,3.0625588941320774,-0.004153221845626831
1746738901895649300,9.517649169921874,0.1812474618159563,0.003998809494078159,0.0852721039174538,0.007365059573203325,0.010963240694845456,0.9833730724030862,0.051443181373708395,right,-0.002191007137298584,-0.31805844704163216,1.679053741171956,-9.162211694011091,-0.15995592317340282,-0.014837879687547684,-0.0033535510301589966,3.0667642368674275,-0.004430651664733887
1746738901935649300,9.557649169921875,0.18158770458206264,0.0039762696251273155,0.08540243349336749,0.004266240634024143,0.011063666530130249,0.983311001866418,0.05175880933151609,right,-0.0036643147468566895,-0.3186472414653252,1.681844687064737,-9.159861916014552,-0.16026054542509038,-0.017761940136551857,-0.0036209672689437866,3.072248221236467,-0.0026053786277770996
1746738901975649000,9.59764892578125,0.18177380499244655,0.003188094822689891,0.08545545327865409,0.003064968856051564,0.011167659870884793,0.9832475180496982,0.05206650014502321,right,-0.002335965633392334,-0.31933821313896665,1.683165122013539,-9.15745894652605,-0.1606141736057124,-0.01669381558895111,-0.00358755886554718,3.078682638198137,-0.002069413661956787
1746738902015649000,9.63764892578125,0.1817852915031934,0.0038347721565514803,0.08542897893040961,-0.0010589307639747858,0.01126872233570713,0.9832021980285729,0.05232705256354355,right,-0.0020655393600463867,-0.3198953844704342,1.682959954830259,-9.155750973564386,-0.16089905293609089,-0.010981484316289425,-0.004608422517776489,3.0838699777081606,-0.0035987496376037598
1746738902055649300,9.677649169921875,0.1815666373821602,-0.0007704903837293386,0.0853113399194657,0.0011109074112027884,0.011293719219008732,0.9831861096729877,0.05237277920450206,right,-0.0008789300918579102,-0.32021737475163237,1.6807785191379487,-9.155141901755332,-0.16105793934561144,-0.006720561534166336,-0.0030106455087661743,3.0868671136975285,-0.002011895179748535
1746738902095649300,9.717649169921875,0.18158466145408805,-0.003724459558725357,0.08531292869408066,0.0047583673149347305,0.011257274921079273,0.9831487401378893,0.052346227382271106,right,-0.0015620589256286621,-0.32068598053226854,1.6806822191566229,-9.153687611293792,-0.16128710377561897,-0.01213962770998478,-0.001965239644050598,3.09122881603837,-0.0008008182048797607
1746738902135649300,9.757649169921875,0.1815937158879608,-0.0071431733667850494,0.08531804436166261,0.002208778401836753,0.011153995980291284,0.9831035671009157,0.05219307215208704,right,-0.0010403990745544434,-0.32126830987426425,1.6804396425724029,-9.15190014335513,-0.1615666532083636,-0.013901728205382824,-0.0011970996856689453,3.0966476262167095,-0.0009485483169555664
1746738902175649300,9.797649169921876,0.18152854719450204,0.00011081760749220848,0.08527901292490188,-0.0015018682461231947,0.011097162371589555,0.9830581557203005,0.05212572865862976,right,-0.0026646852493286133,-0.3218879335637719,1.6794965165033935,-9.150120858722925,-0.16186773926265902,-0.015773219987750053,-0.0029026418924331665,3.1024127656146883,-0.0033050179481506348
1746738902215649000,9.83764892578125,0.1815337063488029,0.0085951779037714,0.08524061344595553,-0.00024568859953433275,0.011239661756594126,0.983006822008704,0.052475965453076215,right,-0.0027463436126708984,-0.32251239811376414,1.6791935880340634,-9.148204795968532,-0.16218940030415904,-0.016555126756429672,-0.0020748525857925415,3.108221451893449,-0.0010239779949188232
1746738902255649000,9.87764892578125,0.1816584149835398,0.010939432308077812,0.08523510845397515,-0.0040612476877868176,0.011531831693121358,0.9829501185273475,0.05314847009557877,right,-0.002354264259338379,-0.3231151238687035,1.679995698197186,-9.146151370570063,-0.16251478243631712,-0.014977996237576008,-0.002568960189819336,3.113826724554598,-0.0008210241794586182
1746738902295649000,9.91764892578125,0.18167990816451565,0.00786774605512619,0.08519947742229235,-0.0016023798380047083,0.011765756940002913,0.9829260834522964,0.05365241483568183,right,-0.001756906509399414,-0.32337107825499645,1.6800483051672577,-9.145330701836944,-0.16266207200570754,-0.006507787853479385,-0.0036368221044540405,3.116206897689402,-0.0015197694301605225
1746738902335649300,9.957649169921876,0.18169441578775966,0.0018794359639286995,0.08518120320854017,-0.0020447070710361004,0.011876718801143011,0.9829049001919802,0.0539036739576836,right,-0.003871142864227295,-0.3236128576938042,1.6800447980359197,-9.144564978161453,-0.16279158797361784,-0.009515460580587387,-0.004912629723548889,3.1184549688771366,-0.0014524757862091064
1746738902375649300,9.997649169921875,0.18172982262632378,-0.00019491021521389484,0.0851835079221179,0.0031730420887470245,0.011898296512765479,0.982872110021555,0.053990641684345586,right,-0.0012314319610595703,-0.3240024241965038,1.6801488429322837,-9.143310009664297,-0.1629867953833752,-0.008369963616132736,-0.00399346649646759,3.1220766665056345,-0.001866370439529419
1746738902415649300,10.037649169921876,0.18194692764563816,-0.0027508714701980352,0.0852821996111276,0.007233381271362305,0.011875054773480793,0.982837910772524,0.054009388648893035,right,-0.0020233988761901855,-0.3243166363017302,1.681956330745667,-9.141980222365259,-0.16314316903846546,-0.007491673342883587,-0.003426790237426758,3.1249975223883983,-0.0025018155574798584
1746738902455649000,10.07764892578125,0.1822010830918259,-0.002984435297548771,0.08539942645454154,0.006967328023165464,0.011833017526436153,0.9827959099082251,0.05400377041199834,right,-0.001956641674041748,-0.3247108309241744,1.6840563717648387,-9.140340053942799,-0.16333798493112614,-0.009831266477704048,-0.003023862838745117,3.128661597853899,-0.0031144917011260986
1746738902495649000,10.11764892578125,0.18245735002083951,-0.0022116380278021097,0.08551690799547826,0.004826524294912815,0.011783038537925197,0.9827480292688526,0.05398937873821521,right,-0.002346634864807129,-0.32517735816111076,1.6861336164303122,-9.13847192198336,-0.16356794564551352,-0.013565260916948318,-0.002500861883163452,3.132997288970649,-0.0028172731399536133
1746738902535649000,10.15764892578125,0.18274800820025178,0.002015232341364026,0.08563619678507083,0.004361981526017189,0.01179371004242482,0.9826852263111431,0.05411938477510976,right,-0.003270745277404785,-0.3258011982740965,1.6884341484576462,-9.136057262057065,-0.16388150943013516,-0.01653113402426243,-0.0037888288497924805,3.138793700289726,-0.003403693437576294
1746738902575649300,10.197649169921876,0.18289905685895483,0.003959544003009796,0.08567759557281815,0.0022024193312972784,0.011865654853385376,0.9826252859899665,0.054353951232258516,right,-0.001742243766784668,-0.3264560120252604,1.6894399644993245,-9.133779380252957,-0.16421390936963307,-0.014515428803861141,-0.0040087103843688965,3.1448768195956944,-0.0029758214950561523
1746738902615649300,10.237649169921875,0.1831251517162187,0.006906549446284771,0.08575071255494597,0.00631324015557766,0.011987849330611233,0.9825735415880389,0.05468878957237373,right,-0.0018725991249084473,-0.3269580505075261,1.691217349435389,-9.131843443754315,-0.1644760621532201,-0.012210601009428501,-0.003593921661376953,3.149539842970669,-0.0026050806045532227
1746738902655649300,10.277649169921874,0.18336993139534777,0.005348066799342632,0.08582978107091697,0.0018394943326711655,0.012132003160158267,0.9825229220102395,0.05506885622982698,right,-0.0031690001487731934,-0.327431533607615,1.6931804662019014,-9.129961867791414,-0.16472626304278962,-0.013336682692170143,-0.0033808499574661255,3.1539366166248914,-0.0012059807777404785
1746738902695649000,10.31764892578125,0.18343017816168233,0.0008535487577319145,0.08582987338686202,-0.0019886568188667297,0.012227388382936362,0.9824839116452102,0.05531531304066979,right,-0.002910435199737549,-0.32786874126312543,1.6934788646265864,-9.128503485676646,-0.1649518020186943,-0.011835293844342232,-0.005318492650985718,3.157996121148765,-0.001462787389755249
1746738902735649000,10.35764892578125,0.18341499278669457,-0.001813801471143961,0.08580530112379581,-0.004477282054722309,0.012262699338692323,0.9824525511494,0.05542249716698436,right,-0.004327535629272461,-0.3282609637430172,1.6931141229674218,-9.127310476499796,-0.16514881361657593,-0.007185625843703747,-0.005829796195030212,3.1616374002605676,-0.0023686587810516357
1746738902775649000,10.39764892578125,0.18346565082886335,-0.002712929155677557,0.08582040415014633,0.004319832660257816,0.012250957598754397,0.9824198461974056,0.05544379857710228,right,-0.0026724934577941895,-0.32864100366824156,1.6933571379430592,-9.126042648521064,-0.16533655493900734,-0.011993189342319965,-0.0038472265005111694,3.165164989864826,-0.0007981657981872559
1746738902815649300,10.437649169921874,0.18362515547518718,-0.0068129124119877815,0.08589410086728537,0.0038923523388803005,0.01216877566660246,0.982368619660395,0.05535738171464592,right,-0.0027499794960021973,-0.3292003333267389,1.694489356843382,-9.124030724176764,-0.1656083327132696,-0.01346982829272747,-0.002480119466781616,3.1703561287671325,0.00006628036499023438
1746738902855649300,10.477649169921875,0.18368563023633383,-0.00865936279296875,0.08593194349450162,0.005139664746820927,0.012006736935014794,0.9823167632591273,0.055098693753375304,right,-0.002689838409423828,-0.32983163089354606,1.69467508867383,-9.121958594077825,-0.1659074120331825,-0.01474612858146429,-0.002265065908432007,3.176213914884627,-0.0014434456825256348
1746738902895649300,10.517649169921874,0.18374217712750446,-0.0006079357117414474,0.08594610104240288,0.0016316594555974007,0.011958699925422898,0.9822565531728795,0.05508002265477321,right,-0.0029811859130859375,-0.3305514075314311,1.69477284995988,-9.119612323212623,-0.16626014873010012,-0.015769653022289276,-0.002705588936805725,3.182891492952406,-0.0036407411098480225
1746738902935649300,10.557649169921875,0.18389613083958506,0.012259723618626595,0.08597407335677867,0.001044903532601893,0.012136788064201274,0.9822049413108749,0.05551945164356057,right,-0.0024164915084838867,-0.3310757422919524,1.695871458851546,-9.117709704461694,-0.16653725862996244,-0.01524144597351551,-0.002523660659790039,3.187754422813654,-0.002665609121322632
1746738902975649000,10.59764892578125,0.18406883629616924,0.011042923666536808,0.08599361151203501,-0.004286544397473335,0.012442144752465698,0.982162942884952,0.056206931837035345,right,-0.0025748014450073242,-0.3314513217852279,1.6972268189832567,-9.116238462865352,-0.16675216205294693,-0.004364039748907089,-0.0031103193759918213,3.1912372964933513,-0.0021321773529052734
1746738903015649000,10.63764892578125,0.18404898177738632,0.0025200089439749718,0.08595277418205682,-0.004117365460842848,0.012624268313513563,0.9821603247603918,0.05657587229729973,right,-0.002316594123840332,-0.3314662827510577,1.697036995499581,-9.116225603383779,-0.1667752293756937,-0.0009115233551710844,-0.003337264060974121,3.191376120442152,-0.0005810856819152832
1746738903055649300,10.677649169921875,0.1839839430079562,-0.0020566065795719624,0.08591507066978551,-0.0023064669221639633,0.012648509849850517,0.9821557917787754,0.05662261853320642,right,-0.0029342174530029297,-0.3315531988189683,1.696393436899036,-9.116063106298446,-0.16681947343179093,-0.005078461021184921,-0.004127040505409241,3.19218217612803,-0.0011206567287445068
1746738903095649300,10.717649169921875,0.18402724008992177,-0.0003475670237094164,0.08593234416841765,0.0036137918941676617,0.012631687459658038,0.982136929297963,0.05661615599740163,right,-0.0019283890724182129,-0.33176398205206986,1.6966649473167954,-9.11532777776122,-0.16692288841810873,-0.005445334129035473,-0.0036737173795700073,3.1941365250661966,-0.0030863285064697266
1746738903135649300,10.757649169921875,0.184254465551541,0.002800436457619071,0.08602661402316833,0.005115089472383261,0.01266957163319722,0.9821053782116217,0.05675699147943907,right,-0.00232696533203125,-0.33202215829831133,1.6985849555939434,-9.114131261453032,-0.1670570490285468,-0.006310457829385996,-0.003286615014076233,3.1965301422044634,-0.0030300021171569824
1746738903175649300,10.797649169921876,0.1845420243150574,0.0010331888915970922,0.0861478031793002,0.005150816403329372,0.012715126999824319,0.9820696837513935,0.05692544812992379,right,-0.002554595470428467,-0.3322974070671937,1.7010441853143274,-9.112777508756517,-0.16720115773694066,-0.00768433790653944,-0.0024237483739852905,3.19908187251389,-0.0018362998962402344
1746738903215649000,10.83764892578125,0.1848133931210273,-0.002086278982460499,0.08626690485997635,0.0048601990565657616,0.012702855633031503,0.9820237886464637,0.0569871839774616,right,-0.0033534765243530273,-0.3327134035228264,1.7032723827578127,-9.111006407430768,-0.16740964061079777,-0.010617303662002087,-0.001916632056236267,3.2029379634201525,-0.003023087978363037
1746738903255649000,10.87764892578125,0.1849929297560013,0.000670447014272213,0.08634239233831725,0.001797504723072052,0.012686645998750811,0.9819807739547003,0.05702686606051078,right,-0.002884507179260254,-0.3331450499734229,1.704653607983142,-9.10934052004516,-0.167624240103759,-0.009282054379582405,-0.0032266229391098022,3.2069387234941122,-0.004172712564468384
1746738903295649000,10.91764892578125,0.1851288934260545,0.007378236390650272,0.08638125058727116,0.0004921570653095841,0.012776125457917306,0.9819443541347972,0.057267176211330956,right,-0.002317667007446289,-0.3335021802739574,1.705681197465211,-9.10798267569542,-0.16781067034117567,-0.007396482862532139,-0.0034440308809280396,3.210247994172573,-0.0040625035762786865
1746738903335649300,10.957649169921876,0.1853121137142193,0.010976589284837246,0.08642408495290566,0.0015932454261928797,0.013010926159758495,0.9819212434527125,0.05779092141335188,right,-0.0020828843116760254,-0.3336473733632734,1.7072640827424823,-9.107211691322922,-0.1679057011644152,-0.0048752035945653915,-0.0030291080474853516,3.2115935635626314,-0.003788888454437256
1746738903375649300,10.997649169921875,0.18551514888764073,0.005561493802815676,0.0864783334356422,-0.00044598826207220554,0.013246469441021829,0.981903027742639,0.05831265277730534,right,-0.003246903419494629,-0.3337214095187123,1.709069232468307,-9.106630676564574,-0.16796590056168773,-0.0027966133784502745,-0.004154235124588013,3.2122795000001787,-0.002161562442779541
1746738903415649300,11.037649169921876,0.18552728861997625,0.00019892863929271698,0.08646555187740937,-0.003824276616796851,0.01333921634335812,0.98189389951017,0.05851238323226494,right,-0.0033353567123413086,-0.3338106751902164,1.7091269540049134,-9.106328478747606,-0.1680184043184398,-0.0032820175401866436,-0.00447981059551239,3.213106598474085,-0.0018010437488555908
1746738903455649000,11.07764892578125,0.18541560098828697,-0.0013214393984526396,0.0864005155303672,-0.005423767026513815,0.01337117754239081,0.9818812080882751,0.058578868108472675,right,-0.004085898399353027,-0.33402008649582904,1.7079858211457728,-9.105857354104518,-0.16812325274443246,-0.005849984008818865,-0.006330862641334534,3.2150466266259548,-0.0033099353313446045
1746738903495649000,11.11764892578125,0.18531257520436592,-0.0007619574316777289,0.08633997437327058,0.000702807679772377,0.013379203233770027,0.9818583637961161,0.05861009208392135,right,-0.0033863186836242676,-0.3343524963020706,1.7068506796360015,-9.104982324835657,-0.16828695672547797,-0.011183427646756172,-0.004370748996734619,3.218126180201769,-0.0005168914794921875
1746738903535649000,11.15764892578125,0.18532263456307768,-0.00021839694818481803,0.08632883103872135,-0.0024160316679626703,0.01338809724483642,0.9818187835054376,0.05867641066194562,right,-0.0022047758102416992,-0.33482756316867657,1.706660271630436,-9.103461983400583,-0.16852288680708824,-0.010910646058619022,-0.003909245133399963,3.222526753248274,-0.0011677742004394531
1746738903575649300,11.197649169921876,0.1851677003366846,-0.0007704864256083965,0.08624238747018484,-0.0036083576269447803,0.013391225156596806,0.9817928738253415,0.05869512338475248,right,-0.0012938380241394043,-0.33522581593017525,1.7050133812062442,-9.102464204534888,-0.16871797283916679,-0.008432576432824135,-0.003043457865715027,3.2262150863721963,-0.0015604496002197266
1746738903615649300,11.237649169921875,0.1849141055581007,0.005555116571485996,0.08609958733514361,-0.009023104794323444,0.013460771992784969,0.9817760006384206,0.05882546276513602,right,-0.002037525177001953,-0.33555604619735957,1.7025091433003543,-9.101848118463158,-0.16888383317302955,-0.007511191535741091,-0.004033595323562622,3.229273012638092,-0.0028281807899475098
1746738903655649300,11.277649169921874,0.18474761121937328,0.013460385613143444,0.08596828298231639,-0.005047057289630175,0.013716348929708671,0.9817581263125413,0.059343144607434214,right,-0.0020941495895385742,-0.33581913261087004,1.7008375568263232,-9.101296329799293,-0.16903399615888084,-0.01104734092950821,-0.0032247602939605713,3.2317090076133606,-0.0006472468376159668
1746738903695649000,11.31764892578125,0.1846278355483346,0.01100889127701521,0.08584987458212283,-0.011920418590307236,0.014028826338009113,0.9817386738858161,0.05998312190717334,right,-0.0024100542068481445,-0.336065340126967,1.699601293029636,-9.100717653128504,-0.169181400363424,-0.003967060707509518,-0.004942148923873901,3.2339886429831384,-0.0019442439079284668
1746738903735649000,11.35764892578125,0.1844147399446992,0.004103452432900667,0.08571443867490815,-0.008295740932226181,0.014256987583664376,0.9817591412344503,0.06039416565614436,right,-0.0030707716941833496,-0.33589061820691746,1.697765455904603,-9.101634767973422,-0.1691118492401462,0.0009267772547900677,-0.004440814256668091,3.2323709786534307,0.00018587708473205566
1746738903775649000,11.39764892578125,0.18424273589909984,-0.0006831367500126362,0.08562171348645828,-0.0024227756075561047,0.014330109991674488,0.981770532260953,0.060507789841933016,right,-0.0028287768363952637,-0.33583206330712273,1.6962345930755138,-9.102112906879187,-0.1690867628302902,-0.0025936050806194544,-0.00546419620513916,3.2318288346007464,-0.0015878081321716309
1746738903815649300,11.437649169921874,0.18434410749674748,-0.00295966025441885,0.08567583722532485,0.004790157545357943,0.014273654276553008,0.9817564874740752,0.06042255155766257,right,-0.0018138289451599121,-0.33595832371813,1.697082442076504,-9.101539490905404,-0.16914575475932803,-0.0013081083307042718,-0.005453318357467651,3.2329978783801194,-0.0046953558921813965
1746738903855649300,11.477649169921875,0.18461366853943595,-0.0007054244633764029,0.08581604194143057,0.006600568536669016,0.014206541237249367,0.9817461276105406,0.060331508129179784,right,-0.0030028223991394043,-0.3359504587390901,1.6995405027531088,-9.101106360185145,-0.16913992997154242,-0.00012976245488971472,-0.005252331495285034,3.2329251054048536,-0.0051597654819488525
1746738903895649300,11.517649169921874,0.18500830435320154,-0.0014325282536447048,0.08601218398743682,0.00927011575549841,0.014160056922944987,0.9817298041572228,0.060304266825406974,right,-0.003559291362762451,-0.335944997356788,1.703135312374681,-9.100452280190586,-0.169138882014709,-0.0029427269473671913,-0.004977360367774963,3.2328745442613958,-0.0044113993644714355
1746738903935649300,11.557649169921875,0.18533404040609788,-0.0015920097939670086,0.08617409151408298,0.0075312415137887,0.014098300235499385,0.981705852354579,0.060246917356093596,right,-0.002979874610900879,-0.336070942150128,1.7060244579449295,-9.099497171422838,-0.16920048178651526,-0.0028624178376048803,-0.0040317922830581665,3.2340403731703757,-0.004544466733932495
1746738903975649000,11.59764892578125,0.18559787688452484,0.001398378750309348,0.08629747638130403,0.008466984145343304,0.014076244071388978,0.9816782231293653,0.060266781447347824,right,-0.002356290817260742,-0.33626787196334806,1.7083076004460453,-9.098420482102036,-0.1692997651916351,-0.007190363481640816,-0.0037894845008850098,3.235863496944308,-0.004221111536026001
1746738904015649000,11.63764892578125,0.18597424212350866,0.0050839888863265514,0.08645651171941689,0.008266463875770569,0.014137382522180473,0.9816348633342024,0.06048695028064933,right,-0.0024937987327575684,-0.3365800285570219,1.7115449749320744,-9.096783820810913,-0.16946499360909373,-0.008732611313462257,-0.004355043172836304,3.238753080905974,-0.003969401121139526
1746738904055649300,11.677649169921875,0.1863174685627703,0.003695280058309436,0.08659748364803697,0.00460313493385911,0.014215942303090789,0.9815948349156487,0.06073451179459249,right,-0.002204298973083496,-0.33686668642216505,1.7144950569093227,-9.095283353120088,-0.16961868164373423,-0.005406387150287628,-0.0032279640436172485,3.2414065180242058,-0.0027997195720672607
1746738904095649300,11.717649169921875,0.1865497107607355,0.0014282339252531528,0.08670067254118652,0.004852957557886839,0.01422851256991146,0.9815704504393333,0.060816808478494404,right,-0.0024471282958984375,-0.3370344507870715,1.7165065428622066,-9.094350456184149,-0.16970615177410403,-0.003598141949623823,-0.003093928098678589,3.2429590081632136,-0.002907097339630127
1746738904135649300,11.757649169921875,0.18680209907359208,-0.001875534188002348,0.08681320739357691,0.0037433127872645855,0.014231233189540731,0.9815401276519541,0.06088870230157904,right,-0.0029177069664001465,-0.33726433035596026,1.7186632825046777,-9.093184335014223,-0.16982377528586243,-0.007220779545605183,-0.003384619951248169,3.2450866678416728,-0.003560870885848999
1746738904175649300,11.797649169921876,0.186829797293251,-0.005884205456823111,0.08683362466876737,0.007665121462196112,0.014132357632820924,0.9815140165815014,0.06072338824778288,right,-0.0015955567359924316,-0.33758174174373207,1.7187236343897878,-9.092124012306332,-0.1699724186501642,-0.00832378026098013,-0.00281640887260437,3.2480238903373477,-0.002584487199783325
1746738904215649000,11.83764892578125,0.18695606995145822,-0.005001415498554707,0.08690656262424831,0.004944358021020889,0.013986722528746859,0.9814773400763918,0.06048792565064715,right,-0.0021491050720214844,-0.3379805455640852,1.7196308123625814,-9.09063348148763,-0.17015860970341856,-0.009241546504199505,-0.0025962740182876587,3.251713684765994,-0.0035367608070373535
1746738904255649000,11.87764892578125,0.18698282237543806,-0.0037562830839306116,0.08692064536897184,0.002565922448411584,0.01391832710189305,0.9814490791229971,0.060386616147855544,right,-0.0020568370819091797,-0.3383186226595916,1.7196696830682456,-9.089506523284316,-0.17032013286603193,-0.006627866066992283,-0.0024757087230682373,3.2548414613977075,-0.0026138126850128174
1746738904295649000,11.91764892578125,0.1869147697791933,0.0025163486134260893,0.08688079063807264,-0.0022346291225403547,0.013919805362780533,0.9814328329494479,0.060400736936083305,right,-0.0027895569801330566,-0.3385504881525614,1.71891082752496,-9.088881669384241,-0.17043394330191858,-0.004950177390128374,-0.0034427642822265625,3.256986364471912,-0.0027142763137817383
1746738904335649300,11.957649169921876,0.18685566179981808,0.009898699820041656,0.08681893633779494,-0.003510749666020274,0.014084442271117487,0.981419430709699,0.06074224547520887,right,-0.0035349130630493164,-0.33871509024165036,1.718273844795674,-9.088456721970438,-0.17052905446552893,-0.0069449907168745995,-0.0029923468828201294,3.258508751733601,-0.0019612014293670654
1746738904375649300,11.997649169921875,0.1868589954294755,0.010116606950759888,0.08676515251497022,-0.008549047634005547,0.014360288875992446,0.9813955403462213,0.061328431813951284,right,-0.003449559211730957,-0.33895237764373354,1.7181604475490748,-9.08769099829495,-0.17067084065057767,-0.005849703215062618,-0.004497036337852478,3.2607033391684292,-0.0019411146640777588
1746738904415649300,12.037649169921876,0.1868505938688509,0.005919254384934902,0.08672713330115822,-0.003646490629762411,0.014576464164312512,0.9814021038739655,0.06175629149562125,right,-0.003921926021575928,-0.3388388780618577,1.7181528487645088,-9.088068599435687,-0.17063371019750917,0.0012101135216653347,-0.0049197375774383545,3.259653830115497,0.00030857324600219727
1746738904455649000,12.07764892578125,0.18680376982544097,-0.002995961345732212,0.08669852291308988,-0.0024787993170320988,0.01461378006714605,0.9814041039249415,0.06182368478050274,right,-0.0032473206520080566,-0.3388337193961148,1.7177305316992102,-9.088165630069375,-0.1706337552776184,-0.0028497190214693546,-0.004971116781234741,3.2596058993205426,-0.00036406517028808594
1746738904495649000,12.11764892578125,0.1868106778974237,-0.007079137023538351,0.08672021446879828,0.0040978072211146355,0.014498279020841996,0.9814010923588208,0.061594781806845356,right,-0.0020067691802978516,-0.33888706459206536,1.717760926837474,-9.087983259239792,-0.17065002837095758,0.0012937099672853947,-0.004219576716423035,3.260099235795438,-0.003729581832885742
1746738904535649000,12.15764892578125,0.18690625890716142,-0.0039778659120202065,0.08679306192086905,0.00524169160053134,0.014355837365775014,0.9814058631956625,0.06131291330340777,right,-0.002288997173309326,-0.33880413332232,1.7186797952480612,-9.088084381526707,-0.17059782898221387,0.002659341786056757,-0.005241319537162781,3.2593323430761694,-0.004937529563903809
1746738904575649300,12.197649169921876,0.1870658734200467,-0.0001881783828139305,0.08688127418785857,0.0037597850896418095,0.014289827836424036,0.9814017249524329,0.06120367908855086,right,-0.0032281875610351562,-0.3387792787183284,1.7201454838864505,-9.087889735737443,-0.1705820520059513,0.0004809682723134756,-0.004137292504310608,3.2591023337125775,-0.00480923056602478
1746738904615649300,12.237649169921875,0.18713008283638302,0.0016342432936653495,0.0869092728254906,-0.0011316309683024883,0.014301070747807869,0.981397138582967,0.061239646101070855,right,-0.0032044649124145508,-0.33879842274143246,1.7207174385555088,-9.087717886301874,-0.1705934515494485,-0.0022301224526017904,-0.004019498825073242,3.2592794438451524,-0.005323946475982666
1746738904655649300,12.277649169921874,0.18716974211766793,0.005346429534256458,0.08690688712091066,0.0009082951582968235,0.01439405179425367,0.9813803787276462,0.06145213100251923,right,-0.0016958117485046387,-0.3389609343147501,1.7209791582316158,-9.08712868823707,-0.170682652720217,-0.01007832121104002,-0.004109591245651245,3.2607825418844816,-0.0037884116172790527
1746738904695649000,12.31764892578125,0.18733423247878994,0.006213404703885317,0.08694404374696357,0.0004782447940669954,0.014565420992120515,0.9813405568480722,0.06186557566530369,right,-0.0026465654373168945,-0.3393197413879588,1.7222559001691637,-9.085695440563558,-0.17087770851242048,-0.010400254279375076,-0.003628149628639221,3.2641008726522323,-0.0029866397380828857
1746738904735649000,12.35764892578125,0.1873402742435169,0.0035693305544555187,0.08691052561161099,-0.00238349218852818,0.014724656249185123,0.981315142656171,0.06221831777081596,right,-0.0015141963958740234,-0.3395935104087507,1.7221442564882337,-9.084806967291236,-0.17102727007790794,-0.004486771300435066,-0.003240838646888733,3.266632436956465,-0.0016132593154907227
1746738904775649000,12.39764892578125,0.1873499653278167,0.007100699935108423,0.08688349923023403,-0.0018338613444939256,0.014864399188706225,0.9812934709838893,0.06252759214363225,right,-0.0013527870178222656,-0.3398229797999501,1.722092672431469,-9.084053518575429,-0.17115325448524749,-0.0063582779839634895,-0.0036151111125946045,3.2687542514160275,-0.0025906264781951904
1746738904815649300,12.437649169921874,0.1871925012784678,-0.0007522734813392162,0.08679252222722927,-0.00460077915340662,0.014936407085618318,0.9812902061283828,0.06265784622749321,right,-0.001322329044342041,-0.33993344618902993,1.7205949812196195,-9.083969931945203,-0.17121188119270297,-0.0010715071111917496,-0.004097238183021545,3.2697754111573096,-0.0022825002670288086
1746738904855649300,12.477649169921875,0.18718259088427006,-0.0037782720755785704,0.0867909440173312,0.003220454789698124,0.014884002612510895,0.9812756869709278,0.06256807271159452,right,-0.0017722249031066895,-0.34012262445608077,1.7203898140363394,-9.08337898031473,-0.17130063047015712,-0.004049437586218119,-0.004272043704986572,3.271524300651252,-0.0008571147918701172
1746738904895649300,12.517649169921874,0.18723543106491308,-0.004912477917969227,0.08682740649948543,0.003649375168606639,0.014778671877263129,0.981256338386734,0.06238469930377997,right,-0.0015189051628112793,-0.34034524787840165,1.7207342435598372,-9.082572340106964,-0.17140217629653703,-0.004024051129817963,-0.0033509135246276855,3.2735824022248385,-0.0010891258716583252
1746738904935649300,12.557649169921875,0.18727237368535413,-0.00535815441980958,0.08685780523675266,0.0029186923056840897,0.014658088551680278,0.9812347593619768,0.062171179005422926,right,-0.0017703771591186523,-0.3406053185113579,1.72091120756194,-9.081671591874956,-0.17152064449902485,-0.00606533931568265,-0.0038219690322875977,3.2759865407571196,-0.0020266473293304443
1746738904975649000,12.59764892578125,0.1873283376051812,0.001707135234028101,0.08688054239071542,0.0007955050095915794,0.014625785752714665,0.9812075801545573,0.06214496581082761,right,-0.0034639835357666016,-0.3409060736676391,1.7212359094716607,-9.080607177513837,-0.17166732071880597,-0.005997227970510721,-0.0040146708488464355,3.2787662346035242,-0.002505391836166382
1746738905015649000,12.63764892578125,0.1874471617979441,0.008638685569167137,0.08690090013622304,0.0008190114749595523,0.014787714344399893,0.9811792818029021,0.06252024227849924,right,-0.0026821494102478027,-0.341151981466482,1.7221645686239002,-9.079609983170032,-0.17180501267787177,-0.006310165394097567,-0.004237130284309387,3.2810388557106256,-0.0009505152702331543
1746738905055649300,12.677649169921875,0.18743684564235186,0.0076410481706261635,0.08686274267508026,0.00111453328281641,0.014979072228977257,0.981177500504337,0.06290769639076867,right,-0.00018465518951416016,-0.3411439568989864,1.7220758674271404,-9.079653822311759,-0.17181783664129446,0.004432484041899443,-0.003399685025215149,3.28096491369158,-0.0036805272102355957
1746738905095649300,12.717649169921875,0.18745582483276824,0.0024874284863471985,0.08685407823832973,-0.00029231002554297447,0.015106005487366467,0.9811866320761669,0.06315563655863345,right,-0.003284633159637451,-0.3410019007621784,1.722334956754744,-9.08007876972556,-0.1717591213378297,0.002208345104008913,-0.004642054438591003,3.279652077527344,-0.0014149248600006104
1746738905135649300,12.757649169921875,0.18746831892487595,-0.0022733351215720177,0.08685861948031638,0.0026162562426179647,0.015113774785329704,0.9811856866131365,0.06317382074937765,right,-0.0017259716987609863,-0.34100346852755375,1.7224474772185085,-9.080051881718635,-0.1717607974415648,-0.00034143659286201,-0.004373982548713684,3.2796663983136414,-0.0021255910396575928
1746738905175649300,12.797649169921876,0.18765705014391182,-0.0028919661417603493,0.08696737593375742,0.008124586194753647,0.015025339958435083,0.9811877962076649,0.06301563077939937,right,-0.0029832124710083008,-0.3408932261417161,1.7242285154163837,-9.080081692335009,-0.17170132067693109,0.004085853695869446,-0.0042793601751327515,3.2786475766599175,-0.0038444101810455322
1746738905215649000,12.83764892578125,0.18793077203615308,-0.003837332595139742,0.08711860028340687,0.007867290638387203,0.014935334623449481,0.9811908142726373,0.06286352204112496,right,-0.0019754767417907715,-0.34072712362839863,1.7268156093001366,-9.080144820699095,-0.17161534184291077,0.0021815153304487467,-0.004056453704833984,3.277112329916656,-0.003539144992828369
1746738905255649000,12.87764892578125,0.18816531590482188,-0.003350665792822838,0.08724993435057693,0.005700746551156044,0.014829415600596342,0.9811852346404376,0.0626846891642225,right,-0.0019353032112121582,-0.3406874614515392,1.7289695724636316,-9.079867172801494,-0.17158984866687757,-0.0013897495809942484,-0.0032843351364135742,3.2767458346918223,-0.0035640299320220947
1746738905295649000,12.91764892578125,0.18836258403983364,-0.0007069364655762911,0.08734424874025462,0.003341598901897669,0.014789351111619322,0.9811599098353037,0.06265788803308081,right,-0.0019182562828063965,-0.3408915331411727,1.7306354598492384,-9.07886880941391,-0.1716901509488663,-0.008379092440009117,-0.0029569417238235474,3.2786317945688963,-0.003574579954147339
1746738905335649300,12.957649169921876,0.18862733601919815,0.003574933158233762,0.08744654318176326,0.0029599107801914215,0.014858014299894678,0.9811166226261885,0.06288040812875495,right,-0.0018926262855529785,-0.34125394927679964,1.7328161648891864,-9.077242669516801,-0.17187944449038445,-0.010328839533030987,-0.0038463324308395386,3.281981397257745,-0.004036575555801392
1746738905375649300,12.997649169921875,0.18891633449441184,0.005466219037771225,0.08754396080240859,0.0013456989545375109,0.015018956572865621,0.9810703056459552,0.06329591820183203,right,-0.002771735191345215,-0.3416213549194568,1.7352128507673739,-9.075556323865056,-0.17207983413617103,-0.010507559403777122,-0.003838643431663513,3.285376300393045,-0.0023625195026397705
1746738905415649300,13.037649169921876,0.18902753561614719,0.0022165123373270035,0.08756466193065462,0.002102306578308344,0.015136591249176214,0.9810334568859229,0.06359109640103626,right,-0.0011370182037353516,-0.34197915342492835,1.736000932405144,-9.074207831865548,-0.1722689234113879,-0.008831070736050606,-0.0036828219890594482,3.288682063940167,-0.0019158720970153809
1746738905455649000,13.07764892578125,0.18907269151603598,0.0009716849308460951,0.08756094644414995,-0.00040369550697505474,0.015212709983995182,0.9809996023215759,0.06379086084453742,right,-0.001543581485748291,-0.34234469954157737,1.7361847645394504,-9.072948187193274,-0.17245711803733865,-0.01055979449301958,-0.005183130502700806,3.2920591391578315,-0.003792494535446167
1746738905495649000,13.11764892578125,0.18886717738601663,-0.0036448610480874777,0.08745940445172466,0.0008921286789700389,0.015179495317843978,0.9809841906201462,0.06371707254727312,right,-0.001799941062927246,-0.34264474357778496,1.7341345540113746,-9.072334439209103,-0.1725993393903353,-0.007480558939278126,-0.0035696029663085938,3.2948306496977806,-0.0027156472206115723
1746738905535649000,13.15764892578125,0.18887248127741554,-0.004899933934211731,0.08746507975477001,0.0032035373151302338,0.015084737383950582,0.9809501271534059,0.0635667840936841,right,-0.0018901228904724121,-0.3430637055693967,1.7339232493482528,-9.070968411552906,-0.1727980920599291,-0.008182499557733536,-0.0039159804582595825,3.2987001846075055,-0.0027177929878234863
1746738905575649300,13.197649169921876,0.1888372862098894,-0.006016978994011879,0.08745199571428612,0.00004815286956727505,0.014999101618076055,0.9809231127669504,0.06342152403945375,right,-0.001615285873413086,-0.3434185541400549,1.7333841740354894,-9.06987944727242,-0.17296533918108872,-0.007884560152888298,-0.003006294369697571,3.3019770143210887,-0.0009208917617797852
1746738905615649300,13.237649169921875,0.18867997296508054,-0.0016363337635993958,0.08737998125241805,-0.002499331720173359,0.014915742882326787,0.9809002131917668,0.06326095220115181,right,-0.0017645955085754395,-0.34378960713611745,1.7317274928696453,-9.068947719380258,-0.1731389334383376,-0.007132546976208687,-0.003868609666824341,3.3054031893774867,-0.0029152333736419678
