time,seconds_elapsed,roll,rotationRateZ,quaternionY,rotationRateY,quaternionZ,quaternionW,yaw,devicelocation,accelerationZ,pitch,gravityX,gravityZ,quaternionX,rotationRateX,accelerationX,gravityY,accelerationY
1746576142458473200,0.44647314453125,0.15892192701358174,0.00586426816880703,0.07718963563606494,0.002961239777505398,1.9767492150947964e-17,0.9877915304790483,0.021680121070158567,right,0.05253791809082031,-0.2706124280044595,1.4954608224488795,-9.330678501403332,-0.13531277535245187,0.004385624546557665,-0.02921152114868164,2.621530114100873,0.16230440139770508
1746576142498473500,0.486473388671875,0.1455846499576058,0.002873844001442194,0.06825712600932254,0.004594926722347736,0.002871728883059084,0.979669908327982,0.03376831110175703,right,0.023937523365020752,-0.37813660733258747,1.3221550505928694,-9.017437896895409,-0.18862546882368642,-0.001229370478540659,-0.009458854794502258,3.6205113413229584,0.0594344437122345
1746576142538473500,0.526473388671875,0.1394563395111679,0.004457375500351191,0.06398673835776009,0.010070836171507835,0.004143832655044429,0.975057571465716,0.03875735377088557,right,0.005620360374450684,-0.4266749220590822,1.2409586765050888,-8.84078252235055,-0.2124881824129539,0.003897968214005232,-0.0020550191402435303,4.058444493426382,0.013662457466125488
1746576142578473200,0.56647314453125,0.13908062312469827,0.002567191142588854,0.06337511885027704,0.00938501302152872,0.004550471965377702,0.9735920328910146,0.040533101921469354,right,0.00005650520324707031,-0.44049954660462964,1.2297408246591686,-8.784840270376204,-0.21927467383750504,0.0006500231102108955,0.0010606199502944946,4.1814714458972215,0.0029206573963165283
1746576142617588200,0.605588134765625,0.1397619261616681,-0.0073556434363126755,0.06364834472392752,0.009125919081270695,0.004562146512088229,0.973405492820136,0.040823389763229155,right,-0.000031779141863808036,-0.4420134629407884,1.2348423855818806,-8.777721378281711,-0.22002188897681038,0.004360583610832691,0.0017842260422185063,4.194895867876708,0.0007938670460134745
1746576142657588200,0.645588134765625,0.14009906611034648,0.0014086654409766197,0.06380168045667829,0.005684481468051672,0.004559118740600675,0.9733818051572487,0.04090218809260331,right,-0.000891268253326416,-0.4421314289397684,1.2377324079349636,-8.776814784830808,-0.22008253419643303,-0.00016531581059098244,0.0009309053421020508,4.195941577537358,0.0006823241710662842
1746576142697588200,0.685588134765625,0.14043619809295688,0.010172974318265915,0.06395500153965542,0.002243044087663293,0.004556080066858332,0.973358058895263,0.04098100563958661,right,-0.0017507672309875488,-0.44224936449675467,1.2406221380271016,-8.775907022336124,-0.22014317669049252,-0.004691215232014656,0.00007764995098114014,4.196986702676117,0.000570833683013916
1746576142737588200,0.725588134765625,0.14059043025409168,0.007953404448926449,0.0639735253885098,-0.007692364975810051,0.004776135388619434,0.9733398532985368,0.04147646199789701,right,-0.0009334087371826172,-0.44236153237993747,1.2419096936196088,-8.775249435210227,-0.22021391948370256,-0.0006345147266983986,0.0005112737417221069,4.197980974410474,0.0009109377861022949
1746576142777588200,0.765588134765625,0.14044174439072027,-0.008251274935901165,0.06388850789931594,-0.007718683686107397,0.004892810050755136,0.9733858670425448,0.04165372244339116,right,0.0017852783203125,-0.44197690526938826,1.2408308123417198,-8.777032226973772,-0.22003217998314017,0.007069700863212347,0.00006718933582305908,4.194571750488877,0.0023052990436553955
1746576142817588000,0.805587890625,0.14034820917861082,-0.013417588546872139,0.06385382180787323,-0.015428543090820312,0.004852144990091823,0.973386278663724,0.041550983803716426,right,-0.0032764673233032227,-0.44200304904423,1.2399945076480507,-8.777039241236448,-0.22004138373596896,-0.003585482481867075,-0.003174237906932831,4.194803513418138,0.0013063251972198486
1746576142857588000,0.845587890625,0.14025241343028247,-0.005978115368634462,0.06382878001222561,0.0048038894310593605,0.004708061942219977,0.973333966239124,0.04127185210779695,right,-0.0028238892555236816,-0.4425182413088108,1.2388513289622962,-8.775016795498132,-0.22028282670137786,-0.008489347994327545,0.001539275050163269,4.19936979842037,0.003445833921432495
1746576142897588200,0.885588134765625,0.14010847595814746,-0.008943176828324795,0.06378394182580314,0.003024755511432886,0.004587672412496032,0.9733155622212665,0.041008133599516994,right,-0.0006580948829650879,-0.44273536163165217,1.2374608975172041,-8.774291988354921,-0.22037967325069294,-0.004582601599395275,0.001040145754814148,4.2012937522202725,0.0010943114757537842
1746576142937588200,0.925588134765625,0.14010291243059267,-0.00556563213467598,0.06383144962702439,0.0010667925234884024,0.004377720659059471,0.9733274622654302,0.04056809464144916,right,0.000053822994232177734,-0.4426368013193827,1.2374699576064943,-8.774709336984158,-0.2203176839764428,0.01617848128080368,0.0005701184272766113,4.200420476517081,-0.0012187957763671875
1746576142977588200,0.965588134765625,0.140166336365953,0.002448919229209423,0.0638594191914206,-0.0030484830494970083,0.004394200652125763,0.9733355516425034,0.04060931275680044,right,-0.0014218688011169434,-0.4425431401390514,1.238081513633579,-8.77502030262947,-0.22027358239486294,0.00632141251116991,0.0003727227449417114,4.199590455433726,-0.0008769035339355469
1746576143017588200,1.005588134765625,0.14043133930625187,0.004725350998342037,0.06394489299973215,0.0046966420486569405,0.004562645849089626,0.973331434445876,0.04101183115147427,right,0.0008293390274047852,-0.44249544208720054,1.2404347987614572,-8.77488995424807,-0.22026382407749143,-0.004744299687445164,0.0010749846696853638,4.199167553846538,0.0016220808029174805
1746576143057588200,1.045588134765625,0.14035539903480623,-0.010919363237917423,0.06392092356093271,0.002633314346894622,0.004510276295081998,0.9733309316671485,0.04088922824083927,right,0.0033439993858337402,-0.4425246833843325,1.2397513465419412,-8.774862481719255,-0.2202739606634495,0.0069974553771317005,0.001331612467765808,4.1994267893046135,-0.0028590261936187744
1746576143097588000,1.085587890625,0.1406083118408705,-0.0052297054789960384,0.06405725558565085,0.0030180716421455145,0.004446784859659855,0.9733448660939245,0.04080097823661731,right,-0.003008425235748291,-0.4423243639471623,1.2420884111873804,-8.775381537157296,-0.22017426572759258,0.0024978010915219784,0.0000028759241104125977,4.197651596325636,-0.00012695789337158203
1746576143137588200,1.125588134765625,0.14059516982432393,0.0017683720216155052,0.06404255157635962,-0.0021068428177386522,0.004451146352568848,0.9733130740239159,0.040829122322244726,right,-0.00040215253829956055,-0.4426198215385133,1.241799218982458,-8.774169823279976,-0.22031883960321885,-0.011470725759863853,3.725290298461914e-7,4.200269962130487,-0.00001704692840576172
1746576143177588200,1.165588134765625,0.14062444960817436,0.003474185708910227,0.06403842649359785,0.001826470484957099,0.004533865823636449,0.9733162968429167,0.04100259811744159,right,-0.00014638900756835938,-0.4425781479013823,1.242080666272342,-8.774306601402163,-0.22030418845599578,-0.00045826565474271774,-0.0004277825355529785,4.199900544296205,0.0009556114673614502
1746576143217588200,1.205588134765625,0.14067514729047134,0.003900063456967473,0.0640533773517705,0.004736822098493576,0.004609116684201117,0.9733502528645919,0.04114392764220556,right,0.001274406909942627,-0.4422481048095669,1.2427198409587144,-8.77561593043506,-0.2201483080187028,0.0000710494932718575,0.00031210482120513916,4.196975596760213,0.001714557409286499
1746576143257588200,1.245588134765625,0.1409196373669832,0.003926876932382584,0.06415383353250301,0.004216658417135477,0.004653786557331289,0.9733321811003885,0.041297787679758925,right,0.00039887428283691406,-0.4423381372476405,1.24481228319332,-8.774937300521135,-0.22019761456621986,-0.0011644302867352962,-0.0005256980657577515,4.197773469139635,0.0002455711364746094
1746576143297588200,1.285588134765625,0.14114901762593177,0.0027071302756667137,0.06423645696536127,0.0027568545192480087,0.004739769819273748,0.9733083025067435,0.04153743087576214,right,0.0006105303764343262,-0.44248509532079633,1.2467381366893648,-8.774040643942355,-0.22027731222263672,-0.0011382612865418196,0.001373395323753357,4.199076076170802,0.0013828277587890625
1746576143337588000,1.325587890625,0.14141899438024103,0.004398581571877003,0.06434783245309461,0.005725358612835407,0.004779212772748194,0.9732811996737734,0.04169211935495548,right,-0.0003235936164855957,-0.44265116899021545,1.24900856583938,-8.773013054460286,-0.22036369294913222,-0.003936839289963245,0.0008479952812194824,4.200547610028088,0.0011121928691864014
1746576143377588200,1.365588134765625,0.14157871984554604,-0.0007728938944637775,0.0644121533307999,-0.006043135188519955,0.004796311403636413,0.9732528581180315,0.04177940078084098,right,-0.0027126073837280273,-0.44286260777285874,1.2502845771245659,-8.771934027051925,-0.2204697080515713,0.004008174873888493,-0.00027288496494293213,4.202421294945478,-0.0006850361824035645
1746576143417588200,1.405588134765625,0.14153247604186664,0.0015886861365288496,0.06438769336971199,-0.006347290240228176,0.004844961331530067,0.9732869736259048,0.04184613982871499,right,-0.0014964938163757324,-0.44256146761325693,1.25005734423995,-8.773244525128602,-0.220325289810557,0.008943713270127773,-0.002208217978477478,4.199752660258114,0.0003275275230407715
1746576143457588200,1.445588134765625,0.14136468607440036,-0.0036338267382234335,0.06432675107900127,-0.0013409359380602837,0.00478665762768629,0.973306551273216,0.04167876635581939,right,-0.0020781755447387695,-0.44243444872961335,1.2486604830540715,-8.773982191753387,-0.22025773481178765,0.005891250446438789,-0.0006864815950393677,4.1986271633595225,0.0016352832317352295
1746576143497588200,1.485588134765625,0.14119694584521336,-0.008856339380145073,0.06426581338761415,0.0036654178984463215,0.0047283539238423475,0.9733261289205274,0.041511432813237915,right,-0.0026598572731018066,-0.4423074503512725,1.2472636218681932,-8.774719273856281,-0.2201901958255747,0.0028387876227498055,0.0008352547883987427,4.197501666460931,0.0029430389404296875
1746576143537588200,1.525588134765625,0.1411266189285541,-0.005269968416541815,0.06427637046038842,0.003699877532199025,0.004514045001123418,0.9733067070640617,0.04107091752457328,right,-0.0010440349578857422,-0.4425168231366879,1.2465228865034879,-8.77393659904599,-0.2202776901113894,-0.005948266945779324,-0.0003196597099304199,4.199357231199741,-0.000261843204498291
1746576143577588000,1.565587890625,0.14129939555929905,0.0059599061496555805,0.06435969938809837,0.005466436967253685,0.004492903990800365,0.9732959684705643,0.041070148887670896,right,0.0013598799705505371,-0.44256417257055475,1.248010786973685,-8.773524511113763,-0.22030109002962853,0.007476655766367912,0.001031443476676941,4.199776625655591,-0.0023196935653686523
1746576143617588200,1.605588134765625,0.14141566280192164,0.005559454206377268,0.0643978163879183,0.00361070828512311,0.004585550586527619,0.9733142594227626,0.04127122309626871,right,-0.0000890493392944336,-0.44235711334393696,1.2491533811375497,-8.77423996590674,-0.22020713083842489,0.001475293654948473,0.00012068450450897217,4.197941811443865,-0.0002918839454650879
1746576143657588200,1.645588134765625,0.14174350733953944,0.003286183811724186,0.06451863852153604,0.009219687432050705,0.004691246294283839,0.9732754366614582,0.04158175628617585,right,0.0007569789886474609,-0.4426105497177123,1.251879591231048,-8.772776323094963,-0.22034114891454512,-0.016680363565683365,-0.00010921061038970947,4.200187836804986,0.0018098950386047363
1746576143697588200,1.685588134765625,0.14224833650105664,-0.0012491224333643913,0.06471633122622718,0.00815968494862318,0.004758549600493858,0.9731751871015109,0.0418923872976239,right,0.002253293991088867,-0.44337481005865614,1.25585273264572,-8.768962902286649,-0.22072403619556616,-0.01642264984548092,0.00011876225471496582,4.20695923063606,-0.00138169527053833
1746576143737588200,1.725588134765625,0.14306206102263533,0.0013710488565266132,0.0650773121064406,0.017116352915763855,0.004764050292209906,0.9730934685893419,0.04212666008823893,right,-0.0033013224601745605,-0.4438776455054046,1.2626860857971012,-8.76584330896139,-0.22097806496219807,-0.0075375996530056,-0.0004498511552810669,4.211412995174527,0.0007104277610778809
1746576143777588200,1.765588134765625,0.14338364759643552,-0.0008826223202049732,0.06522144042672672,0.014657729305326939,0.00473903009040526,0.9730421644260772,0.042176884565497064,right,-0.0011901259422302246,-0.44425157436797813,1.2652799016825853,-8.763877561846375,-0.2211622534564201,-0.016088813543319702,-0.0001621842384338379,4.214724311679602,0.0002560615539550781
1746576143817588000,1.805587890625,0.14409699788237706,0.003915710840374231,0.06553593183254121,0.018021147698163986,0.004727975829830173,0.9729483690715321,0.04236563438269438,right,-0.0008575916290283203,-0.4448927659437027,1.2711429484970866,-8.760296780750155,-0.22148184093154666,-0.015268102288246155,-0.0002443641424179077,4.220400896011292,0.0004970729351043701
1746576143857588000,1.845587890625,0.14490159433152588,0.005785916466265917,0.06587724644681775,0.015475726686418056,0.004806843987356179,0.9728728864777367,0.04274497823917843,right,0.00034946203231811523,-0.44533277163177953,1.2779228178955613,-8.75743262349069,-0.22171012728053735,-0.006128867156803608,6.258487701416016e-7,4.224295565362274,0.0020353198051452637
1746576143897588200,1.885588134765625,0.14570750989447098,0.0019199680536985397,0.0662379562939347,0.014435394667088985,0.004819366047745132,0.9728130213351083,0.042977631257706435,right,0.0004088282585144043,-0.44563141314065036,1.2847969414487481,-8.755151234555244,-0.22186491912540574,-0.00841000396758318,0.0012816637754440308,4.226938481086492,0.004212528467178345
1746576143937588200,1.925588134765625,0.14621497255081212,0.0020493825431913137,0.06646820728493545,0.012659423053264618,0.004795813887340118,0.9727592614586883,0.04307110904510321,right,-0.0006898641586303711,-0.44596641242896085,1.2890332638442517,-8.753096640112995,-0.22203207347127243,-0.006766116712242365,0.0011424720287322998,4.229902591589093,0.0035244226455688477
1746576143977588200,1.965588134765625,0.14672256929721936,0.0021787970326840878,0.06669845640217693,0.010883450508117676,0.004772280124229984,0.9727054375320423,0.04316483056307479,right,-0.0017889738082885742,-0.44630134919492476,1.2932690017178654,-8.751039123061298,-0.22219919715480907,-0.00512222945690155,0.0010033845901489258,4.232865533047915,0.0028364956378936768
1746576144017588200,2.005588134765625,0.1470911761336031,0.0030308235436677933,0.06684811262219999,-0.005531987175345421,0.004816413689586552,0.9726520591222763,0.043368940608583866,right,-0.0009428262710571289,-0.4466725654050245,1.2962642380110918,-8.749007324972748,-0.22238727875240033,-0.0026405544485896826,-0.000013262033462524414,4.236149084763229,0.0010576248168945312
1746576144057588200,2.045588134765625,0.14720981705635397,0.007017688825726509,0.0668527332125886,-0.006674774922430515,0.005031603937836434,0.9726435496421963,0.04384099523547055,right,0.0005020499229431152,-0.44670365564084324,1.297282913534343,-8.748723247334361,-0.22241845212960532,0.0007837135344743729,-0.0007981359958648682,4.236424102312326,0.0018749535083770752
1746576144097588000,2.085587890625,0.1471316904219308,-0.005763151682913303,0.06678828849780193,-0.011359812691807747,0.00515868055588845,0.9726480384031049,0.04408265221335812,right,-0.0008586645126342773,-0.44668106401497454,1.2966133437097072,-8.748919062167406,-0.22241534423102718,0.0013026786036789417,-0.0016227662563323975,4.236224195826053,0.0019962191581726074
1746576144137588200,2.125588134765625,0.14691803008139967,-0.01126493513584137,0.06671807999387917,0.0019996678456664085,0.005013354387369068,0.9726362138787172,0.04374914960365723,right,-0.002169489860534668,-0.4468615979921519,1.2946321067646145,-8.748439169695972,-0.2224914044065433,-0.006508596707135439,-0.0007242262363433838,4.237820817367732,0.002495795488357544
1746576144177588200,2.165588134765625,0.14718013329330257,-0.0003301454707980156,0.06686944862470846,0.006115398369729519,0.004764656488541922,0.9725230334979602,0.04337311795456155,right,-0.0009535551071166992,-0.44782061967005954,1.296328389288485,-8.744075129267573,-0.22294551951604807,-0.01337321475148201,-0.0011341869831085205,4.246300184160471,-0.001687556505203247
1746576144217588200,2.205588134765625,0.14748235923973227,0.003035697853192687,0.06696486707013481,0.0019402019679546356,0.004934292362029703,0.9724923218416451,0.04380532080188114,right,-0.0008684396743774414,-0.4479989733556814,1.298859807462245,-8.742934142538905,-0.22304736220879406,-0.011480607092380524,-0.00045402348041534424,4.2478769319579,0.0005699396133422852
1746576144257588200,2.245588134765625,0.14783417083242137,0.005559477023780346,0.06708173314765908,0.009443150833249092,0.005085416326757008,0.9724377113164412,0.0442268181289325,right,-0.00009721517562866211,-0.44837846531361997,1.3016979534976183,-8.740881301662325,-0.22324675849519318,-0.017237480729818344,0.0005341768264770508,4.251230918560922,0.0027527809143066406
1746576144297588200,2.285588134765625,0.14807512482744553,-0.00006721727550029755,0.06715855749480673,0.004704426974058151,0.005165150186792386,0.9723663115776578,0.04449116859286047,right,0.0032404065132141113,-0.44894705150016806,1.3034472813829778,-8.738174965313076,-0.22353249574424802,-0.011370962485671043,0.0011800676584243774,4.256254884202778,-0.0008371472358703613
1746576144337588000,2.325587890625,0.14841719842303921,0.0037428983487188816,0.0672883544696215,0.005821440368890762,0.005251157265526423,0.9723228458902381,0.044769251649639054,right,-0.000707089900970459,-0.4492308492001026,1.3062576626285909,-8.736533627846837,-0.22368059704175255,-0.006470297463238239,0.0002170950174331665,4.258761898587644,0.0015811920166015625
1746576144377588200,2.365588134765625,0.148533084556668,0.0008325027301907539,0.06731635112356034,0.0013324576430022717,0.00532131703428615,0.97228226793688,0.04496632280806384,right,-0.00003600120544433594,-0.44955909800032173,1.307063133792579,-8.73499925788641,-0.22384698382604368,-0.0071728830225765705,0.0013347268104553223,4.261661419421434,0.0034160315990448
1746576144417588200,2.405588134765625,0.1486904869996214,0.0001456664176657796,0.06737776982794831,0.00483638234436512,0.0053461388272566185,0.9722557633827889,0.04506870517999203,right,-0.00005346536636352539,-0.44974856767097166,1.308318394550681,-8.733995049279928,-0.22394289500546186,-0.001257866621017456,0.00024336576461791992,4.2633349055916065,0.0021752119064331055
1746576144457588200,2.445588134765625,0.14889515103037398,0.0022752932272851467,0.06746940653672154,0.005720106884837151,0.005351143580957442,0.9722430705353051,0.04513017966479369,right,0.00034624338150024414,-0.4497991892886574,1.3100738599158823,-8.733513403242826,-0.22397011410064926,0.001567605184391141,0.0004533529281616211,4.263781772576272,0.0015339255332946777
1746576144497588200,2.485588134765625,0.1490772572287193,0.001647264463827014,0.06755307045955082,0.005019809119403362,0.00536153879684985,0.9722455017013442,0.04518720327967013,right,0.0009034276008605957,-0.44972011680003465,1.3117143205992876,-8.733608095788956,-0.22393411597993526,0.004450283013284206,-0.00013552606105804443,4.263083561179042,0.0014161765575408936
1746576144537588200,2.525588134765625,0.14933600842091835,0.002098431345075369,0.06767662113927847,0.006027726922184229,0.005353083152245171,0.9722464079582006,0.04522235288633769,right,0.0011304616928100586,-0.4496318953556729,1.3140300501957536,-8.733640244492888,-0.22389314040478855,0.002637791447341442,0.00012949109077453613,4.26230439350009,0.0015952885150909424
1746576144577588000,2.565587890625,0.14966272574987377,-0.00009786896407604218,0.06783964086453101,0.006522888783365488,0.005306331274833224,0.9722426168082191,0.04519617405810954,right,-0.00032764673233032227,-0.4495664285855224,1.3169250409848987,-8.733486515235901,-0.2238613267958434,0.004266113508492708,0.0005735307931900024,4.26172630135119,0.0008630752563476562
1746576144617588200,2.605588134765625,0.1499103096244319,-0.000041318151488667354,0.06795989090447992,0.002753821900114417,0.005288050055317185,0.9722421984682318,0.04520972303625367,right,-0.0009920597076416016,-0.44949347868755846,1.3191336569450796,-8.733467226013541,-0.2238270124357225,0.001801060512661934,0.0009522587060928345,4.26108186596781,0.0015107393264770508
1746576144657588200,2.645588134765625,0.15002375542874352,0.005911677610129118,0.06800086176673906,-0.0051134200766682625,0.005343025567988479,0.972243428962177,0.045344961218276574,right,-0.00045669078826904297,-0.44944404209910227,1.3201558395996689,-8.73352567820251,-0.22380789828799946,0.003656979650259018,0.00007668137550354004,4.260645228116214,0.00136566162109375
1746576144697588200,2.685588134765625,0.1500236165504633,0.00021400628611445427,0.06798096373529877,-0.00408327067270875,0.005449641577787572,0.9722611216354156,0.0455509368802439,right,-0.0002601146697998047,-0.4492783037297528,1.320260176756978,-8.734224181860684,-0.22373439895372177,0.0073079452849924564,-0.0011342614889144897,4.259181293043494,0.0018039047718048096
1746576144737588200,2.725588134765625,0.14983717587996193,-0.010737663134932518,0.06793144160679063,0.006243623327463865,0.005302133661558901,0.972277652271528,0.04519788136089055,right,-0.002230525016784668,-0.4491944876497086,1.318685036394745,-8.734823316797614,-0.2236811850835345,0.000578025821596384,0.00026892125606536865,4.258440703809261,0.0031721293926239014
1746576144777588200,2.765588134765625,0.14983099710039463,-0.010305872187018394,0.06798689353714929,0.005612634588032961,0.005010337266679514,0.9722447581944177,0.044621371390948544,right,-0.0017278790473937988,-0.4495082988805716,1.3184315000250935,-8.733509311589598,-0.22381401471423287,-0.006147613748908043,-0.00040043890476226807,4.2612127988710995,0.001062631607055664
1746576144817588000,2.805587890625,0.14991570229760565,0.0028587449342012405,0.06804392701761837,0.0033716268371790648,0.004906167416539514,0.972219031988092,0.04444351704583887,right,0.0001703500747680664,-0.4497195953192871,1.319036772441864,-8.732507441070675,-0.22391080759717188,0.0008166362531483173,-0.0005552321672439575,4.2630788850039245,-0.0014359056949615479
1746576144857588000,2.845587890625,0.14997760251016912,0.005396081134676933,0.06805951038478175,-0.0020412851590663195,0.004978011314943776,0.9722307653237429,0.0445952188911986,right,0.0003955960273742676,-0.4495905468246502,1.319659580515325,-8.732969213363528,-0.22385344317687178,0.001954536885023117,0.0003120005130767822,4.261939067319036,0.0009764134883880615
1746576144897588200,2.885588134765625,0.15005635332007874,0.002905747853219509,0.0680787682648668,0.0019237033557146788,0.005063792938151721,0.972238389885407,0.04478197398285552,right,-0.0007407665252685547,-0.4494928481856804,1.320409522099793,-8.733277256399393,-0.223812540685206,-0.0028910930268466473,0.0010368525981903076,4.261076313009858,0.0025247931480407715
1746576144937588200,2.925588134765625,0.1501381901676125,-0.00501049030572176,0.0681143749559662,-0.0033745577093213797,0.005055869081957043,0.9722204026963016,0.044795576887960493,right,-0.0011029243469238281,-0.4496306535691417,1.3210364218264818,-8.732588689613342,-0.22388014129538836,-0.0019479140173643827,-0.00008128583431243896,4.2622932875841855,0.0007848739624023438
1746576144977588200,2.965588134765625,0.15018948307340477,-0.0020431845914572477,0.06812048746359113,-0.004469686187803745,0.005129076063913282,0.9722157555334632,0.044959804594372904,right,-0.001017749309539795,-0.44965329564424095,1.3214698448076843,-8.73242560800612,-0.2238968597702016,-0.0041060615330934525,-0.00023874640464782715,4.262493486331403,0.0017886459827423096
1746576145017588200,3.005588134765625,0.15024079874727442,0.0009241208899766207,0.06812660729610334,-0.005564814433455467,0.005202283045869613,0.9722111083706247,0.04512403986386766,right,-0.0009326338768005371,-0.4496759384918967,1.321903560049832,-8.732261941877008,-0.22391357960779668,-0.0062642088159918785,-0.00039623677730560303,4.262693392817676,0.002792447805404663
1746576145057588200,3.045588134765625,0.15030694426378344,0.004311943426728249,0.06814199839941815,0.000006423331797122955,0.005265494109100403,0.9722065021069509,0.045270728425416296,right,0.0007408261299133301,-0.4496935504452841,1.3224698156304657,-8.732100613835453,-0.22392731056447038,0.00016249995678663254,0.0003780871629714966,4.262848875640333,0.002790093421936035
1746576145097588000,3.085587890625,0.1504599755049263,0.0024877325631678104,0.06820831834494273,0.0026315650902688503,0.005293115422036872,0.9722097904276623,0.04535644433409852,right,0.0006729960441589355,-0.4496146684001007,1.323856593813747,-8.732230377694965,-0.22389231439301308,0.0039006457664072514,0.001032814383506775,4.262152125547826,0.002013176679611206
1746576145137588200,3.125588134765625,0.1507233438639958,0.0009049715008586645,0.06833485955829963,0.004340072628110647,0.005297893662702997,0.9722254527376932,0.04540876716220914,right,-0.00020879507064819336,-0.4493895269785533,1.3263003337040542,-8.732830097153782,-0.22378544752389315,0.008916622959077358,0.0015024393796920776,4.260163582079112,0.002616196870803833
1746576145177588200,3.165588134765625,0.1508773053640351,-0.001155329868197441,0.06842176258337804,0.0006321840919554234,0.005258948115334553,0.972247734091407,0.0453440437278913,right,-0.00144881010055542,-0.4491412422177326,1.3278037240043281,-8.733671224153042,-0.22366303649394095,0.009197361767292023,0.002937689423561096,4.257970455949009,0.004258841276168823
1746576145217588200,3.205588134765625,0.15083913678566524,-0.0003810151247307658,0.06841740684908748,-0.0012896062107756734,0.005230971853344333,0.9722756136861143,0.04525843980644284,right,-0.0006396770477294922,-0.4489024488520753,1.3276232528708873,-8.734726870685815,-0.22354400260337076,0.008264189586043358,0.0033061057329177856,4.255860916449129,0.0026986002922058105
1746576145257588200,3.245588134765625,0.15077340476185488,-0.0007451975252479315,0.06839776974696433,-0.00395673094317317,0.005223300880666118,0.9723122653991426,0.04520237225594544,right,-0.0006883144378662109,-0.4485902491784597,1.3272485743395983,-8.736126800611615,-0.2233902810782578,0.013693822547793388,0.0012110620737075806,4.253102265390753,0.0014689266681671143
1746576145297588200,3.285588134765625,0.15054250623297927,-0.003950384445488453,0.06831019529587727,-0.008641774766147137,0.005203056011243529,0.9723752649280692,0.04506756650144716,right,0.0000985860824584961,-0.44809205164825394,1.3255489308148622,-8.738526847490668,-0.22314305808177007,0.016236986964941025,0.0003362894058227539,4.248699646517634,0.000998467206954956
1746576145337588000,3.325587890625,0.15013314060236754,-0.002206650096923113,0.06814397786778285,-0.007473107427358627,0.005182661950775858,0.9724584811503928,0.044881406502923625,right,0.001704394817352295,-0.44746590364993616,1.3223692778654397,-8.741697294220328,-0.2228314437298805,0.01596221886575222,-0.0000616610050201416,4.243164516483247,-0.00047454237937927246
1746576145377588200,3.365588134765625,0.14973792292324142,-0.009335220791399479,0.06797911364701018,-0.01221112348139286,0.005180964750023026,0.9725381582289904,0.04473936696166656,right,0.0006855130195617676,-0.44686663635863344,1.3192933775514364,-8.74473271639347,-0.2225343892165598,0.013021042570471764,-0.0014002323150634766,4.237865533292293,0.00007650256156921387
1746576145417588200,3.405588134765625,0.14940279320465558,-0.008966244757175446,0.06786900093709276,-0.0003975462168455124,0.005032036886089358,0.9725907232328767,0.04432714194744011,right,-0.0009973645210266113,-0.4464998927357448,1.3165939093343912,-8.74671015394628,-0.22234134208705772,0.004477960988879204,-0.0005443692207336426,4.234621729065478,0.001311182975769043
1746576145457588200,3.445588134765625,0.14935629621387642,-0.005579068791121244,0.06788236184453408,0.004271280486136675,0.004871718214660175,0.9725858107030722,0.043992169215180295,right,-0.0011545419692993164,-0.44656669333767945,1.3161451426535844,-8.746491542759538,-0.22236231922696986,-0.003921071998775005,-0.0014620870351791382,4.235212680695951,-0.0009374916553497314
1746576145497588200,3.485588134765625,0.14952131539357494,0.001690322533249855,0.06796601166477374,0.0031739205587655306,0.004826017010395007,0.9725690923137474,0.043944101679522105,right,-0.000746607780456543,-0.44666916091816167,1.3175237375304103,-8.745845061549543,-0.22241087860767664,-0.0009192677680402994,-0.0018724501132965088,4.23611898188591,-0.003189772367477417
1746576145537588200,3.525588134765625,0.14957684163455343,0.005673089995980263,0.06796425412104752,-0.001245064428076148,0.0049351094654305015,0.9725571624502524,0.044188013504120216,right,-0.0003077983856201172,-0.44675516798535736,1.3179551146849988,-8.745411930829286,-0.2224610997521578,-0.006694141775369644,-0.0007718652486801147,4.236879737125337,-0.0013149082660675049
1746576145577588000,3.565587890625,0.1498880782620947,0.006787904538214207,0.06806267651828467,0.0068403976038098335,0.00509340161494455,0.9725111005700433,0.044609858668643476,right,-0.000600278377532959,-0.44706880976880325,1.3204783495523034,-8.74368700673282,-0.22262863035504302,-0.014752255752682686,-0.00028680264949798584,4.2396532934919,0.0007831454277038574
1746576145617588200,3.605588134765625,0.15007353404664212,0.004334358498454094,0.06810792381337318,0.003993188496679068,0.00520515206766094,0.9724471428671378,0.04492377553229876,right,0.0006620287895202637,-0.44758776436460357,1.3217708735808729,-8.741265332543849,-0.22289191114634324,-0.011599699035286903,-0.0005107223987579346,4.2442417903259395,-0.0015875697135925293
1746576145657588200,3.645588134765625,0.150416507355606,0.009627720341086388,0.06821933037947835,0.006668335758149624,0.005348105524395881,0.9723807144128988,0.045335683565725836,right,-0.0018758773803710938,-0.44807585727944876,1.324458212968707,-8.738762409812212,-0.2231439924581277,-0.014420607127249241,0.00002352893352508545,4.248556438654661,0.001568138599395752
1746576145697588200,3.685588134765625,0.15076336815292773,0.007078257389366627,0.0683236159366839,0.0041634635999798775,0.005498395067613836,0.9722866694114375,0.045783821371400274,right,-0.0004311800003051758,-0.44881202314689117,1.3270191494978965,-8.735207932201027,-0.22351785294230178,-0.019102968275547028,0.00003692507743835449,4.255061875025928,0.002012282609939575
1746576145737588200,3.725588134765625,0.15117957223653172,0.0035008995328098536,0.06847758772844009,0.0059334528632462025,0.0055930015125127824,0.9722103200687712,0.04611908251672735,right,0.00017148256301879883,-0.4493674231404559,1.330298609559983,-8.732316886934637,-0.2238002552756472,-0.008439715020358562,-0.0004839599132537842,4.259968351767957,0.001960545778274536
1746576145777588200,3.765588134765625,0.15155804318957708,0.0036433935165405273,0.06863576849276212,0.007210863754153252,0.005628502286047091,0.9721666718511338,0.04630145486948768,right,0.0004093050956726074,-0.44964107306576306,1.3334272629745303,-8.730660351899266,-0.2239404811692096,-0.003018963150680065,-0.00017090141773223877,4.262385349781811,0.0021737217903137207
1746576145817588000,3.805587890625,0.1519284826106506,0.004593707621097565,0.06879395220899813,0.00609277468174696,0.0056565551935431405,0.9721311389411511,0.04646102511776069,right,-0.00032716989517211914,-0.4498441264074459,1.336530343556404,-8.72931010633409,-0.22404561947924456,-0.002578144893050194,0.0010156631469726562,4.264178662939369,0.0026890039443969727
1746576145857588000,3.845587890625,0.15219961670476867,0.004225060343742371,0.06889787057828385,0.00437914440408349,0.005720337551843566,0.972097749610849,0.04667210503948235,right,-0.0005987882614135742,-0.45005712446173507,1.3387594177827238,-8.728049292618035,-0.22415709185863164,-0.003116843057796359,0.0023612231016159058,4.266059654380381,0.00238955020904541
1746576145897588200,3.885588134765625,0.15241568460128796,0.004989833105355501,0.06897297116823647,0.0019524660892784595,0.005805704838300291,0.9720718636577566,0.046910654820618715,right,-0.0006909966468811035,-0.45021729853850145,1.3405414788939058,-8.727084246978164,-0.22424374133419236,-0.0012873973464593291,0.0018553882837295532,4.267473905092477,0.0017973482608795166
1746576145937588200,3.925588134765625,0.15247668342640117,0.005616931710392237,0.06897045886941976,-0.005009095184504986,0.005935852103400221,0.9720668688974814,0.047194057001521704,right,-0.0015850663185119629,-0.4502363754528126,1.341061411114782,-8.72692233441472,-0.22426294753288015,0.0021218699403107166,0.0013198554515838623,4.267642247396707,0.002260357141494751
1746576145977588200,3.965588134765625,0.15225888262384057,0.009068038314580917,0.06884421371113615,-0.005801184568554163,0.006077426255422233,0.9720988528834983,0.04741648860828087,right,-0.0011133551597595215,-0.45000860742962095,1.3393081377066671,-8.728174380302429,-0.2241593406891367,0.007728171069175005,0.00003978610038757324,4.265631199835241,0.0020200014114379883
1746576146017588200,4.005588134765625,0.15198636794780107,0.00469146529212594,0.06870875809296634,-0.004806471057236195,0.006175152977746826,0.9721551215020908,0.047519770171996066,right,0.0011144280433654785,-0.4495800953209816,1.3372060508608816,-8.730345294600724,-0.22395395466094906,0.015665698796510696,-0.0011874139308929443,4.2618470051214095,0.002163827419281006
1746576146057588200,4.045588134765625,0.15151646021070725,-0.0061822016723454,0.06852562470448097,-0.003945378586649895,0.0060981886126498476,0.9722307349204412,0.04720995788129779,right,-0.00046372413635253906,-0.4490481373302076,1.3334455292835832,-8.733212374469637,-0.22368352694243374,0.01091521605849266,-0.00008624792098999023,4.257148033650219,0.0028050243854522705
1746576146097588000,4.085587890625,0.15127642941412786,-0.007602914702147245,0.06846493148125417,0.0016163075342774391,0.005897857012536081,0.9722546682078607,0.046732144638854674,right,-0.0002670884132385254,-0.44891885188730873,1.3314321436345578,-8.734076297822595,-0.22360363512476225,0.004177565220743418,-0.000702589750289917,4.256005877877771,0.002635478973388672
1746576146137588200,4.125588134765625,0.1510940884668032,-0.006475973874330521,0.06843250412569268,0.0033215817529708147,0.005685187563188047,0.9722724090880872,0.046245342513882154,right,0.0008003711700439453,-0.4488275374809165,1.3298980659350752,-8.734702905288339,-0.2235420824905391,0.008074851706624031,-0.000151023268699646,4.2551989454090595,-0.0006247162818908691
1746576146177588200,4.165588134765625,0.1510438925107715,-0.00003740284591913223,0.06843923182860487,-0.0003897491842508316,0.005588147138735594,0.9723037406898373,0.04601290188515934,right,0.00034296512603759766,-0.4485643972825333,1.32962801682204,-8.73587662524283,-0.22340616457612478,0.009176651015877724,-0.0011229664087295532,4.252874009592831,-0.0007254481315612793
1746576146217588200,4.205588134765625,0.15095895744774573,0.003293182933703065,0.06840712097545289,-0.00007360809831880033,0.005600798482888666,0.9723448568050163,0.045991387382651405,right,-0.00032019615173339844,-0.4482177680842961,1.3291076462097464,-8.737446651038526,-0.2232367994522447,0.007552803494036198,0.000974506139755249,4.2498105303689835,0.0007702410221099854
1746576146257588200,4.245588134765625,0.15106771810436082,-0.0011572686489671469,0.06845189829556755,0.0001232314680237323,0.005641110605243485,0.9723559088063013,0.04608814324263068,right,-0.0005808472633361816,-0.448080104363204,1.3301460493467747,-8.737879781758785,-0.22317355949473064,0.0016635437496006489,-0.001170426607131958,4.2485938480556005,0.0009436905384063721
1746576146297588200,4.285588134765625,0.15105790365095909,-0.0023185820318758488,0.06846858383273095,0.004761144518852234,0.005566444457043671,0.972372346658328,0.04592079601056644,right,-0.00023609399795532227,-0.4479376866825717,1.3301513100437818,-8.738491191655397,-0.22309862113120071,0.007430063560605049,-0.0004757195711135864,4.2473350801661605,0.00038358569145202637
1746576146337588000,4.325587890625,0.15118088462112125,-0.0009416001848876476,0.06854636953556574,0.0019335499964654446,0.005496590250244225,0.9723882530229573,0.04579081905383931,right,-0.003920078277587891,-0.44775835348795634,1.3313406659588216,-8.7390803897202,-0.22300737391376876,0.003017425537109375,-0.0013435184955596924,4.245749856801331,0.0025880634784698486
1746576146377588200,4.365588134765625,0.15126047051183636,0.003499925136566162,0.06859283902264923,0.005207229871302843,0.005460925881218718,0.9723919175691194,0.04573109633455045,right,-0.0015905499458312988,-0.44770124317983534,1.3320726334951818,-8.739214245232938,-0.22297780903011127,0.0005961591377854347,-0.0005451440811157227,4.245245122149586,0.0010500550270080566
1746576146417588200,4.405588134765625,0.1514742423255245,0.0038431526627391577,0.06868572895409396,0.003374530002474785,0.005504627210882457,0.9724013083487635,0.04585739898408435,right,-0.00025451183319091797,-0.44754580056925647,1.3340404264368115,-8.739581324979662,-0.22290721155356785,0.004807745572179556,-0.00038993358612060547,4.243870911186933,0.0008209943771362305
1746576146457588200,4.445588134765625,0.1517268960310363,0.0005229429807513952,0.06881097543982671,0.005935643799602985,0.005505871806236312,0.9724276316146602,0.04589191011347454,right,0.0006496906280517578,-0.44722603250119664,1.3364534789279103,-8.740584949064255,-0.22275373896569658,0.006256226450204849,0.001096278429031372,4.2410435788065195,0.0018320977687835693
1746576146497588200,4.485588134765625,0.1519709439837416,-0.0006679324433207512,0.068939524336859,0.0035831634886562824,0.005459769997579008,0.972440695203481,0.04583720175109142,right,-0.0005977153778076172,-0.44703180691582045,1.3387111947268246,-8.741072440320252,-0.22265815856137844,0.003263443475589156,0.00011308491230010986,4.23932625349462,0.001449882984161377
1746576146537588200,4.525588134765625,0.15212199672045684,0.003934243228286505,0.06900132300383721,-0.0005123820155858994,0.00548465415876133,0.9724271533181771,0.045928937327089595,right,-0.0006722211837768555,-0.4471051194736784,1.3399844295330345,-8.740563321754335,-0.22269736283181535,-0.0015536013524979353,-0.00011967122554779053,4.239974488270282,0.0009405910968780518
1746576146577588000,4.565587890625,0.1522678996353371,0.007481628097593784,0.06903413264360796,-0.00264165666885674,0.005626324994666892,0.972413709365426,0.04625929700287218,right,-0.0015640854835510254,-0.4471734388751207,1.3412158710241318,-8.740081091195345,-0.22274235951197313,-0.0007137029897421598,-0.0005447715520858765,4.240578591643273,0.001444011926651001
1746576146617588200,4.605588134765625,0.15223134341939862,0.004138576798141003,0.06898422627881344,-0.006757669150829315,0.005770389557702163,0.97241394625673,0.046547401950837564,right,-0.002346217632293701,-0.44717562102022307,1.3408949685066938,-8.740120838683843,-0.2227532483082545,0.0009891262743622065,-0.0014142096042633057,4.240597880865633,0.0017655789852142334
1746576146657588200,4.645588134765625,0.1519930277934557,-0.0005038133822381496,0.06885133391930602,-0.008586633950471878,0.005879908943434445,0.9724291586826658,0.046712464932639475,right,-0.0006052255630493164,-0.4471068402164717,1.338856156155467,-8.740728741449118,-0.22272484081312094,0.0016923497896641493,-0.00300733745098114,4.239989685839414,0.001901865005493164
1746576146697588200,4.685588134765625,0.15185955403438833,-0.003633438376709819,0.06878450339855054,-0.0006998702883720398,0.005914420438295304,0.9724434118389884,0.04674563076224281,right,0.0010001063346862793,-0.4470178104981307,1.3377465874783694,-8.74128053011298,-0.22268233590617426,0.003222554922103882,-0.0029832571744918823,4.239202334854006,0.0004939734935760498
1746576146737588200,4.725588134765625,0.15188299478971995,-0.012986129149794579,0.06885124561124795,0.01490055676549673,0.005670838226103359,0.9724446537123902,0.04624956256904497,right,-0.0005197525024414062,-0.4470120594563885,1.3379551156625151,-8.741272931328416,-0.22266254483952594,-0.0018311240710318089,-0.0008022934198379517,4.239151481449603,0.0021368861198425293
1746576146777588200,4.765588134765625,0.15233603414474553,-0.008432052098214626,0.06912932510706746,0.019703462719917297,0.005326483849758124,0.9723941949780974,0.04567210770406306,right,-0.0010541677474975586,-0.44734398309913215,1.341701462583989,-8.739274450987576,-0.22280513123745002,-0.008172002620995045,-0.001721307635307312,4.242086658118665,0.0010964274406433105
1746576146817588000,4.805587890625,0.1528552887169244,0.00046207569539546967,0.06939557133767871,0.013794058933854103,0.005172309157879832,0.9723449120103776,0.04549762372809248,right,-0.0008255839347839355,-0.44763332415961965,1.346052351269871,-8.737363064408301,-0.2229410144934268,-0.0007144375704228878,0.000011816620826721191,4.244644525907933,0.0002803504467010498
1746576146857588000,4.845587890625,0.1531031067576833,0.001050798688083887,0.06951917034636247,0.004825731739401817,0.005133550263139771,0.9723385424862476,0.04547310767364407,right,-0.0008228421211242676,-0.44761361657419496,1.3482302798308432,-8.737112304517627,-0.2229312255718608,0.00004550541052594781,0.0005702376365661621,4.244470338384807,0.0016979873180389404
1746576146897588200,4.885588134765625,0.15335920113893411,0.0008673383272252977,0.06964179827398063,0.008845288306474686,0.005098477976948331,0.9723168758622119,0.045469296809317716,right,-0.0012825727462768555,-0.44773098110372234,1.3503916956484316,-8.736274684649706,-0.22298873432650732,-0.006881985813379288,0.002228662371635437,4.245507864739,0.0033344924449920654
1746576146937588200,4.925588134765625,0.15350510457581598,-0.00516286538913846,0.0697095076036024,-0.0024257563054561615,0.005056434408809007,0.9722768023134504,0.04544240457262237,right,-0.00048542022705078125,-0.44804937424565616,1.351459617140889,-8.734740899211168,-0.22314285113112314,-0.005324351601302624,-0.0007106214761734009,4.248322337637841,0.0006228089332580566
1746576146977588200,4.965588134765625,0.15357345727119942,0.0005523404106497765,0.06972812081393394,-0.0035880019422620535,0.005111336323340453,0.9722730750497797,0.04557178388146026,right,-0.0019869208335876465,-0.4480585918278089,1.3520505687713622,-8.734609966307877,-0.22315201306525442,-0.0022029040846973658,-0.0002174079418182373,4.248403878441453,0.00290796160697937
1746576147017588200,5.005588134765625,0.15345799336488875,0.0003734894562512636,0.06964541548915561,-0.005245638079941273,0.005214711604629362,0.9722544485424952,0.045774466556493865,right,-0.0017116069793701172,-0.448260130604305,1.3509111894778907,-8.733919645956158,-0.22325666822996917,-0.009444903582334518,-0.0002219080924987793,4.250184916639328,0.0028713345527648926
1746576147057588200,5.045588134765625,0.15341862159087663,0.0008195132249966264,0.06960891589438666,0.0011674673296511173,0.005266390193101527,0.9722307076422068,0.04589024257669918,right,-0.0002899765968322754,-0.44848569756310924,1.3504207756124436,-8.733024742943048,-0.2233701623949494,-0.0026483936235308647,-0.0002592504024505615,4.252178428544104,0.0015467405319213867
1746576147097588000,5.085587890625,0.15348657022477294,0.001096770167350769,0.06963262193623859,0.0017417850904166698,0.005295971835565927,0.9722251434049917,0.04596893972247442,right,-0.0014184117317199707,-0.4485128893079731,1.350996529673785,-8.732818991237878,-0.22338628911435923,-0.00032716779969632626,-0.0006038248538970947,4.252418667040765,0.0016899406909942627
1746576147137588200,5.125588134765625,0.15357510263349855,0.004561753012239933,0.06966365631088603,0.001184823689982295,0.005341141191384738,0.9722242575325877,0.04608035363880304,right,-0.0010003447532653809,-0.44849041413109275,1.3517841729201376,-8.732793856796622,-0.22337948280912165,-0.0015600731130689383,-0.0004077702760696411,4.252220221859217,0.0010318458080291748
1746576147177588200,5.165588134765625,0.1536864879650807,0.0024481096770614386,0.06970431453848881,0.004302774555981159,0.005385471754058519,0.9722183743837803,0.04619840023331182,right,0.0007760524749755859,-0.44850573562901147,1.3527468804724514,-8.732578752741217,-0.22339133659005972,-0.0023149624466896057,-0.00013865530490875244,4.252355538676679,0.001849532127380371
1746576147217588200,5.205588134765625,0.15388164382342898,0.0024142493493855,0.06978557454809058,0.005868801847100258,0.005407710767575339,0.9721981099581528,0.04629889006553589,right,0.00025004148483276367,-0.4486259724226174,1.3543727281086146,-8.73180952193439,-0.2234537594284822,-0.004031669348478317,0.0006804019212722778,4.253417907211184,0.0019724369049072266
1746576147257588200,5.245588134765625,0.15396708695119027,0.0037287455052137375,0.0698043957506514,-0.003245115280151367,0.005468249399181789,0.9721696892918475,0.046461798653761405,right,-0.0011664628982543945,-0.44885327402616204,1.3549705478712915,-8.730738093310594,-0.22357007359411163,-0.004221917130053043,0.00010736286640167236,4.255426324424147,0.0011008977890014648
1746576147297588200,5.285588134765625,0.15395010245347954,0.0033616882283240557,0.0697596606254213,-0.005677348002791405,0.005606958924765304,0.9721504304031662,0.04675746102661891,right,0.0010785460472106934,-0.44902558088127065,1.354709704978019,-8.73003608252108,-0.22366404436142365,-0.0035571162588894367,-0.0009806156158447266,4.256948711685836,0.0027992427349090576
1746576147337588000,5.325587890625,0.15393018235866507,-0.00024407170712947845,0.06971485828557598,-0.003859897842630744,0.005751823418941143,0.9721416062350617,0.04705740375250318,right,-0.00047200918197631836,-0.44910437739621645,1.3544843717895447,-8.729731546616554,-0.22371271392378972,-0.0007305073086172342,-0.001600027084350586,4.257644877256452,0.0023498833179473877
1746576147377588200,5.365588134765625,0.1536136612579847,-0.010451267473399639,0.06959909886504521,0.005074409767985344,0.0056008870753166285,0.9721355544131992,0.04668758297463007,right,-0.0019986629486083984,-0.44926894098990905,1.3516139309197663,-8.729467342722415,-0.22377885953297674,-0.004703391343355179,-0.000030934810638427734,4.259098583196104,0.0038447678089141846
1746576147417588200,5.405588134765625,0.1535496070422652,-0.009341584518551826,0.06961551246656654,0.005362832453101873,0.005350480720715348,0.9720944141478802,0.04619099412923849,right,-0.0012006163597106934,-0.44967442498413723,1.3507906318381429,-8.727846463522315,-0.22395833910850665,-0.0060277353040874004,-0.00179329514503479,4.262679948814213,0.001167595386505127
1746576147457588200,5.445588134765625,0.15344006344047817,-0.002747330814599991,0.06959541956243488,0.000680909026414156,0.005207466843919746,0.9720890709547505,0.04587896833725906,right,-0.000466763973236084,-0.44976519240501506,1.3497753173157572,-8.72761207024455,-0.22399126530444394,0.008586950600147247,-0.0012497007846832275,4.263481620585918,0.0002238452434539795
1746576147497588200,5.485588134765625,0.15333178026527727,0.0006978423334658146,0.0695538292510477,-0.0017292348202317953,0.005210141682893569,0.9721268292203341,0.045834327080576234,right,-0.0002346634864807129,-0.4494580614255338,1.3490301980368793,-8.729051747658849,-0.22384026485565303,0.006906349211931229,-0.00029602646827697754,4.260769146756828,0.0010887086391448975
1746576147537588200,5.525588134765625,0.1532139714554273,0.0002764123782981187,0.0695004336964936,-0.0006849425844848156,0.005233071697807197,0.9721542712840199,0.045837004154433855,right,-0.0010253190994262695,-0.4492461232708602,1.3481396789379416,-8.730103302538394,-0.22373711601750307,0.0027355756610631943,0.0002856701612472534,4.258896923144161,0.002390235662460327
1746576147577588000,5.565587890625,0.15306691879002338,-0.006336394231766462,0.06944256248790881,-0.004696591757237911,0.0051919984977895645,0.9721611247197387,0.045717607747648846,right,0.001797318458557129,-0.44923326018198445,1.3468642521746457,-8.73035523147285,-0.22372633402781048,0.004228771198540926,-0.00012627243995666504,4.258783233636618,-0.0013315081596374512
1746576147617588200,5.605588134765625,0.1531640551074938,0.0007723774760961533,0.06948151184127903,-0.0002484247088432312,0.00524908702403696,0.9721856067931831,0.04583645026679586,right,-0.0014744400978088379,-0.44897746062226346,1.3478783976532518,-8.731300987890362,-0.22360647505029188,0.004892551340162754,-0.0008891820907592773,4.256523472011089,0.0012722611427307129
1746576147657588200,5.645588134765625,0.15307321294477919,-0.0003125505754724145,0.06942459691522525,-0.004827921278774738,0.005311906638687657,0.9721859841795477,0.045946624619183835,right,-0.0014666318893432617,-0.4489998495571547,1.3470707345321773,-8.731329044941067,-0.22362094042449573,-0.0024402057752013206,-0.00014753639698028564,4.256721332670748,0.001462697982788086
1746576147697588200,5.685588134765625,0.15302330995693478,0.002283186186105013,0.06938514625621126,0.0004250253550708294,0.005385414123419489,0.9721889807930809,0.04608514396090038,right,-0.0005692839622497559,-0.4489849101003499,1.346644618074596,-8.731459393322467,-0.22361835995718174,0.001924683339893818,-0.0005981773138046265,4.256589230723679,0.00033718347549438477
1746576147737588200,5.725588134765625,0.1530445512810379,0.00424512242898345,0.06937775968126003,0.0007338142022490501,0.005486378391731094,0.9722107563345996,0.046280571757144305,right,0.0001633763313293457,-0.4487753939702158,1.3469661051139235,-8.73231162623763,-0.22352343755556553,0.005745841655880213,0.0001322627067565918,4.254738342159986,0.0007759928703308105
1746576147777588200,5.765588134765625,0.15321470906114604,0.00405938969925046,0.06944363410511757,0.002706372644752264,0.0055685572092941124,0.9722287515827004,0.046470549140857964,right,-0.00002568960189819336,-0.44855351982820235,1.348595898272842,-8.733015390592813,-0.223422729289477,0.0012311874888837337,-0.00008812546730041504,4.252777855741978,0.002073138952255249
1746576147817588000,5.805587890625,0.15341043868282828,0.0031709217000752687,0.06952848798574611,0.003159227780997753,0.005588551417425072,0.9722191508364754,0.04655856645086414,right,0.00078582763671875,-0.44857672885494027,1.3502901349700986,-8.732653571543096,-0.22343760678696759,0.0008774351445026696,-0.00037920475006103516,4.252982730664312,0.0016224086284637451
1746576147857588000,5.845587890625,0.153649414467773,0.006187032908201218,0.06961885121117484,0.0030254521407186985,0.005673595414109954,0.9722096944399939,0.0467887920397755,right,0.0006477832794189453,-0.44858100513741167,1.3523742477677763,-8.73231221075952,-0.22344837111317836,-0.00036003958666697145,0.0004200488328933716,4.2530207245871425,0.0022873878479003906
1746576147897588200,5.885588134765625,0.15379070168243017,0.005102776922285557,0.06965752248866088,-0.0019416161812841892,0.00578272977735183,0.9721992118386451,0.047049424015271124,right,-0.00019377470016479492,-0.44862535409898124,1.3535790935128926,-8.731935194140672,-0.22347937726333642,-0.00129635538905859,0.000538066029548645,4.253412646514177,0.0015010833740234375
1746576147937588200,5.925588134765625,0.1537490478595312,0.0032045086845755577,0.06960841301366245,-0.007606391329318285,0.005914035748031652,0.9722008524035113,0.047309259013350986,right,-0.0005554556846618652,-0.44861672164523986,1.3532209277249871,-8.732027548599243,-0.223484109065236,0.0025574269238859415,-0.00029847025871276855,4.253336366407573,0.0017159879207611084
1746576147977588200,5.965588134765625,0.1536509144607145,0.0030949737410992384,0.06953319614832265,-0.005961855873465538,0.006053776258136195,0.9722114122847354,0.04756828619288158,right,-0.00020825862884521484,-0.44854531089679217,1.3524106342554092,-8.7324606793195,-0.22345812603077003,0.002360927639529109,-0.0006592124700546265,4.252705082766711,0.00043204426765441895
1746576148017588200,6.005588134765625,0.1533189182912047,-0.004939542151987553,0.06939446460423848,0.0027278130874037743,0.005988227367286639,0.9722199092594495,0.047359794821837116,right,-0.0014290213584899902,-0.44857758059174874,1.349490362894535,-8.732773398530483,-0.22346558458979932,-0.0014376488979905844,0.0008623898029327393,4.2529903294488784,0.001978754997253418
1746576148057588200,6.045588134765625,0.15320765916356133,-0.005333061795681715,0.06937249966950353,0.0014655283885076642,0.00583365479252079,0.9722010746611024,0.04703390917806293,right,-0.0001506805419921875,-0.44879278296248015,1.3483790406517684,-8.732018780770897,-0.22355847164657314,-0.0034015460405498743,-0.00037775933742523193,4.254891779156029,0.0009379982948303223
1746576148097588000,6.085587890625,0.15311815142185128,0.0029537216760218143,0.06934023583843744,0.0012275497429072857,0.005780798715928036,0.9721924170669936,0.04691363911155781,right,0.0012706518173217773,-0.44890308773875076,1.3475259309537708,-8.731675666421651,-0.22360760967853185,0.0036730573046952486,-0.00018386542797088623,4.255866469407081,-0.0009611248970031738
1746576148137588200,6.125588134765625,0.1530945552699727,0.006295158993452787,0.0693103437453151,-0.0012830195482820272,0.005881679504710345,0.9722084485325826,0.04710398624063538,right,-0.000024318695068359375,-0.44875976635792636,1.3474128259681164,-8.732309872671962,-0.22354452802452124,0.0010099869687110186,-0.0009252578020095825,4.254600102733075,0.0015211701393127441
1746576148177588200,6.165588134765625,0.15311003853944702,0.004797589499503374,0.06928473385641004,0.0029813542496412992,0.006021875157873397,0.9722051613069138,0.047397361638497185,right,-0.0005793571472167969,-0.44877693307161814,1.3475368907392025,-8.7322169336915,-0.22356307460568145,-0.0024161403998732567,0.0015028566122055054,4.254751786163449,0.003701716661453247
1746576148217588200,6.205588134765625,0.153114675747173,-0.005273518618196249,0.06927135060492573,-0.007585062645375729,0.006062901995212222,0.9721817652046993,0.04749991947127556,right,0.00021284818649291992,-0.44898511765355026,1.347442198193073,-8.731335474681854,-0.22366775883921727,-0.0010883421637117863,-0.0017623454332351685,4.256591276550293,0.0008820891380310059
1746576148257588200,6.245588134765625,0.15317245479024463,0.0021726470440626144,0.06928115696816162,-0.0030286861583590508,0.006144202484441562,0.9721864039442034,0.04767510492147647,right,-0.0016811490058898926,-0.44891984014458286,1.3479891645513473,-8.731531874036788,-0.22364230094705004,0.0009871639776974916,-0.0013646632432937622,4.256014353445172,0.001796126365661621
1746576148297588200,6.285588134765625,0.15324964105778602,0.0025850366801023483,0.06928463784955835,-0.002948680892586708,0.0062624769279593815,0.9721647629665778,0.0479497353976119,right,-0.001618504524230957,-0.44908476551381865,1.348556004653871,-8.730734001657366,-0.22373214668594282,-0.007933594286441803,-0.0015564262866973877,4.257471566516161,0.0029643774032592773
1746576148337588000,6.325587890625,0.15335636088283913,0.0007238596444949508,0.069313004433351,0.004439478740096092,0.006328404298990436,0.9721396442836298,0.04812554571373986,right,0.00021255016326904297,-0.4492745937209374,1.3493642522968352,-8.729791167849301,-0.22383076018627504,-0.0029668747447431087,-0.0006097406148910522,4.259148559817672,0.001196354627609253
1746576148377588200,6.365588134765625,0.15355108621681646,0.0017467368161305785,0.06940213909456705,0.006347096525132656,0.006323625725663071,0.9721268315279816,0.048165011023074966,right,-0.0008009672164916992,-0.4493287612855524,1.35102882450819,-8.729300753983855,-0.2238590446228871,0.0007363779004663229,-0.0005764663219451904,4.25962699098438,0.0011924505233764648
1746576148417588200,6.405588134765625,0.15394270029593368,0.0029074102640151978,0.06958133258017374,0.008476506918668747,0.006320191172505818,0.9721060084086258,0.04825330996649589,right,-0.0007530450820922852,-0.44939149471987716,1.3544061919867991,-8.72850638873577,-0.22389382314386141,-0.0010428312234580517,-0.0003933906555175781,4.260181117735803,0.0008263587951660156
1746576148457588200,6.445588134765625,0.1543093899154081,0.0033962130546569824,0.06974768902746487,0.008328394964337349,0.006308497532012346,0.972073868859689,0.04832802568651721,right,-0.0003319382667541504,-0.44956435717342313,1.3574936366081236,-8.727281230854988,-0.22398155105583442,-0.003920115530490875,-0.0004966109991073608,4.261707888911665,0.0010921955108642578
1746576148497588200,6.485588134765625,0.1546596431689606,0.0061416421085596085,0.0698884278145536,0.007711415644735098,0.006353468865391617,0.9720236084663642,0.04852946205479688,right,0.0006673932075500488,-0.44990420614860405,1.3603271064683795,-8.72537393592894,-0.2241547113282631,-0.008674388751387596,0.000006705522537231445,4.26470911655426,0.001481384038925171
1746576148537588200,6.525588134765625,0.15507402646962257,0.004789289087057114,0.07005153310629302,0.00542647996917367,0.006436700999119424,0.9719772032886457,0.04881967355525753,right,-0.0006802678108215332,-0.4501852240105626,1.3637575193084777,-8.723625046434998,-0.2243026436954775,-0.00439603254199028,-0.0001354813575744629,4.267190704236924,0.002319544553756714
1746576148577588000,6.565587890625,0.15528134279404734,0.001041030278429389,0.07012806872908812,0.001276473980396986,0.006503233788676821,0.971956397772471,0.04901416984980977,right,-0.0007977485656738281,-0.4503021674783679,1.3654887270152567,-8.722848801365494,-0.22436691580602902,-0.0013467101380228996,-0.00036494433879852295,4.268223262155056,0.0030518174171447754
1746576148617588200,6.605588134765625,0.15523859521899638,0.006520154885947704,0.07009613988604549,-0.0025917498860508204,0.006558975180626799,0.9719597896177844,0.04911731426478215,right,-0.0011862516403198242,-0.4502819300246639,1.3651292460530995,-8.722992593750357,-0.2243605662689881,0.0022761693689972162,-0.001030266284942627,4.2680446907177565,0.0016635358333587646
1746576148657588200,6.645588134765625,0.1552173114024146,0.0051579549908638,0.0700561325556664,-0.0027053190860897303,0.006696613610156885,0.9719654053729098,0.04939128284786245,right,0.0012089014053344727,-0.45022995315861675,1.3649778548836706,-8.723241015553475,-0.22434484733475654,0.0029981324914842844,-0.0012988150119781494,4.267585548773408,0.0012570321559906006
1746576148697588200,6.685588134765625,0.15492882569024286,-0.009135116823017597,0.06993004810143909,-0.0002499211113899946,0.006676658935563861,0.9719833653502596,0.049277970037684284,right,-0.000009298324584960938,-0.4501618477190267,1.362506204073131,-8.723921399033069,-0.22430685412359502,-0.00202836818061769,0.0009767711162567139,4.266984368009865,0.0015824437141418457
1746576148737588200,6.725588134765625,0.15485012981247684,-0.008979280479252338,0.06992821999602783,0.006023437716066837,0.006475100054587657,0.9719425343555219,0.0488788884731227,right,-0.0008938908576965332,-0.45056855345624164,1.3615518259577453,-8.72231337931454,-0.22449012421576792,-0.011499435640871525,0.00003324449062347412,4.2705750859782095,0.0013407766819000244
1746576148777588200,6.765588134765625,0.15491027227200366,-0.0026795980520546436,0.06996859729886785,0.0037053863052278757,0.006354147295834416,0.9718845241529241,0.048686388700914296,right,0.0010129809379577637,-0.45107957186869047,1.3617394574843347,-8.720074075955152,-0.2247317188942395,-0.007654623594135046,-0.0005735456943511963,4.275085841400921,-0.001074761152267456
1746576148817588000,6.805587890625,0.155051815254804,0.002515465021133423,0.0700179903848771,-0.0014296274166554213,0.0063939888549453235,0.97185516457141,0.048819203863962025,right,-0.00009834766387939453,-0.45129699732203915,1.36283017533049,-8.718962899842857,-0.22484236841368374,-0.00555840041488409,-0.0007374733686447144,4.277004534503817,0.0007317960262298584
1746576148857588000,6.845587890625,0.1550993327870903,0.0024784025736153126,0.07001614774715226,0.0027335083577781916,0.006469469243932712,0.9718299055075704,0.04900287197636302,right,0.0007429718971252441,-0.45150521211964495,1.3631069464452563,-8.718017727947235,-0.22495003338511846,-0.007519210688769817,0.0010183006525039673,4.2788419790640475,0.001835465431213379
1746576148897588200,6.885588134765625,0.15540212707903206,0.002463920507580042,0.07013400506162244,0.004360250197350979,0.006509059328419438,0.971773613502278,0.0491884302714413,right,-0.0005830526351928711,-0.45191244680075676,1.3654767443165183,-8.71588246948421,-0.22515522212606978,-0.008285395801067352,-0.00018033385276794434,4.282435035119951,0.0003860592842102051
1746576148937588200,6.925588134765625,0.1555143946201583,0.006005054339766502,0.0701776926251963,0.004877986386418343,0.006523719975573408,0.9717526976842784,0.04925722704597695,right,-0.00020569562911987305,-0.45206338379800304,1.3663551345862448,-8.715090442323683,-0.2252312831671857,0.003653629682958126,-0.000628739595413208,4.283766575984656,-0.00010719895362854004
1746576148977588200,6.965588134765625,0.1557634283649462,0.004762498661875725,0.07027759620847865,0.002816366497427225,0.006576317082490303,0.9717345455039241,0.04942987635588082,right,-0.0028200745582580566,-0.4521431388061886,1.368472419001162,-8.714412396931648,-0.22527687957223724,-0.0030984519980847836,-0.000720098614692688,4.284470048078894,0.0024612843990325928
1746576149017588200,7.005588134765625,0.1559184111493437,0.0016107878182083368,0.07033189281265072,0.003718020860105753,0.006609418022407134,0.9716946176513419,0.04955968501216519,right,-0.0006271004676818848,-0.4524504994835147,1.3696185202963649,-8.71289906975925,-0.2254311534156969,-0.003686870215460658,-0.00044508278369903564,4.2871810606032605,0.001328110694885254
1746576149057588200,7.045588134765625,0.15617369017247365,0.001194861950352788,0.07044654015277683,0.0068948641419410706,0.006600459129188821,0.9716679714236565,0.04961372640180567,right,0.0005974173545837402,-0.45260848653259916,1.3717372660160063,-8.711879663583636,-0.22551057959007267,0.00024195131845772266,-0.0005228519439697266,4.288574560788273,0.0013291239738464355
1746576149097588000,7.085587890625,0.156410685327285,0.00029603217262774706,0.07056251787028277,0.005635744426399469,0.00657309401564679,0.971662149714809,0.049610492304689696,right,-0.00029850006103515625,-0.45258574325577683,1.3738171410299838,-8.711650531002878,-0.22550020636878407,0.002760381670668721,0.00040417909622192383,4.288374069780111,0.002162635326385498
1746576149137588200,7.125588134765625,0.15665590566649265,-0.00012286464334465563,0.07068424640362565,0.006349841598421335,0.006524379726843915,0.9716452037480618,0.049573508541809794,right,-0.00010979175567626953,-0.45266150581953324,1.3759027151323855,-8.710992943876981,-0.22553647975613877,-0.0022423577029258013,0.0001487433910369873,4.289042178300023,0.0007957518100738525
1746576149177588200,7.165588134765625,0.1569368212821073,0.0032762479968369007,0.07081322122345664,0.0056977905333042145,0.0065034867123399225,0.9716168976856413,0.049609586892870275,right,-0.00004035234451293945,-0.45282612234897485,1.3782393413864076,-8.709908071249723,-0.22561857153164333,-0.0022617571521550417,0.0000546574592590332,4.2904938384130595,0.0002924203872680664
1746576149217588200,7.205588134765625,0.1571702492518691,0.006440356373786926,0.07089357326882469,0.002356836572289467,0.006602372682397877,0.9715932861742307,0.04987835536266813,right,0.0003587007522583008,-0.45295652008537823,1.3801847763657569,-8.709033626502752,-0.2256921476211595,-0.0008549874182790518,-0.0005153119564056396,4.291643592970073,0.001325458288192749
1746576149257588200,7.245588134765625,0.15738574969718053,0.0030681192874908447,0.07096852920364968,0.004308031871914864,0.006709014547130449,0.9715873293366132,0.05014601536433817,right,0.0009530186653137207,-0.45293386136555736,1.3820768737226723,-8.7088325509727,-0.2256913454114941,0.0008752918802201748,0.000016227364540100098,4.291443978744745,0.0015795230865478516
1746576149297588200,7.285588134765625,0.15765534033599435,-0.0008337239269167185,0.07109284297356265,0.005689598619937897,0.006708792062842895,0.9715788828893243,0.05020717053913961,right,-0.0005674362182617188,-0.4529219360151898,1.3844326430685818,-8.708509894889593,-0.22568863131276587,0.001166292349807918,-0.0003460198640823364,4.2913387648046015,0.0013325810432434082
1746576149337588000,7.325587890625,0.15784037766741976,-0.0003891837259288877,0.07118600663241861,0.00367914792150259,0.006660262086800154,0.9715610538469907,0.05015897898366082,right,-0.00019741058349609375,-0.4530248022307317,1.385974611813575,-8.707817820972204,-0.22573746019643962,-0.0002860315144062042,-0.000692412257194519,4.29224565051645,0.00023558735847473145
1746576149377588200,7.365588134765625,0.15803758704445148,0.005983786191791296,0.0712638548109884,0.0014461944811046124,0.006705788805618539,0.9715455509027202,0.05030462357849522,right,0.00032252073287963867,-0.45309664843548064,1.3876432756781578,-8.707239728823303,-0.22577818023389873,-0.0027546959463506937,-0.0019222348928451538,4.29287927224487,0.0008037388324737549
1746576149417588200,7.405588134765625,0.15846364635972907,0.0034898356534540653,0.07142569598251436,0.008705765008926392,0.006818661193508457,0.9715013915226758,0.0506573305433961,right,0.001837611198425293,-0.45334705113565604,1.3911832863725722,-8.705586116397381,-0.2259137216120225,-0.008694163523614407,-0.0016330629587173462,4.295087011422217,0.0009299516677856445
1746576149457588200,7.445588134765625,0.15860367849332038,-0.014330493286252022,0.07151893734648541,0.015109368599951267,0.0066242145748377276,0.9714385027211743,0.050334821201391496,right,-0.0008010268211364746,-0.4538776788465821,1.3920422412894666,-8.703139307767152,-0.22616018010061772,-0.015551356598734856,0.001353144645690918,4.299764355583489,0.003535360097885132
1746576149497588200,7.485588134765625,0.1589091092292511,-0.011975581757724285,0.0717229397660172,0.01628577522933483,0.006255247482104353,0.9713490320066678,0.04970810275071722,right,-0.001210629940032959,-0.45460212749479645,1.3942070181079207,-8.699635683560372,-0.2264902525477667,-0.017378097400069237,0.00014004111289978027,4.306148211401701,0.0020447373390197754
1746576149537588200,7.525588134765625,0.1592112146766901,0.0007345955818891525,0.07187831911749987,0.009400006383657455,0.0061033656009478205,0.9712705244300006,0.04951817066728357,right,-0.0004406571388244629,-0.4552146790853957,1.3964168031118809,-8.696607860171794,-0.22678158647551683,-0.007780053652822971,0.000050887465476989746,4.311544517487287,0.0007443130016326904
1746576149577588000,7.565587890625,0.15945351924734155,0.0021071366500109434,0.07197159043536595,0.0019034026190638542,0.006169562130872788,0.9712519034349312,0.04971811643322681,right,-0.0003173351287841797,-0.4552970489237449,1.3984674520313738,-8.695918708863854,-0.22682951082224395,-0.0021223188377916813,0.0006492137908935547,4.312269909152389,0.003433823585510254
1746576149617588200,7.605588134765625,0.1594835906208921,-0.004758360795676708,0.07199160129532961,0.005238374695181847,0.006132697138937709,0.9712422714351867,0.04965592855645002,right,0.0006279349327087402,-0.4553753033145068,1.39867539569363,-8.695543445810674,-0.22686533603649786,-0.0028923703357577324,0.0023566633462905884,4.312959352721274,0.004160106182098389
1746576149657588200,7.645588134765625,0.15974763828025432,-0.004554337356239557,0.07213520439038106,0.005275230389088392,0.006006084494732093,0.9712072007511976,0.04947696170534479,right,-0.00020235776901245117,-0.4556095347493098,1.400810654156655,-8.694176249110699,-0.2269733242141896,-0.00396361481398344,-0.0010273158550262451,4.315022130469978,0.0011296868324279785
1746576149697588200,7.685588134765625,0.1599233871481906,0.004341778811067343,0.07222803964546835,0.00606369087472558,0.005944225610309533,0.9711927609393104,0.04939707510652046,right,-0.0009425878524780273,-0.4556844340109452,1.4022871564500032,-8.693610431921481,-0.22700729890265675,0.005002307705581188,-0.0009369552135467529,4.315681763422489,0.00011178851127624512
1746576149737588200,7.725588134765625,0.16018192214159144,0.003328009508550167,0.0723393668919673,0.001865688245743513,0.005977033607427849,0.9711841713482504,0.04952419749225167,right,-0.0035796761512756348,-0.45567429917193564,1.4045416573785245,-8.693291282969712,-0.22700774641034135,-0.003467894159257412,-0.001009926199913025,4.315592331573367,0.002951294183731079
1746576149777588200,7.765588134765625,0.1602498783165166,-0.0015250779688358307,0.07236906081478398,0.0019402879988774657,0.005956630512438185,0.9711589873902698,0.049515572062903634,right,-0.0026465654373168945,-0.45587784800607106,1.404992323755473,-8.692327990895508,-0.22710639466226748,-0.004595589358359575,0.00003129243850708008,4.317384767948091,0.0016558170318603516
1746576149817588000,7.805587890625,0.16042693069617078,0.001106341602280736,0.0724506654203323,0.0029068717267364264,0.005935920117595692,0.9711362250757094,0.04952691020664125,right,-0.0009557604789733887,-0.45602403138421316,1.4064303937345741,-8.691455884236097,-0.22717824855140298,-0.0012459398712962866,0.000011280179023742676,4.318671885149181,0.0005980134010314941
1746576149857588000,7.845587890625,0.16064564113341143,0.0030054552480578423,0.07254383974825203,0.0024070614017546177,0.005973391864330182,0.9711335580757366,0.049650908498174114,right,0.00006473064422607422,-0.45597374240650623,1.4083660379722713,-8.691362945255637,-0.22715899480294516,0.00445948913693428,0.0003926903009414673,4.318229109817743,0.0008944571018218994
1746576149897588200,7.885588134765625,0.16081371987822132,0.0010829622624441981,0.07261824722849441,0.0008673417614772916,0.0059964107618782425,0.9711367932558397,0.04973024990772884,right,-0.0005018711090087891,-0.4558882479161208,1.409885941015929,-8.691490371027589,-0.22712089561675056,0.0016068974509835243,0.0007458925247192383,4.317476245623827,0.002016693353652954
1746576149937588200,7.925588134765625,0.16099503175644547,0.002090803347527981,0.07270006690236823,0.0015062913298606873,0.005999137309705586,0.9711272524990399,0.049780413994005256,right,0.0002497434616088867,-0.4559130451866205,1.411444568634778,-8.691128551977872,-0.22713529954653836,-0.0012911567464470863,-0.00048442184925079346,4.317694564549624,0.0008973479270935059
1746576149977588200,7.965588134765625,0.16122298981826577,0.0032743087504059076,0.0727878770260824,0.003096555359661579,0.006048953668692761,0.9710998566536152,0.04995073870330653,right,-0.0008361339569091797,-0.45607957291400125,1.4133103625066576,-8.690096870842575,-0.22722296464638242,-0.0015560751780867577,-0.0005298256874084473,4.319160837709903,0.0010848045349121094
1746576150017588200,8.005588134765626,0.16137930040038342,0.0020172058138996363,0.07284057544863443,0.001964177004992962,0.006120658521808008,0.971085424804533,0.05014130240332108,right,-0.0012694001197814941,-0.4561523831985741,1.4146182302348316,-8.68956554044485,-0.2272657049507296,-0.0009229750139638782,-0.000906139612197876,4.31980205822289,0.0019598007202148438
1746576150057588200,8.045588134765625,0.16154065269068382,0.0031883183401077986,0.07290750396352394,0.004790265113115311,0.006148402464674792,0.9710769892141385,0.05023795971007318,right,-0.0000546574592590332,-0.45617261524122227,1.4160061774618924,-8.689251067668199,-0.2272795361529048,0.0020084804855287075,0.0006370842456817627,4.3199800451382995,0.0016385018825531006
1746576150097588000,8.085587890625,0.1617042620160955,0.002049606991931796,0.0729813677141273,0.0014618502464145422,0.006167580739271309,0.9710826365033978,0.05030663932260896,right,-0.0009678006172180176,-0.4560677526638083,1.417500799933821,-8.689466171723604,-0.22723165057273567,0.002220905153080821,0.0010168999433517456,4.319056792813539,0.0018601715564727783
1746576150137588200,8.125588134765625,0.16165759926381384,0.0009040320292115211,0.0729597833337969,-0.0027131533715873957,0.006172501710611444,0.9710879049644093,0.05030311273343363,right,0.0010138154029846191,-0.4560361789245906,1.4171172074437142,-8.689667247253656,-0.22721605499684433,0.0022376899141818285,-0.00003488361835479736,4.318778852654993,0.00007340312004089355
1746576150177588200,8.165588134765626,0.16161290515529098,0.012751748785376549,0.07290520098502423,-0.0008517947280779481,0.006321705966683632,0.9710914901735109,0.050597632722796326,right,0.0017557740211486816,-0.4560094305597481,1.4167473512180149,-8.689844357386232,-0.22721370583660283,-0.0004051539581269026,0.0005227476358413696,4.31854329033345,-0.0011208653450012207
1746576150217588200,8.205588134765625,0.1616174391866611,-0.0012954454869031906,0.07286381435283686,-0.007820485159754753,0.006514480711139651,0.9710959420348936,0.05099117344100364,right,-0.0004513263702392578,-0.4559571073831516,1.4168231929332018,-8.690060630485416,-0.22720267142326206,-0.0010286805918440223,-0.0001068115234375,4.3180826870843765,0.0033058226108551025
1746576150257588200,8.245588134765624,0.16135158557144885,-0.013233148492872715,0.07277485867161573,0.00264686718583107,0.006337598566307779,0.9710771960515736,0.050587768760321644,right,-0.0012379884719848633,-0.4562234379838396,1.414328015116602,-8.689301921072602,-0.2273163188129399,-0.008515551686286926,0.00232599675655365,4.320427496644855,0.005098313093185425
1746576150297588200,8.285588134765625,0.1611699865477566,-0.006321154534816742,0.07272559295777217,-0.0028145737014710903,0.006121587830723372,0.9710258976425225,0.050146246341475846,right,-0.000843048095703125,-0.45675346089820956,1.4123824340067803,-8.687297010990976,-0.22755680166710812,-0.006896031089127064,-0.0001377314329147339,4.3250928581073875,0.0008761286735534668
1746576150337588000,8.325587890625,0.16108463344309573,0.008823619224131107,0.07267008394423913,-0.008067616261541843,0.0061665725015115505,0.9710078885636302,0.05023501854406937,right,-0.00127410888671875,-0.45693979363341103,1.4115116425216196,-8.68662188820839,-0.22765014724512983,0.002266155555844307,-0.0007686913013458252,4.3267330265298485,0.0018902122974395752
1746576150377588200,8.365588134765625,0.1608402263947086,0.0062698847614228725,0.07251572877382045,-0.012089218944311142,0.0063518888162015985,0.9710201545593838,0.05055600618276642,right,0.00032025575637817383,-0.45690035613304486,1.4094158392861484,-8.687135098427534,-0.22764190667059786,-0.0005492330528795719,0.0007238984107971191,4.326385820527374,0.0031089186668395996
1746576150417588200,8.405588134765624,0.16058429478752828,0.0031780218705534935,0.07236943675596859,-0.00556971225887537,0.006475831751037542,0.9710294702560803,0.05075075795471381,right,0.0004635453224182129,-0.45689419189951963,1.4071967019319533,-8.687521467396616,-0.22764515460107615,-0.0009877666598185897,0.0014377981424331665,4.326331459991634,0.0031132400035858154
1746576150457588200,8.445588134765625,0.16033712289017718,-0.006330329924821854,0.07225316053396831,-0.012953580357134342,0.006474447171085456,0.9710272421280778,0.05069875953941551,right,0.0006617307662963867,-0.4569963404278098,1.40497887975201,-8.687433204591274,-0.22769200032007947,0.0044023459777235985,-0.0010390430688858032,4.327230454657972,-0.000049591064453125
1746576150497588200,8.485588134765624,0.1601779404379634,0.0005609523504972458,0.07217242313558997,-0.0068918634206056595,0.006523005085692697,0.9710460360117098,0.05075126898622936,right,-0.0007426142692565918,-0.45687816152406724,1.403677441764623,-8.688161518865824,-0.22763605575199033,0.002634503412991762,-0.0010894089937210083,4.326190590216219,0.0015651583671569824
1746576150537588200,8.525588134765625,0.16013154708102711,0.0020410711877048016,0.07213104291747427,-0.0038903288077563047,0.006602878399193221,0.9710422705499705,0.05090868240547258,right,-0.00030612945556640625,-0.45692203914992235,1.4032441649138927,-8.688039353790879,-0.22766286921147505,-0.00252965884283185,-0.0007487982511520386,4.326576666924357,0.0013680756092071533
1746576150577588000,8.565587890625,0.16003282115189627,-0.003921865951269865,0.07208605090110856,0.0023764821235090494,0.006602959491320842,0.9710471056575996,0.05088479906029943,right,0.0016304254531860352,-0.4569115529806161,1.4023936855643986,-8.68822230914235,-0.22765659017615197,0.001493949443101883,-0.0006363838911056519,4.326484312465786,0.0013884007930755615
1746576150617588200,8.605588134765625,0.16009219812226466,-0.005186174996197224,0.07214042648435101,0.0054563069716095924,0.00649053163963348,0.9710484399896807,0.05066502545491484,right,0.0005767345428466797,-0.4568867478767481,1.4029266233973203,-8.688245105496048,-0.22763683247938582,0.00255234120413661,-0.0002250969409942627,4.326265993539988,0.0004911422729492188
1746576150657588200,8.645588134765624,0.1603213523577525,-0.0031884650234133005,0.07226117640579718,0.003990817815065384,0.00641798284840214,0.9710354433686551,0.050573197748895536,right,0.00002765655517578125,-0.4569317538519558,1.404886379162967,-8.687731310755014,-0.227656084525141,0.0004073216114193201,0.00023449957370758057,4.326662299381196,0.0013387501239776611
1746576150697588200,8.685588134765625,0.16055050834296783,-0.0011907548177987337,0.0723819217279196,0.0025253286585211754,0.006345448706945581,0.9710224440220656,0.05048140770915546,right,-0.0005214810371398926,-0.45697676042141905,1.4068461349286139,-8.68721693149209,-0.22767532055834,-0.0017376979812979698,0.0006940960884094238,4.327058312961459,0.002186387777328491
1746576150737588200,8.725588134765625,0.1606957138654457,0.0004096123157069087,0.07245506727377798,0.0022652260959148407,0.006296702382591077,0.9709996231530992,0.0504286699513521,right,-0.0006723999977111816,-0.4571344129624303,1.4079983737036585,-8.686338979613781,-0.2277503599087729,0.0001746198395267129,0.0012201368808746338,4.32844567566663,0.0016701221466064453
1746576150777588200,8.765588134765625,0.16079754797666437,0.0019556251354515553,0.07249694250263194,0.0007986727869138122,0.006323063810242227,0.9710005388928818,0.05050313920892428,right,-0.001183629035949707,-0.4570914552574567,1.4089127120696008,-8.686378727102278,-0.22773253562404389,0.004248533397912979,0.0006479024887084961,4.328067490004003,0.0016162991523742676
1746576150817588000,8.805587890625,0.16082651478775745,0.003372036851942539,0.07250445231708746,0.0006292305188253522,0.006365726374393958,0.9710143668526798,0.05058610574640455,right,-0.000044226646423339844,-0.4569560753542826,1.4092581645064055,-8.68691648724079,-0.227669970859596,0.004159202333539724,0.00025787949562072754,4.326876234392821,0.002073526382446289
1746576150857588000,8.845587890625,0.16091844727034818,0.000164784025400877,0.07255034679394755,0.0030526258051395416,0.006371911332448861,0.9710295249347342,0.050606085927223245,right,-0.00002586841583251953,-0.45679058482472706,1.4101714799590408,-8.687493410345912,-0.2275907057486579,0.005730403587222099,0.0006692409515380859,4.325419605843723,0.0009860694408416748
1746576150897588200,8.885588134765625,0.1610221531585881,-0.003650270402431488,0.07262080060522853,0.0035560305695980787,0.006294886907351321,0.9710435520508301,0.050458378237753454,right,-0.0004885196685791016,-0.4566360847157827,1.4111794879578052,-8.688007205086945,-0.22751072011113468,0.0036149858497083187,0.0006337016820907593,4.324060007928312,0.0009898245334625244
1746576150937588200,8.925588134765626,0.16097587476220096,0.0022823517210781574,0.07261506460601617,0.001943650539033115,0.006239421840368581,0.9710545987535762,0.05032635011964691,right,-0.00007468461990356445,-0.45655571667052475,1.410833158738166,-8.688415201365947,-0.22746680449282783,0.0024092269595712423,0.0003724396228790283,4.323352444180846,-0.001547098159790039
1746576150977588200,8.965588134765625,0.1610059561457334,0.013260332867503166,0.07259991122941728,0.002953137969598174,0.006386347568267063,0.9710720065435199,0.050620895874231554,right,0.0008701682090759277,-0.4563809786413063,1.4112155821844934,-8.68911838119924,-0.2273928540897629,0.00005460437387228012,0.00012621283531188965,4.321814274828136,-0.0004963874816894531
1746576151017588200,9.005588134765626,0.16087128412181503,-0.006506670266389847,0.07250960950473952,-0.010026350617408752,0.006514574031683641,0.9710816165922641,0.0508492249678507,right,-0.0003364086151123047,-0.4563321011756396,1.4100791255004703,-8.689516440606116,-0.22737699334691866,-0.003599152434617281,0.0010880380868911743,4.321384066717326,0.0037030279636383057
1746576151057588200,9.045588134765625,0.16050401271861273,-0.01587047055363655,0.07237587121915355,-0.0025789905339479446,0.006311913365941166,0.9710509941085335,0.0503808914677285,right,-0.002148926258087158,-0.4567384974128451,1.4066069193452595,-8.68829946603179,-0.22755598651485767,-0.013038547709584236,-0.00027792155742645264,4.324961340682209,0.00581786036491394
1746576151097588000,9.085587890625,0.16016424293831136,-0.008875212632119656,0.0722535737258996,-0.00642963545396924,0.006084808989513936,0.9709939993375932,0.04988799623282122,right,-0.00023621320724487305,-0.45737179145439394,1.4032177152983842,-8.686071268588304,-0.22784428238312418,-0.00771718705072999,0.0004493296146392822,4.330534464639425,0.0008231103420257568
1746576151137588200,9.125588134765625,0.15991837617530644,0.00450474489480257,0.072125596230312,-0.009567203931510448,0.006134087770436703,0.9709896206773482,0.04994184542651514,right,-0.0005531907081604004,-0.4574886741743017,1.4010015005536376,-8.685916370287536,-0.22790216788500064,0.002096721436828375,-0.000024184584617614746,4.331562638643383,0.0006745755672454834
1746576151177588200,9.165588134765626,0.15962234336753311,-0.00008035218343138695,0.071965014441702,-0.006617315579205751,0.006251472391753064,0.9710097962990618,0.05010646110327197,right,0.0005557537078857422,-0.4573990834547767,1.398491709689796,-8.68671365814507,-0.22786372831333923,-0.002017649356275797,0.0000518113374710083,4.330774410875141,0.0032612085342407227
1746576151217588200,9.205588134765625,0.1593772637937204,-0.004700478166341782,0.07185130377920668,0.0005431473255157471,0.006238878339421298,0.9710035303012744,0.050034722667238796,right,0.0005781054496765137,-0.4575358608475414,1.3962687729433179,-8.68647166608274,-0.22792672354381166,-0.004839517641812563,-0.0005336105823516846,4.331977941446006,0.0023896396160125732
1746576151257588200,9.245588134765624,0.15919169631184465,0.0005383794195950031,0.07177016516959621,-0.0063878996297717094,0.006198875903525937,0.9709909656243451,0.049923722913251305,right,0.0008336901664733887,-0.45771067180924396,1.394536688453704,-8.685982421261071,-0.22800694935090512,0.005469185765832663,-0.0006509572267532349,4.333515818537771,-0.0028018057346343994
1746576151297588200,9.285588134765625,0.15913273308711393,0.004688233137130737,0.07171435898282018,-0.0022028149105608463,0.006341552855911508,0.9710094064003897,0.050190641030092416,right,-0.0016091465950012207,-0.4575573437395478,1.3941298612184823,-8.686720672407747,-0.22794197170208397,-0.0008203000761568546,-0.0003685206174850464,4.3321667420163745,0.0008411407470703125
1746576151337588000,9.325587890625,0.1590560046166491,0.000718225259333849,0.07164567535767971,-0.0014517445815727115,0.0064558003118271685,0.9709873020866312,0.05042633809992991,right,-0.0006011128425598145,-0.4577723858436529,1.393315768356621,-8.685907602459192,-0.22805447985228355,-0.008375893346965313,-0.0004947781562805176,4.334058547112345,0.0011147260665893555
1746576151377588200,9.365588134765625,0.15899485878504396,-0.0006719839293509722,0.0716147308378549,0.0001850650878623128,0.00645115631127826,0.9709751311942547,0.05041340732346386,right,-0.00018739700317382812,-0.45790100513824716,1.3926963212840258,-8.685442323035002,-0.22811620102507543,0.0009710295125842094,-0.001337781548500061,4.335190181490779,-0.00013309717178344727
1746576151417588200,9.405588134765624,0.15901476535689577,0.00045639462769031525,0.07163322493369681,0.004659552592784166,0.006430000693369312,0.9709904651170618,0.05036238661280203,right,0.00036460161209106445,-0.4577592352931668,1.3929665165275333,-8.68602158422768,-0.22804567633694217,0.003897853195667267,-0.0006485283374786377,4.3339431040391325,0.00038883090019226074
1746576151457588200,9.445588134765625,0.1591691372205153,0.0009508646908216178,0.07171411251723554,0.0036097001284360886,0.0063903614546653885,0.9709878363977421,0.05031488421963076,right,0.0000928640365600586,-0.4577345593319785,1.3943243608772753,-8.68591169411242,-0.2280325032481535,-0.0009288322180509567,-0.0011756867170333862,4.333725954157114,0.0006992220878601074
1746576151497588200,9.485588134765624,0.15933089612975787,0.0048223091289401054,0.07177816447925198,0.0017793482402339578,0.006416280968555439,0.9709670691038816,0.050417469977643584,right,0.000042438507080078125,-0.457865422326493,1.3956393889985979,-8.68512609669268,-0.2281001669323849,-0.001878292765468359,-0.000989958643913269,4.334877170018851,-0.00001874566078186035
1746576151537588200,9.525588134765625,0.15951552933413882,0.007904288358986378,0.07182703203367641,0.0027997440192848444,0.0065693231095803346,0.9709597548728689,0.0507757179827129,right,-0.000072479248046875,-0.45786116400769006,1.3972458012819289,-8.684886442717909,-0.22811156249646397,0.0012933304533362389,-0.0010775178670883179,4.334839760617911,0.0016448497772216797
1746576151577588000,9.565587890625,0.15962439122377198,0.007332364562898874,0.07183985113765483,-0.0002447124570608139,0.006737578211651169,0.9709632514721451,0.051141235670618276,right,-0.0001328587532043457,-0.45778390631345006,1.3982444569304584,-8.685064721894264,-0.2280875896890505,0.0038690967485308647,0.0000623166561126709,4.334159961660206,0.002739131450653076
1746576151617588200,9.605588134765625,0.1597073385906826,0.00799512304365635,0.07184211057932031,-0.0004204247088637203,0.006918044100901262,0.9709826038815608,0.051514328886580044,right,-0.001056373119354248,-0.4575731834675434,1.3991101338490843,-8.685850319314003,-0.22799906959803576,0.004382147919386625,0.0004581660032272339,4.3323061504870655,0.003069460391998291
1746576151657588200,9.645588134765624,0.15976445942668763,0.006633440963923931,0.07182974315573248,-0.004912347998470068,0.007096076064048241,0.9709908292771046,0.051885583624114204,right,-0.0017203688621520996,-0.45747021386009884,1.3996772662125527,-8.686210969319939,-0.2279626505708284,0.003702722489833832,-0.0011877566576004028,4.331400433818995,0.0008835494518280029
1746576151697588200,9.685588134765625,0.15961599512013655,0.013524919748306274,0.07171413827920907,-0.008359315805137157,0.007321294987905111,0.9710137384437107,0.05229995245455088,right,-0.0005723834037780762,-0.4572996857152087,1.3985050075627863,-8.687147957909106,-0.22789427748575183,0.00724415760487318,-0.0015785694122314453,4.3298999661281705,-0.00021544098854064941
1746576151737588200,9.725588134765625,0.15951306661809814,0.007523109670728445,0.07161182285818456,-0.0057404604740440845,0.007590880269314367,0.9710443989757054,0.05280883438821167,right,0.0011146068572998047,-0.4570413161019622,1.397788529856503,-8.688395912143587,-0.22778681676804044,0.0024179494939744473,-0.002272173762321472,4.327626468238234,0.0007128417491912842
1746576151777588200,9.765588134765625,0.15922043635586822,-0.008203404024243355,0.07146206074719788,-0.004087039735168219,0.007661721170364084,0.9710585621303434,0.052883057224258984,right,-0.00015485286712646484,-0.4570059601210247,1.3952702634252607,-8.688955299592017,-0.2277712005466196,-0.002627205103635788,-0.0001623779535293579,4.327315210331976,0.00198248028755188
1746576151817588000,9.805587890625,0.1590542023043925,-0.009377575479447842,0.07142207375348214,0.0019774646498262882,0.007458547419358386,0.9710256706362039,0.05245657714158593,right,-0.0005815029144287109,-0.4573670363303442,1.3935782186850905,-8.687644216993451,-0.2279304865047429,-0.00813681073486805,-0.0000212937593460083,4.330492379063368,0.0021592676639556885
1746576151857588000,9.845587890625,0.15881220583173533,-0.0047704982571303844,0.07133384454082664,-0.0043752859346568584,0.007316692540618611,0.9709980434243782,0.05213623952215653,right,0.0003288388252258301,-0.457701604764207,1.3912465608671307,-8.686549992015957,-0.22808043332283637,-0.0005735582672059536,-0.000041961669921875,4.333436031299829,-0.0007367432117462158
1746576151897588200,9.885588134765625,0.1586247493718392,0.004147897008806467,0.07123581283329168,-0.007846768945455551,0.007370939663185971,0.9710069272347966,0.0522020460444974,right,-0.00034111738204956055,-0.4576794080363946,1.3896334265820682,-8.686905381324888,-0.22807133429136636,0.002729508327320218,-0.0013687312602996826,4.333240800988674,-0.0003834366798400879
1746576151937588200,9.925588134765626,0.15841579770718786,0.0034094522707164288,0.0711087908528351,-0.005910192616283894,0.007527091016996847,0.9710331071598161,0.052459616744569275,right,-0.00028961896896362305,-0.45750418557501393,1.3879380208410321,-8.68794524576664,-0.22799471370222846,0.0024039004929363728,0.0007683336734771729,4.331699124504626,0.003395974636077881
1746576151977588200,9.965588134765625,0.1583784184587016,0.002915037330240011,0.07107052596421963,-0.0007974570617079735,0.007617751345873538,0.9710343675768808,0.05263710887116449,right,-0.0005745291709899902,-0.4574987920317793,1.3876169721931217,-8.688020649090408,-0.2279982650212792,-0.0010971666779369116,0.00008057057857513428,4.331651778231561,0.001554250717163086
1746576152017588200,10.005588134765626,0.1581737924329925,0.006382659077644348,0.07097728048287712,0.002000819193199277,0.007618011990697996,0.9710443226108885,0.052587723578861406,right,0.00036638975143432617,-0.4574768305312327,1.3858540541738271,-8.688398250231145,-0.22798506985038314,0.008554481901228428,0.0009493380784988403,4.331458593747019,-0.0015174448490142822
1746576152057588200,10.045588134765625,0.15821523545501606,0.0031750027555972338,0.07097604660251054,-0.0011444713454693556,0.007725367299633092,0.9710596345238297,0.05280512732884641,right,-0.0036810636520385742,-0.4573194117836701,1.386321525555104,-8.689013751780987,-0.22791658894697825,0.000940671656280756,-0.0011374354362487793,4.330073569129407,0.0026145577430725098
1746576152097588000,10.085587890625,0.15807134786345167,0.001105044037103653,0.07089885190549283,-0.0009135821601375937,0.007760982605881452,0.9710544027918462,0.05285237389542982,right,-0.0008245706558227539,-0.4574091880700062,1.385010150695592,-8.688829042863846,-0.2279612781452113,-0.000853799981996417,-0.000575527548789978,4.330863258202374,0.0013306140899658203
1746576152137588200,10.125588134765625,0.15801511328123283,0.004015882033854723,0.07086511097578815,0.0003043671604245901,0.0078070895678465065,0.9710663773784327,0.052926329135371986,right,0.0006275177001953125,-0.4573176877893145,1.384583888107538,-8.689298413941264,-0.2279192911439594,0.00513430405408144,-0.00020059943199157715,4.330058371560275,0.0004999041557312012
1746576152177588200,10.165588134765626,0.15809870680548513,0.005853847600519657,0.07088627342820156,0.002119961194694042,0.007911480522640318,0.971088485430669,0.05314118064177356,right,0.000592350959777832,-0.4570860428247136,1.3854681235961614,-8.690172858688236,-0.22781487198362024,0.007979582995176315,-0.00003790855407714844,4.3280198514699935,0.0017008781433105469
1746576152217588200,10.205588134765625,0.15822827633627062,0.0019928656984120607,0.07093548763667755,0.0007217129459604621,0.00798307027534458,0.9711065106764737,0.053301284337362344,right,-0.00036275386810302734,-0.4568784798643328,1.3867356593139468,-8.690880130174756,-0.2277203704273499,0.002716544084250927,-0.0009370595216751099,4.326193220564723,0.0026334822177886963
1746576152257588200,10.245588134765624,0.1582720615674058,0.0015440742718055844,0.07095039136884479,0.0011229919036850333,0.007999998596064255,0.9711003904491895,0.05334971763959426,right,-0.0001233816146850586,-0.45691707408217813,1.3870897334486245,-8.690654504725337,-0.22774099802159423,0.0005486086010932922,-0.00031860172748565674,4.32653282778263,0.0008954405784606934
1746576152297588200,10.285588134765625,0.1583216794991013,0.005168002564460039,0.07096262412933395,-0.0008354788878932595,0.008050483442000088,0.9711028201876754,0.05346179817582947,right,-0.0005630850791931152,-0.45687579892395863,1.3875491676539182,-8.690762056753039,-0.22772514629958862,0.003634093329310417,-0.000662490725517273,4.326169839689135,0.001529008150100708
1746576152337588000,10.325587890625,0.15835860800105594,0.005532204173505306,0.07095732207388082,-0.0023795627057552338,0.008172960738268417,0.9711233215048318,0.05370524525167908,right,0.00017780065536499023,-0.4566717289728975,1.3880093325115739,-8.691582725486159,-0.22763494658150774,0.005058111622929573,0.00039511919021606445,4.324373603922129,0.002314954996109009
1746576152377588200,10.365588134765625,0.15827971765982365,-0.0007491149008274078,0.07091710007884364,-0.002918771468102932,0.008219658145101953,0.9711502824728578,0.053764255062259424,right,0.000005841255187988281,-0.4564534073687477,1.3874724491558967,-8.69262434349358,-0.22753080805291923,0.004020909778773785,0.0003522932529449463,4.322451988209783,0.0018799006938934326
1746576152417588200,10.405588134765624,0.1581894168763141,-0.00046346578164957464,0.07086903458608142,-0.0014403675450012088,0.00826449535349209,0.971166919097734,0.05382497737805259,right,0.0008066892623901367,-0.45633104815526515,1.386770730627328,-8.693271409225463,-0.22747322719075966,0.003130243392661214,-0.0011931955814361572,4.321374714367091,0.001451343297958374
1746576152457588200,10.445588134765625,0.15809910310797717,-0.00017781663336791098,0.07082096449399555,0.000038036261685192585,0.008309332561882389,0.9711835557226101,0.05388570358539387,right,0.0016074776649475098,-0.45620866706467716,1.386068865968287,-8.693919059479237,-0.22741563031604364,0.0022395772393792868,-0.002738654613494873,4.320297440524399,0.0010228157043457031
1746576152497588200,10.485588134765624,0.15780770568218355,-0.013696150854229927,0.0707003113309313,-0.0024742288514971733,0.008256756229644622,0.9711973388618935,0.05370710348394131,right,-0.0004999637603759766,-0.45618408980848557,1.3835520608417688,-8.694427593523264,-0.2273961840740005,-0.005456726066768169,0.000697404146194458,4.320081167425215,0.003018796443939209
1746576152537588200,10.525588134765625,0.1576354678632342,-0.011267947033047676,0.07066008884120839,0.002670943271368742,0.008028388588215177,0.9711534321375499,0.053236048677135675,right,-0.0006476044654846191,-0.45664870968507004,1.3817393123313784,-8.69268221116066,-0.2276042313097066,-0.013434022665023804,0.0000514984130859375,4.324171067087352,0.0014132559299468994
1746576152677881900,10.6658818359375,0.1561788645590443,0.0013128680875524879,0.06991971439917007,0.0013297208352014422,0.008158148662975253,0.9710564163215376,0.05327355331048874,right,0.0005582362646237016,-0.45797148178152236,1.368185126492381,-8.689027780306338,-0.22824130472601256,-0.0005682575283572078,0.0009383364813402295,4.335810066954791,0.0027186330407857895
1746576152717777200,10.705777099609374,0.15644521167989758,0.003710429649800062,0.07002761861970466,0.008890574797987938,0.008205448336630738,0.971035127053017,0.05344205246469495,right,-0.00006641866639256477,-0.4580716594662434,1.3704317363753915,-8.688233999580145,-0.22829689263374123,0.002524383831769228,-0.0005617607966996729,4.336691233703494,0.001259905518963933
1746576152757777200,10.745777099609375,0.15645127728307856,0.001130174146965146,0.07005020380869112,0.005037064664065838,0.008179182045334105,0.9710838474879646,0.05335274905151318,right,-0.001841723918914795,-0.45763851569036307,1.3707770426817238,-8.690080504229664,-0.22808368455586805,0.0009832531213760376,-0.0009753257036209106,4.332881027765572,0.002118229866027832
1746576152797777200,10.785777099609374,0.15640256773678676,-0.0008990888018161058,0.07004211279069768,0.0041043697856366634,0.008132617575636509,0.971097845936441,0.05323648138990039,right,-0.0001958608627319336,-0.4575329119794094,1.37042501437366,-8.690598975145816,-0.22802819049813247,0.0008282784256152809,-0.00020906329154968262,4.331951930221915,0.00046190619468688965
1746576152837777400,10.82577734375,0.15644834702754895,0.0014949287287890911,0.07007142816763386,0.005170282907783985,0.008122436693633923,0.9711175039112545,0.053210316003242615,right,0.00023102760314941406,-0.4573442991538695,1.370950061161071,-8.691343071511387,-0.22793595860260937,0.005484145600348711,-0.00024665892124176025,4.330292472577095,0.0005635619163513184
1746576152877777400,10.86577734375,0.15659851238192984,0.000615612487308681,0.07014445273432844,0.005433341953903437,0.008138087465392674,0.9711398737576675,0.053256785054982686,right,0.0007730722427368164,-0.4570960307431179,1.3724229101926086,-8.692198811557889,-0.22781775578539684,0.005749329458922148,-0.0004078298807144165,4.328107822014391,0.0009473860263824463
1746576152917777400,10.90577734375,0.15679941586394688,0.0008985448512248695,0.07024637141802538,0.004639407619833946,0.008126565275107678,0.9711577805758106,0.05326124712976322,right,0.00034433603286743164,-0.4568724540890586,1.3743202682465314,-8.692878610515594,-0.22771027903706134,0.0020192402880638838,-0.000037789344787597656,4.326140321333706,0.0013029873371124268
1746576153077471000,11.065470947265625,0.15752488271593262,0.004007883369922638,0.0705184726892102,0.003057085443288088,0.008398543846833906,0.9711397970301053,0.05398347203684113,right,-0.0001963955583050847,-0.45677839492519273,1.380690095539391,-8.692281229144335,-0.22769306087497868,0.0029872010927647352,0.002444930374622345,4.325312346076965,0.004107545129954815
1746576153117437200,11.105437255859375,0.15752533451429854,-0.00006355828372761607,0.07052128966248819,0.001587734092026949,0.008409817393267677,0.9711581916825096,0.05399269621740606,right,-0.0021844475995749235,-0.45661279880096384,1.380806269264966,-8.692987916108965,-0.22761307172362152,0.0035684520844370127,0.00005921692354604602,4.323854840745032,0.002182068768888712
1746576153277295400,11.26529541015625,0.1569806082918073,-0.015579246915876865,0.07028582250672005,0.00580797903239727,0.008332878467111183,0.971166079516251,0.053716039027829364,right,-0.000821050547529012,-0.4567242086479505,1.3759955079823731,-8.693262641397117,-0.22765509679242246,-0.01568973995745182,0.0009448332129977643,4.3248356684759255,0.002648817840963602
1746576153317295600,11.305295654296875,0.15702860724196804,-0.008486228995025158,0.07028730811225262,0.0028580124489963055,0.008395247988638487,0.9711427746856492,0.0538716366950617,right,-0.0003777146339416504,-0.45691151531205754,1.3762860153615475,-8.692396379956602,-0.22775163441013602,-0.010684479027986526,0.00045768916606903076,4.326484020204842,0.0029600858688354492
1746576153357295600,11.345295654296875,0.1570766710745701,-0.0013932110741734505,0.07028880104267235,-0.00009195413440465927,0.008457632159940411,0.9711194671294839,0.05402729600458718,right,0.00006562471389770508,-0.4570988279158563,1.3765771072626114,-8.691529533994197,-0.22784817339063165,-0.005679219029843807,-0.000029534101486206055,4.328132371933758,0.003271251916885376
1746576153397295400,11.38529541015625,0.15716451289650415,0.0012106937356293201,0.07031304888511444,0.003214116208255291,0.00851070283119543,0.9711030456655884,0.0541668683743924,right,-0.00010687112808227539,-0.4572125021162567,1.3772634820915757,-8.690922800272702,-0.22790859831733176,-0.00425133528187871,0.0013753026723861694,4.3291327811479565,0.00451996922492981
1746576153437295400,11.42529541015625,0.15725288111789512,-0.0033081970177590847,0.07034318426888035,-0.0028610210865736008,0.008545107988447377,0.9710913094350776,0.054264714473775955,right,0.0006537437438964844,-0.4572859693223449,1.3779817133635281,-8.690486746942996,-0.2279480502207658,0.0019382121972739697,-0.0002110600471496582,4.32977926235795,0.0018924176692962646
1746576153477295400,11.46529541015625,0.15724859998206886,-0.003465679008513689,0.07034500540821698,-0.004563548602163792,0.008553091129189278,0.9711114075553204,0.05426499299039823,right,-0.0005355477333068848,-0.4571077717086806,1.3780652999937533,-8.691254808706045,-0.22786160085593254,-0.0011193605605512857,-0.00021351873874664307,4.328211282388866,0.0021879076957702637
1746576153517295400,11.50529541015625,0.15724432193852644,-0.003623161232098937,0.07034682654755357,-0.006266075652092695,0.008561074269931178,0.9711315056755634,0.05426527329375657,right,-0.0017248988151550293,-0.4569295819029353,1.3781488866239786,-8.692022285947203,-0.22777515149109928,-0.004176933318376541,-0.00021597743034362793,4.326643010158836,0.0024834275245666504
1746576153557295600,11.545295654296876,0.15712206324766612,0.0003386854659765959,0.07029064554687217,-0.004116990137845278,0.008569867902822038,0.9711428439079226,0.05424940441482336,right,0.00024449825286865234,-0.4568671734050214,1.3771284575350582,-8.69245717023313,-0.22774379780816748,0.0005447287112474442,-0.000584915280342102,4.326093851843476,-0.00005644559860229492
1746576153597295600,11.585295654296875,0.15719665546350656,0.0005311212153173983,0.07031728793889058,0.00023071561008691788,0.008614864541167831,0.9711502355011431,0.05435161968820653,right,-0.00010633468627929688,-0.45677374873632615,1.3778401129357516,-8.6927535228312,-0.22770238974003074,-0.0009540368337184191,-0.000371783971786499,4.325271429544687,0.0007151961326599121
1746576153637295400,11.62529541015625,0.15727122999188167,0.0007235569646582007,0.0703439376557973,0.0045784213580191135,0.00865983562748441,0.971157571220829,0.054453770705328156,right,-0.0004572272300720215,-0.45668030011783073,1.3785516222059726,-8.693049875429272,-0.22766098303467613,-0.0024528023786842823,-0.0001586228609085083,4.324449007245898,0.0014868378639221191
1746576153677295400,11.66529541015625,0.15742817607967596,0.0017110431799665093,0.07041151922396914,0.0028168270364403725,0.008666082880704935,0.9711413733264835,0.0545113874133821,right,-0.0009538531303405762,-0.45677376265260333,1.3798526218019425,-8.692434373879433,-0.22770902351568037,-0.0035841751378029585,-0.0003578662872314453,4.325271721805632,0.0013377666473388672
1746576153717295400,11.70529541015625,0.15762833228156387,0.0049566482193768024,0.07048382664895132,0.002479397226125002,0.008727646661413704,0.9711156114234448,0.054698754486154064,right,-0.001563727855682373,-0.4569337597838788,1.3814837301351128,-8.691474588936567,-0.22779410750426432,-0.0032640909776091576,-0.0005963742733001709,4.326679835037887,0.0015624165534973145
1746576153757295400,11.74529541015625,0.15780601629008306,0.005932501517236233,0.07054331426764886,0.0015739479567855597,0.008820217238798356,0.9711071798176991,0.054931954268460634,right,-0.0012160539627075195,-0.4569439542546822,1.383021168835461,-8.691185250601173,-0.22780805487158173,0.0004339860752224922,-0.0005525052547454834,4.326769559147953,0.002541661262512207
1746576153797295600,11.785295654296876,0.1579786129015311,0.005668186582624912,0.07060981923773242,0.002490344922989607,0.00889125130396021,0.971114152999299,0.05510813283879947,right,-0.000991225242614746,-0.45681991621002305,1.3846055154174566,-8.691476342502236,-0.22775487457767774,0.0036872713826596737,0.00045080482959747314,4.325677964518964,0.001980006694793701
1746576153837295600,11.825295654296875,0.15815123731548825,0.0054038711823523045,0.07067633613202508,0.0034067416563630104,0.008962307173631341,0.9711212433790961,0.05528433757415025,right,-0.0007663965225219727,-0.45669595641519667,1.3861904465213417,-8.691766849881411,-0.22770171165911102,0.006940556690096855,0.0014540404081344604,4.324586954411864,0.0014182627201080322
1746576153877295600,11.865295654296874,0.158305293573386,0.0017057384829968214,0.07074019414643443,-0.0018509677611291409,0.00901772050001959,0.9711366398674298,0.05541815354356676,right,-0.0020366311073303223,-0.4565043075539343,1.3876600806824861,-8.692371245515346,-0.22761416331996343,0.005330297164618969,-0.0001865476369857788,4.322900024238229,0.0005690157413482666
1746576153917295400,11.90529541015625,0.15812448034715326,0.008590190671384335,0.07063471998035409,-0.011680828407406807,0.00914305962670773,0.9711660059983033,0.05561559536497233,right,-0.0021471381187438965,-0.45629055875262026,1.3862338472716509,-8.693534444075823,-0.22751663378262638,0.0055666230618953705,-0.0016506612300872803,4.3210184482753276,0.0013485252857208252
1746576153957295400,11.94529541015625,0.1580374020878088,0.007166841067373753,0.0705495977864542,-0.003823420964181423,0.009341046967907978,0.9711714281431695,0.05599969258194276,right,0.0005684494972229004,-0.4562527433367388,1.3855024642571807,-8.693816183626652,-0.22751146738767453,0.0018391306512057781,-0.0028981268405914307,4.3206855630591505,-0.0004366934299468994
1746576153997295400,11.98529541015625,0.15762264857599378,-0.009188075549900532,0.07036598768674512,0.004734089598059654,0.009280968545872242,0.9711615072712289,0.055798294262637826,right,0.0012174248695373535,-0.45648085791454646,1.3817417965494097,-8.693416370654106,-0.22761309737988042,-0.010420514270663261,0.0027235597372055054,4.322693688011169,0.0027601420879364014
1746576154037295600,12.025295654296874,0.1576325212455056,-0.005915236659348011,0.07040290210138091,0.0033765691332519054,0.009054571427275965,0.9710910428814137,0.05538939999497555,right,-0.002012193202972412,-0.4571254888780898,1.3813899143718182,-8.690649244028329,-0.22791143166746272,-0.012180488556623459,-0.0006686598062515259,4.328367057472467,0.0018301904201507568
1746576154077295600,12.065295654296875,0.15758450985083775,0.0010503251105546951,0.07037536197435879,0.000533099751919508,0.009034221123980453,0.9710569368671323,0.05536359939965267,right,0.0012250542640686035,-0.4574462464854784,1.3807546852082013,-8.689344006648659,-0.22806589446375478,0.003382341004908085,-0.00003661215305328369,4.331189421416819,0.00014990568161010742
1746576154117295600,12.105295654296874,0.15752395578858863,0.00042768457205966115,0.07033952347390642,-0.007197242230176926,0.009094168056529017,0.9710796745895859,0.05545683523238425,right,-0.0014048218727111816,-0.45725867502061973,1.3803560412794351,-8.690230141833425,-0.22797791021956737,0.003371092025190592,-0.00021651387214660645,4.3295390238612885,0.0027261674404144287
1746576154157295400,12.14529541015625,0.15711147549103327,-0.002369742840528488,0.0701442968575887,-0.005894908215850592,0.009103557542385959,0.9710812621997508,0.05538938894720885,right,0.001177966594696045,-0.4573767557444937,1.3766912351615725,-8.690293270197511,-0.22803093835995455,-0.0055876621045172215,0.00030006468296051025,4.330578011520207,0.0017706751823425293
1746576154197295400,12.18529541015625,0.15731074419953425,0.0061772847548127174,0.07022569713048805,0.0061051747761666775,0.009111659153101765,0.9710456216620031,0.05547441561046879,right,0.0000966191291809082,-0.45762959108571133,1.3782514702156186,-8.688937179413438,-0.2281574553442319,-0.002960270270705223,-0.0025473982095718384,4.332802409571409,-0.001062542200088501
1746576154237295400,12.22529541015625,0.15737669025437567,0.00434039905667305,0.0702601618221095,0.006108186673372984,0.009105161136570592,0.9710526508407487,0.05546939664585425,right,-0.0010118484497070312,-0.45754594367186924,1.3788811464212833,-8.689204305917023,-0.2281170175802359,-0.004913660231977701,-0.00170840322971344,4.332066496512294,0.00033095479011535645
1746576154277295400,12.26529541015625,0.15744261881038896,0.002503512892872095,0.07029461918884365,0.00611119857057929,0.009098663120039357,0.9710596800194942,0.055464368093284006,right,-0.0021203160285949707,-0.4574622966328707,1.3795108226269484,-8.68947143242061,-0.22807657845345805,-0.006867050193250179,-0.0008693784475326538,4.331330583453179,0.0017244815826416016
1746576154317295600,12.305295654296875,0.15772235250435865,-0.0005649887025356293,0.07042372491052801,0.013094830326735973,0.009055805975647126,0.9710175146205634,0.055466485120457376,right,-0.00008684396743774414,-0.4577512164205958,1.3817448652893305,-8.68784879965484,-0.22821804884932262,-0.0039575714617967606,-0.00003559887409210205,4.33387237689048,0.0000705718994140625
1746576154357295600,12.345295654296875,0.15825436679842458,0.006186123937368393,0.07066855540619377,0.009193668141961098,0.009051166054207908,0.9709972188957929,0.05558273359788188,right,-0.0006971955299377441,-0.45776011411614986,1.386360688521713,-8.687074308151006,-0.2282288747458662,0.0022512348368763924,-0.00026789307594299316,4.3339507028236985,0.0005739331245422363
1746576154397295400,12.38529541015625,0.15858040982490795,0.00513576390221715,0.07081147401907179,0.009284484200179577,0.009106349404890251,0.9710068985648476,0.055756168488613304,right,-0.0001857280731201172,-0.45756380293965465,1.3893272832423447,-8.687461846163869,-0.22814127270366105,0.006474455818533897,0.0006240010261535645,4.332223732900619,0.0032053887844085693
1746576154437295400,12.42529541015625,0.15891966149935877,-0.00043932488188147545,0.07097452231424688,0.012470549903810024,0.009075780751228625,0.9709956707527284,0.05577224479642235,right,-0.00015014410018920898,-0.4575560230038078,1.392279849437624,-8.687023454746603,-0.22813961140636257,-0.005148802883923054,-0.00019827485084533691,4.332155343839526,0.0029278695583343506
1746576154477295400,12.46529541015625,0.15924799908058312,0.0025396980345249176,0.0711194080496963,0.0022690333425998688,0.009058793067003603,0.9709501474471597,0.05584024709692992,right,-0.00006961822509765625,-0.4578556954520057,1.3949261261627077,-8.685283333081006,-0.2282888526838215,-0.0030055062379688025,-0.0005479156970977783,4.334791537562013,0.001323312520980835
1746576154517295400,12.50529541015625,0.15936127251576468,0.005406031850725412,0.0711403744591748,0.00035351747646927834,0.009166841279069407,0.9709256801008856,0.05610426815764114,right,0.0012611746788024902,-0.45802739354017075,1.3957918030813337,-8.684390183633566,-0.22838202735728716,-0.00013717939145863056,-0.000567510724067688,4.336301942124963,0.0013293921947479248
1746576154557295600,12.545295654296876,0.15960064796980528,0.004156404174864292,0.071220807418445,0.0012953688856214285,0.009304772357042778,0.9709262699607188,0.056436476999083704,right,-0.0007935762405395508,-0.4579323256288966,1.3979361216336488,-8.684463248869775,-0.22834885357425772,0.005674224346876144,-0.0005111992359161377,4.3354654913008215,0.0034318268299102783
1746576154597295600,12.585295654296875,0.1595722093836142,-0.0038069989532232285,0.07121589391445324,-0.0006048019276931882,0.009293730204754639,0.9709465125649258,0.05639236323735824,right,-0.002262711524963379,-0.45776259724238527,1.3978060655131934,-8.685228972545266,-0.22826483435824915,0.002484141383320093,-0.0010444670915603638,4.333972622394562,0.004656314849853516
1746576154637295400,12.62529541015625,0.15934715007421807,0.0010466347448527813,0.07115496123852742,0.004192415624856949,0.009142190218982958,0.9709792533573892,0.05600958897110991,right,-0.0000794529914855957,-0.4575573355346205,1.3959924402199684,-8.686421981722116,-0.22815062832946587,0.012674050405621529,-0.00003670156002044678,4.3321667420163745,0.0001634657382965088
1746576154677295400,12.66529541015625,0.1591438751033302,0.00004150846507400274,0.07107541524128315,0.0007772545795887709,0.009128654235497765,0.9710232408705189,0.05590598064323689,right,0.00191420316696167,-0.45723294052978475,1.394449302431196,-8.68809254528284,-0.22798868613834247,0.00841217115521431,-0.001685798168182373,4.329312521629035,0.0015483200550079346
1746576154717295400,12.70529541015625,0.15878918697068348,-0.021293893456459045,0.07096371537899966,-0.0018204574007540941,0.008923612561902737,0.9710481717127003,0.055392713680777396,right,-0.00007927417755126953,-0.4571436769849986,1.3914287855662404,-8.68896815907359,-0.22792555631176353,-0.001340676099061966,-0.00028036534786224365,4.328527216470241,0.002870708703994751
1746576154757295400,12.74529541015625,0.15878952905091173,-0.01744760386645794,0.07104170283141786,0.012983331456780434,0.008529677883867532,0.9710003895360336,0.05462066363226395,right,-0.002130568027496338,-0.4576004618970991,1.3911189889647066,-8.687014102396368,-0.22811970484152166,-0.008213462308049202,0.0009107440710067749,4.332546096722782,0.0025885701179504395
1746576154797295600,12.785295654296876,0.15872057361056593,-0.0020696446299552917,0.07106387853304055,0.0038844551891088486,0.008269167303006619,0.9709790748658812,0.05408777470540176,right,0.0007564425468444824,-0.4578323041544239,1.390361156334728,-8.686118030339479,-0.22821293777033042,0.004365040920674801,0.0013848543167114258,4.334585785856842,-0.002925306558609009
1746576154837295600,12.825295654296875,0.15872195208453282,0.0010478254407644272,0.07105036401252615,0.000675899675115943,0.008343406949520633,0.9709899987119908,0.05423214650202029,right,0.00033605098724365234,-0.45772893334639153,1.3904438661821186,-8.686558759844303,-0.22816793873909313,0.0007292255759239197,0.0013049542903900146,4.333676562057435,-0.0004760622978210449
1746576154877295600,12.865295654296874,0.15872330034734342,0.004165295511484146,0.07103684216712447,-0.0025326558388769627,0.008417646596034584,0.9710009225581001,0.05437650772551953,right,-0.00008434057235717773,-0.45762556727120524,1.3905264298990367,-8.686998904827236,-0.22812293834507402,-0.002906589535996318,0.0012250840663909912,4.332767045997083,0.001973181962966919
1746576154917295400,12.90529541015625,0.1587735755654697,-0.0014051618054509163,0.0710414520561341,0.0028802091255784035,0.008463763370944715,0.9709719717971027,0.05450373293371854,right,0.0019052624702453613,-0.4578634708674535,1.3908001322738826,-8.68591110959053,-0.22824305018748345,-0.00972014106810093,-0.0007876604795455933,4.334859926623106,0.0019938647747039795
1746576154957295400,12.94529541015625,0.15864016257939517,0.005348233971744776,0.07097978356013714,0.0008601613808423281,0.008450844978322948,0.9709646142215239,0.05445518430448085,right,0.0029566287994384766,-0.45797329004877063,1.3895660604342817,-8.685626447430252,-0.22829402314297784,0.013966603204607964,-0.00013253092765808105,4.335825849045813,-0.004238158464431763
1746576154997295400,12.98529541015625,0.15879785253570552,0.004073021933436394,0.07103684179724276,0.0015853377990424633,0.008531011986680785,0.9709707370199147,0.0546477859442574,right,-0.0034188032150268555,-0.45786147937501454,1.3910123137198387,-8.685885975149274,-0.2282473003203967,-0.006432307884097099,-0.0013508647680282593,4.334842390966415,0.0027607083320617676
1746576155037295600,13.025295654296874,0.1585938065371473,-0.0024984930641949177,0.070936071189148,-0.0016311744693666697,0.008520372113615426,0.9709443429052064,0.054603832801742046,right,0.0004735589027404785,-0.45816375210165355,1.3890329764708875,-8.684875336802005,-0.22839145807268232,-0.003638993017375469,-0.000860556960105896,4.3375010887816545,0.0019489526748657227
1746576155077295600,13.065295654296875,0.15852602418259917,0.0026460355147719383,0.07091170544462817,-0.00004484399687498808,0.008504269301751488,0.970957099821307,0.05454689165700138,right,-0.000020205974578857422,-0.4580723754737954,1.3885069067701696,-8.685360489970446,-0.2283448645818123,0.006176928989589214,-0.00230388343334198,4.336697371183336,0.0005080699920654297
1746576155117295600,13.105295654296874,0.15850292840526228,0.004228576086461544,0.07088930535130891,-0.0019289819756522775,0.008603965543801412,0.970997966410615,0.05471566110302466,right,0.0004930496215820312,-0.4577091088800697,1.388554837565124,-8.686947466900945,-0.22817454757968483,0.005260298494249582,-0.0005649775266647339,4.333502082273363,0.0034966766834259033
1746576155157295400,13.14529541015625,0.1585026305234838,0.000052061863243579865,0.07089143038209418,0.0014930021716281772,0.008617687648613181,0.9710170574346083,0.05472917748349693,right,0.0018985271453857422,-0.4575379235168659,1.3886692577250301,-8.687680457350611,-0.22809200459601583,0.003614026354625821,0.0008915066719055176,4.3319960616245865,0.0028074979782104492
1746576155197295400,13.18529541015625,0.15852506081232867,-0.0015301918610930443,0.07092152743816402,0.004290194250643253,0.008550724895588406,0.9710311526727398,0.05458559371797986,right,0.0006734728813171387,-0.4574104572051765,1.388951289536804,-8.688194836613535,-0.2280251846164241,0.006503782235085964,0.0006154179573059082,4.330874656379223,0.0011075735092163086
1746576155237295400,13.22529541015625,0.15869694536471496,-0.00013197364751249552,0.07101166628590809,0.0024303332902491093,0.008523771366697028,0.9710425332095619,0.05455714077092904,right,-0.0028004050254821777,-0.4572554892879073,1.3905506875574587,-8.688618614983557,-0.2279497404425267,0.005382069386541843,-0.001066461205482483,4.329510966810584,0.0023476481437683105
1746576155277295400,13.26529541015625,0.15863730130490125,-0.0023671016097068787,0.07100899351866338,-0.005900667514652014,0.008440289465489168,0.9710634000782372,0.05435751006718536,right,-0.0028089284896850586,-0.45709594516577695,1.3901416683651506,-8.689383169615269,-0.22786500134578916,0.006913291290402412,-0.0014316588640213013,4.328106945231557,0.0007633566856384277
1746576155317295600,13.305295654296875,0.15838295356894774,0.006397932767868042,0.07088973265188912,-0.004473181441426277,0.008496710268042771,0.9711097110021472,0.05438538474196885,right,-0.0010151863098144531,-0.4567614737305008,1.3881597007676958,-8.691165961378813,-0.22770267274680553,0.0042946916073560715,-0.001191169023513794,4.32516358525604,-0.0009227991104125977
1746576155357295600,13.345295654296875,0.1581286002361305,0.015162967145442963,0.07077045253601744,-0.003045695135369897,0.008553134818116337,0.9711559606013946,0.054413348386479814,right,0.0007783770561218262,-0.4564269818869059,1.386176710256934,-8.692946415054797,-0.22754032540970257,0.0016760919243097305,-0.0009505897760391235,4.322219348497688,-0.0026088356971740723
1746576155397295400,13.38529541015625,0.1577312546879232,-0.013743741437792778,0.07057225362509421,-0.015142088755965233,0.008650030900179847,0.971193589251718,0.054501441304227356,right,-0.0007539987564086914,-0.45621178675373797,1.3828686086222528,-8.69441473404169,-0.22743735179776414,0.004403759725391865,-0.0008419156074523926,4.320324913053215,0.00175437331199646
1746576155437295400,13.42529541015625,0.15749148137097643,-0.0041845617815852165,0.07048255258102874,-0.008299047127366066,0.008510962877145393,0.9711604114729421,0.05419169185190097,right,-0.00036525726318359375,-0.45659678108185425,1.3805229222789406,-8.693103066921234,-0.22761215485947087,0.00044730957597494125,-0.0013080984354019165,4.323713970969617,0.0004937350749969482
1746576155477295400,13.46529541015625,0.15725147837753187,0.005374615080654621,0.0703928404645587,-0.0014560045674443245,0.008371876797122183,0.9711270551713065,0.05388172677648208,right,0.000023424625396728516,-0.4569815435100012,1.378175774630904,-8.691790230756997,-0.2277868952337355,-0.0035091405734419823,-0.0017741620540618896,4.3271003985375165,-0.0007666349411010742
1746576155517295400,13.50529541015625,0.15737660091489114,0.002714017406105995,0.07043276372548375,-0.0007352380780503154,0.008458874007330672,0.9711320891053259,0.05408241640328301,right,-0.00006175041198730469,-0.45688955969532197,1.37932567531839,-8.692010595509409,-0.22774986781200568,-0.0017720094183459878,-0.0010104775428771973,4.3262908357203,0.0010567307472229004
1746576155557295600,13.545295654296876,0.157501714536046,0.000053419964388012886,0.07047269243753602,-0.00001447164686396718,0.00854588586731421,0.9711371203137813,0.0542831135942755,right,-0.00014698505401611328,-0.45679749653221113,1.3804757221363484,-8.692231544783711,-0.22771281109072689,-0.00003487837966531515,-0.00024674832820892334,4.3254806883811945,0.0028802156448364258
1746576155597295600,13.585295654296875,0.1577274129397049,0.003765758592635393,0.07056856000307443,0.005606412887573242,0.008566533168662564,0.9711187283368978,0.05438620844030789,right,-0.002226531505584717,-0.45688719627757934,1.3823765873216092,-8.691536548256874,-0.22776091532664172,-0.004525679629296064,0.0003775060176849365,4.326270085193217,0.003820747137069702
