time,seconds_elapsed,roll,rotationRateZ,quaternionY,rotationRateY,quaternionZ,quaternionW,yaw,devicelocation,accelerationZ,pitch,gravityX,gravityZ,quaternionX,rotationRateX,accelerationX,gravityY,accelerationY
1746739108606338800,0.4343388671875,0.2672443368683359,-0.004205483477562666,0.13191689175634472,-0.00012214004527777433,1.3132883785224564e-18,0.9879234051035621,-0.021726071700522175,right,0.060951411724090576,0.1612803125708657,2.556079736807942,-9.335787807241081,0.08127251280988709,-0.003288933075964451,-0.05795380473136902,-1.5747719673119485,0.5739015936851501
1746739108646338800,0.4743388671875,0.23554186641738678,-0.004315230529755354,0.1154618580568368,0.0028466363437473774,0.009288861042198886,0.9896003950804296,0.038628145646690204,right,0.06801456212997437,-0.16742939189024506,2.256574812185764,-9.40252325590849,-0.08528354466696375,-0.0003699453081935644,-0.02880452573299408,1.6342609519824385,0.24395383894443512
1746739108686338800,0.5143388671875,0.22731522081962974,-0.000862333457916975,0.1065683738601216,0.002400519559159875,0.013631312702744864,0.980422973481763,0.06539573335303271,right,0.032030463218688965,-0.3264186302086907,2.093354673275351,-9.049871847510337,-0.16500947675427952,0.0006085544591769576,-0.01154625415802002,3.14453019811511,0.0900130569934845
1746739108726338800,0.5543388671875,0.2247675816661057,0.002698848955333233,0.1022169908229238,0.0035789241082966328,0.01572808400428117,0.9742189917114201,0.07778283796159507,right,0.009577631950378418,-0.3978671570368173,2.014977740522474,-8.813238097342849,-0.20050334563551167,-0.0011073978384956717,-0.0018925666809082031,3.799615862585604,0.023999065160751343
1746739108766338800,0.5943388671875,0.2242836686563222,0.00115197675768286,0.10130160607362303,0.0015276279300451279,0.016155242748394014,0.9728530703432388,0.08025385865310188,right,0.002490699291229248,-0.41190440835205755,1.9986526286654174,-8.761345413020253,-0.20744565290971922,-0.00047268171329051256,-0.0009344220161437988,3.926143224392831,0.01180654764175415
1746739108806338800,0.6343388671875,0.22407425272417816,-0.0010132536990568042,0.10083395949173293,-0.008616376668214798,0.016399663072429425,0.9721264329314042,0.08158864459515262,right,0.000316619873046875,-0.41915507714534017,1.9904399499848484,-8.733778191658853,-0.2110302168077992,0.002436482347548008,0.0007095485925674438,3.99119700358361,0.0047844648361206055
1746739108846338800,0.6743388671875,0.22384688947353787,0.0011748737888410687,0.10056675268194955,-0.006699669174849987,0.016547610788573062,0.9718363215609256,0.08219757614693451,right,0.0023320913314819336,-0.42207913934456637,1.985854960282147,-8.722813730052113,-0.21247728619331008,0.0027302729431539774,0.0005804747343063354,4.01737277058661,0.000041991472244262695
1746739108886338800,0.7143388671875,0.2234295409216751,-0.004358555190265179,0.10034743858987856,-0.013900605961680412,0.016577246054649657,0.971811896752246,0.08222093988755759,right,0.00002384185791015625,-0.42252272500810256,1.981819275025278,-8.72190304494798,-0.21269012817252972,0.012614896520972252,0.001038193702697754,4.021340797434747,-0.00019609928131103516
1746739108926338600,0.754338623046875,0.22320956833844358,-0.003532674163579941,0.10026133793499792,-0.006797445472329855,0.016507699879782,0.9718255304913864,0.08202846278373975,right,0.0003504157066345215,-0.42251270024799076,1.9799094958811998,-8.722378261244296,-0.2126737965842202,0.006110027898102999,0.00035563111305236816,4.02125107332468,0.00024831295013427734
1746739108966338800,0.7943388671875,0.22290160300491332,-0.004398941993713379,0.10014394967045612,-0.005307151935994625,0.016423896113999165,0.971858617010658,0.08177023570766506,right,0.00018012523651123047,-0.4223603461233711,1.9773586423546075,-8.723584714424609,-0.21258443437878455,0.0059795081615448,0.0001827925443649292,4.019888260538876,0.00012761354446411133
1746739109006338800,0.8343388671875,0.22259372239463293,-0.005265210289508104,0.10002656140591436,-0.0038168581668287516,0.016340106968624098,0.9718917006509933,0.08151211413573638,right,0.000009834766387939453,-0.4222079417781118,1.9748079349584877,-8.724790583083033,-0.21249507217334898,0.005848988890647888,0.000009924173355102539,4.018525155492127,0.0000069141387939453125
1746739109046338800,0.8743388671875,0.2223445147677487,0.007001297548413277,0.09990251346191144,-0.0033476888202130795,0.016316253101022714,0.9718725233226359,0.08144651466416236,right,-0.0007546544075012207,-0.4225237319505305,1.972353673674166,-8.724044148629904,-0.21264291522763767,-0.005483338609337807,-0.00004522502422332764,4.021349857524037,-0.0009379386901855469
1746739109086338800,0.9143388671875,0.22257164712518374,0.015332987532019615,0.09991189448739844,-0.004565499722957611,0.016683975679388945,0.9718191895235916,0.08229427443271072,right,-0.0017874836921691895,-0.4228667484551577,1.9740305208452045,-8.722250250950456,-0.21285349679330182,-0.013868751935660839,-0.0019671618938446045,4.0244174284011125,0.0005037188529968262
1746739109126338800,0.9543388671875,0.22261242626695357,0.011369116604328156,0.09987987377832273,-0.004597734659910202,0.016936763540750813,0.9718231755762767,0.0828112918685621,right,-0.0028537511825561523,-0.4227659778222009,1.9744757803946733,-8.722565308248996,-0.21283077404999934,-0.0044856201857328415,-0.0016292929649353027,4.023516387908161,0.0019461214542388916
1746739109166338600,0.994338623046875,0.2223846060752979,-0.0020029954612255096,0.09975084235180551,-0.006846120581030846,0.017030163298141218,0.9718258640056482,0.08296224160169277,right,-0.0023896098136901855,-0.4228375664032285,1.9724249853447078,-8.722733650553225,-0.2128711120364317,-0.003501657396554947,-0.00045837461948394775,4.024156439377367,0.0021097660064697266
1746739109206338800,1.0343388671875,0.22221349399066553,-0.002526237629354,0.09967289286835969,-0.0006151138804852962,0.01699586979374262,0.9718207707153926,0.08287120687127852,right,-0.0008020997047424316,-0.4229790067381028,1.970806882623583,-8.722516208410262,-0.2129337040850486,-0.0019852276891469955,-0.00025679171085357666,4.025421344746649,-0.00005748867988586426
1746739109246338800,1.0743388671875,0.22204237103856914,-0.0030494797974824905,0.09959495800532193,0.005615892820060253,0.016961550153190785,0.9718156218224423,0.08278009174481966,right,0.0007853507995605469,-0.4231204282788401,1.9691889260329305,-8.72229759722352,-0.21299629901260156,-0.0004687979817390442,-0.00005525350570678711,4.026685957854986,-0.0022247731685638428
1746739109286338800,1.1143388671875,0.22238247247909956,0.0021075487602502108,0.09975429545349761,0.00400461396202445,0.016894170620257297,0.9717698414299171,0.08275038998398507,right,-0.0015308260917663574,-0.42340633948906253,1.9719012537315486,-8.720504284065962,-0.21313632447899328,-0.003774312324821949,-0.0001293569803237915,4.02924236433953,-0.001412719488143921
1746739109326338800,1.1543388671875,0.22245204055244397,0.0010170801542699337,0.0997802401829323,0.0028795525431632996,0.01689507317363093,0.9717522894286487,0.08278380126113016,right,-0.0014481544494628906,-0.42354161195122425,1.9723877220742403,-8.71983559102416,-0.21320417207079553,-0.0033464583102613688,-0.0005027502775192261,4.030451740129291,-0.0009456872940063477
1746739109366338800,1.1943388671875,0.2225216767849998,-0.00007338868454098701,0.09980621127424617,0.0017544912407174706,0.01689596110659656,0.9717347403063166,0.08281721318308664,right,-0.0013654828071594238,-0.4236769343524586,1.9728744826778768,-8.71916631346047,-0.21327204004087816,-0.0029186042957007885,-0.0008761733770370483,4.031661408179998,-0.0004786849021911621
1746739109406338800,1.2343388671875,0.2227580842390602,0.0058594876900315285,0.09988093856165657,0.0026304875500500202,0.017009887204857525,0.9716982130506684,0.0831295047226617,right,-0.00023865699768066406,-0.4238916855624553,1.9747443682029842,-8.717854646340012,-0.21339379488288887,-0.009618084877729416,-0.0004579871892929077,4.033581270326674,0.0010197758674621582
1746739109446338800,1.2743388671875,0.22286507211700282,0.004645718261599541,0.09988936673278417,-0.002313306089490652,0.017146606977835967,0.9716649125936062,0.08346407593079185,right,-0.0028113722801208496,-0.4241373823878152,1.975457923299819,-8.716676250210403,-0.21353054557474563,-0.0006215786561369896,-0.0010151118040084839,4.035777319066226,0.00025337934494018555
1746739109486338800,1.3143388671875,0.22273517107720625,0.0030589699745178223,0.09980985817983119,-0.007745145820081234,0.01721435039117367,0.9716600172316843,0.08358721612655265,right,-0.003648042678833008,-0.4242388891462902,1.9742351035065948,-8.716533626869321,-0.2135847813522885,-0.003627951955422759,-0.0023903995752334595,4.03668449703902,0.0001736283302307129
1746739109526338800,1.3543388671875,0.22260526675379766,0.0014722216874361038,0.09973034962687852,-0.013176985085010529,0.017282082288765994,0.9716550633881311,0.08371032330626628,right,-0.004484713077545166,-0.42434039813559815,1.973012429843843,-8.716390419006347,-0.21363901712983116,-0.0066343252547085285,-0.0037656575441360474,4.0375916750118135,0.00009384751319885254
1746739109566338800,1.3943388671875,0.22218543515780678,0.00033220008481293917,0.09950937491824655,-0.0004895897582173347,0.017371881418286206,0.9716588253196463,0.08382195626460957,right,0.0006412267684936523,-0.4244990193388466,1.969211576256156,-8.716593248102068,-0.21371783826428142,-0.0019142592791467905,-0.00041271746158599854,4.039009140594303,0.0009531378746032715
1746739109606338800,1.4343388671875,0.22208386494216806,-0.005256871692836285,0.09947557364528717,0.0006634223973378539,0.01730271824148721,0.9716605982929746,0.08366276602735781,right,-0.00026476383209228516,-0.4245447989554534,1.96828554745242,-8.716612537324428,-0.2137312296247694,-0.0025268238969147205,0.0013915300369262695,4.039418305917084,0.0014874935150146484
1746739109646338800,1.4743388671875,0.22192026193095163,0.00098525732755661,0.09940817712064556,-0.00025574432220309973,0.01718989222419085,0.9716327577501142,0.08343908131483938,right,-0.001120924949645996,-0.4249149949180491,1.966530228217691,-8.715475642248988,-0.21389818618095136,-0.007005253341048956,-0.0003831535577774048,4.0427261152908205,-0.00003552436828613281
1746739109686338800,1.5143388671875,0.2220958241544262,0.01094540860503912,0.09945086529958713,0.0018188789254054427,0.017306714683943084,0.971592197459673,0.08375240747583924,right,-0.00043636560440063477,-0.42519904269009445,1.9678072624161838,-8.714009661349653,-0.21405299762796864,-0.009861142374575138,-0.0012151449918746948,4.045263817074894,-0.00048592686653137207
1746739109726338800,1.5543388671875,0.22223390522468478,0.011129384860396385,0.09944095046187064,-0.0009620803175494075,0.017605956523614633,0.9715617644816612,0.084419687403335,right,0.0019254088401794434,-0.4253721354275246,1.968856040816754,-8.713054552581905,-0.21417129836152388,0.0024943314492702484,0.00043542683124542236,4.04681016973406,-0.001830369234085083
1746739109766338800,1.5943388671875,0.22228994778167196,0.00018322467803955078,0.0994522801536523,-0.002274329774081707,0.01772876088213603,0.9715852101982615,0.08465147131701972,right,-0.0013187527656555176,-0.425095467316523,1.969591077093035,-8.71403596483469,-0.21404920603443925,0.005903423763811588,-0.0009648501873016357,4.044338518923521,0.0018040239810943604
1746739109806338800,1.6343388671875,0.22214449581276635,-0.004450720269232988,0.09939925704478417,0.00008544395677745342,0.01767852573125547,0.9716008125379494,0.08450763396876587,right,0.00013649463653564453,-0.425025881921837,1.9683856468260288,-8.714596521326898,-0.21400703885734057,0.0021344919223338366,-0.0004479736089706421,4.043716879893839,0.000868678092956543
1746739109846338800,1.6743388671875,0.22217709994601234,-0.0028227197472006083,0.0994452436629084,0.0058937277644872665,0.017536016864096268,0.9716006258816086,0.08422273107711482,right,-0.001626431941986084,-0.42503637288987006,1.9686603721141813,-8.714491307386755,-0.21399824909782222,0.003505650209262967,0.0001893937587738037,4.043810695657134,-0.0005449652671813965
1746739109886338800,1.7143388671875,0.22234341153813625,0.001197264762595296,0.09954390444332248,0.003993157297372818,0.01748267868616685,0.9716160495063471,0.08412267850179057,right,-0.001371920108795166,-0.42481339231141946,1.9703084315821526,-8.715042511528729,-0.21388662534831102,0.006172478199005127,-0.0008464455604553223,4.041818352796137,-0.0017084777355194092
1746739109926338600,1.754338623046875,0.22255404011174773,0.00027174479328095913,0.09964651888765863,0.005633773282170296,0.01748208275009834,0.9716169565940723,0.08415409537872479,right,-0.0017647147178649902,-0.4246997024844387,1.9722455371245742,-8.715075829276442,-0.21383490430360264,-0.0005306093953549862,-0.0001735389232635498,4.040802453751862,-0.001132190227508545
1746739109966338800,1.7943388671875,0.22270600024786602,0.00008613799582235515,0.09971907720361493,0.0017858000937849283,0.017465313919102266,0.9716062255112449,0.0841567206580438,right,-0.0009968876838684082,-0.42473033064031157,1.9735424450673162,-8.714654973515868,-0.21385121183112918,-0.00016819318989291787,-0.0004702955484390259,4.04107630225718,-0.00108414888381958
1746739110006338800,1.8343388671875,0.22289790566672296,0.004369065165519714,0.09979409636267693,0.004043180495500565,0.0175179428092959,0.9715905163106267,0.08431294118516507,right,-0.0013120770454406738,-0.42477704566556373,1.9751731150090692,-8.7140920789361,-0.21388332792016584,-0.0033731593284755945,-0.00007738173007965088,4.041493650886416,-0.00024825334548950195
1746739110046338800,1.8743388671875,0.22320048439219123,0.00406050868332386,0.09991406430227069,0.0045853243209421635,0.017597973955144165,0.9715681962879507,0.08455039485199561,right,-0.0013945698738098145,-0.42482743053504785,1.977764592806995,-8.713295960122347,-0.2139222598726855,-0.00524002593010664,-0.00037245452404022217,4.0419437327414744,0.000639796257019043
1746739110086338800,1.9143388671875,0.22334971788171668,0.0022607888095080853,0.09997188595401672,0.0029179046396166086,0.01763376165641154,0.9715523406167571,0.08466569458993378,right,-0.0017197728157043457,-0.4248998348785921,1.97900012595132,-8.712714945363999,-0.21396443032829704,-0.0021508769132196903,0.0004567354917526245,4.042590798473358,0.0009385049343109131
1746739110126338800,1.9543388671875,0.22349894220659453,0.0004610687028616667,0.10002969298535501,0.001250484841875732,0.01766956397808675,0.9715364820666271,0.08478103455325936,right,-0.002044856548309326,-0.42497221943706176,1.9802353668347,-8.71213451512754,-0.21400659790497228,0.0009382721036672592,0.0012859702110290527,4.043237571944296,0.0012372136116027832
1746739110166338600,1.994338623046875,0.22293171484203114,-0.0040291654877364635,0.09978984039583678,-0.002917056903243065,0.017605011977987094,0.9715855819244299,0.08450152615213073,right,-0.0032194852828979492,-0.42479286887682727,1.9754535393856465,-8.713962899598478,-0.21390069944812704,0.0012261411175131798,-0.0014220327138900757,4.041635105183721,0.0018362104892730713
1746739110206338800,2.0343388671875,0.22282932146676876,-0.003243660554289818,0.09976053737202341,-0.002314903074875474,0.017520772452143205,0.9715912348529099,0.08430696179010494,right,-0.002203702926635742,-0.4248043188289496,1.9745511837184428,-8.714120135986805,-0.21389564312878695,0.00219659018330276,-0.0009256899356842041,4.041737396514415,0.0014661848545074463
1746739110246338800,2.0743388671875,0.2225120676245698,-0.003646580735221505,0.0996439765093544,-0.004621762782335281,0.017424330729789692,0.971629786651696,0.0840148299700469,right,-0.0007085800170898438,-0.4246073252862371,1.971962044008076,-8.715522988522052,-0.21378279721427204,0.0038356720469892025,-0.00029768049716949463,4.039977108843624,0.00047141313552856445
1746739110286338800,2.1143388671875,0.22217462437320992,0.006411248818039894,0.09948327988836539,-0.006571021396666765,0.017460618612324712,0.9716541092217841,0.08400647335620835,right,-0.001177370548248291,-0.4245342209983925,1.9690860501803455,-8.716475759202241,-0.21374400087204945,-0.0018799309618771076,-0.0010495930910110474,4.0393239056319,-0.001653432846069336
1746739110326338800,2.1543388671875,0.22219532550497587,0.013581972569227219,0.09944349415149728,-0.003222668543457985,0.017700826935633095,0.9716566843884398,0.08449613311777586,right,-0.0013430118560791016,-0.4244568393979446,1.969335348766297,-8.71673996309638,-0.21373101808075476,-0.0015262558590620756,-0.0007444918155670166,4.038632416236401,0.00010162591934204102
1746739110366338800,2.1943388671875,0.2221996571874687,0.009845390915870667,0.09938205656064585,-0.0037736387457698584,0.018040553474294264,0.9716760519904913,0.08516623634275147,right,0.0001901388168334961,-0.42420709838296883,1.9695953148767351,-8.717714945608376,-0.21364327230460245,0.00737555418163538,0.000014036893844604492,4.036400419400632,-0.00041538476943969727
1746739110406338800,2.2343388671875,0.2221634572391242,0.0003526713699102402,0.0993631316033296,-0.0020851660519838333,0.018106136994509456,0.9717046902646835,0.08526064411987683,right,-0.00142747163772583,-0.4239366228587283,1.9695203499443827,-8.718850671640038,-0.2135164830147141,0.0069239139556884766,-0.0005763322114944458,4.0339828368648885,0.0010520219802856445
1746739110446338800,2.2743388671875,0.2219104731450869,-0.007123617455363274,0.09927641484890182,0.00176564184948802,0.01801487530002607,0.9717427080468871,0.0849899914854379,right,0.000708162784576416,-0.4237105040031765,1.967515147601813,-8.720238326606154,-0.21339113712903093,0.005389227066189051,-0.0010561347007751465,4.031961560170352,-0.0011799633502960205
1746739110486338800,2.3143388671875,0.22204744479054234,-0.0048798369243741035,0.09937680120717267,0.007956096902489662,0.017876754994152165,0.9717536248266527,0.0847178280266623,right,-0.0008640289306640625,-0.4235613966011166,1.9688420122914014,-8.720555137470365,-0.21330653726194232,0.006553088314831257,-0.0009822994470596313,4.030628558000922,-0.00213584303855896
1746739110526338800,2.3543388671875,0.22239227942187498,0.00002672569826245308,0.09956910698339864,0.011320782825350761,0.017757579172940824,0.9717531568052351,0.0845303916409516,right,-0.0006600022315979004,-0.42341339240989123,1.9719804564476011,-8.720456937792896,-0.21322854065752223,-0.0020184796303510666,-0.0003237426280975342,4.0293054927036165,-0.0022665858268737793
1746739110566338800,2.3943388671875,0.22294067005915638,-0.0005029410822317004,0.0998320259467609,0.01105950865894556,0.017669570688533177,0.9717034196079097,0.08449643984962003,right,-0.0018079876899719238,-0.4236354648499864,1.9765645693674683,-8.718501712071895,-0.21333939122067713,-0.008069975301623344,-0.000558212399482727,4.031290821301937,-0.0013082623481750488
1746739110606338800,2.4343388671875,0.22316054188795828,0.0014985905727371573,0.09993132056632757,0.005255611147731543,0.017638302849138154,0.9716714261152205,0.08450515447251568,right,-0.00195389986038208,-0.4238403746221539,1.9782985535532236,-8.71726077210009,-0.21344112204981464,-0.008920440450310707,-0.000014185905456542969,4.033122712904214,-0.0009406507015228271
1746739110646338800,2.4743388671875,0.2234454293156405,0.008622398599982262,0.10003075429626454,0.0063539836555719376,0.017705983949314445,0.9716156959254035,0.08475372213362503,right,-0.0009451508522033691,-0.4242255508475924,1.9804376114085316,-8.715181627738476,-0.2136427975542795,-0.012455231510102749,0.00021770596504211426,4.0365652545735236,-0.0007262825965881348
1746739110686338800,2.5143388671875,0.22371194112280468,0.008357604034245014,0.10012579149485487,0.005689450539648533,0.017796183042592596,0.9715812285896361,0.0850203092814711,right,-0.0014693140983581543,-0.42440942491750566,1.982595520094782,-8.713929581850767,-0.21374763874545544,-0.011637471616268158,-0.00023236870765686035,4.0382086378663775,0.000349581241607666
1746739110726338800,2.5543388671875,0.2239785571363615,0.008092809468507767,0.10022084907172595,0.005024917423725128,0.017886355999717704,0.9715467056511741,0.08528692160002106,right,-0.001993417739868164,-0.4245931834081348,1.9847538671724496,-8.712676951441168,-0.2138524535747518,-0.010819712653756142,-0.0006825178861618042,4.039850852115452,0.0014255046844482422
1746739110766338800,2.5943388671875,0.22409124468943017,0.0005137507105246186,0.10022905548676765,0.00015919655561447144,0.017998579003158915,0.9714952049510193,0.08559395079305139,right,0.0012485384941101074,-0.42501417557553,1.9853575321540236,-8.710794206434487,-0.21407293377661024,-0.004183187149465084,0.0007772743701934814,4.043612250475586,-0.00023514032363891602
1746739110806338800,2.6343388671875,0.22382946014104457,-0.004278154578059912,0.10011202806213765,-0.001619536429643631,0.017944741229244544,0.9714918946916447,0.08544651848561982,right,0.0003718733787536621,-0.42518775283532856,1.9829213910482824,-8.710629371261597,-0.21414733140276312,0.0020545711740851402,0.00048285722732543945,4.045162987048924,0.0010111033916473389
1746739110846338800,2.6743388671875,0.22385144842647986,-0.005573707167059183,0.10014726563864891,0.00542169064283371,0.017807496659583005,0.9714814982982858,0.08518265069351327,right,-0.0005719661712646484,-0.425301605868679,1.983010676766932,-8.71013661930859,-0.21418950465847109,-0.0022171009331941605,0.0008483827114105225,4.046180055136978,0.002306818962097168
1746739110886338800,2.7143388671875,0.22375306292019131,-0.008136609569191933,0.10012531739399022,0.0008445209823548794,0.017687554763787576,0.971482153112263,0.08492185340094853,right,-0.0002593994140625,-0.4253660188202206,1.9820957538791,-8.710077582597732,-0.21420679431675044,-0.0004141816170886159,0.0005176663398742676,4.046755516937375,0.0018918812274932861
1746739110926338600,2.754338623046875,0.2234818429146816,-0.0008722678758203983,0.10002556990724183,-0.003632819280028343,0.017542569630327593,0.9714842765385258,0.08458064708079706,right,-0.0010213255882263184,-0.42550684695450763,1.9796070058032869,-8.710058877897263,-0.21425560200658145,-0.006344015244394541,-0.0007751882076263428,4.04801340804398,-0.0011026263236999512
1746739110966338800,2.7943388671875,0.22344523384982357,0.01024966686964035,0.09997205068891842,-0.0044979979284107685,0.017666842478055333,0.9714629646601818,0.08485298124741511,right,-0.0011821389198303223,-0.4257095026138257,1.9791063628047703,-8.709331148144603,-0.21436712379497674,-0.008610427379608154,-0.0005118697881698608,4.049823380075395,-0.0014668107032775879
1746739111006338800,2.8343388671875,0.2235198691353529,0.01257647480815649,0.0999377777522128,-0.009396090172231197,0.01794725001697455,0.9714383058588109,0.08546507520268094,right,-0.002802610397338867,-0.42586058176418734,1.9796207420676946,-8.70858705177903,-0.21447160686270267,-0.002838489133864641,-0.001986488699913025,4.051172748857736,-0.0007442235946655273
1746739111046338800,2.8743388671875,0.22333420234699677,0.008185099810361862,0.09980007317953844,-0.006472785957157612,0.01824071465501557,0.9714717036791057,0.08599405106623828,right,-0.001900017261505127,-0.425578523356917,1.9782569063685833,-8.710068230247497,-0.2143596244944432,0.004659532569348812,-0.002216041088104248,4.048653751774132,-0.000003039836883544922
1746739111086338800,2.9143388671875,0.22309553834362855,-0.0011635683476924896,0.09966754175132966,-0.0037562677171081305,0.018368539515762394,0.9714951935333841,0.08618872847600058,right,-0.0015406012535095215,-0.4254480348448731,1.9762948125153779,-8.711055487719177,-0.21430389701016972,-0.006135676056146622,-0.0016285032033920288,4.047488215126097,0.000605463981628418
1746739111126338800,2.9543388671875,0.22307085925632816,-0.004037016071379185,0.09965549523432352,0.002917139558121562,0.018329815505613658,0.9714763928507095,0.08612794389322376,right,-0.0009466409683227539,-0.42564923374833646,1.9758996757179497,-8.710309637787937,-0.21439816172834886,-0.0044479817152023315,-0.0012112259864807129,4.049285327675938,-0.0014046132564544678
1746739111166338600,2.994338623046875,0.2232563063645091,-0.00020902673713862896,0.09975206834155803,0.0029173679649829865,0.018275142610528382,0.9714649851441555,0.08605948770912793,right,-0.0021761059761047363,-0.42567534799466433,1.9774914749540387,-8.70983968218863,-0.21440912887702912,0.0009454698301851749,-0.0018559843301773071,4.049518551909923,-0.0022632181644439697
1746739111206338800,3.0343388671875,0.2234706603006299,0.0008432960603386164,0.09985702507428698,0.005809051916003227,0.01825994093497585,0.9714598988934003,0.08606871870834126,right,-0.0015085935592651367,-0.4256194536360868,1.9794085606217384,-8.70963626857102,-0.21438446202911143,-0.002204888965934515,-0.00029577314853668213,4.049019370216131,-0.0004258155822753906
1746739111246338800,3.0743388671875,0.22366202891465797,0.00016537780174985528,0.0999478157788827,0.004825209267437458,0.018244596096880165,0.9714479154215959,0.08608207800050388,right,-0.0013753771781921387,-0.42564182792158517,1.9810551587849854,-8.70916923558116,-0.21439772288353434,-0.0033543002791702747,-0.00031341612339019775,4.049218984441459,-0.0012444555759429932
1746739111286338800,3.1143388671875,0.2237685015806373,-0.0005423006368800998,0.09999039233050552,0.004437052179127932,0.018249060723318156,0.9714294797572076,0.08612975814331404,right,-0.0011161565780639648,-0.42576514304367746,1.9818715897344052,-8.708471316444873,-0.21446085696103787,-0.005261396989226341,-0.0002991706132888794,4.050320515942573,-0.0005136728286743164
1746739111326338800,3.1543388671875,0.22387505256446022,-0.0012499791337177157,0.10003297774466278,0.004048895090818405,0.018253548381246678,0.9714111610560815,0.08617752411486246,right,-0.000856935977935791,-0.4258885773294581,1.9826886052057147,-8.707772812786699,-0.21452402315829375,-0.007168494164943695,-0.0002849847078323364,4.0514229242265225,0.00021696090698242188
1746739111366338800,3.1943388671875,0.22446531397716665,0.006661164574325085,0.10024720429663991,0.004241608083248138,0.018402399087048518,0.9713197648348497,0.08668231210363513,right,-0.001433253288269043,-0.42644578192616994,1.9873253250956535,-8.704398367917538,-0.21482477085047916,-0.008151181973516941,-0.0002784430980682373,4.056398374551534,0.0005683600902557373
1746739111406338800,3.2343388671875,0.22469024657575398,0.0015500765293836594,0.10031990559751035,0.0022294821683317423,0.01851720275792713,0.9712927846500917,0.08698382495542367,right,-0.0021469593048095703,-0.4265716862393891,1.9891693455271422,-8.703453196021915,-0.21490297961641816,0.0007476396858692169,0.00004234910011291504,4.057522410145402,0.0021013617515563965
1746739111446338800,3.2743388671875,0.22434279050569492,-0.004692198242992163,0.10016179519389144,-0.008980326354503632,0.018539699651546247,0.9713270519914128,0.08693380828671676,right,-0.0033549070358276367,-0.42641204911128167,1.986289260046184,-8.704775384536385,-0.21481988998087134,0.0060290079563856125,-0.003641083836555481,4.056097345778346,-0.0009721219539642334
1746739111486338800,3.3143388671875,0.22399991827907217,-0.00344956386834383,0.1000512603149268,0.011273140087723732,0.018388562762010247,0.971380383383619,0.08650853847775253,right,-0.001602768898010254,-0.42609776532802646,1.9835875998720525,-8.706698461553454,-0.21464312267736096,0.0011253398843109608,-0.0012411922216415405,4.0532910561859605,0.0022816061973571777
1746739111526338800,3.3543388671875,0.22419888597287235,-0.009348949417471886,0.1001826270504761,0.0003980454057455063,0.01819275373419243,0.9713651167560342,0.08615948257169084,right,-0.0014383196830749512,-0.4261810434145402,1.9852448655597865,-8.705974238932132,-0.21466782096373208,0.004026581067591906,-0.0014373064041137695,4.054034568029642,0.0008659064769744873
1746739111566338800,3.3943388671875,0.22392087819025736,-0.008322373032569885,0.10010961260776514,0.00024459377164021134,0.01798124802580173,0.9714031806017601,0.08563946842288661,right,-0.0006943941116333008,-0.4259909808251834,1.9829954791978,-8.707277138224244,-0.21454716276643462,0.008091998286545277,0.00020056962966918945,4.052337408722937,-0.0005905330181121826
1746739111606338800,3.4343388671875,0.2237147473468989,0.0052236346527934074,0.10002813071429614,-0.007541357539594173,0.01795239362869401,0.971431339595847,0.08551484139025502,right,-0.002595841884613037,-0.4258288753423208,1.9813463968165217,-8.708326355016231,-0.21446048183175975,-0.004288589581847191,0.0005566924810409546,4.050889548002183,-0.0013605952262878418
1746739111646338800,3.4743388671875,0.22380062816345875,0.016003621742129326,0.10000946106461556,-0.0001876717433333397,0.0181997603450439,0.9714137336780447,0.0860530347988777,right,-0.001485586166381836,-0.42591068171935076,1.9820206428162752,-8.707833018541336,-0.21452783657912383,-0.008144482970237732,-0.0013514012098312378,4.051620200364291,0.000690072774887085
1746739111686338800,3.5143388671875,0.2238758719892854,0.007898906245827675,0.09996738583709554,-0.010476315394043922,0.018537045466924452,0.9713981044788632,0.08677030314431762,right,-0.00005549192428588867,-0.425961830402776,1.982629860755801,-8.707481720885633,-0.21458918525158435,0.004397107288241386,-0.0009139776229858398,4.052077004221082,-0.0003452599048614502
1746739111726338800,3.5543388671875,0.22379934824797998,-0.0034044962376356125,0.0999382013205466,-0.0029143872670829296,0.0185980004315595,0.9714452714465497,0.08682687426626115,right,-0.004134953022003174,-0.4255341369325418,1.9823479750744997,-8.709322380316257,-0.2143839987706417,0.011402267031371593,-0.0016302913427352905,4.04825715367198,0.0033854246139526367
1746739111766338800,3.5943388671875,0.22332548712740502,-0.00775831937789917,0.09976310698379963,-0.005470931064337492,0.018483309192223366,0.9715140857058827,0.08643695698050817,right,-0.00017875432968139648,-0.4251284399367636,1.9785842386268078,-8.711861543405055,-0.2141634912589717,0.008886032737791538,-0.0009267330169677734,4.0446331179559225,-0.00021952390670776367
1746739111806338800,3.6343388671875,0.2232506165679824,0.0007693693041801453,0.09976715326223676,0.004040761385113001,0.01836982610973193,0.9715510117206918,0.08615061190740893,right,-0.0018253326416015625,-0.4248297441025245,1.9781993309624493,-8.713187239050864,-0.2140037278271091,0.0066765304654836655,-0.002632707357406616,4.041964483268559,-0.0034257173538208008
1746739111846338800,3.6743388671875,0.22339571696819688,0.002636294811964035,0.09982857576077618,0.0010771583765745163,0.01845480052005059,0.9715714577489724,0.08632276626628453,right,-0.0012910962104797363,-0.4245435148775245,1.9797198185279965,-8.714027781528234,-0.21387489965867118,0.0019980231299996376,-0.0021323412656784058,4.0394069077402355,-0.0025624334812164307
1746739111886338800,3.7143388671875,0.223675988294293,0.004908300004899502,0.09994679429508832,0.009175149723887444,0.018503324291294136,0.971554491423029,0.0864860859462244,right,-0.0026761293411254883,-0.4245577745350915,1.9821492376320062,-8.713416371631622,-0.21389255902496607,-0.005923308432102203,-0.0009366422891616821,4.0395343335121865,-0.0006295144557952881
1746739111926338600,3.754338623046875,0.22405020141878873,0.005200049839913845,0.10008202922624035,0.00562643725425005,0.018619631077061816,0.9715055277845792,0.08684007326613642,right,-0.00208282470703125,-0.42482207944988,1.9851725309759378,-8.711632995346188,-0.21404184110883764,-0.008620519191026688,-0.0028558969497680664,4.041896094207465,-0.0006639659404754639
1746739111966338800,3.7943388671875,0.22425801866739772,0.005375976674258709,0.10015331571129606,0.0029269387014210224,0.018720043530363287,0.9714869095851242,0.08709955107127065,right,-0.002101302146911621,-0.424879328226648,1.986931503472477,-8.71099469744265,-0.21408450635708565,-0.0014873817563056946,-0.0003880709409713745,4.042407550860942,0.00047141313552856445
1746739112006338800,3.8343388671875,0.22456448993814723,0.004160343203693628,0.10026913824179846,0.0007765311747789383,0.018834357678700633,0.9714673157003659,0.08740407462444973,right,-0.002038717269897461,-0.42489278684962484,1.9895890322439371,-8.710332434141636,-0.2141091660756735,-0.0023260675370693207,0.0002601444721221924,4.042527670109272,-0.0006806254386901855
1746739112046338800,3.8743388671875,0.2243995235436889,0.0005964965093880892,0.10016036174936298,-0.007946489378809929,0.018978946825381218,0.9714715881663497,0.08766716524563252,right,-0.0007180571556091309,-0.4249073595847224,1.988138979566097,-8.71060306777656,-0.21412785633404205,0.001412007724866271,0.00028298795223236084,4.0426580184906715,-0.0006656348705291748
1746739112086338800,3.9143388671875,0.22416434210604527,0.006869081407785416,0.10003415240585826,-0.005147838033735752,0.019071060113145362,0.9714882592416252,0.08779762193503833,right,0.00012558698654174805,-0.42484713002827806,1.986144444748014,-8.711308001175523,-0.21410295861596598,-0.0017685238271951675,-0.0006190091371536255,4.0421199660912155,-0.0031966865062713623
1746739112126338800,3.9543388671875,0.2236036648606342,-0.0010145185515284538,0.09976791219333006,0.000020742416381835938,0.01912783939136537,0.9715284118013471,0.08777671524131134,right,-0.00002485513687133789,-0.42473007489887593,1.981364809256047,-8.712881534102559,-0.2140398256259468,0.0038775205612182617,0.0016787201166152954,4.041073964169621,0.0006186962127685547
1746739112166338600,3.994338623046875,0.22366230252844851,-0.0041924286633729935,0.09980666786738823,0.0034157009795308113,0.01907977154617299,0.9715286430640262,0.08768788154798862,right,-0.00006461143493652344,-0.4247070394049716,1.9818962857842444,-8.712855815139413,-0.214024797630193,-0.0014244001358747482,-0.00046421587467193604,4.040868212464452,0.0012319386005401611
1746739112206338800,4.0343388671875,0.22360852785483115,-0.009609539061784744,0.09981394297951157,0.003296398790553212,0.018909079602147227,0.9715224636462166,0.08733912180055163,right,-0.00001800060272216797,-0.4248260963831126,1.9813211162447928,-8.712493411567806,-0.21406459332087643,-0.0016304947203025222,0.0008334964513778687,4.0419320423036815,0.0004330575466156006
1746739112246338800,4.0743388671875,0.22344574487261995,-0.009752520360052586,0.09978533141767965,0.00101175787858665,0.01864172167331031,0.9715083462831743,0.08678542606444851,right,-0.002076268196105957,-0.42509419022472816,1.9796625353828072,-8.71175866755247,-0.21416539199073437,-0.006762571632862091,-0.0007614344358444214,4.044327120746672,0.0017271935939788818
1746739112286338800,4.1143388671875,0.22328718564311945,0.0062515391036868095,0.09970956380157636,-0.0008290143450722098,0.01861631088246171,0.9714987701634109,0.08671960422140641,right,-0.0006864666938781738,-0.42527089707182536,1.9781229047253728,-8.711375221192837,-0.21424628913411076,0.00021897628903388977,-0.0014686435461044312,4.04590562210977,-0.001323103904724121
1746739112326338800,4.1543388671875,0.22347612522566182,0.01131090335547924,0.09976206264890201,-0.008393497206270695,0.01883649309599484,0.9715157983312467,0.08717817582331584,right,-0.00275266170501709,-0.42497145747623516,1.9800373600445687,-8.712182445922494,-0.21412575778700205,0.005972775164991617,-0.0036890655755996704,4.04323055768162,0.0010833144187927246
1746739112366338800,4.1943388671875,0.2232810238411376,0.0005456116050481796,0.09967924647661637,-0.0006164005026221275,0.01892584024201899,0.9715851369269637,0.08724758534898877,right,-0.0028551816940307617,-0.4243822968140187,1.978864663003385,-8.714889951315522,-0.21384177401691165,0.01266006100922823,-0.0029280483722686768,4.037966061282158,0.0015652179718017578
1746739112406338800,4.2343388671875,0.22306512399868117,-0.007812436670064926,0.09961680087954985,-0.0020813471637666225,0.01881796163830149,0.971629160496211,0.08694194360465307,right,-0.0020877718925476074,-0.4240848759980484,1.9772486061088739,-8.716488034161925,-0.21368032319143862,0.0033502038568258286,-0.002946719527244568,4.035307947988808,-0.0005730092525482178
1746739112446338800,4.2743388671875,0.2229348356227268,-0.00040098559111356735,0.09958583773088367,0.002988139633089304,0.018705201260756837,0.9716480839298677,0.08666934697586934,right,-0.0005639791488647461,-0.42398708491465387,1.9762001199692487,-8.71713042371869,-0.21361813945092872,0.007001963444054127,0.0003921687602996826,4.034434087763726,-0.003474414348602295
1746739112486338800,4.3143388671875,0.2231415847400178,0.003981389105319977,0.09968392091476594,0.0006232552696019411,0.01874186062564598,0.9716604872540338,0.08676226506887752,right,-0.002602219581604004,-0.42375619779738055,1.9782085371822118,-8.717629605412483,-0.21351276544708644,0.004212153144180775,-0.0002924501895904541,4.032370140971243,-0.001855313777923584
1746739112526338800,4.3543388671875,0.22319164515072626,0.002708778250962496,0.09970135814762189,0.0024556564167141914,0.018819712695636183,0.9716820927606696,0.086903288475694,right,-0.00132673978805542,-0.42350701410464,1.9788672933518885,-8.71851047990024,-0.21339945423436368,0.005300728604197502,-0.0011840909719467163,4.030142528049647,-0.0021144449710845947
1746739112566338800,4.3943388671875,0.22333678183434916,-0.004066889639943838,0.09976045566416444,0.002765499521046877,0.018864230712355396,0.9716776398161409,0.0870221265284077,right,-0.0020450949668884277,-0.42346853817409397,1.9801669777736066,-8.718374286299943,-0.213388097674901,-0.003152533434331417,-0.0020257234573364258,4.029798536917567,-0.0003313422203063965
1746739112606338800,4.4343388671875,0.22349115037120854,-0.0018264460377395153,0.09983092717652822,0.006247376557439566,0.01881907449946742,0.9716460726426933,0.08699180308480492,right,-0.0007517337799072266,-0.4237050227929395,1.9813013886310158,-8.717138607025145,-0.2135026965830557,-0.00907351728528738,-0.0011983662843704224,4.0319127525925635,0.00018042325973510742
1746739112646338800,4.4743388671875,0.22388638980380754,0.002160831820219755,0.10002475014066654,0.009186781942844391,0.018722735550430962,0.9716047797277635,0.0869071037152948,right,-0.0018984675407409668,-0.42392503507880896,1.9845497229024767,-8.71549025529623,-0.21360881068884893,-0.00011976715177297592,-0.0009406208992004395,4.033879376490414,-0.002690821886062622
1746739112686338800,4.5143388671875,0.22406915981295056,0.0002599885920062661,0.10010005244190899,-0.0036771781742572784,0.018749967826398765,0.9715875105137985,0.08701185844352367,right,-0.0034302473068237305,-0.4239949737621613,1.9860798550792038,-8.714851957392693,-0.2136496696705802,-0.0023696597199887037,-0.0002865642309188843,4.034504522651433,0.0003535151481628418
1746739112726338800,4.5543388671875,0.22398078339719646,0.001340906834229827,0.10005127644488176,-0.0003667939454317093,0.018763454273527713,0.9715807239205675,0.0870333234346895,right,0.004136145114898682,-0.4241029215135716,1.9852130091167985,-8.714602951067686,-0.21370224191118992,-0.004080490674823523,-0.0009876042604446411,4.035469276030361,-0.004598379135131836
1746739112766338800,4.5943388671875,0.22360318795563033,-0.002501661190763116,0.0998680547747086,-0.0025877284351736307,0.018808780276717858,0.9716023555360945,0.08704012765846342,right,0.00019371509552001953,-0.42407452119903827,1.9819475775800643,-8.715463367289304,-0.21368528415088073,0.0009733289480209351,0.0005132704973220825,4.035215593530237,-0.001364290714263916
1746739112806338800,4.6343388671875,0.22374128049376035,-0.004476636182516813,0.09993097848581164,0.006726931780576706,0.018763385226853224,0.9715715036339517,0.08700595698894358,right,-0.0000737905502319336,-0.4243122392361091,1.9829381960526107,-8.714253991499543,-0.21380011297056223,-0.007221551612019539,0.0003359764814376831,4.037340038338304,0.0015640556812286377
1746739112846338800,4.6743388671875,0.2237768203897658,-0.009661122225224972,0.09996978351919791,0.0026248167268931866,0.018595182792227206,0.9715398660711009,0.0867063845903226,right,-0.000017642974853515625,-0.4246318363729244,1.9829615769281983,-8.712924788722395,-0.21394040007866674,-0.0035386579111218452,0.000875324010848999,4.040196012291312,0.0004321634769439697
1746739112886338800,4.7143388671875,0.22378302157429955,-0.0001936955377459526,0.09999750129911633,-0.00223328685387969,0.018434719194012402,0.9715189152307818,0.08640527898219422,right,-0.0025358200073242188,-0.4248610148325141,1.982810039628297,-8.712009427443146,-0.21403649588484053,-0.005298938136547804,-0.003744751214981079,4.042243884731829,-0.0032711029052734375
1746739112926338600,4.754338623046875,0.22383428241095701,0.017431605607271194,0.09997252067296143,-0.00027283024974167347,0.01861776874163988,0.9714939876526405,0.08681552097421058,right,-0.001397550106048584,-0.42504286267472857,1.9830933866143226,-8.711191096797585,-0.2141456183726357,-0.005978535860776901,-0.0009687840938568115,4.043868563324213,-0.0005483627319335938
1746739112966338800,4.7943388671875,0.22418997052320302,0.018135376274585724,0.10004389758963475,-0.00420614518225193,0.018989294209949756,0.9714433069751967,0.08768813050292383,right,-0.004108726978302002,-0.42528344453455813,1.9859753717914221,-8.709536315327883,-0.2143092227550921,-0.0083735017105937,-0.0014210939407348633,4.04601785031259,0.0006193220615386963
1746739113006338800,4.8343388671875,0.2240806711000283,0.006232334300875664,0.09996105011929587,-0.005785181187093258,0.019229673731471685,0.9714905598584671,0.08810435972594971,right,-0.003563523292541504,-0.42483593839085637,1.9854254828236997,-8.711517844533919,-0.21411208902247308,0.012780136428773403,-0.0008429884910583496,4.042019720587134,0.0016847550868988037
1746739113046338800,4.8743388671875,0.22360517251593567,-0.0047034891322255135,0.09976838150894735,-0.008823312819004059,0.019233050171401176,0.9715777383709799,0.08793308015461973,right,-0.004220426082611084,-0.4242322015452655,1.9818238050699233,-8.714839097911119,-0.21380629172144833,0.01451578363776207,-0.002832189202308655,4.036624875806272,0.001520991325378418
1746739113086338800,4.9143388671875,0.22316807237266945,-0.0014547419268637896,0.09961333360559364,0.0012899171561002731,0.01915114214623328,0.9716671913695956,0.08759171847569887,right,0.0000776052474975586,-0.4236012331352986,1.978577662755549,-8.718186654773355,-0.21347919838807733,0.020492438226938248,-0.002455398440361023,4.030984824092686,-0.00395628809928894
1746739113126338800,4.9543388671875,0.22314173521379105,-0.00018743332475423813,0.09965571791323183,0.004537210334092379,0.019060214787180143,0.9717480930185172,0.08730723919089253,right,0.00020879507064819336,-0.42284658525146024,1.9790207303479312,-8.721202787724136,-0.21309890122858913,0.017268702387809753,-0.0033138543367385864,4.024237103398144,-0.0044900476932525635
1746739113166338600,4.994338623046875,0.22335046416550738,0.0009844045853242278,0.0997769920577048,0.007095511071383953,0.019043275863630093,0.9717847798230925,0.08726244435464804,right,-0.001227259635925293,-0.42238764792961175,1.981249804574251,-8.722589273646474,-0.21287613974460415,-0.0005593001842498779,-0.002139151096343994,4.020132590688765,-0.0025713443756103516
1746739113206338800,5.0343388671875,0.2236640758536145,-0.00571069959551096,0.09992174146959253,0.0065016658045351505,0.01899877880484187,0.9717467649355552,0.08726626163584496,right,-0.0012797117233276367,-0.42260731920355193,1.9837894060544667,-8.721106341612339,-0.21298581881365233,-0.005013586487621069,-0.0012392550706863403,4.022097461020946,-0.0021349191665649414
1746739113246338800,5.0743388671875,0.2238618674119975,-0.0005351579748094082,0.10001840406754278,0.006893854588270187,0.01889974331737396,0.9717012645617965,0.08714965568264578,right,-0.0012810826301574707,-0.4229680371367156,1.9851921124592422,-8.719298999929428,-0.2131567562844216,-0.011467721313238144,-0.0012165755033493042,4.025323145069182,-0.002123922109603882
1746739113286338800,5.1143388671875,0.2242783765562289,0.005168424919247627,0.10017415853145241,0.0031675363425165415,0.018951864043692427,0.9716215042462113,0.0874157533128942,right,-0.003348052501678467,-0.4235214462965769,1.9883277801364658,-8.716298064547777,-0.2134423147819766,-0.014038409106433392,-0.0006099790334701538,4.0302714151263235,-0.0012236833572387695
1746739113326338800,5.1543388671875,0.2243032529375923,0.00698821758851409,0.10014139431614243,-0.0017248464282602072,0.019114718515678995,0.971598062606277,0.0877788962498553,right,-0.000719904899597168,-0.4237056180627598,1.9883795103237032,-8.715524742087721,-0.21355001089730813,0.004767441190779209,0.0002630501985549927,4.0319180132895704,-0.0006780922412872314
1746739113366338800,5.1943388671875,0.22404251064007458,0.011584581807255745,0.09997606634217807,-0.012443911284208298,0.019362965100113677,0.9716285790627335,0.08820676421194483,right,-0.004685103893280029,-0.423493674224365,1.9862967127002775,-8.716875572174787,-0.21346616827694612,-0.0025232029147446156,-0.0005689412355422974,4.030023285584152,-0.0012576580047607422
1746739113406338800,5.2343388671875,0.22329038457924774,0.004629677627235651,0.09960580508480098,-0.0062327259220182896,0.019498246003392672,0.9716812183379214,0.0883009364654205,right,-0.00010520219802856445,-0.423336906909575,1.979879831395298,-8.718983358108996,-0.21338754890037612,0.002670047339051962,-0.000012814998626708984,4.0286216020926835,-0.00002828240394592285
1746739113446338800,5.2743388671875,0.2231882988289114,0.00010052835568785667,0.09954590762389873,-0.0001353370025753975,0.019552982734369596,0.9716839263358324,0.08839294790382374,right,0.0005748867988586426,-0.42335145707643224,1.9789768912062047,-8.719128319537639,-0.21339818601129884,0.000057977158576250076,-0.0008278042078018188,4.028751658213138,0.0018822848796844482
1746739113486338800,5.3143388671875,0.22305370024342072,-0.009482413530349731,0.09949893646442691,-0.00002505385782569647,0.019472429863978735,0.9716870915893525,0.08820397370756858,right,-0.0007604360580444336,-0.42340406679269965,1.977756409500539,-8.719187940770388,-0.21341297832201375,-0.0022505868691951036,-0.0008391886949539185,4.029222198334336,0.0018555223941802979
1746739113526338800,5.3543388671875,0.22286159227494973,-0.004122720565646887,0.0994412225648021,-0.0029934835620224476,0.019283544763189817,0.9716774477154069,0.08780038106285622,right,-0.0013040900230407715,-0.42362985400446845,1.9758800942346453,-8.71867999124825,-0.21350052867141964,-0.002971749287098646,-0.0035048574209213257,4.0312405524194235,-0.0015838146209716797
1746739113566338800,5.3943388671875,0.22295426654493558,0.00943840853869915,0.09945833870723975,-0.0008166290353983641,0.01940118187787024,0.9716705643263716,0.0880625751818058,right,-0.0035019516944885254,-0.4236273651698314,1.9766903877042232,-8.718506388247013,-0.2135132544290759,0.00044497731141746044,-0.0008811652660369873,4.031218340587616,0.001647859811782837
1746739113606338800,5.4343388671875,0.22292760950300006,0.0035112411715090275,0.09941803046183399,-0.011449813842773438,0.01956090598149176,0.9716846746214785,0.08836674786197345,right,-0.0028724074363708496,-0.423472950263654,1.9765955490276217,-8.71916631346047,-0.2134532551626482,0.007250753231346607,-0.0028547346591949463,4.029837992145121,0.0015874803066253662
1746739113646338800,5.4743388671875,0.22279489109350317,0.000005619600415229797,0.09936491376612717,0.0013354374095797539,0.01962232795941074,0.971738918036675,0.08840680186551657,right,-0.004277646541595459,-0.4230010130273637,1.9758583207942544,-8.721282282701134,-0.2132251465650131,0.0036397103685885668,-0.0034385323524475098,4.025618036362529,0.0027534067630767822
1746739113686338800,5.5143388671875,0.2226337930403908,-0.0024459436535835266,0.09929084338316209,-0.005056820344179869,0.019620508375723288,0.9717474167301683,0.08836760890732188,right,-0.0033844709396362305,-0.42300020857170645,1.9744540069542824,-8.721603769740462,-0.21322122269298951,0.0022859652526676655,-0.002399146556854248,4.025611022099852,-0.0019060969352722168
1746739113726338800,5.5543388671875,0.2225378683564048,0.0011562579311430454,0.09926117630781772,0.004194915760308504,0.01962764210361975,0.9717886579663988,0.0883184295126393,right,-0.002642393112182617,-0.42264663804988784,1.9739314443849025,-8.723180809798837,-0.21304640692468765,0.012848405167460442,-0.0029828399419784546,4.022449050937593,-0.002967536449432373
1746739113766338800,5.5943388671875,0.22265756557314256,-0.00013562035746872425,0.09935014547177382,0.003973327111452818,0.019608979349250075,0.9718488296678903,0.08822849029699568,right,-0.002709627151489258,-0.4220045684041906,1.9755454554527996,-8.725461614212394,-0.21273179485450902,0.00899063516408205,-0.0026689916849136353,4.016705538849532,-0.0013593733310699463
1746739113806338800,5.6343388671875,0.22275485591805735,-0.0028441164176911116,0.0994205348164638,0.0024075217079371214,0.01952846177024172,0.9718627405854032,0.08806362446652369,right,-0.0026952624320983887,-0.421835660936748,1.976544111101329,-8.725930985289812,-0.2126426550679573,-0.0009371740743517876,-0.003540217876434326,4.015194549764693,-0.0017210543155670166
1746739113846338800,5.6743388671875,0.2229048014166094,-0.0016620546812191606,0.09951161618607769,0.005249659530818462,0.019423486198383955,0.971854251927999,0.08788373406539672,right,-0.0019998550415039062,-0.42186315956377135,1.9778281595624982,-8.725526496142148,-0.21264850100311034,0.0018427406903356314,-0.0024048984050750732,4.01544063348025,-0.0019220709800720215
1746739113886338800,5.7143388671875,0.2233108215124679,0.0022641862742602825,0.09971149527437732,0.00844083447009325,0.019375775041046615,0.9718377069194293,0.08787017450072977,right,-0.0033609867095947266,-0.42182845680907666,1.981401634135097,-8.724858972144126,-0.21263493187005306,-0.0015440424904227257,-0.0015018731355667114,4.015129960095882,-0.0016035139560699463
1746739113926338600,5.754338623046875,0.223542940840667,-0.0014933266211301088,0.09980585285498424,0.0023561730049550533,0.019382548092712486,0.9717996806932072,0.08796545105375596,right,-0.002025008201599121,-0.4220798263289266,1.9832029844686387,-8.723414034032821,-0.21276381742591707,-0.011565660126507282,-0.0014937818050384521,4.017378908066451,-0.001529783010482788
1746739113966338800,5.7943388671875,0.22381529784331589,-0.004530600272119045,0.09991934108882822,0.007088491693139076,0.019327537631296084,0.9717317211820928,0.08797680429983676,right,-0.0005487799644470215,-0.4226135001804901,1.9851026806101202,-8.720781931963563,-0.21302577475824402,-0.013921702280640602,-0.0027041882276535034,4.0221526983395215,-0.003482818603515625
1746739114006338800,5.8343388671875,0.22347101743187622,-0.005241093225777149,0.09975684298194343,-0.005140241235494614,0.019270430066215656,0.9717155077074161,0.0878254996690455,right,-0.0025801658630371094,-0.4229567634726082,1.9817939944535492,-8.720118499618769,-0.21318130974897828,0.0020398572087287903,0.00020195543766021729,4.025222607304156,-0.003062516450881958
1746739114046338800,5.8743388671875,0.2236683901338679,-0.00043992046266794205,0.09984877159492332,0.005954011343419552,0.019209904747979446,0.9716781582608867,0.08777762281810113,right,-0.0007329583168029785,-0.42323140498040945,1.9832697660945355,-8.718648427066206,-0.21331396945668027,-0.013201049529016018,-0.001150771975517273,4.027678183762729,0.00015291571617126465
1746739114086338800,5.9143388671875,0.22394709830379161,-0.0017628370551392436,0.09996577945093833,0.007145734503865242,0.019204540200381575,0.9716345639278011,0.08786226991736017,right,-0.000788569450378418,-0.42351477900964146,1.9854462333507834,-8.7169825396806,-0.21345824998742294,-0.0075701395981013775,-0.0008435994386672974,4.030211793893575,0.0018322467803955078
1746739114126338800,5.9543388671875,0.22401971018360908,-0.00424154382199049,0.10001561295291703,0.0020483722910284996,0.01906224501728556,0.9715998296359708,0.08762505102266588,right,-0.0014216303825378418,-0.4238409600716541,1.9857870096124708,-8.715555721747874,-0.213605234552447,-0.005264028906822205,-0.0014396756887435913,4.033127681340277,0.0008065104484558105
1746739114166338600,5.994338623046875,0.2241605555498861,0.005167189985513687,0.10007249792874102,0.004494837485253811,0.01905247815836413,0.9715694342633849,0.08766336874407801,right,-0.0033593177795410156,-0.42406628382927475,1.9868124071374533,-8.71438960057795,-0.21371772003659992,-0.004071960691362619,-0.0014865398406982422,4.035141943772137,-0.0015690922737121582
1746739114206338800,6.0343388671875,0.22459380056419148,0.012232162989675999,0.10021872465022467,0.002703214529901743,0.019276907689322918,0.9715319845196939,0.08823302217731997,right,-0.0020853281021118164,-0.4241673465614016,1.9904967947386205,-8.713130540427565,-0.21379938087010233,0.0011030370369553566,-0.002048775553703308,4.036045030091703,-0.00028374791145324707
1746739114246338800,6.0743388671875,0.22457247562810612,0.005408610217273235,0.1002032940672572,0.005664951633661985,0.0194325797841462,0.9715938518540606,0.08847314400751236,right,-0.000023066997528076172,-0.42354802182963125,1.9908672354862094,-8.715608328717947,-0.213511003307324,0.01874225214123726,-0.000022709369659423828,4.030509023274481,-0.000003129243850708008
1746739114286338800,6.1143388671875,0.22455087831620477,-0.006795454770326614,0.10022999115433927,0.0008241436444222927,0.019361182835535725,0.9716432060815681,0.08826597136908008,right,-0.002845466136932373,-0.42309386243575764,1.9910864311948417,-8.717434959623217,-0.21328024956249847,0.0060816798359155655,-0.001981779932975769,4.026448349706828,0.001962423324584961
1746739114326338800,6.1543388671875,0.22445183695968315,-0.011312354356050491,0.10024565425831489,0.0066657098941504955,0.01910176179100388,0.9716636108879619,0.08769827527029896,right,-0.0005652308464050293,-0.4229956832023612,1.9903110629081724,-8.718017143425344,-0.21320325115558558,0.00959842186421156,-0.0018319487571716309,4.025570397828519,-0.0030649304389953613
1746739114366338800,6.1943388671875,0.22456536713809755,-0.0029593845829367638,0.10036635372521588,0.00371950538828969,0.018893529992305133,0.97171220791941,0.08723478041913146,right,-0.003991186618804932,-0.4225055519076058,1.9917399266675113,-8.719714010471105,-0.2129434561700976,0.015355587936937809,-0.002092599868774414,4.02118706817776,-0.002663910388946533
1746739114406338800,6.2343388671875,0.22449550179580569,-0.0012587688397616148,0.10036985043431643,-0.002208880614489317,0.018830459231031237,0.9717663620366501,0.08703117424303372,right,-0.003357112407684326,-0.42202589379489164,1.991559893925488,-8.721732364556193,-0.21270002396728088,0.005349545739591122,-0.003260895609855652,4.016896385246515,-0.0023946166038513184
1746739114446338800,6.2743388671875,0.22443126708542852,0.0012918359134346247,0.10034850276658538,0.0013007805682718754,0.018813954833704835,0.971780729061135,0.08697048578502851,right,-0.0026001334190368652,-0.4219220233431029,1.991092422544211,-8.722267202085256,-0.2126460059897229,-0.0005198591388761997,-0.0006690621376037598,4.015967287702858,-0.0034446418285369873
1746739114486338800,6.3143388671875,0.224604612475718,0.003918468952178955,0.10041900923734476,0.003968711011111736,0.01884496837789628,0.9717645377460429,0.08707997183002622,right,-0.0019267797470092773,-0.42198534051804826,1.9925477359190582,-8.721673912367224,-0.21268383995321058,-0.001695758430287242,-0.0018151700496673584,4.016533689413965,-0.0031873583793640137
1746739114526338800,6.3543388671875,0.2248072092463466,0.0027926359325647354,0.10048387221214385,-0.0012726299464702606,0.018932705033351597,0.9717306767925008,0.08733054998063855,right,-0.0033729076385498047,-0.4221955161607796,1.9941265295431017,-8.720447000920773,-0.21280023524808395,-0.009998616762459278,-0.0014894157648086548,4.018413804072141,-0.0016095638275146484
1746739114566338800,6.3943388671875,0.2249396205510913,0.000989686232060194,0.10052374139035399,0.007245801389217377,0.01895386168344393,0.9716858695606557,0.0874475937148383,right,0.000825345516204834,-0.4225596943540337,1.9949545047998427,-8.71875539457202,-0.21298393978418134,-0.007523435167968273,-0.0027209818363189697,4.021671344563365,-0.0034308135509490967
1746739114606338800,6.4343388671875,0.22468318148444374,-0.00508148642256856,0.10039745181364128,-0.0077469563111662865,0.018963885358817295,0.9716868724878498,0.08742657526552161,right,-0.0012998580932617188,-0.4226789824106523,1.992611741065979,-8.718799233713746,-0.21303827362635935,0.0033301394432783127,0.0005482286214828491,4.0227383892729875,-0.0013425052165985107
1746739114646338800,6.4743388671875,0.22475796499575657,-0.004473324865102768,0.1004488975684951,0.006013793870806694,0.018871759715522678,0.9716773115040364,0.0872622156022469,right,-0.0014290809631347656,-0.4227516038533907,1.9931987471736967,-8.718365518471598,-0.21306593007190744,-0.0027555758133530617,-0.001436382532119751,4.0233877930924296,0.0007813572883605957
1746739114686338800,6.5143388671875,0.2247749725573583,-0.002867648610845208,0.10045961876387062,0.001608308870345354,0.01881978622629593,0.9716583253411085,0.08718166369128685,right,0.0005957484245300293,-0.4229375033192925,1.9931803347341714,-8.717602132883668,-0.2131521636901856,-0.0028940625488758087,-0.001736566424369812,4.025050173346698,0.0015240609645843506
1746739114726338800,6.5543388671875,0.22479498460026898,0.0013204242568463087,0.10046668596718769,-0.00011220236774533987,0.018756568044341403,0.9716224173899627,0.08709863256810947,right,-0.0005718469619750977,-0.4232872067188566,1.9930407801330088,-8.716189343476294,-0.2133177300796556,-0.010578960180282593,-0.004165723919868469,4.028177365456521,-0.0026311874389648438
1746739114766338800,6.5943388671875,0.2250013011320194,0.01075817458331585,0.10051077577354324,0.004132204223424196,0.018900911180651278,0.9715648955907591,0.08749311694669037,right,-0.0026523470878601074,-0.4237130681440683,1.994456199888885,-8.714104938417673,-0.21354594439985283,-0.012336869724094868,-0.0012208223342895508,4.031984648784995,-0.0021950602531433105
1746739114806338800,6.6343388671875,0.2253210913368344,0.013708156533539295,0.10057050982360652,0.000984933227300644,0.019198138240942225,0.9714916059012771,0.08823549341448168,right,-0.002122640609741211,-0.4242046556668176,1.996799694275111,-8.711533626624941,-0.21382459328123796,-0.013015134260058403,-0.0035017281770706177,4.036378499829769,0.0005852878093719482
1746739114846338800,6.6743388671875,0.22537112570894166,0.00681712944060564,0.1005476142321695,0.0023989719338715076,0.019403515542299812,0.9714831186998644,0.08867146328035029,right,-0.0006949305534362793,-0.42422218281350593,1.9972196732528507,-8.711365284320712,-0.21385548647049762,0.0011511417105793953,-0.0020658373832702637,4.036535151696205,-0.00019669532775878906
1746739114886338800,6.7143388671875,0.22553252080510677,-0.004313000477850437,0.10062180022775559,0.0035677384585142136,0.019407141340300214,0.9714755400744493,0.08871341401322706,right,-0.004247128963470459,-0.42421372314438716,1.9986333394430578,-8.711075945985316,-0.21385504397680222,-0.0016597018111497164,-0.0019962936639785767,4.036459748372435,0.001908808946609497
1746739114926338600,6.754338623046875,0.22543348500013233,-0.007180673070251942,0.10062038609603936,0.006463220342993736,0.019214745218327486,0.9714889432777315,0.08829023108638819,right,-0.0005323886871337891,-0.4241704945441608,1.997809601970017,-8.71144361025393,-0.21381186137822034,0.011938335373997688,-0.0027213841676712036,4.036073379403352,-0.003503769636154175
1746739114966338800,6.7943388671875,0.22563311722830923,-0.0015729372389614582,0.1007639061326605,0.005022714845836163,0.019102737117498162,0.9715399156682867,0.0880331444416561,right,-0.00328218936920166,-0.42359623439776334,2.000066879377514,-8.713302389863133,-0.21352247972801267,0.014839047566056252,-0.0027095824480056763,4.030940108168125,-0.0036519765853881836
1746739115006338800,6.8343388671875,0.2258843111202462,-0.0002605979098007083,0.10091524539359041,0.00569494953379035,0.01904713104901952,0.9715789920717834,0.08791290014445949,right,-0.001282036304473877,-0.4230994373806872,2.002703803752363,-8.714750250583887,-0.21327799753553073,0.006017711013555527,-0.0012167245149612427,4.026498326328396,-0.0021243691444396973
1746739115046335500,6.87433544921875,0.22617028201315723,0.0009461352601647377,0.10105329137291541,0.008095286786556244,0.01902527623289275,0.9715666502652917,0.08792797568239745,right,-0.0019057438476011157,-0.423077362442662,2.0052157865732907,-8.714263928371667,-0.21327078122307047,-0.0057230484671890736,-0.002716065850108862,4.026300757929683,-0.0035823152866214514
1746739115086335500,6.91433544921875,0.22665325709481304,0.0016347357304766774,0.10124400993718219,0.007966207340359688,0.019074524025195074,0.9714918903589347,0.08819318387616132,right,-0.003014206886291504,-0.4235467031534156,2.008999396765232,-8.711451793560386,-0.21351629580404882,-0.007792566902935505,-0.0017938464879989624,4.0304973328366875,-0.002093583345413208
1746739115126335500,6.95433544921875,0.22696611226393293,0.0009149624384008348,0.10135925663541734,0.001924267504364252,0.01912943191043737,0.9714360024050545,0.08842086584004394,right,-0.003206789493560791,-0.4239186700748738,2.011387314815074,-8.709361543282865,-0.21371109182750847,-0.005116506014019251,-0.001193910837173462,4.03382238560617,-0.00164717435836792
1746739115166335200,6.994335205078125,0.2270419827299385,0.0038917288184165955,0.10137102669265677,0.0013690664200112224,0.01918965866095982,0.9714085912232976,0.08858815840273467,right,-0.00045102834701538086,-0.4241342570279116,2.01185230197832,-8.708361426329612,-0.2138247780059729,-0.0037459456361830235,-0.0016844123601913452,4.035749262015521,-0.0031416714191436768
1746739115206335200,7.034335205078125,0.22687410141757924,-0.00083521893247962,0.10128455499181796,0.0009412369108758867,0.019208814388765882,0.9714067632016355,0.0886029865663534,right,-0.00022518634796142578,-0.42423433953262474,2.010299373447895,-8.708305896750092,-0.2138724182215758,-0.0009639700874686241,-0.0008410215377807617,4.036643872767686,-0.0015686452388763428
1746739115246335200,7.074335205078125,0.22690632971243718,-0.00407197792083025,0.10130312321645263,0.003916906658560038,0.019147764556935672,0.9713846435941454,0.08851024603248064,right,-0.00010442733764648438,-0.4244439836577047,2.0103896820798517,-8.707416254433989,-0.21396962833207922,-0.004221633076667786,-0.0008666366338729858,4.038517557685077,-0.0009818077087402344
1746739115286335500,7.11433544921875,0.2268878721881542,-0.007626534439623356,0.10131521714612382,0.0029371739365160465,0.019009038463458063,0.9713663377856275,0.08824687106039056,right,-0.0000521540641784668,-0.4246574068427049,2.010035023423284,-8.70661312135756,-0.21405953421438995,-0.002643491607159376,-0.0004325360059738159,4.040424560350179,-0.0004899799823760986
1746739115326335500,7.15433544921875,0.22686970130453027,-0.004449520260095596,0.10132791975241727,0.00007251603528857231,0.01885972843054178,0.971343798164554,0.08796679388572078,right,-0.0013924241065979004,-0.4249116331171279,2.0096457318447527,-8.705648660239577,-0.2141684073984878,-0.0060676513239741325,-0.0011034458875656128,4.042696012413502,-0.0007121860980987549
1746739115366335500,7.19433544921875,0.2269343079681043,0.004015015438199043,0.10134389184250699,-0.0005397966597229242,0.018844173458753215,0.9713022104493801,0.0879949176567999,right,-0.0027352571487426758,-0.42528389339946976,2.009869311467558,-8.704051746436953,-0.21435083863774296,-0.010160835459828377,-0.0002589672803878784,4.046021941965818,-0.00109177827835083
1746739115406335200,7.234335205078125,0.22711219912081407,0.009133875370025635,0.1013781847324649,-0.004107779823243618,0.018997379682105554,0.9712586166997733,0.08838691370424742,right,-0.002756357192993164,-0.42558576933132325,2.01114269240424,-8.702503932473062,-0.21451866788734433,-0.004302808083593845,-0.0017462968826293945,4.048718341442942,-0.0005797445774078369
1746739115446335200,7.274335205078125,0.2270304035676693,0.007458769250661135,0.10131205675074124,-0.0037773677613586187,0.019168334808756616,0.9712804783419711,0.08869598254991565,right,-0.0024455785751342773,-0.4253841584987378,2.010614430746436,-8.703463132894038,-0.21443584562776294,0.00725612323731184,-0.0021831542253494263,4.046917429500818,0.00020825862884521484
1746739115486335200,7.314335205078125,0.22685888460644177,0.001791046466678381,0.10122904374478067,-0.004749593324959278,0.019261446940274894,0.9713248973755237,0.08880551295951929,right,-0.0033373236656188965,-0.42502486003541234,2.009448601837456,-8.705224297347664,-0.21426562157814236,0.005929742939770222,-0.0029845833778381348,4.043707819804549,0.0006654262542724609
1746739115526335500,7.35433544921875,0.22669654111496787,0.00008687097579240799,0.10116758548247462,0.00022345082834362984,0.01925748371557853,0.971361459074487,0.088728084835032,right,-0.0026187896728515625,-0.4247534031005786,2.008281896145642,-8.706619551098346,-0.21412861929820992,0.007152361795306206,-0.0028498023748397827,4.041282346223294,-0.001466304063796997
1746739115566335500,7.39433544921875,0.226675855041808,-0.0007303667371161282,0.10117917095138033,0.0019043190404772758,0.019214348902679108,0.9713892103482828,0.08860393956469949,right,-0.0018565654754638672,-0.4245037341270522,2.008328511766344,-8.707644217970968,-0.21400114028050773,0.005970141850411892,-0.0028091222047805786,4.039051518431306,-0.003659069538116455
1746739115606335500,7.43433544921875,0.2267926997067262,0.0008505484438501298,0.10123849669561415,0.0036876467056572437,0.01919652165210323,0.9713865243308011,0.0885892637863783,right,-0.0021949410438537598,-0.42447363119360637,2.0093731985136865,-8.70752789811492,-0.21398692788618126,-0.004666781052947044,-0.003515675663948059,4.0387823461011045,-0.00435301661491394
1746739115646335500,7.47433544921875,0.2270397144252862,-0.0010851295664906502,0.101332745853486,0.0032392716966569424,0.019216112334693888,0.9713386235009668,0.08872523593976515,right,-0.003105342388153076,-0.42480756226251565,2.0112204338155686,-8.70571646477878,-0.2141580128013821,-0.012637744657695293,-0.003250300884246826,4.041766330347955,-0.0037022829055786133
1746739115686335200,7.514335205078125,0.22720110432940802,0.00018042954616248608,0.10137672861338193,0.00035557569935917854,0.0192510722182766,0.9712787661521248,0.08889327876640643,right,-0.002873659133911133,-0.4252970336423561,2.0121794881060717,-8.703463132894038,-0.21440528129781306,-0.014309409074485302,-0.0026732832193374634,4.0461391386047,-0.003143787384033203
1746739115726335200,7.554335205078125,0.22737916479613288,0.004806174896657467,0.1014224575519398,0.0027899970300495625,0.019327186474074012,0.9712242913335413,0.08914137871778907,right,-0.0024366378784179688,-0.42571799035412955,2.013345170884579,-8.70144477880895,-0.21462355176427167,-0.010346604511141777,-0.0020805150270462036,4.049899367921054,-0.0023322701454162598
1746739115766335500,7.59433544921875,0.22759280580545804,0.007292568683624268,0.10147642678741009,0.000601127976551652,0.01948367744184185,0.9711875836815148,0.08953752050448471,right,-0.0026412010192871094,-0.42593337370950785,2.015007258877903,-8.700164675870537,-0.21475007329235485,-0.005783638451248407,-0.002938106656074524,4.051822737199068,-0.0005623400211334229
1746739115806335500,7.63433544921875,0.22771836247519214,0.004219521302729845,0.10150009952577183,0.0022342465817928314,0.019610071658529217,0.9711643960990133,0.0898423207547053,right,-0.0009673833847045898,-0.4260684968191315,2.0159759577795864,-8.69937790940702,-0.21483223556298986,-0.003726477036252618,-0.0025008022785186768,4.0530294826403255,-0.0003445148468017578
1746739115846335500,7.67433544921875,0.22775935120146984,0.0007234795484691858,0.1014960139450044,0.0003115335712209344,0.01966753244330678,0.9711384408078312,0.08999680290062072,right,-0.0025137662887573242,-0.42628694005771556,2.0161326096460224,-8.698432737511396,-0.21494630784077934,-0.006897228769958019,-0.003925159573554993,4.05498003218621,-0.0014742612838745117
1746739115886335500,7.71433544921875,0.22765181065454643,-0.0034610272850841284,0.10145229536530649,0.006551258731633425,0.019586058408805847,0.9711191887389479,0.08983699827432962,right,-0.0030258893966674805,-0.4265434819520394,2.014962250692397,-8.697636034175753,-0.2150614300967305,-0.007417294196784496,-0.0028152018785476685,4.057270773471892,-0.00006952881813049316
1746739115926335200,7.754335205078125,0.22781195513106464,-0.006830375175923109,0.10153365206505288,0.007516104262322187,0.019464420214813438,0.971070120215928,0.08967333882535135,right,-0.0022307634353637695,-0.42695795565639866,2.015975227127224,-8.695673794192075,-0.21525549100222877,-0.00889947172254324,-0.001678183674812317,4.060970797033607,0.0005642175674438477
1746739115966335200,7.794335205078125,0.22787535989590224,-0.009013061411678791,0.10158236036547753,0.004720369819551706,0.019309288820670824,0.9710367592951797,0.08940729039238618,right,-0.002529740333557129,-0.4272756932619464,2.0162349009767175,-8.694288477313519,-0.21539654357446067,-0.004959683865308762,-0.0011097639799118042,4.063806897242367,0.0008440911769866943
1746739116006335200,7.834335205078125,0.22775049262398153,-0.00007666833698749542,0.10153861958323794,-0.002050143200904131,0.01920888503288178,0.9710268844030242,0.08919484448773993,right,-0.0029099583625793457,-0.42745362817837074,2.0149859238289296,-8.6938360573709,-0.21547074685759712,-0.0025820548180490732,-0.00191517174243927,4.065394750955701,-0.00141945481300354
1746739116046335500,7.87433544921875,0.2277250915931616,0.013141453266143799,0.10148820430256877,-0.00011506280861794949,0.019371403250790634,0.9710192430241764,0.08953084184226526,right,-0.0028257369995117188,-0.42750930771606294,2.014713975019753,-8.693666546022891,-0.21551452178769914,-0.002525337040424347,-0.001393437385559082,4.0658915945619345,-0.0009748935699462891
1746739116086335500,7.91433544921875,0.22779809513287633,0.009635553695261478,0.1014611372363654,-0.006262739188969135,0.019658001509934832,0.9710158424070597,0.0901298858929924,right,-0.0027599334716796875,-0.4274490918636445,2.015404003110528,-8.693757731437682,-0.21551646667361582,0.0015632766298949718,-0.002482488751411438,4.065354418945312,-0.001353919506072998
1746739116126335500,7.95433544921875,0.22776068832138052,0.0012912675738334656,0.10142077031697404,-0.002717942465096712,0.019810129273981014,0.9710381916776823,0.09040696345737428,right,-0.0024379491806030273,-0.42722374376915423,2.015285491297394,-8.694725699687003,-0.2154209783081002,0.0037719961255788803,-0.0029998719692230225,4.063343079122901,-0.00037226080894470215
1746739116166335200,7.994335205078125,0.22761190253588023,-0.004210975952446461,0.10136069699659384,-0.002159753115847707,0.0197811729146941,0.9710514871899487,0.09030857856114971,right,-0.0025260448455810547,-0.42717746655893385,2.01403432219252,-8.695208514767884,-0.21539209379563892,-0.0010869549587368965,-0.0034464001655578613,4.062930114407838,-0.001890331506729126
1746739116206335200,8.034335205078126,0.227615868241428,-0.0016520177014172077,0.10137515672395465,0.003789956448599696,0.019708159312067975,0.9710449667251911,0.09016842168353521,right,-0.00251084566116333,-0.42725287141007645,2.013999689270556,-8.694902225297689,-0.21542154925070858,-0.001623328891582787,-0.002654552459716797,4.0636031913638115,-0.003707408905029297
1746739116246335200,8.074335205078125,0.22780703477136835,0.0011671578977257013,0.10146127801958535,0.0038904098328202963,0.019703177856260842,0.9710278443667827,0.09020904960397902,right,-0.0029012560844421387,-0.42732121009871715,2.0155990872912106,-8.69424639173746,-0.2154586003875934,-0.0016643983544781804,-0.002682328224182129,4.064212847694755,-0.003679513931274414
1746739116286335500,8.11433544921875,0.22802121343259876,0.00046045973431319,0.10155246075546749,0.004069647751748562,0.019730477816900665,0.9710123843016851,0.09031706726211208,right,-0.0031363368034362793,-0.4273555482216026,2.017429663719237,-8.693678236460686,-0.21548282773595953,-0.0028582592494785786,-0.002529457211494446,4.064519429425895,-0.002829998731613159
1746739116326335500,8.15433544921875,0.22818742183508764,-0.0004881429485976696,0.10161924191209223,0.0018854215741157532,0.019740137931390133,0.9709862431680926,0.09039430169071606,right,-0.0036095380783081055,-0.4275201204553341,2.018723210661113,-8.692691563510895,-0.21556811745965843,-0.006764290854334831,-0.003043845295906067,4.065988040673733,-0.0023089051246643066
1746739116366335500,8.19433544921875,0.22835138412256273,0.001842194003984332,0.10166904727643951,0.0005432351026684046,0.019783981224824356,0.9709413426039412,0.09056329527313092,right,-0.002765655517578125,-0.4278601289551316,2.0198354096867144,-8.691013401165604,-0.2157430107523962,-0.00961365271359682,-0.001977980136871338,4.069022293803096,-0.0025510191917419434
1746739116406335200,8.234335205078125,0.2285128708822695,0.004306428134441376,0.10170350406942867,0.0016216294607147574,0.019885188851956052,0.9708921324642166,0.09085368458033945,right,-0.0017341971397399902,-0.42822983614660315,2.0208979243516922,-8.689220672529935,-0.21593846761013222,-0.010698474012315273,-0.0011195242404937744,4.072320750826597,-0.0009627640247344971
1746739116446335200,8.274335205078126,0.22875502341709944,0.005526903085410595,0.1017679329205172,0.002155731664970517,0.020016371419580434,0.970836959144575,0.09122515366758982,right,-0.0026419758796691895,-0.4286098475267942,2.022650905498862,-8.687223361232876,-0.21614383577988783,-0.01123575959354639,-0.0014219582080841064,4.075710393264889,0.00018921494483947754
1746739116486335200,8.314335205078125,0.22882400543455564,0.0013897577300667763,0.10175392613294217,-0.00020677736029028893,0.020131253024530876,0.9707866966607072,0.09153002434421456,right,-0.0013072490692138672,-0.4290334760117696,2.0228582646392286,-8.685401406502724,-0.21636521192663377,-0.008257431909441948,-0.0007036328315734863,4.079488742759824,0.00009357929229736328
1746739116526335500,8.35433544921875,0.22873452494349827,0.0028439767193049192,0.10168097820930154,-0.001435308950021863,0.020207472188380662,0.9707578981047961,0.09170535046771074,right,-0.00124436616897583,-0.42934012557046625,2.021797357409447,-8.68436388014853,-0.21652171996566022,-0.005614216439425945,-0.0015801340341567993,4.082223136159778,-0.002064436674118042
1746739116566335500,8.39433544921875,0.22849381360595794,-0.0008015306666493416,0.1015587976481182,0.0014958293177187443,0.02023395251855302,0.9707586372281439,0.09171988945145426,right,-0.0006153583526611328,-0.42944983051824553,2.0196054003231225,-8.684413564509153,-0.21657315722060524,-0.002716837916523218,-0.0007814764976501465,4.083201333542168,-0.001021057367324829
1746739116606335500,8.43433544921875,0.2284731213274795,-0.004714448004961014,0.10155519754893964,0.0030756345950067043,0.02016163255413827,0.9707389798437754,0.09159281502184084,right,-0.0017324090003967285,-0.42966283485207774,2.01922867596522,-8.683608093345164,-0.21666964707142652,-0.002459624782204628,-0.0006638318300247192,4.08510044516176,0.00006151199340820312
1746739116646335500,8.47433544921875,0.22830567168254262,-0.010665345937013626,0.10150940423672838,0.000625282060354948,0.019992591987349453,0.9707376389332092,0.09122356830236757,right,-0.0008482933044433594,-0.4297945874982868,2.0176528049506244,-8.683422215384244,-0.21671301082600913,0.0011963415890932083,-0.0007793009281158447,4.086275041899085,-0.0001703500747680664
1746739116686335200,8.514335205078124,0.22805787595394492,-0.004443892743438482,0.10142886469478045,-0.0023687712382525206,0.019836630380489797,0.9707515828873422,0.09084973986548812,right,-0.002777278423309326,-0.42981719301895943,2.0154801370866595,-8.683831965228915,-0.21670252791467534,-0.00036364514380693436,-0.0017517954111099243,4.086476409690082,-0.0019657909870147705
1746739116726335200,8.554335205078125,0.22787762994133196,0.007650129962712526,0.10133274820982106,-0.0023523340933024883,0.019902053567828003,0.9707633644485341,0.09094006894640992,right,-0.0024198293685913086,-0.4297832195508086,2.0139462055176494,-8.684329977878928,-0.21668885621634648,-0.0005598379648290575,-0.0019053220748901367,4.086173627351224,-0.0011076629161834717
1746739116766335500,8.59433544921875,0.2279143153703649,0.00954428594559431,0.10130104528632995,-0.004633491393178701,0.02012893512840276,0.970761273910448,0.09141039899893433,right,-0.0022767186164855957,-0.4297406996783596,2.01430407904461,-8.684425839468837,-0.216692439712489,-0.0018736834172159433,-0.002265363931655884,4.085794564905762,-0.00004616379737854004
1746739116806335500,8.63433544921875,0.22783334004248765,0.005434112623333931,0.10123716224582287,-0.0021582096815109253,0.020291861053479597,0.9707836231142501,0.09170244047094138,right,-0.002538025379180908,-0.42953511636162867,2.0137905765645203,-8.68540666719973,-0.2166068549876865,0.004436585120856762,-0.0022996068000793457,4.08396179652065,0.00014230608940124512
1746739116846335500,8.67433544921875,0.22770148335149148,0.0006080814637243748,0.10118000247968713,-0.0014079287648200989,0.020327610245825578,0.9708151594188204,0.09171645961064949,right,-0.0026509761810302734,-0.42929185609923054,2.012869516196847,-8.68663942386508,-0.21648843790692754,0.003388573881238699,-0.0032193809747695923,4.081792635788023,-0.00016617774963378906
1746739116886335500,8.71433544921875,0.22764428104274576,-0.0006331397453323007,0.10116570216662221,0.0037332242354750633,0.020284381200826557,0.9708244614841551,0.09160828109745146,right,-0.0011762380599975586,-0.4292405990844887,2.012419872733205,-8.686958572816849,-0.21645755586051654,-0.000313581433147192,-0.002543047070503235,4.081335831931233,-0.002798795700073242
1746739116926335200,8.754335205078124,0.22781936929315477,0.0008822309318929911,0.10125191679454103,0.005741013213992119,0.020253917673231744,0.9708129035990916,0.09158805384104786,right,-0.002576172351837158,-0.4292687074283781,2.0139147874660788,-8.686494462436437,-0.21647192035394583,-0.001867821323685348,-0.0024835318326950073,4.081586299560964,-0.003567427396774292
1746739116966335200,8.794335205078125,0.2280442453963795,0.000949675333686173,0.10135734384107184,0.006461217068135738,0.02024819865486994,0.9708020621473739,0.09162531072097058,right,-0.003018498420715332,-0.4292598292207613,2.0158764429278673,-8.68607652928531,-0.21647178249099058,-0.0014440908562391996,-0.0022634267807006836,4.081507096844911,-0.001932293176651001
1746739117006335200,8.834335205078125,0.2282694565222775,-0.0009798429673537612,0.10146665843952006,0.003991944715380669,0.0202203318574563,0.9707889601978917,0.09162016290102505,right,-0.0036110281944274902,-0.4292762260768664,2.017817347862571,-8.68555688932538,-0.2164817503270507,-0.0021788915619254112,-0.0018435269594192505,4.0816535195782775,-0.0006225407123565674
1746739117046335500,8.87433544921875,0.22840166925271482,0.00028128502890467644,0.10152436080770266,0.0005619814619421959,0.02021493702267265,0.9707722837339658,0.09165020602915827,right,-0.002788722515106201,-0.4293699579723196,2.0188789857447147,-8.684917422378062,-0.21653000259082086,-0.0026015951298177242,-0.0021182596683502197,4.082489093619585,-0.0012826323509216309
1746739117086335500,8.91433544921875,0.22850561064125552,0.0021830713376402855,0.10155512792216581,0.0010918646585196257,0.020275380607832693,0.9707574656933042,0.09180752370958724,right,-0.0020166635513305664,-0.4294470374973871,2.0197104681327938,-8.68440128954947,-0.2165763681192042,-0.004859751556068659,-0.0021130889654159546,4.083176491361856,-0.0019100010395050049
1746739117126335500,8.95433544921875,0.22871783897380588,0.0059341443702578545,0.1016195899034755,0.0010924177477136254,0.020392389869475204,0.9707278034795648,0.09211496300354789,right,-0.0016774535179138184,-0.42959946045137565,2.0214123036146163,-8.683366101282834,-0.21666795952053602,-0.006891424767673016,-0.001943051815032959,4.084535504755378,-0.0013796091079711914
1746739117166335200,8.994335205078125,0.2288890149506009,0.0037066617514938116,0.10166447355265541,-0.0012724766274914145,0.02050119600541476,0.9706952003693506,0.09240271653073176,right,-0.0032753944396972656,-0.4298025992412415,2.0227103806011377,-8.682211670550704,-0.2167826987388178,-0.0058296755887568,-0.0019933730363845825,4.086346353569627,-0.0008870959281921387
1746739117206335200,9.034335205078126,0.22884659649209732,-0.0013516501057893038,0.10163081015433435,-0.0069576893001794815,0.020545309276136164,0.9706873036686359,0.09249515858423253,right,-0.004072785377502441,-0.4298908906682524,2.022260298746079,-8.681945713090895,-0.21682971156867886,-0.0011972710490226746,-0.0036605000495910645,4.087133412294089,-0.0006092488765716553
1746739117246335200,9.074335205078125,0.2286357484425932,-0.0023783333599567413,0.10152617818268737,-0.010967670939862728,0.020570158900013125,0.9706939528265386,0.09250406332794135,right,-0.0040236711502075195,-0.4299293879481281,2.0203940664827824,-8.68221868481338,-0.2168466360910839,0.0016496379394084215,-0.004224061965942383,4.08747681890428,-0.002253711223602295
1746739117286335500,9.11433544921875,0.22849371711069405,-0.0027060899883508682,0.10146361360546013,-0.0029159411787986755,0.020554028867753267,0.9707003487347166,0.0924408500950802,right,-0.004174649715423584,-0.42994340718991503,2.0191478658139705,-8.682450155481696,-0.21684875949129104,-0.0003210620488971472,-0.0033786147832870483,4.0876016143277285,0.0005001723766326904
1746739117326335500,9.15433544921875,0.22834080811551086,-0.004664367064833641,0.10140369257258958,-0.004810475744307041,0.020509723614973985,0.9707108954549214,0.09231361081584974,right,-0.0027396678924560547,-0.42992898929144735,2.01783356834501,-8.682816066184639,-0.2168337557885395,0.0012840067502111197,-0.0025660544633865356,4.0874730195119975,-0.0001920163631439209
1746739117366335500,9.19433544921875,0.22807336967351327,-0.0057125333696603775,0.10131215661177305,-0.004061357583850622,0.02038655277828238,0.97073703251827,0.09198898110575854,right,-0.0030165910720825195,-0.42983963690750554,2.015593972724676,-8.68371096919775,-0.21677129318687477,0.0024100502487272024,-0.0026389211416244507,4.086676608437299,-0.001948714256286621
1746739117406335200,9.234335205078125,0.2277896768613638,0.0029246117919683456,0.10118993362148582,-0.0046075149439275265,0.020357417932552784,0.9707572885876216,0.09186013864624566,right,-0.0031366944313049316,-0.4297956562467132,2.013170983361453,-8.684457988172769,-0.21674057395177493,-0.0018943098839372396,-0.0035809576511383057,4.086284394249319,-0.0032170116901397705
1746739117446335200,9.274335205078126,0.22776134644032137,0.009225592017173767,0.1011366153997302,-0.004059731960296631,0.020512570110543197,0.970743321771235,0.09218800504806841,right,-0.004071950912475586,-0.4299126445700789,2.012816909226775,-8.684048822849988,-0.21681351400136623,-0.0075983526185154915,-0.0029169023036956787,4.087327473561466,-0.00030854344367980957
1746739117486335200,9.314335205078125,0.22772450704452601,0.010330979712307453,0.1010629749000613,-0.005150829907506704,0.020734534399328486,0.9707251289719696,0.09265539167319586,right,-0.00116044282913208,-0.4300598661643596,2.012361128283292,-8.683536781674624,-0.21690805814423783,-0.0011445987038314342,-0.0028482526540756226,4.088639725203812,-0.003045320510864258
1746739117526335500,9.35433544921875,0.22772727302594967,0.007149577606469393,0.101027155774853,-0.0017861314117908478,0.020924755374585335,0.9707326873185881,0.09303394239774031,right,-0.0012973546981811523,-0.4299474546820799,2.0124889924466607,-8.683979264745116,-0.2168727717225911,-0.000858277955558151,-0.0021362900733947754,4.087637854684889,-0.0010944604873657227
1746739117566335500,9.39433544921875,0.22774460560371454,-0.00011151144281029701,0.10101319380356588,0.0009362401906400919,0.021006429549714975,0.9707219506101079,0.09321565814427665,right,-0.0017322301864624023,-0.43002437305388846,2.0125684874236582,-8.68363790396154,-0.21691938118343368,-0.0045545753091573715,-0.001927211880683899,4.088323498861492,0.00016763806343078613
1746739117606335500,9.43433544921875,0.22784937567249156,-0.004530355799943209,0.10107397691094053,0.005705920048058033,0.02093164991929938,0.9707088524866851,0.09309594023435369,right,-0.002555668354034424,-0.43011229673004076,2.013397047202289,-8.68307676294744,-0.2169570014758866,-0.0003035091795027256,-0.0026107579469680786,4.089107050454616,-0.0011341571807861328
1746739117646335500,9.47433544921875,0.22791788233574442,-0.0029099779203534126,0.10113553682417188,0.0025311061181128025,0.020804466914128787,0.9707112976592526,0.09284521894043714,right,-0.0036443471908569336,-0.4300802217585917,2.0140214627109465,-8.683066826075315,-0.21692951487926193,0.0010474341688677669,-0.001750171184539795,4.088821219250559,-0.0020466148853302
1746739117686335200,9.514335205078124,0.22799641353436317,-0.000009844079613685608,0.1011838942021583,0.0009105125209316611,0.02074996501256915,0.9707082396743695,0.09275056351769687,right,-0.004129469394683838,-0.430080929354587,2.0147027229733765,-8.682905498033762,-0.21692588482908573,-0.00039982853922992945,-0.0019491761922836304,4.088827356730401,-0.0035400092601776123
1746739117726335200,9.554335205078125,0.22801065373546026,0.0029314300045371056,0.10117762456357846,-0.0023050117306411266,0.020799154051562053,0.9707024417036153,0.0928598563661176,right,-0.0037084221839904785,-0.4301191956556407,2.014790985778719,-8.682724296247958,-0.21695008899772258,-0.0032661831937730312,-0.0018822550773620605,4.089168717513978,-0.0033953487873077393
1746739117766335500,9.59433544921875,0.22793219801902626,0.0043266876600682735,0.1011104479342626,-0.003009124891832471,0.020906112107107744,0.9706889132627157,0.09308101188195922,right,-0.003235042095184326,-0.4302663477485676,2.0139738241769374,-8.682296426224708,-0.2170317058241963,-0.006154155824333429,-0.0025649070739746094,4.0904800923734905,-0.0017051398754119873
1746739117806335500,9.63433544921875,0.2279141783305954,0.0035616650711745024,0.10106549376985423,-0.0022153910249471664,0.021042658541324498,0.9706736287077206,0.09337409746683278,right,-0.002952396869659424,-0.43039302433841536,2.0137002679325637,-8.68182763966918,-0.21710767490322253,-0.004846008028835058,-0.0035221874713897705,4.0916090964034195,-0.0019182860851287842
1746739117846335500,9.67433544921875,0.2278640604926716,0.0032692779786884785,0.10100608885865106,-0.003510415554046631,0.021165714679620102,0.9706546218878273,0.09363902415006428,right,-0.0031715035438537598,-0.43057443086480984,2.013097479733825,-8.681205123856664,-0.21720836341346386,-0.004538902547210455,-0.0024872124195098877,4.093225883950293,-0.0017556548118591309
1746739117886335500,9.71433544921875,0.2276708897388545,0.003241628408432007,0.10088361499390362,-0.006640218198299408,0.021272573892940596,0.9706419026496546,0.09384041918904819,right,-0.002211332321166992,-0.4307708306687327,2.0112389923855662,-8.680810571581125,-0.2173115771871511,-0.0065392423421144485,-0.003941521048545837,4.0949759424880146,-0.0021095871925354004
1746739117926335200,9.754335205078124,0.22736609190589677,0.001391652855090797,0.10069278308491625,-0.01357976719737053,0.021427411471045925,0.9706207078740788,0.0941313909173235,right,-0.003493070602416992,-0.43109392447809036,2.008294609496742,-8.680133695232868,-0.21747942355414124,-0.007327195722609758,-0.0035971850156784058,4.097854712794721,-0.0022888779640197754
1746739117966335200,9.794335205078125,0.22706171944504158,0.002116700867190957,0.10051112117258931,-0.007739718537777662,0.021543838466261154,0.9706011231864047,0.09434221815356023,right,-0.003170609474182129,-0.4314089093881387,2.0053619170457124,-8.679486629500985,-0.21763926460564015,-0.009624678641557693,-0.0032397210597991943,4.100661002387106,-0.00031682848930358887
1746739118006335200,9.834335205078125,0.22680824106468472,-0.00018103187903761864,0.10036786539141695,-0.0076486775651574135,0.02159399503459525,0.9705804941336509,0.09442756879250282,right,-0.0019003748893737793,-0.4317218551312388,2.002873022839427,-8.678743702179194,-0.21779233147539304,-0.006299910135567188,-0.0030942708253860474,4.103448587279021,-0.00045880675315856934
1746739118046335500,9.87433544921875,0.22651348504772173,-0.00279767788015306,0.10022160598789714,-0.005988049320876598,0.02159522127991403,0.9705739954999909,0.09438988590474223,right,-0.0012347102165222168,-0.43193104971567886,2.0001221166960894,-8.678497033941746,-0.21788853792853718,-0.00432409904897213,-0.003191053867340088,4.1053117508023975,-0.0013720691204071045
1746739118086335500,9.91433544921875,0.22620657379130335,0.0015848262701183558,0.1000634632309317,-0.0061010089702904224,0.021621756131993308,0.9705662189958689,0.09440312462643528,right,-0.002278625965118408,-0.4321528470565388,1.997254160044342,-8.678222893175482,-0.21799326332817978,-0.006106060929596424,-0.0029458999633789062,4.1072868502676485,-0.002533137798309326
1746739118126335500,9.95433544921875,0.22604072675011438,0.008668352849781513,0.09993659858881862,-0.006478850729763508,0.021795168011314252,0.9705461051539759,0.09475251739660659,right,-0.002156376838684082,-0.43238959232997803,1.9955968943566083,-8.677606222581863,-0.21812355714664264,-0.010016292333602905,-0.003401026129722595,4.1093949284628035,-0.0017840564250946045
1746739118166335200,9.994335205078125,0.22582195535018837,0.009456380270421505,0.09976912834163959,-0.008635403588414192,0.02205145154467136,0.970532210835257,0.09525451165355714,right,-0.0001875162124633789,-0.4325758659828294,1.9935269562147557,-8.677296425980328,-0.2182363935361762,-0.005660548340529203,-0.0023449212312698364,4.111053509324789,-0.004215747117996216
1746739118206335200,10.034335205078126,0.22557933791276719,0.012195741757750511,0.09957991136094074,-0.015487274155020714,0.02234254356012948,0.9705123735405865,0.0958301684398026,right,-0.0035653114318847656,-0.43282133315509924,1.9911958829186855,-8.676796075242757,-0.21838123020185712,-0.015065338462591171,-0.0034062713384628296,4.113239036670327,-0.003256767988204956
1746739118246335200,10.074335205078125,0.225268759489347,0.01687168888747692,0.09931778151835247,-0.014721590094268322,0.022756529242402495,0.9704632947999074,0.09667870884789105,right,-0.0017156600952148438,-0.4333496761984205,1.988015207055956,-8.675294438508152,-0.21867568677424937,-0.01600804552435875,-0.003488704562187195,4.117941807533801,-0.0024061203002929688
1746739118286335500,10.11433544921875,0.22513375958284554,0.014063977636396885,0.09914382726663605,-0.010310964658856392,0.023169134967086124,0.9704203197157216,0.0975458028177792,right,-0.0019301772117614746,-0.4337313271314117,1.986493112055212,-8.67403011766076,-0.21890189535368157,-0.008548224344849586,-0.0030442923307418823,4.121338171973824,-0.0006743073463439941
1746739118326335500,10.15433544921875,0.22502874359652156,0.006156535819172859,0.09903172102915835,-0.004447277635335922,0.023418716366307643,0.9704038571790177,0.0980551350790823,right,-0.002780616283416748,-0.4338820921781801,1.9854434568718076,-8.673632642775774,-0.21899888874607154,-0.004473100882023573,-0.002654746174812317,4.1226799419716,0.0009839832782745361
1746739118366335500,10.19433544921875,0.22496070769223162,-0.001322442665696144,0.09898520607758218,-0.00022789416834712029,0.023445158237363168,0.9703870473506326,0.09811734933048255,right,-0.0023764371871948242,-0.43406870917869134,1.9846816787190735,-8.673017725747822,-0.21909149951932275,-0.004227911587804556,-0.0025175660848617554,4.124340276399255,-0.0004996657371520996
1746739118406335200,10.234335205078125,0.22494926928672188,-0.0014368650736287236,0.09898189330591649,0.0013757707783952355,0.023390698486886068,0.9703668497844968,0.09802840679146503,right,-0.002463102340698242,-0.43427809449348737,1.9843898561656474,-8.672198226058482,-0.21918830413272009,-0.0038377491291612387,-0.0029289424419403076,4.126203147661686,-0.0026137232780456543
1746739118446335200,10.274335205078126,0.22504234704934278,0.004169033840298653,0.0990061327762793,0.0016365022165700793,0.023429502554465288,0.9703400120367094,0.09815405160776566,right,-0.0022125244140625,-0.4344773277787901,1.985013541021943,-8.671212137630581,-0.2192920376618401,-0.005493653938174248,-0.003106921911239624,4.127975418031215,-0.0024650990962982178
1746739118486335200,10.314335205078125,0.2252488679100024,0.004789183381944895,0.09906934915511088,0.002229756209999323,0.023542158831224486,0.97031284720773,0.09844892685425119,right,-0.0028519630432128906,-0.4346065357902068,1.9866851274959743,-8.67028216330409,-0.2193715984398562,-0.003276857314631343,-0.0021117329597473145,4.129124880327284,-0.0011773407459259033
1746739118526335500,10.35433544921875,0.2252672254028528,-0.0003355476073920727,0.09906229728213405,-0.001623054500669241,0.02359578908448902,0.9703033802435397,0.09857205632623497,right,-0.002486884593963623,-0.4346746553027911,1.9867814274773001,-8.669971782180667,-0.21941088144435836,-0.0004442057106643915,-0.0023696720600128174,4.129730737265945,-0.00007048249244689941
1746739118566335500,10.39433544921875,0.22515384220598803,-0.0015725195407867432,0.09901855730696009,-0.0008657560683786869,0.023556903314423935,0.9703095185944511,0.09846710967155034,right,-0.0004387497901916504,-0.43468146624646203,1.9857921241790055,-8.67016935057938,-0.21940764481649735,-0.00021080228907521814,-0.0031536072492599487,4.129791235281527,-0.00165519118309021
1746739118606335500,10.43433544921875,0.22487249462626555,-0.0054267458617687225,0.09890630641538183,-0.005652402061969042,0.023497755084359754,0.9703339229373936,0.09827185152872135,right,-0.0015988945960998535,-0.4346027752483548,1.9834252489171922,-8.671044379848242,-0.21935659424457132,0.004323710687458515,-0.002903267741203308,4.129091270318627,-0.0014893710613250732
1746739118646335500,10.47433544921875,0.2247285804517546,-0.004921862855553627,0.09886002397303748,-0.000060729216784238815,0.023413436817183907,0.9703454232962485,0.09806324516264478,right,-0.001504361629486084,-0.4345843031690334,1.9821942458175121,-8.671403860810399,-0.21933564975669123,-0.0002202889882028103,-0.002615317702293396,4.128927019667625,-0.0005263686180114746
1746739118686335200,10.514335205078124,0.22467352725067796,-0.0052938032895326614,0.09884980229459554,0.001114815240725875,0.023325194167081738,0.9703400791395816,0.09788098841236151,right,-0.001055002212524414,-0.4346820177713411,1.9816269673235714,-8.671119783172012,-0.2193732910376566,-0.0006684055551886559,-0.0020456314086914062,4.129796203717589,-0.0010026097297668457
1746739118726335200,10.554335205078125,0.22458994482213182,-0.004737130366265774,0.09883519252138095,0.001081933849491179,0.023198255131223075,0.9703371303394518,0.09761254216294808,right,-0.0011542439460754395,-0.43477996634934035,1.9808121438093482,-8.670891235113144,-0.21940645367042624,-0.000603959197178483,-0.0025333762168884277,4.130667433594167,-0.0019809603691101074
1746739118766335500,10.59433544921875,0.2245038559835246,0.0005031628534197807,0.09880985974684091,0.0006717401556670666,0.023128138919225154,0.9703400022154168,0.09745244063166154,right,-0.0026804208755493164,-0.4348114662910712,1.9800367755226789,-8.67093507425487,-0.21941277988076793,-0.00030859519029036164,-0.0033394694328308105,4.130947711840272,-0.00124320387840271
1746739118806335500,10.63433544921875,0.2245711834328056,0.0065767583437263966,0.0988235998108778,0.0008878876687958837,0.023200214487757716,0.9703327350694975,0.09761861657160752,right,-0.002032756805419922,-0.43483086895941175,1.980602738842368,-8.670723477330803,-0.21943115876627062,-0.0013804761692881584,-0.002828061580657959,4.13112014579773,-0.00040474534034729004
1746739118846335500,10.67433544921875,0.22455401810678063,0.006008063908666372,0.09879990071873955,0.0020595318637788296,0.02331518834298737,0.97035274127106,0.09782618714928948,right,-0.00017875432968139648,-0.43462403079556927,1.9806440937660634,-8.67159032329321,-0.21934110909607818,0.009588900953531265,-0.003091767430305481,4.129280363149941,-0.0024662017822265625
1746739118886335500,10.71433544921875,0.2245950075930333,0.0028851910028606653,0.09882790925773326,0.0022243221756070852,0.02336175478342469,0.97039162440708,0.09788223177376609,right,-0.0021718740463256836,-0.43422544164125826,1.981365832169354,-8.673113002815843,-0.21915143706968465,0.00742139108479023,-0.003325730562210083,4.125734653367102,-0.0021239519119262695
1746739118926335200,10.754335205078124,0.22471777998596337,-0.0017356385942548513,0.09890104892658745,0.007320200093090534,0.023324321407302534,0.9704036731855067,0.09781237082165574,right,-0.0013297796249389648,-0.43405996297597704,1.9825828067436813,-8.673535027620195,-0.21906930864779575,0.004076013341546059,-0.003017053008079529,4.124262534987926,-0.0028346776962280273
1746739118966335200,10.794335205078125,0.22505745048898002,-0.003368925303220749,0.09908848473783213,0.01170852966606617,0.023213666179096672,0.9704015881046993,0.09764582147639728,right,-0.0019443035125732422,-0.433937276242604,1.9856417559228836,-8.673354410356282,-0.2190056315172547,0.004891455639153719,-0.0036308765411376953,4.1231709403589365,-0.003964126110076904
1746739119006335200,10.834335205078125,0.22547715211216404,-0.004049489740282297,0.09931907610369314,0.011341400444507599,0.023073528352596188,0.9703951633867541,0.09743740857764167,right,-0.002672851085662842,-0.43382170849590623,1.9893882489748298,-8.672984408000112,-0.218944225445572,0.003124197944998741,-0.002990037202835083,4.122142474094033,-0.0029560327529907227
1746739119046335500,10.87433544921875,0.22589380134883316,-0.003644217737019062,0.09954190635677443,0.010216940194368362,0.022940195272839345,0.9703784078462661,0.09725439101911254,right,-0.0030025243759155273,-0.4338038067767673,1.993018276040256,-8.672226867631077,-0.21893125735108795,-0.0016844556666910648,-0.0019326508045196533,4.121983191879093,-0.002905935049057007
1746739119086335500,10.91433544921875,0.2261772343916212,-0.0003836359828710556,0.0996868988352687,0.005125696770846844,0.022850407073701284,0.9703532600354524,0.09714785265009779,right,-0.0034672021865844727,-0.43392120243796056,1.9953676156453788,-8.671189925798773,-0.21898602142440257,-0.004145652987062931,-0.003099098801612854,4.123027732495963,-0.004035383462905884
1746739119126335500,10.95433544921875,0.2264413789923391,0.00537923164665699,0.09978745571690405,0.0041475142352283,0.022901218836435595,0.970317679158396,0.09733637601485466,right,-0.002659022808074951,-0.4341157562505563,1.9974778857976196,-8.669880596765875,-0.2190926025622988,-0.005942024290561676,-0.0033599436283111572,4.12475879407227,-0.0040066540241241455
1746739119166335200,10.994335205078125,0.22683656319919962,0.005986575037240982,0.09992997547450455,0.0054292697459459305,0.023030088227179054,0.9702718914677894,0.09771720874839424,right,-0.0037710070610046387,-0.43432430822056095,2.000710437978059,-8.668252118781208,-0.21921707545353508,-0.004352962598204613,-0.0026847273111343384,4.12661435881108,-0.002162635326385498
1746739119206335200,11.034335205078126,0.22707989576290796,0.002228642115369439,0.10001781558785146,0.002371589420363307,0.023121403112193673,0.9702494150127704,0.09796932635859465,right,-0.003900587558746338,-0.4343957952848718,2.002753195852041,-8.667477627277373,-0.2192670705105731,-0.0009157981257885695,-0.002382516860961914,4.127250318627059,-0.0024176836013793945
1746739119246335200,11.074335205078125,0.22715974950404696,-0.0009008022025227547,0.10004951860448377,-0.0017037081997841597,0.023137224421046345,0.9702416826636415,0.09802370922960396,right,-0.0033164620399475098,-0.4344256461544601,2.0034176511101425,-8.667197641292214,-0.2192851593189174,-0.0014017898356541991,-0.003271952271461487,4.127515691564977,-0.0014178156852722168
1746739119286335500,11.11433544921875,0.22712531761491747,-0.002963107079267502,0.10002331723866445,-0.006956364028155804,0.023152011118462514,0.9702280791194114,0.09806404477237947,right,-0.002905130386352539,-0.4345669935607635,2.002987735260278,-8.666697875076531,-0.21935520748735926,-0.00019489496480673552,-0.004213660955429077,4.128772998149692,-0.00347939133644104
1746739119326335500,11.15433544921875,0.22714346213524655,-0.0016668360913172364,0.10002858857812126,0.0005603940226137638,0.023126395293780043,0.9702088234982742,0.09803763653052473,right,-0.0025110244750976562,-0.43474570328867645,2.0029788213014603,-8.665942672795056,-0.21944058058505939,-0.005145811941474676,-0.003394708037376404,4.1303626054286955,-0.0011861324310302734
1746739119366335500,11.19433544921875,0.22718191805963708,-0.004435877315700054,0.10004906099703254,0.0016257077222689986,0.023060661450991945,0.9701825840441328,0.09794122801106682,right,-0.0022344589233398438,-0.43498936526272186,2.0030853504158554,-8.664884688174723,-0.21955411232525177,-0.004269096069037914,-0.003334745764732361,4.132529720334708,-0.0017691552639007568
1746739119406335200,11.234335205078125,0.22710823301846536,-0.0028522799257189035,0.10002765812552479,0.00017980707343667746,0.02294508697112563,0.9701601446451925,0.09772059388447582,right,-0.0031105875968933105,-0.43526438987118005,2.0021908857941626,-8.663924903231859,-0.21967529941930403,-0.005110212601721287,-0.0028681308031082153,4.134975652182102,-0.0030768215656280518
1746739119446335200,11.274335205078126,0.22700510149211936,0.004409863613545895,0.09996680312556935,-0.0025494596920907497,0.022951538278174664,0.9701399205463151,0.097740531529346,right,-0.0028290748596191406,-0.4355049662156154,2.0010734260715544,-8.663161517643928,-0.21979152756100054,-0.005600537173449993,-0.0026442110538482666,4.13711471003741,-0.0036776363849639893
1746739119486335200,11.314335205078125,0.2270940077306969,0.01278082188218832,0.09994963587703101,-0.0016152801690623164,0.023160867018793586,0.9701076920522503,0.0982189101092989,right,-0.0031995773315429688,-0.4357189364208243,2.0016443578273058,-8.662121068680285,-0.21991997293276333,-0.010053259320557117,-0.003831535577774048,4.139017036527395,-0.0010769069194793701
1746739119526335500,11.35433544921875,0.2271012005715521,0.008599948137998581,0.0998877923517592,-0.005278607364743948,0.023415999991326222,0.970085640901025,0.09876482491093551,right,-0.0011183619499206543,-0.4358654789218172,2.001569977416843,-8.66151550400257,-0.22001823727582795,0.0004456443712115288,-0.0032653063535690308,4.140319935819506,-0.0022920072078704834
1746739119566335500,11.39433544921875,0.2270739335839482,0.0020223045721650124,0.0998485872236123,-0.002027310198172927,0.023558240732888223,0.9700954179825949,0.0990379193696424,right,-0.0027132630348205566,-0.43575350132976254,2.001438167730719,-8.66202169995904,-0.21997739379636377,-0.00006185623351484537,-0.0035298913717269897,4.13932449504137,-0.0005393922328948975
1746739119606335500,11.43433544921875,0.22699415778105272,-0.0033239275217056274,0.09981079747679458,-0.0006509285885840654,0.023537450275914387,0.9700877872765638,0.09899145962536314,right,-0.0027039051055908203,-0.43586961882365793,2.000638980177045,-8.661713072401284,-0.22003032207389336,-0.005748513154685497,-0.0035430043935775757,4.140356760698556,-0.0011498630046844482
1746739119646335500,11.47433544921875,0.2271390289863314,-0.001973300240933895,0.09988846320661919,0.006566834636032581,0.023442108745503853,0.9700599665320208,0.09885428478128484,right,-0.002269148826599121,-0.4360821037640167,2.0016956496231257,-8.66056565593183,-0.2201279761585636,-0.004764241632074118,-0.00449351966381073,4.142245350924134,-0.0030119717121124268
1746739119686335200,11.514335205078124,0.22741658340883603,-0.0004888721741735935,0.10002093669730923,0.007760645356029272,0.02338649143292554,0.9700300340324383,0.09882220857015538,right,-0.0031970739364624023,-0.4362389580278729,2.0039527809001503,-8.659376738408207,-0.22020551639249672,-0.00433992687612772,-0.00400795042514801,4.143639727891982,-0.0023874640464782715
1746739119726335200,11.554335205078125,0.227773952715776,0.0003336243680678308,0.10017665254750227,0.0062288809567689896,0.023379375826115018,0.9699895789687897,0.0989144126606082,right,-0.0036220550537109375,-0.43644462359123964,2.006854785951972,-8.657829508966207,-0.22031380105752996,-0.005390823818743229,-0.0030244290828704834,4.145467527841031,-0.0025277137756347656
1746739119766335500,11.59433544921875,0.2280216556754588,0.000041751074604690075,0.10028153701046869,0.005208967253565788,0.023371775718153093,0.9699538362498734,0.09898196985279109,right,-0.0034828782081604004,-0.43665976863615963,2.0087975905828177,-8.65646348131001,-0.22042416549851157,-0.004691610112786293,-0.003151416778564453,4.147379498942196,-0.002458035945892334
1746739119806335500,11.63433544921875,0.22815206047195083,0.0013873470015823841,0.10032899537571041,0.003489066381007433,0.02337676604611978,0.969922721979392,0.09905036638017496,right,-0.002713918685913086,-0.43688679137663383,2.0097133902534843,-8.655283916136622,-0.22053894090270018,-0.003780643455684185,-0.002757534384727478,4.149396976244449,-0.0021840929985046387
1746739119846335500,11.67433544921875,0.2283129333094589,0.004119429737329483,0.1003798908766508,0.0038182269781827927,0.023451145414469503,0.9698993886372625,0.09925574513178596,right,-0.0023827552795410156,-0.43700969589445954,2.0109904244519767,-8.654463831925392,-0.22061057774505374,-0.002719225361943245,-0.0023962408304214478,4.150488863134384,-0.0011985301971435547
1746739119886335500,11.71433544921875,0.22853071654562257,0.003454832825809717,0.10046141665392586,0.0014457479119300842,0.02353793803118802,0.9698881907889976,0.09948144967777818,right,-0.0037097930908203125,-0.4369873765921077,2.0128961119428275,-8.654116041401029,-0.22061366120505016,0.0010876129381358624,-0.0027922391891479492,4.15029071021378,0.0005046725273132324
1746739119926335200,11.754335205078124,0.22844504016403633,-0.0010559046640992165,0.10042245130619226,-0.0008812483865767717,0.023574340786174302,0.9699102430189511,0.0995152695626931,right,-0.0017676949501037598,-0.4368141750587738,2.012317435272038,-8.65498814806044,-0.22053056829513915,0.007785822730511427,-0.0031917989253997803,4.148751664078236,-0.0005722939968109131
1746739119966335200,11.794335205078125,0.22828265303794934,0.0001144439447671175,0.10036485479639043,0.0014829749707132578,0.0235527606989694,0.9699451100088158,0.09940342958584371,right,-0.0010617971420288086,-0.43657183761960916,2.011139477533847,-8.656293969962,-0.2204058080440948,0.006240721791982651,-0.004498094320297241,4.14659828543663,-0.0035518407821655273
1746739120006335200,11.834335205078125,0.22805692288672988,-0.0015478503191843629,0.10028545312693203,0.0048063574358820915,0.0235093272838467,0.9699887756274691,0.09922623461908993,right,-0.001174628734588623,-0.43628192506407365,2.0094570774048566,-8.65791835629344,-0.22025403388257425,0.008886509574949741,-0.002808094024658203,4.144021712946891,-0.0028163790702819824
1746739120046335500,11.87433544921875,0.22805502036140313,-0.00442148745059967,0.10031570550379455,0.004506690427660942,0.023412882045545112,0.9700108043310639,0.0990038423236804,right,-0.0023886561393737793,-0.43609764200021045,2.009613290879875,-8.658665959790348,-0.22015369499292853,0.004377432633191347,-0.0022469162940979004,4.142383590351045,-0.0006868541240692139
1746739120086335500,11.91433544921875,0.22796974927824917,-0.007099652662873268,0.10031679774156735,0.0016932711005210876,0.023252621927855398,0.9700275994392805,0.0986441552559013,right,-0.0018099546432495117,-0.43601857711383785,2.0089489817522463,-8.659156373655795,-0.22009639574140288,0.0033543752506375313,-0.0021753907203674316,4.141680702778697,-0.0016314983367919922
1746739120126335500,11.95433544921875,0.2278176441379039,-0.00042914459481835365,0.10027509620122602,-0.0024500833824276924,0.023144272905857136,0.9700460187185339,0.09837700210516645,right,-0.00249481201171875,-0.4359446526282378,2.007700881387293,-8.659760184767842,-0.22004547749689338,0.0009317642543464899,-0.004459470510482788,4.1410237001746895,-0.00434449315071106
1746739120166335200,11.994335205078125,0.22774436735972536,0.01195981353521347,0.10021418251313736,-0.002452434739097953,0.02328031651128225,0.9700544038749587,0.09863169842251901,right,-0.0036389827728271484,-0.43587137910517765,2.0071349180676044,-8.660202667838334,-0.22002194049856386,-0.002074476797133684,-0.004303574562072754,4.140372250528634,-0.0035789012908935547
1746739120206335200,12.034335205078126,0.22790472063540365,0.015781505033373833,0.10021567517953897,-0.0015028497437015176,0.023602437276704386,0.970039816747513,0.09933024000409792,right,-0.004270195960998535,-0.43585567766236943,2.008538208994269,-8.659944309163093,-0.22005122699053817,-0.0028914862778037786,-0.0043472349643707275,4.1402328420579435,-0.0017042756080627441
1746739120246335200,12.074335205078125,0.22788078228760822,0.006921347230672836,0.10016732719018578,0.00015244341921061277,0.02381027867820631,0.9700567235034758,0.0997288411649953,right,-0.003492295742034912,-0.4356602729800281,2.0085136590749024,-8.660780175465344,-0.21997637089596198,0.0059113651514053345,-0.004228726029396057,4.138495643001795,-0.0010666251182556152
1746739120286335500,12.11433544921875,0.2277461015326278,-0.0023029642179608345,0.10012285249835497,-0.0006949026137590408,0.02380091420276397,0.9700964749974087,0.09964064815735275,right,-0.003810286521911621,-0.4353541034672212,2.007633222978562,-8.662284734809399,-0.21982222521285946,0.005309307482093573,-0.005088046193122864,4.135773232300579,-0.0012030601501464844
1746739120326335500,12.15433544921875,0.2276540942697911,-0.0013697564136236906,0.10011336382399647,0.0047915042378008366,0.0236906398645472,0.9701206193267131,0.09937281672857845,right,-0.0023961663246154785,-0.435197201381197,2.006982650115341,-8.66310131188929,-0.21973181478621812,0.0035930187441408634,-0.0048120468854904175,4.134377978549898,-0.004001498222351074
1746739120366335500,12.19433544921875,0.2278987142793015,0.003316274145618081,0.1002440352341214,0.008145431987941265,0.023635476322105827,0.970120911336385,0.09930046853946445,right,-0.0027959346771240234,-0.43508521605739836,2.009206317514181,-8.663060979878901,-0.21967690098614043,0.00032094097696244717,-0.0048183053731918335,4.133382245510816,-0.005085676908493042
1746739120406335200,12.234335205078125,0.22827595323183664,0.0027542063035070896,0.10042084082490105,0.009215553291141987,0.023628146287090052,0.9701044336901675,0.09936690862357613,right,-0.0030989646911621094,-0.435054347940797,2.012503020972013,-8.662426773628592,-0.21966975363516478,-0.0021708414424210787,-0.0030990540981292725,4.133107812483608,-0.0032858848571777344
1746739120446335200,12.274335205078126,0.2286417305926562,-0.0017377668991684914,0.10059580645320865,0.008626279421150684,0.02358031121305049,0.9700774642158132,0.0993615927783957,right,-0.003957688808441162,-0.43513773903415165,2.0155933882027863,-8.661354760482906,-0.21971413899551587,-0.001855693757534027,-0.0022636353969573975,4.1338492785006755,-0.0024508535861968994
1746739120486335200,12.314335205078125,0.22888680002460177,-0.0016227368032559752,0.10071858372708876,0.005267986096441746,0.02349703281788608,0.9700478148363348,0.09926759332946819,right,-0.0036185383796691895,-0.4353141663210607,2.017550367489457,-8.660150060868263,-0.2197976521376352,-0.0036068628542125225,-0.0020332783460617065,4.1354181352525945,-0.0028661787509918213
1746739120526335500,12.35433544921875,0.22912501149343334,0.0049468534998595715,0.10080970711898465,0.0020157773979008198,0.02353748401797871,0.9700144563278711,0.09942833004090545,right,-0.003845691680908203,-0.43549963944314907,2.0194389577150345,-8.658921395856142,-0.21989830550861778,-0.003613867564126849,-0.0032767802476882935,4.137067363764346,-0.002519071102142334
1746739120566335500,12.39433544921875,0.22936390565709466,0.008039215579628944,0.10087857512006507,0.002154573332518339,0.023699748478232373,0.9699889438971906,0.09982768229155127,right,-0.002199709415435791,-0.43558396555467016,2.02142823183611,-8.658099558079241,-0.21996204531462382,-0.003275957889854908,-0.003570854663848877,4.137817013087869,-0.0017306506633758545
1746739120606335500,12.43433544921875,0.22962822803860353,0.004563807975500822,0.1009583312324065,0.0017283838242292404,0.023879173748690054,0.9699681319406444,0.10026045368743246,right,-0.003279447555541992,-0.43560672470831374,2.0236952999852598,-8.657472950613498,-0.21999802531808166,-0.0018769277958199382,-0.003969371318817139,4.138019549922645,0.0003928840160369873
1746739120646335500,12.47433544921875,0.22964636781981354,-0.0022746361792087555,0.10096164197582973,0.004864221904426813,0.023893811992433987,0.9699631840185928,0.10029903811061834,right,-0.0015600323677062988,-0.4356406629252082,2.0238203876696526,-8.65729934761226,-0.22001661345154105,0.0016402843175455928,-0.003301173448562622,4.138321163217723,-0.00042560696601867676
1746739120686335200,12.514335205078124,0.22959008951272908,-0.0033243426587432623,0.10095520859647382,0.0037849904038012028,0.023801470384862248,0.9699653294111077,0.10009959109054982,right,-0.0020369887351989746,-0.4356701351334929,2.023305423884839,-8.657294671437144,-0.22002013064149878,-0.0009909862419590354,-0.005157604813575745,4.138583321285248,-0.0034269988536834717
1746739120726335200,12.554335205078125,0.2294573036482773,-0.004136175382882357,0.10092580890250515,0.009634708054363728,0.023669907307892403,0.9699793896849099,0.09979360393527685,right,-0.0023592710494995117,-0.43563366115794827,2.022190009988844,-8.657710266500711,-0.21998548560274872,0.001529934466816485,-0.0031162798404693604,4.138258911636472,-0.002789139747619629
1746739120766335500,12.59433544921875,0.2295745876238489,-0.00498774042353034,0.1010189238148659,0.0071139344945549965,0.02349102883843254,0.9699745185481897,0.09945490575864603,right,-0.0029836297035217285,-0.4356616607764561,2.023179021026194,-8.657360137888789,-0.2199833181996341,-0.00040989427361637354,-0.003606632351875305,4.138507917961478,-0.00042387843132019043
1746739120806335500,12.63433544921875,0.2296175811916669,-0.008997682482004166,0.10109035051218533,0.006706802640110254,0.02325701313674437,0.9699748549262598,0.09898571276820388,right,-0.0021029114723205566,-0.4356900024647828,2.0235246195934713,-8.657158477836846,-0.21997382747417832,0.002652302850037813,-0.0023700296878814697,4.138759846895933,-0.0013030767440795898
1746739120846335500,12.67433544921875,0.2295337761639575,-0.0020820312201976776,0.10108962990070357,0.0009788773022592068,0.023092475892719743,0.9699843518568962,0.09862613635109736,right,-0.002324044704437256,-0.43567959263669004,2.02280887253955,-8.657370074760914,-0.21994964407164516,0.0012187684187665582,-0.0033251941204071045,4.1386672001764175,-0.0032370686531066895
1746739120886335500,12.71433544921875,0.22960814762696846,0.009752883575856686,0.10110875908204735,-0.00004857173189520836,0.023182761392345718,0.9699896582470086,0.09881561280573378,right,-0.0021666288375854492,-0.4355721729312226,2.0235538456879554,-8.657652983355522,-0.21990810710887443,-0.00009499338921159506,-0.0019156783819198608,4.13771209140867,-0.002147495746612549
1746739120926335200,12.754335205078124,0.2298756474750248,0.006933140568435192,0.10119596202216832,-0.0014605439500883222,0.02337051709488148,0.9699850054492222,0.09924656881949831,right,-0.004319131374359131,-0.43543891196849377,2.0259953936211765,-8.657647722658515,-0.21986855384505355,0.0017399651696905494,-0.0030212700366973877,4.136527265538275,-0.00018462538719177246
1746739120966335200,12.794335205078125,0.22974749407200037,-0.002276504412293434,0.10115469388462113,-0.0016908076358959079,0.02338830262091585,0.970037149550201,0.09919965646428186,right,-0.003129899501800537,-0.4350067945019457,2.0252927983097733,-8.659647372043132,-0.21965562683294584,0.013355848379433155,-0.003906950354576111,4.13268491089642,-0.0008447766304016113
1746739121006335200,12.834335205078125,0.22954561643749427,-0.002523222239688039,0.10110999323710167,-0.000547808944247663,0.0232984519133503,0.9701087875584516,0.09889868645923706,right,-0.004988610744476318,-0.4344514350255473,2.024066471385211,-8.662289410984515,-0.21936935266087554,0.010723475366830826,-0.004810050129890442,4.127745116406679,-0.002679765224456787
1746739121046335500,12.87433544921875,0.22945785230435736,0.00009481864981353283,0.10109754496120724,0.00234750984236598,0.023260874850508595,0.9701554309376421,0.09875242703254285,right,-0.003391444683074951,-0.4340629560219646,2.023670750065893,-8.664028363606333,-0.21917295955354457,0.007352346088737249,-0.00372527539730072,4.124289130733907,-0.003147423267364502
1746739121086335500,12.91433544921875,0.2295945817170152,-0.00017727675731293857,0.1011848966730549,0.00545952282845974,0.02321020786676056,0.9701767072399967,0.09864620874482088,right,-0.003336310386657715,-0.43380384221487855,2.0250985909119246,-8.664791749194263,-0.2190438001068854,0.002720598131418228,-0.003198966383934021,4.1219834841400385,-0.0034089982509613037
1746739121126335500,12.95433544921875,0.2298663151696598,-0.00043260343954898417,0.10132054057948923,0.0088200643658638,0.023149857897783937,0.970157062038434,0.09859093208269096,right,-0.0036072731018066406,-0.43386548227613153,2.027395031286031,-8.663993292292952,-0.2190740031237936,-0.005882342346012592,-0.0029692649841308594,4.122532057933509,-0.004738271236419678
1746739121166335200,12.994335205078125,0.2302261407307612,0.0017092503840103745,0.10147433054322863,0.00817682035267353,0.02312893219971103,0.9701034708028362,0.09867084550141045,right,-0.004155158996582031,-0.4341962891368655,2.0302011747479436,-8.661935190719365,-0.2192422780972368,-0.010088777169585228,-0.00283128023147583,4.125475417909026,-0.004211455583572388
1746739121206335200,13.034335205078126,0.2304972148981711,0.002233913168311119,0.10157277578770739,0.004080945625901222,0.023158805369370174,0.9700471665577094,0.0988430080861264,right,-0.0040607452392578125,-0.4345860663982879,2.032181534910202,-8.65981863695681,-0.21944272621989547,-0.008222277276217937,-0.0016956925392150879,4.1289428017586465,-0.0038545429706573486
1746739121246335200,13.074335205078125,0.23061365915630297,0.0041375127620995045,0.10158597880397151,-0.0024915975518524647,0.023259438175193714,0.9700015930620804,0.09912115829562249,right,-0.003674924373626709,-0.4349361834493225,2.032859434171766,-8.658173792359232,-0.21962757371998096,-0.010791662149131298,-0.0012961477041244507,4.132056842125952,-0.0033379197120666504
1746739121286335500,13.11433544921875,0.2306950110726651,0.00778131652623415,0.10156939366646076,-0.002556624822318554,0.023423165674770263,0.9699577500213592,0.09951973170773286,right,-0.0038475990295410156,-0.43527214164399464,2.033246241532266,-8.656656373533606,-0.21981129400947103,-0.008922637440264225,-0.00217340886592865,4.1350443335041405,-0.003192305564880371
1746739121326335500,13.15433544921875,0.23071210065143777,0.008428998291492462,0.10151286627816163,-0.009126175194978714,0.02365067187476812,0.9699244328819644,0.10002486961454801,right,-0.0043485164642333984,-0.4355257784557749,2.0331541793346406,-8.655600142478942,-0.21995984240861222,-0.008461779914796352,-0.0025682449340820312,4.137299711215496,-0.0019536614418029785
1746739121366335500,13.19433544921875,0.2305959332879053,0.004205652978271246,0.1013999687917752,-0.007757523097097874,0.02385122334934286,0.9698966057035975,0.10044699229931021,right,-0.0020337700843811035,-0.43580132156509166,2.0318881049215793,-8.654726282253861,-0.22011314639568072,-0.008117066696286201,-0.004476368427276611,4.139749442455172,-0.002381831407546997
1746739121406335200,13.234335205078125,0.2303675064249671,-0.003413815051317215,0.10125936120671059,-0.009664936922490597,0.023959446268150338,0.9698832534397417,0.10064570826554756,right,-0.002752244472503662,-0.4360175733881373,2.029706669229269,-8.65431887049675,-0.2202250759490894,-0.0024692867882549763,-0.0041424185037612915,4.1416719349503515,-0.0017331838607788086
