time,seconds_elapsed,roll,rotationRateZ,quaternionY,rotationRateY,quaternionZ,quaternionW,yaw,devicelocation,accelerationZ,pitch,gravityX,gravityZ,quaternionX,rotationRateX,accelerationX,gravityY,accelerationY
1746728907494055400,0.255055419921875,0.7902742121135746,-0.05954460799694061,0.3773563868002168,0.005473114550113678,2.2834373177910547e-17,0.918223919922173,0.09321056878201603,left,-0.242512047290802,-0.22272424089350445,6.795961286097764,-6.730009681284427,-0.12027969700281656,0.05517970770597458,-0.8882522583007812,2.1661649118117987,0.0850258320569992
1746728907534055400,0.295055419921875,0.2853493501115269,-0.084572933614254,0.1540175022219167,0.0245734304189682,-0.10837364674067056,0.9701814907617575,-0.17381150053329147,left,-0.028038322925567627,-0.335722174806247,2.6063880745485424,-8.884761364808679,-0.15258394407556972,0.046753838658332825,-0.4551191031932831,3.230811181990802,-0.01534000039100647
1746728907574055700,0.3350556640625,0.056143254006609855,-0.06450481712818146,0.053040320897701915,0.004934206604957581,-0.15449361041512563,0.9730376738390029,-0.3052867683868961,left,0.013265430927276611,-0.3397847717941808,0.5188253556128591,-9.231400965571403,-0.1628381943459096,0.003343909978866577,-0.24619144201278687,3.268400615672767,-0.01507633924484253
1746728907614055700,0.3750556640625,-0.17088546066098237,-0.044436708092689514,-0.04859650297615718,-0.014705013483762741,-0.19869220015972525,0.9637923909603965,-0.4338776020143804,left,0.014629662036895752,-0.31565075985033975,-1.5852781637571751,-9.18636706110239,-0.17106725523925279,-0.04006601497530937,-0.03557710349559784,3.044327948653698,0.011869370937347412
1746728907654055700,0.4150556640625,-0.20162949891334103,0.009910475462675095,-0.06224322731310399,-0.06985898315906525,-0.20498458874995906,0.961345581880443,-0.4519898583305046,left,0.015019714832305908,-0.3121108555771819,-1.8690571114592254,-9.143796916398406,-0.17297941808164471,-0.03846840187907219,-0.014949813485145569,3.011309476149082,0.005666226148605347
1746728907694055700,0.4550556640625,-0.2064650762138471,0.042835064232349396,-0.06390759602072726,-0.07595548778772354,-0.20388504382640915,0.9608615378693504,-0.4514141177479691,left,0.003748178482055664,-0.31813543205485795,-1.9094968200057745,-9.11673004577458,-0.17632910339929217,0.009389759041368961,-0.020006239414215088,3.067481152965128,-0.009545475244522095
1746728907734055400,0.495055419921875,-0.21050978391137667,0.04617784172296524,-0.06583135256810099,0.0010783970355987549,-0.20299239672912947,0.9607715394388959,-0.45042745485021135,left,0.0020323991775512695,-0.31903982054249114,-1.9457750249586998,-9.106215666022896,-0.1771396703086936,-0.02847243845462799,-0.013044759631156921,3.0759038211345673,-0.005925029516220093
1746728907774055400,0.535055419921875,-0.2123408090585677,0.04072735086083412,-0.06667280902100357,0.011256428435444832,-0.2023867829938061,0.9607308070450876,-0.4496360045495509,left,0.006576120853424072,-0.3199602478353056,-1.9618479156203568,-9.099866004735231,-0.17773772547023411,-0.059670913964509964,-0.009091019630432129,3.0844732042983174,-0.008117318153381348
1746728907814055700,0.5750556640625,-0.2130563522430472,0.043617404997348785,-0.06684408181150917,0.004327288828790188,-0.20184226298770963,0.960647011333789,-0.4489225253401584,left,0.003390669822692871,-0.3219673376283716,-1.9670457765243947,-9.092390554288029,-0.1787427299749989,-0.0886206179857254,-0.0037490278482437134,3.1031510167613625,-0.005631208419799805
1746728907854055700,0.6150556640625,-0.21398820627724086,0.05873009189963341,-0.06706386229591041,-0.00030816299840807915,-0.2010992879715637,0.9605365689235998,-0.4479367604977305,left,-0.004297137260437012,-0.3246595163920716,-1.973736506334692,-9.082357236051559,-0.18008637511667713,-0.0851920023560524,0.00001551210880279541,3.1281843357309698,-0.004792749881744385
1746728907894055700,0.6550556640625,-0.2144109754520579,0.052671775221824646,-0.06713758235268999,-0.01967310905456543,-0.20040914800749368,0.9605014291522603,-0.44685816785313787,left,0.001613616943359375,-0.3265925296162183,-1.9762857524260877,-9.075596655875444,-0.18101353260000744,-0.08321122825145721,-0.000928536057472229,3.1461446475744244,-0.0016828477382659912
1746728907934055700,0.6950556640625,-0.21426112221064295,0.007221303880214691,-0.06689488755095362,-0.03920144587755203,-0.19967099937889987,0.9604661605790018,-0.4456401415148902,left,0.011905193328857422,-0.328995979093282,-1.973312289573252,-9.068477763780951,-0.1821026973122314,-0.057785943150520325,-0.007751643657684326,3.1684593552350995,-0.008749514818191528
1746728907974055400,0.735055419921875,-0.21479145269819083,-0.012683523818850517,-0.06696722354285815,-0.03026449680328369,-0.1998388205934142,0.9603141660046843,-0.4462474418015247,left,0.009348809719085693,-0.33008092031022224,-1.9773874300576746,-9.064065792557596,-0.18269275604672428,-0.04857185482978821,-0.006064519286155701,3.178526575741172,-0.00003841519355773926
1746728908014055400,0.775055419921875,-0.21532262877140715,-0.032588355243206024,-0.06703951774946655,-0.02132754772901535,-0.20000655670349587,0.96016175864357,-0.4468555420869829,left,0.006791174411773682,-0.3311655062713336,-1.9814640318468213,-9.059641546374559,-0.18328271741017013,-0.03935776650905609,-0.004377245903015137,3.1885864897236225,0.008673429489135742
1746728908054055400,0.815055419921875,-0.21511005848967163,0.0626436099410057,-0.06685266142722057,0.024229295551776886,-0.19993588623633543,0.9601230966224131,-0.4467813766968536,left,0.0048632025718688965,-0.33194672553611876,-1.9790058250397442,-9.05762611489892,-0.18363092787821717,-0.03661121055483818,-0.0050318241119384766,3.1958304695025084,0.029957175254821777
1746728908094055700,0.8550556640625,-0.21326039690685508,0.14949312806129456,-0.06609688456853006,-0.002081729471683502,-0.19760713724322831,0.9604797963383895,-0.4419631694478891,left,-0.0017848610877990723,-0.3346135146725392,-1.960438194952905,-9.052909023249148,-0.18455701943604547,-0.053398896008729935,-0.007379055023193359,3.2205437627375124,0.0023460984230041504
1746728908134055700,0.8950556640625,-0.21101900801146806,0.11194808036088943,-0.06496076124200911,0.03269081935286522,-0.19420407269097117,0.9607935486139656,-0.435292082368607,left,-0.007207393646240234,-0.3405027175454189,-1.9361359667368232,-9.038577715557814,-0.1869247970111604,-0.037883076816797256,-0.00855053961277008,3.2750375694692133,-0.0013174116611480713
1746728908174055700,0.9350556640625,-0.2073852131363906,0.08064721524715424,-0.06365980201209373,0.03578009828925133,-0.19216681473738437,0.961377054385391,-0.4303650397561878,left,-0.001793980598449707,-0.34063184554783255,-1.9031917285121975,-9.045139558291435,-0.18647694054787003,-0.009033044800162315,-0.007767736911773682,3.2762311631679535,-0.00026610493659973145
1746728908214055400,0.975055419921875,-0.2047239321046194,0.07015474885702133,-0.06256541055842368,0.054609477519989014,-0.19096250755261424,0.9616850340515135,-0.4274516142261304,left,-0.005375981330871582,-0.34139930564662896,-1.8786016232654452,-9.047707947474718,-0.18649622787898265,-0.02189762517809868,-0.008163899183273315,3.283324044038355,0.0011639297008514404
1746728908254055400,1.015055419921875,-0.2028618956022042,0.04727040231227875,-0.06159106677994273,0.04055630415678024,-0.19016325625040756,0.9617526898791683,-0.42572559623231876,left,-0.006639599800109863,-0.34354020755064407,-1.8603307841680943,-9.044284402766824,-0.18728684721595126,-0.06428490579128265,-0.0030058473348617554,3.3030998808711765,-0.000923842191696167
1746728908294055400,1.055055419921875,-0.20139256120928956,0.03581405431032181,-0.06056381993649897,0.05129881948232651,-0.18971929586986336,0.9616127022667004,-0.42499684218848066,left,-0.009803235530853271,-0.3470183620412593,-1.844730479454249,-9.035697191685438,-0.18878477153577372,-0.12833678722381592,0.007412895560264587,3.335195977833867,0.0011381804943084717
1746728908334055700,1.0950556640625,-0.1999003973388838,-0.0059464313089847565,-0.059452560009670856,0.03540423512458801,-0.1901271319537285,0.9613672866839026,-0.42592856633262904,left,0.007001757621765137,-0.34974944269177455,-1.829430034469813,-9.029478463301063,-0.18997396962612154,-0.04462578147649765,0.006867736577987671,3.360369582056999,-0.01720142364501953
1746728908374055700,1.1350556640625,-0.19840946760012648,-0.047706909477710724,-0.05834112964163365,0.019509656354784966,-0.19053443911656895,0.9611190969191251,-0.4268569232479049,left,0.023796558380126953,-0.3524818536285869,-1.8141491709686814,-9.02316095071733,-0.19116263769372122,0.03908521682024002,0.0063245296478271484,3.385530619059503,-0.03553968667984009
1746728908414055700,1.1750556640625,-0.19874062757100983,-0.14667274057865143,-0.05828927003211603,0.029621468856930733,-0.19391707241775324,0.960749869741816,-0.433454314297457,left,0.004908859729766846,-0.3487909913439845,-1.8195918004140257,-9.034747343614697,-0.1896270965292029,0.07234666496515274,0.003689676523208618,3.3515380408257243,0.0056011974811553955
1746728908454055400,1.215055419921875,-0.1983329129168662,-0.1409471333026886,-0.058096232677425544,0.04306890070438385,-0.19585222223598386,0.9606335416556462,-0.43699540329212966,left,0.018346428871154785,-0.3458359027820299,-1.8178515326179563,-9.045159432035684,-0.18828186995939364,0.10768890380859375,-0.0013208240270614624,3.324288799372315,-0.006882846355438232
1746728908494055400,1.255055419921875,-0.19692481341076418,-0.15377721190452576,-0.05740271469576351,0.08351074159145355,-0.19918256482633823,0.9604231297539932,-0.4430052552960039,left,0.011403858661651611,-0.3411039170453733,-1.8081708272114394,-9.06303528046608,-0.1860611435133371,0.07209572196006775,-0.0014503151178359985,3.2805943268135187,0.004013687372207642
1746728908534055400,1.295055419921875,-0.1954889786948596,-0.16660729050636292,-0.05670825090716289,0.12395258247852325,-0.20250960663821208,0.9601969166284828,-0.44901218763806333,left,0.004442095756530762,-0.3363800355130592,-1.7981461306728421,-9.080722912847996,-0.18383734690830747,0.03650253266096115,-0.0016148686408996582,3.2369013155594466,0.014910072088241577
1746728908574055700,1.3350556640625,-0.19133106391743604,-0.19026970863342285,-0.05420684585105802,0.17417311668395996,-0.20771152447604777,0.959547624146001,-0.4586293686116673,left,-0.009978652000427246,-0.33321560464848143,-1.7623128930084406,-9.098131143766642,-0.1821703323371161,0.0218141358345747,0.009122893214225769,3.2075919267058373,0.0007901489734649658
1746728908614055700,1.3750556640625,-0.18723264968252928,-0.18477129936218262,-0.051727963052180775,0.1459723711013794,-0.21126023221794468,0.9590189734017585,-0.4651607013583981,left,-0.0006383657455444336,-0.3325416872483383,-1.725412172242999,-9.107399322849512,-0.18159319862978207,0.024910636246204376,0.008265942335128784,3.201346018053591,-0.012788921594619751
1746728908654055700,1.4150556640625,-0.18313058795282752,-0.17927289009094238,-0.0492480731071061,0.11777162551879883,-0.21480486258825468,0.958471798314345,-0.4716934392183425,left,0.008678734302520752,-0.3318930688351497,-1.6884164666704833,-9.116440122917293,-0.1810125356467575,0.028007136657834053,0.007399275898933411,3.195333041374385,-0.026391714811325073
1746728908694055700,1.4550556640625,-0.18002664099592477,-0.27127885818481445,-0.047288311843663194,0.15402308106422424,-0.2201377744718208,0.9576937250429967,-0.4817791547437231,left,-0.01100456714630127,-0.32835841126534204,-1.6621233568981288,-9.13269216953814,-0.17923760932088798,0.04286159574985504,0.010960295796394348,3.1625416556239125,-0.006528079509735107
1746728908734055400,1.495055419921875,-0.17872163533158794,-0.1874718815088272,-0.04608983965842212,0.10268086194992065,-0.22465926062509942,0.956850994398076,-0.49074486733294465,left,0.0025957226753234863,-0.32654088276736415,-1.6512229004383085,-9.140494367721676,-0.1784382550060858,-0.015127412974834442,0.007778078317642212,3.1456647551029917,0.008957087993621826
1746728908774055400,1.535055419921875,-0.17796183679041688,-0.1177368089556694,-0.045031378594277624,0.05085306242108345,-0.2281765928980611,0.9560213395903534,-0.4980060980168456,left,0.006465792655944824,-0.3269087215477479,-1.644072590292245,-9.140607180446386,-0.17869225476340136,-0.029138347133994102,0.007722094655036926,3.1490812855482098,0.010793447494506836
1746728908814055700,1.5750556640625,-0.17794212577181376,-0.06463134288787842,-0.044431106853851335,0.002080164849758148,-0.23014296860905223,0.9554192258693841,-0.5023250952336761,left,0.011729717254638672,-0.32849514401252305,-1.6430059839740394,-9.13571122509837,-0.1795389965500961,-0.03682881221175194,0.0028892308473587036,3.163810652646422,0.008639812469482422
1746728908854055700,1.6150556640625,-0.17929560548861878,-0.05096681788563728,-0.0446836640815949,-0.029890000820159912,-0.23127055170117503,0.9549939624576195,-0.5050887425765882,left,0.0035644173622131348,-0.3296168368949319,-1.65473558473438,-9.129981157013773,-0.18028833737181216,-0.006091278046369553,0.000910639762878418,3.1742206952407956,0.004477143287658691
1746728908894055700,1.6550556640625,-0.180746221380114,-0.025966854766011238,-0.04516946783171722,-0.03337244689464569,-0.2317610873277328,0.9547583064811576,-0.5064739085565567,left,-0.00239717960357666,-0.33024537692513045,-1.6676188855744898,-9.125606595191359,-0.1807851281379498,-0.014533295296132565,-0.005783513188362122,3.180052177873254,0.011566728353500366
1746728908934055700,1.6950556640625,-0.18246479924190515,-0.01162738911807537,-0.04582410180036604,-0.052395403385162354,-0.2318118456958008,0.9545947722367948,-0.5070250616298947,left,0.007380545139312744,-0.33113381299039235,-1.6827862056985496,-9.119945500689745,-0.18141760477045377,-0.0028692157939076424,-0.006627097725868225,3.1882924752131103,-0.003613114356994629
1746728908974055400,1.735055419921875,-0.18480317202132096,-0.0261828675866127,-0.046908410751338156,-0.046173907816410065,-0.23195175788089314,0.9544756426929557,-0.507729568688035,left,-0.0026105642318725586,-0.33088706988518535,-1.704251895314455,-9.116758687347174,-0.18158822898434757,0.02128324657678604,-0.005688607692718506,3.186004364275932,-0.0006881058216094971
1746728909014055400,1.775055419921875,-0.18728130358050432,-0.0373789519071579,-0.04812582903030908,-0.03710220009088516,-0.23238627395571854,0.9543498243481348,-0.5089591419506059,left,0.0017272233963012695,-0.32976829939492197,-1.7275018379986284,-9.116003485065699,-0.1813755168501675,0.031079912558197975,-0.008168652653694153,3.175625885863602,-0.00726655125617981
1746728909054055400,1.815055419921875,-0.18881533891365543,-0.05277051031589508,-0.048941927749626114,-0.025539783760905266,-0.23297860250389094,0.9542632922729826,-0.5102790395980847,left,-0.0033885836601257324,-0.32821626336426724,-1.742407000055164,-9.118172645798325,-0.18085148514725372,0.04417617991566658,-0.007640257477760315,3.1612220974579452,-0.0086556077003479
1746728909094055700,1.8550556640625,-0.19029462784345771,-0.06985000520944595,-0.049766972188848596,-0.0000712033361196518,-0.23410470314931783,0.9541234730740786,-0.5125776384528299,left,-0.009138286113739014,-0.32573594097860487,-1.7573711988225578,-9.123256817194818,-0.1799072596560649,0.04695248603820801,-0.0067729651927948,3.1381869665682314,-0.009198933839797974
1746728909134055700,1.8950556640625,-0.1908824298158431,-0.08428190648555756,-0.05009026984518977,0.03461354225873947,-0.23576614414979855,0.9538937233081296,-0.5158228318078321,left,-0.01032102108001709,-0.32321211386415627,-1.76423056319803,-9.12996946657598,-0.17886330313690216,0.021530838683247566,-0.004517227411270142,3.1147283495694396,-0.0031358003616333008
1746728909174055700,1.9350556640625,-0.19052736650409158,-0.08609901368618011,-0.04978846806734936,0.04814942181110382,-0.23734872009222557,0.9536066462406648,-0.5189249031225558,left,-0.0021118521690368652,-0.322125643473273,-1.76162856400609,-9.133912651243806,-0.1783848949611137,-0.0020999982953071594,-0.007043763995170593,3.104623427401483,0.0016833841800689697
1746728909214055400,1.975055419921875,-0.18966415586679333,-0.10976752638816833,-0.049128997632754676,0.06660781800746918,-0.2393363896111536,0.9532111345650167,-0.5228300699369886,left,0.0004996061325073242,-0.32137869446242245,-1.7541801476962864,-9.137705029264092,-0.17802544912799162,-0.0036230753175914288,-0.002672553062438965,3.097674338915944,-0.003793090581893921
1746728909254055400,2.015055419921875,-0.18858038991115164,-0.13652807474136353,-0.04822859296284701,0.07164811342954636,-0.2418168110322365,0.9526694064861572,-0.5277763079337182,left,0.00451970100402832,-0.3209634558564507,-1.7445169779464602,-9.140863201034069,-0.177819255921597,-0.011303923092782497,-0.0007454752922058105,3.0938103569641706,-0.004655927419662476
1746728909294055400,2.055055419921875,-0.18818449661900477,-0.16350719332695007,-0.04755908929610824,0.06076488643884659,-0.24513749294808318,0.9519111930909208,-0.534554031916958,left,0.0035999417304992676,-0.3200745888200491,-1.7414118515379726,-9.144251089906692,-0.17751361491365303,-0.004427514970302582,0.0009438842535018921,3.0855376186594365,0.0008334815502166748
1746728909334055700,2.0950556640625,-0.18883187013275732,-0.16659696400165558,-0.04736737631692156,0.022977232933044434,-0.2490372425126,0.9509962832277651,-0.5426531957127465,left,-0.00042498111724853516,-0.3184929536379732,-1.7482450585588811,-9.147903767195343,-0.1770396738972039,0.014598995447158813,0.000016644597053527832,3.0708108819097277,0.0064935386180877686
1746728909374055700,2.1350556640625,-0.18942211614171245,-0.1539880335330963,-0.04730271054782076,0.03466692194342613,-0.25202300381722215,0.9502984278664941,-0.5488432902978151,left,-0.000979006290435791,-0.3170464349305182,-1.754478838381916,-9.151223267006873,-0.1765783761250478,0.007108760066330433,-0.0032069534063339233,3.057335606525838,0.008852660655975342
1746728909414055700,2.1750556640625,-0.18990443181498115,-0.13521970808506012,-0.04717472633761556,0.02588307112455368,-0.2546124893429743,0.9496543012184805,-0.5542644234183853,left,0.0029709339141845703,-0.3161865753838199,-1.759387945472449,-9.152954036322235,-0.17636259479915695,0.004062748048454523,-0.0054798126220703125,3.0493223959401248,0.007344603538513184
1746728909454055400,2.215055419921875,-0.19000674545408885,-0.11467543244361877,-0.046834519810564065,0.057159289717674255,-0.2572924812452927,0.9489843282641349,-0.5598293964683156,left,-0.006247818470001221,-0.3154720594650639,-1.760735414558649,-9.154911600130795,-0.17617024790745242,0.00372554874047637,-0.0004948675632476807,3.042662061268091,0.004115790128707886
1746728909494055400,2.255055419921875,-0.18779957777012452,-0.11136870831251144,-0.045469668430422834,0.12106029689311981,-0.2600975322151507,0.948408720718036,-0.5651846337889832,left,-0.0071408748626708984,-0.3144066581169415,-1.7411289429433643,-9.16195508890152,-0.17550733098353835,0.01265253871679306,0.0041153281927108765,3.0327278194919227,0.0028735101222991943
1746728909534055400,2.295055419921875,-0.18477564196043852,-0.11508750915527344,-0.043728967077683506,0.11970750242471695,-0.2625531529571301,0.9479222395541476,-0.5697189318893804,left,0.0044081807136535645,-0.31378344863344276,-1.7137627971120177,-9.169034233507514,-0.1749204165389607,-0.004606597125530243,0.007696747779846191,3.026915333820879,0.00577583909034729
1746728909574055700,2.3350556640625,-0.18186608719633468,-0.11417774111032486,-0.04192350199293219,0.07569682598114014,-0.2655784565682288,0.9472548325262224,-0.575494609805058,left,0.01266855001449585,-0.3132518683608831,-1.6873685650527477,-9.175562758493422,-0.17441021571415952,-0.0027577318251132965,0.009878858923912048,3.0219562501087784,0.003160834312438965
1746728909614055700,2.3750556640625,-0.18117293774923687,-0.10141879320144653,-0.04143348418659365,0.05053996294736862,-0.2672189427761722,0.9468896308781041,-0.5787199666972852,left,0.006817817687988281,-0.31243981197201376,-1.6814496963977812,-9.179140616980195,-0.17400384055289894,0.025385579094290733,0.00997646152973175,3.014379385113716,-0.0003198087215423584
1746728909654055700,2.4150556640625,-0.1802017962377419,-0.0867047905921936,-0.04091937467600104,0.05859607085585594,-0.2690814856797502,0.9465417775338576,-0.5822433426518868,left,-0.002619445323944092,-0.31073549247330134,-1.673453144685924,-9.185810596263408,-0.17314622982528416,0.030687332153320312,0.004741266369819641,2.998470452842116,0.004359334707260132
1746728909694055700,2.4550556640625,-0.17906522966669983,-0.07281365990638733,-0.040308344428257585,0.05015064775943756,-0.27046707746514437,0.9462781855213782,-0.5848257050567832,left,0.002457737922668457,-0.30972311964530075,-1.6635514900051056,-9.190689015954732,-0.17257034322674697,0.015724048018455505,-0.0003882497549057007,2.9890163957983256,0.0037960708141326904
1746728909734055400,2.495055419921875,-0.17794608368195367,-0.0588412769138813,-0.03963933245695705,0.03846125304698944,-0.27191813945317905,0.9459652057261267,-0.5875983826456178,left,0.0015897750854492188,-0.30905507936845933,-1.653617832750827,-9.194508281981944,-0.17216062802286733,0.0027130432426929474,-0.0036729276180267334,2.9827763323649763,0.004033446311950684
1746728909774055400,2.535055419921875,-0.1766711521518449,-0.054989904165267944,-0.03886607818387158,0.04665597900748253,-0.27343999710487066,0.9456255376006542,-0.590511957493636,left,-0.0018429756164550781,-0.30851821727518136,-1.642175378368795,-9.198183755624294,-0.17179222552445986,0.011544791050255299,-0.003370925784111023,2.9777605500295756,0.001984715461730957
1746728909814055700,2.5750556640625,-0.17542338084634143,-0.0639883428812027,-0.03821099830823819,0.06368987262248993,-0.27456264416246584,0.9454134459191569,-0.5925606488604395,left,-0.005602598190307617,-0.3077807625201447,-1.6310796915978192,-9.202385883489251,-0.17131502597047407,0.017011430114507675,0.0013763606548309326,2.970869036950171,0.0007250607013702393
1746728909854055700,2.6150556640625,-0.1734331943938505,-0.07009768486022949,-0.03712703574481798,0.07401354610919952,-0.2760729892766491,0.9451089426899366,-0.595313856144413,left,-0.0028876066207885742,-0.30716818157906384,-1.6130756867431104,-9.2074045884341,-0.1708057717152425,-0.0005708243697881699,0.005278244614601135,2.9651433527797457,-0.00000947713851928711
1746728909894055700,2.6550556640625,-0.17187592168692023,-0.05991543084383011,-0.03617964600206515,0.0472697950899601,-0.2774788034787953,0.9447735330749325,-0.597992933743454,left,-0.0020584464073181152,-0.30705539431904744,-1.5987924559772013,-9.210234843423962,-0.17058651073620332,-0.013659151270985603,0.00419597327709198,2.964089167551696,0.004901617765426636
1746728909934055700,2.6950556640625,-0.17087561881704882,-0.01895882561802864,-0.0354106348066479,0.02091907523572445,-0.27857206109726035,0.9444393474974715,-0.6002204651493872,left,-0.0051583051681518555,-0.3077578399249189,-1.5892242710344493,-9.209775409218668,-0.17081637641268346,-0.03342825919389725,0.001283302903175354,2.9706548096776006,0.008836328983306885
1746728909974055400,2.735055419921875,-0.17022982519444207,-0.03410092741250992,-0.03502276653935704,0.01069678645581007,-0.2792866008533312,0.9442734831629234,-0.6015874422516291,left,-0.0046305060386657715,-0.3075356615136028,-1.5833881122268736,-9.21145006443262,-0.17064633542663502,-0.011571595445275307,0.00032560527324676514,2.9685782956644893,0.0039272308349609375
1746728910014055400,2.775055419921875,-0.16958378062308013,-0.0492430254817009,-0.034634878269521746,0.00047449860721826553,-0.2800009546531844,0.9441069256012657,-0.6029545053102798,left,-0.004103362560272217,-0.3073143362160013,-1.577547569505125,-9.213118289905786,-0.17047618273342952,0.010285068303346634,-0.0006325244903564453,2.9665096726968883,-0.0009826719760894775
1746728910054055400,2.815055419921875,-0.16893745278128777,-0.06438512355089188,-0.03424696180508072,-0.009747790172696114,-0.2807150897285846,0.9439397246016218,-0.604321595808574,left,-0.003576815128326416,-0.3070938646553337,-1.5717024967387319,-9.214780670160055,-0.17030590588578534,0.032141730189323425,-0.0015911310911178589,2.9644486485138533,-0.005893349647521973
1746728910094055700,2.8550556640625,-0.16853380722342398,-0.05804391950368881,-0.03420115664383465,0.02241472713649273,-0.2814654464858951,0.9438647208665746,-0.6056184016778126,left,-0.008026361465454102,-0.3054261278230613,-1.5688099901676178,-9.220275175923108,-0.16949065328687413,0.05611810460686684,0.0007032901048660278,2.948854773540795,-0.009725689888000488
1746728910134055700,2.8950556640625,-0.16776962204317783,-0.031327985227108,-0.03411713346720352,-0.003509329631924629,-0.2825511732144956,0.9437912344129885,-0.6074142584834201,left,-0.0006434321403503418,-0.30263017429469646,-1.5631341364882885,-9.229564397794007,-0.16810473739837387,0.033413901925086975,-0.0022505372762680054,2.922693327324092,0.0013553202152252197
1746728910174055700,2.9350556640625,-0.1674729096163788,0.0027542002499103546,-0.034138260294650266,0.016827497631311417,-0.28289713588022064,0.9438032195825026,-0.6079204858604634,left,-0.004434406757354736,-0.3013026417920371,-1.561040963601321,-9.233845436114072,-0.16744997388200208,0.006829120218753815,0.003515958786010742,2.9102637616008518,0.005934238433837891
1746728910214055400,2.975055419921875,-0.16686521490089984,0.014208064414560795,-0.03392710116520438,0.0033416152000427246,-0.28281226225819217,0.9438785117082463,-0.607591833081827,left,0.005894124507904053,-0.3009888440784789,-1.5555809446297586,-9.235692525285481,-0.16721153061819544,0.0034142157528549433,0.00006747245788574219,2.9073250778004525,0.008638083934783936
1746728910254055400,3.015055419921875,-0.16678855882869245,0.006006082519888878,-0.033927801790975765,0.004445819649845362,-0.28249189510943634,0.9439677138502651,-0.6069161553997768,left,-0.0033659934997558594,-0.3011168411679775,-1.5548111293010414,-9.235444688004256,-0.16724917318167568,-0.0001737514976412058,0.006874740123748779,2.9085239321961995,0.005286455154418945
1746728910294055400,3.055055419921875,-0.16614117966079173,-0.019336240366101265,-0.033639632746674294,0.03267361596226692,-0.2826877935262265,0.943956286778071,-0.6071828307569355,left,-0.0012957453727722168,-0.3008579060598731,-1.548956411923468,-9.237191823932529,-0.16704095216154846,0.017058132216334343,0.0072827935218811035,2.90609875087589,0.00019919872283935547
1746728910334055700,3.0950556640625,-0.16504682449287497,-0.03405036777257919,-0.0331885706774805,0.031302936375141144,-0.2833708416120717,0.9438770861044798,-0.6083022443641615,left,0.00322800874710083,-0.2998224862502109,-1.5393402961857616,-9.241844618174433,-0.1664199542918191,0.032318443059921265,0.007365494966506958,2.896399194638431,-0.002851158380508423
1746728910374055700,3.1350556640625,-0.16357187160743156,-0.036602068692445755,-0.03267273336939998,0.046053919941186905,-0.2842306236772155,0.9438247931041293,-0.6096212903392432,left,-0.002163827419281006,-0.2979363167635967,-1.526594211859256,-9.24947847405374,-0.16534914738957737,0.04946184903383255,0.008267492055892944,2.878722375911474,-0.009545505046844482
1746728910414055700,3.1750556640625,-0.16072287737222,-0.04180889576673508,-0.03169320199318844,0.05837727338075638,-0.2856585042014204,0.9437761263798005,-0.611705701746528,left,-0.0025232434272766113,-0.2944515987981882,-1.5018326955683527,-9.26363617874384,-0.1633448609884962,0.04586227983236313,0.0072104185819625854,2.8460370808839794,-0.011033356189727783
1746728910454055400,3.215055419921875,-0.15898158558574496,-0.04485896974802017,-0.030970127054710885,0.03974659740924835,-0.28664259138563436,0.9436602930061951,-0.6133032807941416,left,0.00031316280364990234,-0.2929687271645114,-1.4863662463672458,-9.270394420832394,-0.1624262685811358,0.004048410803079605,0.002138480544090271,2.832117568863928,-0.003913760185241699
1746728910494055400,3.255055419921875,-0.15848114279309994,-0.020458629354834557,-0.030593383011242,0.004212990403175354,-0.2873933314643249,0.943443544651239,-0.6148224964304406,left,0.0025919079780578613,-0.2930804454633305,-1.4816767733767628,-9.270824628943204,-0.16243014856691745,-0.031676728278398514,-0.004590645432472229,2.8331664933949705,0.01386028528213501
1746728910534055400,3.295055419921875,-0.1590176661954566,-0.005173091776669025,-0.030565030465074895,-0.01130573358386755,-0.2876238418674904,0.9432443278868956,-0.6155825924738323,left,-0.0008514523506164551,-0.2944985362961207,-1.4860129028849303,-9.266052007713913,-0.1631827862193358,-0.050362542271614075,-0.005113393068313599,2.8464775181278585,0.018255114555358887
1746728910574055700,3.3350556640625,-0.15934570098630957,-0.02228955551981926,-0.030361373440227612,0.004873194731771946,-0.2877801025307854,0.9430329209466252,-0.6162209150982658,left,0.001482844352722168,-0.2964733668609426,-1.4881575136981904,-9.25999577641487,-0.16416396822317011,-0.03052966110408306,-0.002093881368637085,2.8650045239433646,0.0048656463623046875
1746728910614055700,3.3750556640625,-0.1600381331119627,-0.06967753171920776,-0.030517820280868527,0.006508105434477329,-0.28866162449151045,0.9427324913855845,-0.6182163752715464,left,-0.005699813365936279,-0.2965128113435533,-1.4945510141275822,-9.258851282554865,-0.164312584959168,0.03474646061658859,0.0010761916637420654,2.865374526299536,-0.0022950470447540283
1746728910654055700,3.4150556640625,-0.16058813358785098,-0.07128534466028214,-0.03086082664793435,0.007351489271968603,-0.29012282355651137,0.9424200467012961,-0.6211475497713654,left,-0.0018124580383300781,-0.29443490821095547,-1.500592047857493,-9.263885185068846,-0.16346531682156024,0.04752055183053017,-0.0011041760444641113,2.8458804290175435,0.001708894968032837
1746728910694055700,3.4550556640625,-0.16103180512665563,-0.03490753099322319,-0.03109778538844778,0.002105103339999914,-0.2906311932657444,0.9423009488570893,-0.6222097502642313,left,-0.00016939640045166016,-0.2937017477697587,-1.50503616778478,-9.265275762644409,-0.16320338436791712,0.018206311389803886,0.0000033527612686157227,2.838999145071208,0.0013951659202575684
1746728910734055400,3.495055419921875,-0.16147459305526163,0.0014702826738357544,-0.03133473003165595,-0.003141283057630062,-0.29113951191231785,0.9421816033408048,-0.6232715876585753,left,0.0014731884002685547,-0.29296818233635935,-1.5094729811884462,-9.266661664044857,-0.16294138983705775,-0.011107927188277245,0.0011101365089416504,2.8321126004278656,0.0010819435119628906
1746728910774055400,3.535055419921875,-0.16147459305526163,0.02823270671069622,-0.03133473003165595,-0.018441643565893173,-0.29113951191231785,0.9421816033408048,-0.6232715876585753,left,0.01760488748550415,-0.29296818233635935,-1.5094729811884462,-9.266661664044857,-0.16294138983705775,-0.009172610938549042,-0.0007559806108474731,2.8321126004278656,0.003640592098236084
1746728910814055700,3.5750556640625,-0.1612628019252561,0.05325424671173096,-0.03127912902904323,0.009974505752325058,-0.2899969585376608,0.9424714290361664,-0.6209298841574741,left,-0.0013731718063354492,-0.29390622854047627,-1.5070830173119902,-9.264354556146264,-0.16331256769684765,-0.0016140067018568516,0.005761310458183289,2.840918422695994,-0.0018464326858520508
1746728910854055700,3.6150556640625,-0.16020272996908452,0.0651964470744133,-0.030833135301957706,-0.014615392312407494,-0.2888330619314004,0.9427973705906214,-0.6184017558183376,left,0.01277238130569458,-0.2948873192731368,-1.4968160364501177,-9.263191357585788,-0.1635787829363847,-0.015900002792477608,-0.0002585947513580322,2.850125811502337,-0.009933441877365112
1746728910894055700,3.6550556640625,-0.16036020770957654,0.05776670575141907,-0.030914102958644586,-0.02521253563463688,-0.28755943515405746,0.9430826333202424,-0.6158908158802594,left,0.008208632469177246,-0.2961685797480484,-1.4976904811970888,-9.25934286546409,-0.16416219745325,-0.02441083826124668,0.0058269500732421875,2.8621459196418524,-0.018596261739730835
1746728910934055700,3.6950556640625,-0.16146702539892993,0.01257086917757988,-0.03130495407767255,-0.052002616226673126,-0.2868236409124521,0.9431489543146673,-0.6147115486885428,left,-0.002604186534881592,-0.2976409890229572,-1.5072588122703134,-9.25350992152691,-0.16499182743236607,-0.05667710304260254,-0.0008140057325363159,2.8759534957200286,-0.004236042499542236
1746728910974055400,3.735055419921875,-0.16308832315029387,0.009216229431331158,-0.031645093461698144,-0.020495839416980743,-0.2865341455792954,0.9429604237134235,-0.6147335829396858,left,-0.006783723831176758,-0.30036968470144787,-1.5209795868478715,-9.243276112282276,-0.1665012398618134,-0.0831824541091919,0.0005978047847747803,2.9015254516109823,-0.0016718804836273193
1746728911014055400,3.775055419921875,-0.16343060044027508,-0.0014270823448896408,-0.03139311350098089,0.011318370699882507,-0.2865075526993303,0.9427606806277811,-0.615060558861151,left,-0.005833089351654053,-0.30286111315725556,-1.5229624312281607,-9.235593741086126,-0.1677207449949431,-0.060686491429805756,0.001672998070716858,2.924855181533098,-0.004179626703262329
1746728911054055400,3.815055419921875,-0.16320042642893823,-0.004844574723392725,-0.030892077543207913,-0.0031385431066155434,-0.28657128867787246,0.9425692962623237,-0.6154559652901859,left,-0.0005349516868591309,-0.3051784803507452,-1.5197311942219733,-9.229231220316887,-0.16877749973859393,-0.06904670596122742,0.0008019357919692993,2.9465386055529117,-0.0009992122650146484
1746728911093977900,3.854977783203125,-0.1633951154693154,-0.0010168858570978045,-0.03047843532669002,0.013656358234584332,-0.2866889819999814,0.9422966862689885,-0.61611833487547,left,-0.011733446270227432,-0.3080734219758433,-1.5201340759344397,-9.220480343106388,-0.17016879841264743,-0.0932980626821518,0.0037058210000395775,2.973604014872014,0.008242460899055004
1746728911133978000,3.89497802734375,-0.16224312825920512,0.015637697651982307,-0.029198971301350102,0.01951361447572708,-0.286427538371447,0.9420379943740698,-0.6159846549850545,left,-0.005823850631713867,-0.3128926287846119,-1.5071788789018987,-9.207976250842213,-0.17225360586545685,-0.11092062294483185,0.004698604345321655,3.0186046015933155,0.012648224830627441
1746728911173978000,3.93497802734375,-0.1611076486352551,0.011243989691138268,-0.02800501138092175,0.014768838882446289,-0.28611560494164084,0.9418207820198916,-0.6156913252771069,left,0.0005148649215698242,-0.31730336275120874,-1.494572056915611,-9.196450063699483,-0.17414726039165232,-0.08132800459861755,0.005131319165229797,3.0597295159250497,0.010108202695846558
1746728911213978000,3.97497802734375,-0.1606637095910946,-0.004526631906628609,-0.0273892195746392,-0.0022590868175029755,-0.28602795423070865,0.9416534225514116,-0.615761424322952,left,0.001982271671295166,-0.3198850248528458,-1.4892206128850578,-9.189284409853816,-0.17529038658758941,-0.03136375546455383,0.004155069589614868,3.083772947074473,0.01071012020111084
1746728911253978000,4.01497802734375,-0.16093984597445907,-0.014883938245475292,-0.02740118170027359,-0.012889842502772808,-0.28614504792331563,0.9415613747695326,-0.6161338563333942,left,0.00040906667709350586,-0.3204349774897607,-1.4914860735990105,-9.187197666707634,-0.1755917673800583,0.013181451708078384,0.0021614432334899902,3.0888921897843478,0.010047972202301025
1746728911293977900,4.054977783203125,-0.16166422546693074,-0.015330586582422256,-0.027857905790635032,-0.025097157806158066,-0.28630850719840356,0.9415604226489666,-0.6164914154428447,left,-0.001986861228942871,-0.31948828883668307,-1.4986108109124003,-9.18899682508409,-0.17525837322557597,0.04061674326658249,-0.0004442930221557617,3.0800793532535433,0.008789241313934326
1746728911333977900,4.094977783203125,-0.16269024045653618,-0.0060890838503837585,-0.02856019223974628,-0.02883279137313366,-0.28635251857504307,0.9416252800180682,-0.616582703254033,left,-0.002564072608947754,-0.3180261768120566,-1.5087658558323978,-9.19188845487237,-0.17472390510429714,0.04282176122069359,-0.0027470290660858154,3.066463208094239,0.0070281922817230225
1746728911373978000,4.13497802734375,-0.16376136067952454,0.005518932826817036,-0.029292334018731686,-0.025134170427918434,-0.28618016748598457,0.9417381875948034,-0.6162463288000016,left,-0.0014995336532592773,-0.3167491267959262,-1.5192477946192025,-9.194123082056642,-0.17427605374047486,0.036107879132032394,-0.0027453750371932983,3.0545652650296686,0.003929316997528076
1746728911413978000,4.17497802734375,-0.16453264413553925,0.01156819798052311,-0.029887553869939236,-0.023927612230181694,-0.2858673278479516,0.9418924963707025,-0.6155764471241642,left,0.0003281831741333008,-0.3156306415118896,-1.5268972864590584,-9.196313285577297,-0.17385411436483503,0.034649599343538284,-0.004309594631195068,3.044140317127108,-0.00003814697265625
1746728911453978000,4.21497802734375,-0.1652397796726901,0.011905266903340816,-0.03045811213092273,-0.014250095002353191,-0.2855513109656791,0.9420518495946278,-0.61488429138827,left,-0.0013855695724487305,-0.3144872635243021,-1.5339714626289904,-9.19865838739872,-0.1734106410262886,0.028922373428940773,-0.0032794028520584106,3.0334795146420594,-0.0011105835437774658
1746728911493978000,4.25497802734375,-0.16557901825922436,0.017690390348434448,-0.030819628875267346,-0.008599309250712395,-0.2851743374592656,0.9422188214357894,-0.6140366577343971,left,-0.002768993377685547,-0.31365953072275665,-1.5375051897130905,-9.200610690510272,-0.17305938227806475,0.02119222655892372,-0.0026246607303619385,3.025759441784024,-0.004655301570892334
1746728911533978000,4.29497802734375,-0.16524410331157385,0.0065956274047493935,-0.03084268303066974,0.016426026821136475,-0.2849088864383675,0.9423746347773513,-0.6133108285253034,left,-0.005139946937561035,-0.3128965504637031,-1.5348029450170695,-9.203400028967858,-0.17264394225752375,0.01760999485850334,0.0003524869680404663,3.0186411342114208,-0.007280141115188599
1746728911573977900,4.334977783203125,-0.1647381197412711,-0.01367607805877924,-0.030696234842226226,0.007500438950955868,-0.2849875452836197,0.9424194818756297,-0.6133069443612732,left,0.0021467208862304688,-0.31230421106683987,-1.5304390507191419,-9.205937438490986,-0.1722949799401292,0.010236233472824097,0.000995039939880371,3.0131138952225447,-0.008305281400680542
1746728911613977900,4.374977783203125,-0.16465522592630788,-0.03267376124858856,-0.03068265516139895,0.006036368664354086,-0.2854434119736993,0.9423368994624425,-0.6141740262697111,left,0.00439530611038208,-0.3116574608159588,-1.5299949602134524,-9.20798501867056,-0.1719942177855778,0.009142485447227955,0.0022167712450027466,3.007077537667751,-0.008361667394638062
1746728911653978000,4.41497802734375,-0.16479402539686996,-0.03876655921339989,-0.030740298124329733,0.01083055604249239,-0.2861727656224739,0.9421712945233327,-0.6156464644927979,left,0.0018695592880249023,-0.3108915466357373,-1.531650326205045,-9.210041366678476,-0.17167878018763896,0.007763757836073637,0.0017147213220596313,2.99992737365216,-0.003907322883605957
1746728911693978000,4.45497802734375,-0.1649381184289771,-0.037540581077337265,-0.03077079507200046,0.005293006077408791,-0.28695690865027645,0.9419783852507931,-0.6172522045246456,left,0.0016093254089355469,-0.31024579308225725,-1.533295170802623,-9.21173005041778,-0.17142245180327825,0.0037485002540051937,0.0007257610559463501,2.993897738099098,-0.0018631219863891602
1746728911733978000,4.49497802734375,-0.1651360558926338,-0.03251095488667488,-0.030777519375182725,0.001762661850079894,-0.28768667695622707,0.9417711676988141,-0.618798808731716,left,0.002728879451751709,-0.3099502891741926,-1.5352638405270873,-9.212298205694555,-0.1713366635097218,-0.002462463453412056,-0.00046335160732269287,2.991138210257888,0.0008661746978759766
1746728911773978000,4.53497802734375,-0.16552715329797563,-0.016016727313399315,-0.030892221158076345,-0.0027753247413784266,-0.2881721822288048,0.9416183981290356,-0.6198813730317098,left,-0.0014914274215698242,-0.3098010610788501,-1.538940190952271,-9.212137462174892,-0.17133996765903067,0.005180670879781246,0.0008846968412399292,2.98974441781193,0.0023068785667419434
1746728911813977900,4.574977783203125,-0.16556500243275288,0.0053482092916965485,-0.03099308985906277,-0.01073057483881712,-0.28794149679735853,0.9417071845365145,-0.6193653398465276,left,0.00012600421905517578,-0.3095522402560276,-1.539411461725831,-9.21281258495748,-0.17122126065617221,0.007698478642851114,-0.00028073787689208984,2.987420358778536,0.0005644559860229492
1746728911853977900,4.614977783203125,-0.1656030294921674,0.026713145896792412,-0.031093966752105847,-0.018685825169086456,-0.28771077859767585,0.941796020733117,-0.618849398874903,left,0.001743316650390625,-0.30930353237832925,-1.539884193804115,-9.213486538696289,-0.17110256610059374,0.010216286405920982,-0.0014460086822509766,2.985097176527977,-0.001178056001663208
1746728911893978000,4.65497802734375,-0.165705174111471,0.033402346074581146,-0.0312739993781985,-0.014287175610661507,-0.28709534655837554,0.9419898644238731,-0.6175439322470645,left,0.0009958148002624512,-0.3091734716204626,-1.540889279193431,-9.213712164145708,-0.17103615079079204,0.00938957929611206,-0.0008807182312011719,2.9838822477802633,-0.004282325506210327
1746728911933978000,4.69497802734375,-0.16580407148169657,0.017617179080843925,-0.03143173148731956,-0.008469286374747753,-0.2865688621488072,0.9421542671545762,-0.6164306423146145,left,-0.0005907416343688965,-0.30907092795358243,-1.5418511099629104,-9.213861217227578,-0.17098496536084584,0.004787543322890997,-0.001736477017402649,2.982924216403067,-0.006535768508911133
1746728911973978000,4.73497802734375,-0.16580407148169657,-0.013767765834927559,-0.03143173148731956,-0.002589339856058359,-0.2865688621488072,0.9421542671545762,-0.6164306423146145,left,-0.0011055469512939453,-0.30907092795358243,-1.5418511099629104,-9.213861217227578,-0.17098496536084584,-0.0042956979013979435,-0.0007004886865615845,2.982924216403067,-0.007509171962738037
1746728912013978000,4.77497802734375,-0.16624968421856598,-0.03593261539936066,-0.031522143085500505,-0.0006579733453691006,-0.2870838041680264,0.9419697807585377,-0.6176198968964796,left,0.0007295012474060059,-0.3091851726543234,-1.545900385353714,-9.212837134876846,-0.17112095733523913,-0.021891653537750244,-0.0019636154174804688,2.9839915533736345,-0.0045694708824157715
1746728912053977900,4.814977783203125,-0.16677782299463528,-0.03332017734646797,-0.03148097895222568,0.004466926213353872,-0.28783591175408174,0.9416490402590201,-0.619428010099921,left,-0.0011263489723205566,-0.310050430045485,-1.5503366142354904,-9.209470288792252,-0.17162942934190073,-0.04752465710043907,-0.003049224615097046,2.9920734452813864,-0.001095205545425415
1746728912093977900,4.854977783203125,-0.16658348215018215,-0.015359712764620781,-0.030826021962122894,0.018412694334983826,-0.2881649079301044,0.9413142754756203,-0.6204935022412482,left,-0.0010725855827331543,-0.31306810741475793,-1.5470425411261617,-9.200825210043787,-0.17302670414856802,-0.07160210609436035,-0.00282074511051178,3.0202418474063277,-0.0011986196041107178
1746728912133978000,4.89497802734375,-0.16639232535110665,0.00260075181722641,-0.03017097873818788,0.03235846012830734,-0.2884931458074465,0.9409770850341063,-0.6215594173832061,left,-0.0010280013084411621,-0.3160860073876917,-1.5437670265868306,-9.192089530402422,-0.17442353622263954,-0.09567955136299133,-0.0025903433561325073,3.0483851150900123,-0.0012995004653930664
1746728912173978000,4.93497802734375,-0.16522865777804416,0.0055601634085178375,-0.028967204785233354,0.04961435869336128,-0.2886443106579223,0.9406645676395152,-0.6221789211080541,left,0.0020263195037841797,-0.3199267259373135,-1.5311324398107826,-9.18226371743679,-0.1760560855296059,-0.11142122745513916,-0.0017295628786087036,3.0841610696092245,-0.0008375644683837891
1746728912213978000,4.97497802734375,-0.16361749859752564,0.0021060211583971977,-0.02746805301071726,0.05655621737241745,-0.28877655031974814,0.9403247529155191,-0.6227476843084736,left,-0.0019042491912841797,-0.32433220475054025,-1.5141085320346057,-9.17122385250628,-0.17788542532803153,-0.11740091443061829,-0.0010690689086914062,3.125141899295151,-0.0026113390922546387
1746728912253978000,5.01497802734375,-0.1615303426978656,-0.017532281577587128,-0.025698418278080625,0.07366765290498734,-0.28922987791483323,0.9399029891600035,-0.6238998816388862,left,-0.0026845932006835938,-0.32869708976942913,-1.492755362882465,-9.160813517650961,-0.17963324412669351,-0.12246110290288925,0.0003450363874435425,3.165685214346647,0.00040158629417419434
1746728912293977900,5.054977783203125,-0.15964072002075752,-0.02830246277153492,-0.023902589423444306,0.05816463381052017,-0.2900120244488545,0.9393397166424688,-0.6258258265655189,left,0.002351820468902588,-0.3333617780155379,-1.473078748640418,-9.148938955461979,-0.18155606875620195,-0.13248692452907562,0.0007608532905578613,3.2089465561851855,0.0038282275199890137
1746728912333977900,5.094977783203125,-0.15833202357061377,-0.030263138934969902,-0.022374479596029746,0.0433117114007473,-0.29085418290136744,0.9387377350824335,-0.6279742749740701,left,0.004814565181732178,-0.3379081649232478,-1.45878894200325,-9.136357706308365,-0.18350689748311763,-0.11929424107074738,0.0019039064645767212,3.2510435304194685,0.006672471761703491
1746728912373978000,5.13497802734375,-0.15757742247724035,-0.016982894390821457,-0.0212088331275307,0.028925945982336998,-0.2915405134523646,0.9381998113415889,-0.629832171414776,left,0.004281401634216309,-0.3419530563065457,-1.4498187229536472,-9.124394296792149,-0.18529857493061797,-0.10025911033153534,0.001674741506576538,3.288440364138782,0.009816616773605347
1746728912413978000,5.17497802734375,-0.15721521261808336,0.0013936739414930344,-0.020484623338717846,0.01443246565759182,-0.2915191784619044,0.9379276780641658,-0.6301601821414748,left,0.003246903419494629,-0.345256909109425,-1.4448048403143883,-9.114138275715709,-0.18678506150786806,-0.09005216509103775,0.00007905066013336182,3.31894626930058,0.00901690125465393
1746728912453978000,5.21497802734375,-0.15685373717257117,0.019770242273807526,-0.019760352529025405,-0.00006101466715335846,-0.29149705113099156,0.9376529540139119,-0.6304874001431559,left,0.0022017955780029297,-0.3485609150433752,-1.4397893502399324,-9.103778794264793,-0.18827103524244096,-0.07984521985054016,-0.001516774296760559,3.3494173954099415,0.008220672607421875
1746728912493978000,5.25497802734375,-0.15678878373438948,0.034548576921224594,-0.01921074195968055,-0.006365798879414797,-0.2910316459997456,0.9374761618068844,-0.629967541749305,left,-0.0006170868873596191,-0.3521439568109135,-1.4373147768199444,-9.09196034617722,-0.18992102123718888,-0.08818159252405167,0.0008972883224487305,3.3824203780844804,0.004467129707336426
1746728912533978000,5.29497802734375,-0.15663286355810266,0.031025737524032593,-0.018649169505462977,-0.008186118677258492,-0.290429660998642,0.9373419875146839,-0.6291389533809191,left,0.0021448731422424316,-0.3557252041930224,-1.433998345748335,-9.080161187312006,-0.1915537806248237,-0.0721261128783226,0.0008496642112731934,3.4153634472653267,-0.00039321184158325195
1746728912573977900,5.334977783203125,-0.15694438558393503,0.021671365946531296,-0.018450713184248846,-0.01723940670490265,-0.28995638289449077,0.9372426431452786,-0.6285398307349831,left,0.0035542845726013184,-0.35826450163878654,-1.4354668108657003,-9.071118633678555,-0.19277252423696994,-0.0493306964635849,0.0008227527141571045,3.4386955152750014,0.0023931264877319336
1746728912613977900,5.374977783203125,-0.15752559566266178,0.010225237347185612,-0.018515433104373053,-0.01815595105290413,-0.2895943992614957,0.9371857207174518,-0.6281036164582534,left,-0.0001710653305053711,-0.35984310895369653,-1.4398853579603135,-9.064910426688193,-0.1935856034406347,-0.02522219344973564,0.0007800906896591187,3.453189027790725,0.0013714730739593506
1746728912653978000,5.41497802734375,-0.15803097970764418,0.002487456426024437,-0.01867156865981193,-0.008470980450510979,-0.2894616597872717,0.9371538738781258,-0.6280034161045845,left,-0.0028015971183776855,-0.36041450849893797,-1.4441557287558913,-9.06223156286776,-0.19392308820866735,-0.006857067346572876,0.0005943328142166138,3.4584330659240483,0.003294438123703003
1746728912693978000,5.45497802734375,-0.15803097970764418,0.0013240245170891285,-0.01867156865981193,-0.000026063062250614166,-0.2894616597872717,0.9371538738781258,-0.6280034161045845,left,-0.001993834972381592,-0.36041450849893797,-1.4441557287558913,-9.06223156286776,-0.19392308820866735,-0.0007824520580470562,0.0010116100311279297,3.4584330659240483,0.003650844097137451
1746728912733978000,5.49497802734375,-0.15803097970764418,-0.002717418596148491,-0.01867156865981193,0.0026728156954050064,-0.2894616597872717,0.9371538738781258,-0.6280034161045845,left,0.0009748339653015137,-0.36041450849893797,-1.4441557287558913,-9.06223156286776,-0.19392308820866735,0.003346402198076248,0.0011793822050094604,3.4584330659240483,0.002670854330062866
1746728912773978000,5.53497802734375,-0.15803097970764418,-0.006509171798825264,-0.01867156865981193,-0.002992688212543726,-0.2894616597872717,0.9371538738781258,-0.6280034161045845,left,0.0019164681434631348,-0.36041450849893797,-1.4441557287558913,-9.06223156286776,-0.19392308820866735,-0.004595627076923847,0.0013656914234161377,3.4584330659240483,0.004156142473220825
1746728912813977900,5.574977783203125,-0.15817506200091452,-0.0009421342983841896,-0.018614105956390202,-0.006445075385272503,-0.289567739775158,0.9370612135642481,-0.6283400520146151,left,0.0017047524452209473,-0.36099789622921413,-1.4451434246189891,-9.06002966890931,-0.19421787474778032,-0.019925862550735474,0.0017170608043670654,3.463786117389798,0.0039058923721313477
1746728912853977900,5.614977783203125,-0.15845380980177792,0.004890785552561283,-0.018523432555869867,-0.003223671345040202,-0.28952433006087236,0.9369416659703216,-0.6284858850919148,left,-0.0013421177864074707,-0.3623060465406592,-1.4469525198675692,-9.05514423495531,-0.19486671283243517,-0.048509448766708374,0.0025686025619506836,3.4757848904803392,0.004352003335952759
1746728912893978000,5.65497802734375,-0.15863604995604597,0.0021166105289012194,-0.01818508623123192,-0.007079392671585083,-0.2894251944096262,0.9367248622952802,-0.628667425253701,left,0.0014862418174743652,-0.3648697230747356,-1.447190274146199,-9.046051412439345,-0.19608428029350725,-0.06928753852844238,0.0017876923084259033,3.499282378184795,-0.0001875162124633789
1746728912933978000,5.69497802734375,-0.15920832383427225,-0.0063057830557227135,-0.01792195882063415,-0.026184016838669777,-0.2894521895316836,0.9364122541982965,-0.6292606290253484,left,0.010312378406524658,-0.3678528389817699,-1.4507055887907743,-9.034874769386649,-0.19755606666653958,-0.0765950009226799,0.0005259215831756592,3.52659533252418,0.003950268030166626
1746728912973978000,5.73497802734375,-0.16064131459595343,0.00790551770478487,-0.018080113688002823,-0.02909739315509796,-0.2893440176493037,0.9361100850778035,-0.629744000826189,left,0.00017684698104858398,-0.3707822296622158,-1.461992268089205,-9.022550125342606,-0.19912581157541442,-0.05950907617807388,0.0018529444932937622,3.5533857242941855,0.00601997971534729
1746728913013978000,5.77497802734375,-0.16142831236243008,0.024031665176153183,-0.01821475574854017,-0.02239837870001793,-0.2889669710733814,0.9360304051823255,-0.6293491734241067,left,0.0014376044273376465,-0.37250299632923345,-1.468107536099106,-9.015348231139779,-0.20003347766036525,-0.02110709622502327,-0.0006452798843383789,3.569108778604865,0.009184777736663818
1746728913053977900,5.814977783203125,-0.1621016340175898,0.034773893654346466,-0.018589193971240137,-0.031734950840473175,-0.28824290468980024,0.9361815797430123,-0.6280127399491703,left,-0.0001736283302307129,-0.3729727824145056,-1.473906723897159,-9.012702100545168,-0.20033605178394415,0.014460112899541855,0.000038310885429382324,3.573399461536109,0.0064456164836883545
1746728913093977900,5.854977783203125,-0.16260530861733702,0.030597763136029243,-0.019112124025887554,-0.02627522125840187,-0.2874486226907451,0.9364768469487345,-0.62631854482146,left,-0.00045055150985717773,-0.37222985734839303,-1.4788753060899673,-9.014576077723502,-0.20004818959390247,0.044546760618686676,0.00019365549087524414,3.566613746918738,0.0032597482204437256
1746728913133978000,5.89497802734375,-0.16293826877480597,0.017606481909751892,-0.01970060660801987,-0.021759411320090294,-0.28682514465257475,0.9368249455318232,-0.6248056320425435,left,0.001207888126373291,-0.3704463192377299,-1.4829063151717186,-9.02034530877471,-0.19925428545913756,0.0664849579334259,-0.0004044771194458008,3.5503152308076618,0.002432882785797119
1746728913173978000,5.93497802734375,-0.1633500280449491,0.0033181076869368553,-0.02041298300740585,-0.020509537309408188,-0.28648183281110084,0.9371654159106264,-0.6237851879529307,left,-0.0003707408905029297,-0.3677926563461346,-1.488147284565121,-9.028998570829629,-0.1980720143385594,0.07643911242485046,-0.0008324533700942993,3.5260447129040955,0.0021134018898010254
1746728913213978000,5.97497802734375,-0.16386647076343222,-0.003587203100323677,-0.02114349716044036,-0.01827714964747429,-0.2863914561208429,0.9374363100596423,-0.6233058696011287,left,-0.00004494190216064453,-0.36498959055758745,-1.4944165740929543,-9.037944093829394,-0.19684014832171665,0.07353930920362473,-0.0018211305141448975,3.5003804025545713,0.0018326640129089355
1746728913253978000,6.01497802734375,-0.16442359471586313,-0.011539519764482975,-0.021865642825529864,-0.008159994147717953,-0.28646245291011163,0.937658355718755,-0.6231730910046632,left,-0.0012282133102416992,-0.3621422224943951,-1.501076908764988,-9.046905983442068,-0.1955966646996556,0.07379864901304245,-0.0007870793342590332,3.474282669223845,0.002016425132751465
1746728913293977900,6.054977783203125,-0.16483454898614947,-0.006488188169896603,-0.02244307044972596,-0.01384054310619831,-0.28661381728191054,0.9378258335618649,-0.6232324050001765,left,0.002789795398712158,-0.3596597581770153,-1.5062052115641533,-9.054768387380243,-0.19450347643445198,0.05636515095829964,-0.002489134669303894,3.4515061892703174,0.004825860261917114
1746728913333977900,6.094977783203125,-0.16551281051197894,0.0014024730771780014,-0.023089723318596232,-0.016077158972620964,-0.2865512880557923,0.9379948930580879,-0.6229688305523807,left,0.002002537250518799,-0.3577334928489494,-1.5134389622099698,-9.060285689496993,-0.1937030233464131,0.04999595135450363,-0.0012283474206924438,3.4338182646274564,0.0021939873695373535
1746728913373978000,6.13497802734375,-0.16614464162113188,0.0021602576598525047,-0.023720761297832214,-0.009643505327403545,-0.28635914076195046,0.9381929567312993,-0.6224363829827703,left,-0.002884805202484131,-0.3559321364154245,-1.5201837602950632,-9.065413700035213,-0.19295046908458757,0.046631500124931335,-0.00045236945152282715,3.417265773755312,-0.0006624162197113037
1746728913413978000,6.17497802734375,-0.16635161478176635,-0.010057265870273113,-0.02409202083058955,0.00012754835188388824,-0.28631807923755015,0.938341323629351,-0.6221693752022341,left,-0.0031798481941223145,-0.35435093108530685,-1.522952786616981,-9.070416038367151,-0.1922422300098145,0.041462935507297516,-0.0012452751398086548,3.4027269607931374,-0.004389345645904541
1746728913453978000,6.21497802734375,-0.1664635637881572,-0.03287523239850998,-0.024356236764676843,0.006465432699769735,-0.286712829464987,0.9383732874876564,-0.6227916183280863,left,-0.0025491714477539062,-0.3526242815371644,-1.5249394303895532,-9.076026279464363,-0.19146340707747714,0.038138117641210556,-0.0007420629262924194,3.386841409397125,-0.00309830904006958
1746728913493978000,6.25497802734375,-0.16669406873511153,-0.04565054178237915,-0.02459576117213513,0.007660429924726486,-0.28745428635462433,0.9382889299983871,-0.624183620494581,left,-0.0020963549613952637,-0.35094455159955107,-1.527973245127499,-9.08127177890241,-0.19073296234557172,0.03424082696437836,0.000257641077041626,3.3713775905445216,-0.0035944581031799316
1746728913533978000,6.29497802734375,-0.16696852826779385,-0.05050645023584366,-0.024856038105082766,0.011667023412883282,-0.28837733968164037,0.9381648949628091,-0.6259416263666866,left,0.00009381771087646484,-0.34905041807704273,-1.531524215607345,-9.087132779890299,-0.18991409710958537,0.04401351138949394,0.0007978975772857666,3.3539287353545424,-0.004255831241607666
1746728913573977900,6.334977783203125,-0.1668818577539469,-0.04718268662691116,-0.024976431794041614,0.018712740391492844,-0.28937115750973896,0.9380507563132042,-0.6277489341779443,left,0.0014826059341430664,-0.34694995518979044,-1.5319034241832792,-9.094192050752044,-0.18894820117817093,0.03983526676893234,0.00009670853614807129,3.3345649864539504,-0.0001639723777770996
1746728913613977900,6.374977783203125,-0.16667049334537887,-0.03578565642237663,-0.025006199518844613,0.014241168275475502,-0.2902370010150905,0.9379472950326274,-0.6293093710621509,left,0.0010685920715332031,-0.3452091109746573,-1.5309420318052172,-9.100226654741167,-0.18812832535288654,0.03376704081892967,-0.001879677176475525,3.3185052475348114,0.0013852417469024658
1746728913653978000,6.41497802734375,-0.16667998362740682,-0.028371363878250122,-0.025147744794297534,0.004746387712657452,-0.29084224844938095,0.9378927412338772,-0.6303920883987263,left,0.00012117624282836914,-0.34370588768521076,-1.531854178214073,-9.105120856523513,-0.18744498964675743,0.034034520387649536,-0.002386823296546936,3.304629574656486,0.002764791250228882
1746728913693978000,6.45497802734375,-0.1668452554923987,-0.030350513756275177,-0.02535286999065438,0.006823154166340828,-0.2913682924634865,0.9378437154866371,-0.6313559509930848,left,-0.0014794468879699707,-0.3423365905718089,-1.5341091175340116,-9.1093212308228,-0.18684512703273948,0.02773524820804596,-0.0003149658441543579,3.291983735834062,0.0026064515113830566
1746728913733978000,6.49497802734375,-0.16704186283514447,-0.04187430441379547,-0.025517816552982485,0.004696469753980637,-0.29206197644965565,0.9377292724663409,-0.632700979261648,left,0.0020470619201660156,-0.34109238959967464,-1.5365797454312442,-9.113051649522781,-0.18631300444816146,0.03165826201438904,-0.00042660534381866455,3.280487651568651,0.0016399919986724854
1746728913773978000,6.53497802734375,-0.16758430832763735,-0.0481654554605484,-0.025884035144078388,0.000841781497001648,-0.29292054867162354,0.9375872033014149,-0.6344037824477371,left,0.0007212162017822266,-0.3394000875068129,-1.542446737768501,-9.11767755575776,-0.1856282765963088,0.03968058153986931,0.0002639293670654297,3.2648432154521343,0.005499213933944702
1746728913813977900,6.574977783203125,-0.16805240850000808,-0.025271553546190262,-0.026258251236037627,-0.00955443549901247,-0.2936090081414084,0.9375033582644673,-0.6357232960312766,left,0.001422882080078125,-0.3376692499855427,-1.547657458154112,-9.122512136307359,-0.18491036752507095,0.0370844304561615,-0.001225501298904419,3.248832868632674,0.0077766478061676025
1746728913853977900,6.614977783203125,-0.16809075524157474,-0.003907898440957069,-0.026472286509372226,0.01308222021907568,-0.2938576061448487,0.9375471652427038,-0.6360630779929275,left,-0.0067299604415893555,-0.3362499448955972,-1.5487771098338066,-9.126989573982357,-0.18426141738712712,0.03124849498271942,0.0007219165563583374,3.235697200466692,0.003370225429534912
1746728913893978000,6.65497802734375,-0.1673468538335993,0.0017078951932489872,-0.026278268277232505,0.010382250882685184,-0.2938965309131655,0.9376407847189072,-0.6358803136445834,left,0.000671088695526123,-0.33538929625222813,-1.5424503910303116,-9.13088132072389,-0.18374999772404854,0.021604467183351517,0.00042028725147247314,3.227728413544595,0.0018275082111358643
1746728913933978000,6.69497802734375,-0.16704289157476485,-0.001725414302200079,-0.02625811043989285,0.0037332861684262753,-0.293918085880033,0.9377073456423819,-0.6357695916149311,left,0.001897275447845459,-0.3346889177794146,-1.5400503441512583,-9.133577135679126,-0.183378552717623,0.018976544961333275,0.0027301907539367676,3.221241974134743,0.00034874677658081055
1746728913973978000,6.73497802734375,-0.16706383311457912,-0.005853675305843353,-0.026405485578540097,-0.002515082247555256,-0.29400870141205326,0.9377557092637461,-0.6358421702511781,left,0.00237274169921875,-0.3337885697333507,-1.54072327497676,-9.136400960928201,-0.18296434952946392,0.025494663044810295,0.0014324933290481567,3.2129011390298605,0.0017221570014953613
1746728914013978000,6.77497802734375,-0.16731324050995397,-0.0012271632440388203,-0.026685852511869168,-0.012730536051094532,-0.29405716324522857,0.9378183580640312,-0.6358520721620938,left,0.0023995637893676758,-0.3327626708354071,-1.5435500228352843,-9.139261611056327,-0.18252453755605927,0.025889331474900246,-0.0001714080572128296,3.2033941827550527,0.002662092447280884
1746728914053977900,6.814977783203125,-0.16784005812640326,0.003349174279719591,-0.027101570854588954,-0.01440940797328949,-0.29395131055144597,0.9379075288686768,-0.6356025539138229,left,-0.0003224611282348633,-0.33185148246805973,-1.5488514902442694,-9.141321466195583,-0.18217528211619027,0.022937310859560966,-0.0005654692649841309,3.194947256927192,0.002554088830947876
1746728914093977900,6.854977783203125,-0.16838765718250154,0.006448961794376373,-0.027517061577422685,-0.015038049779832363,-0.2937408126415433,0.9380134546949499,-0.6351576248987468,left,0.0005540251731872559,-0.3311132022543361,-1.5542518879830836,-9.142794461357592,-0.18190662949296962,0.023903315886855125,-0.0013875961303710938,3.188101336555183,-0.0002009272575378418
1746728914133978000,6.89497802734375,-0.16876464922918014,-0.0013747066259384155,-0.027856637421876256,-0.004891254007816315,-0.2935976069676639,0.9381124352076387,-0.6348115682016854,left,-0.000853121280670166,-0.3302925615214979,-1.5581374972447752,-9.144784173870086,-0.1815758226281333,0.025751912966370583,-0.0005117505788803101,3.180489692507684,-0.002202838659286499
1746728914173978000,6.93497802734375,-0.1690695752544166,-0.009963121265172958,-0.02813865556345795,-0.004278489854186773,-0.29369214241524505,0.9381499639083761,-0.6349413001285421,left,0.00042110681533813477,-0.32935016590799887,-1.56142952452749,-9.147259039551018,-0.18118446229515758,0.02259109541773796,-0.0010928511619567871,3.1717461218208074,-0.0031588375568389893
1746728914213978000,6.97497802734375,-0.16940886527106783,-0.013002676889300346,-0.028419106356335197,-0.002870295662432909,-0.29391269120059516,0.9381499794640262,-0.6353405108284657,left,-0.0006096363067626953,-0.32836656609597664,-1.5650582364186643,-9.149799371683597,-0.1807828058623152,0.020324304699897766,-0.0005933046340942383,3.1626170589476823,-0.002131164073944092
1746728914253978000,7.01497802734375,-0.16946302721775602,-0.01045320462435484,-0.02855875338422397,0.004274122416973114,-0.2941364115529844,0.9381551506241503,-0.6357007819445927,left,-0.0012620091438293457,-0.3274500423630131,-1.566041986759007,-9.152568251875042,-0.18036992487524015,0.014865482226014137,0.0003574788570404053,3.1541081737995147,-0.0032051801681518555
1746728914293977900,7.054977783203125,-0.16936857028926855,-0.007125668227672577,-0.028566283719205582,0.003145830240100622,-0.2943435684554711,0.9381382179341583,-0.6360520467589076,left,-0.001051187515258789,-0.32692889638790723,-1.5654543961293994,-9.154334677025675,-0.18011882901923204,0.004748481325805187,0.001608237624168396,3.1492686248138546,-0.0026771724224090576
1746728914333977900,7.094977783203125,-0.16936857028926855,-0.0028589200228452682,-0.028566283719205582,-0.0018510068766772747,-0.2943435684554711,0.9381382179341583,-0.6360520467589076,left,0.0002390742301940918,-0.32692889638790723,-1.5654543961293994,-9.154334677025675,-0.18011882901923204,-0.008777477778494358,0.002055615186691284,3.1492686248138546,-0.0019878745079040527
1746728914373978000,7.13497802734375,-0.16966075341187356,0.003930012695491314,-0.028571874369438637,-0.012516174465417862,-0.2944178541338324,0.9380476802405975,-0.6363565662084519,left,0.0007688999176025391,-0.3275777593922973,-1.5677837158598005,-9.151860980388522,-0.18046773359560903,-0.021811146289110184,0.002521991729736328,3.1552938764527436,-0.0009634196758270264
1746728914413978000,7.17497802734375,-0.1701674395216611,0.012267431244254112,-0.028652578639898535,-0.01969853974878788,-0.2942645281326298,0.9379871572675336,-0.6362701240332641,left,-0.00007581710815429688,-0.3286052750383309,-1.571870692912489,-9.147865188750623,-0.18101853378970967,-0.024250110611319542,0.0012404024600982666,3.164832981431484,-0.000039905309677124023
1746728914453978000,7.21497802734375,-0.17069468114980554,0.02021571435034275,-0.028792966057987028,-0.02044619992375374,-0.29390763743600956,0.9379945954229743,-0.6357453522903713,left,0.0007662177085876465,-0.32956882291533207,-1.5761748198471963,-9.144026048979162,-0.18153624414542793,-0.016748948022723198,0.0006492137908935547,3.173774997299909,0.0007883310317993164
1746728914493978000,7.25497802734375,-0.17130080510494264,0.018488088622689247,-0.02903712028368661,-0.022875279188156128,-0.2934445307175845,0.9380550022181625,-0.6349717913986389,left,-0.00008040666580200195,-0.33025828475646796,-1.5813436007872224,-9.140910547307133,-0.18193439263304992,-0.009809920564293861,0.00045871734619140625,3.1801717125996944,0.000690460205078125
1746728914533978000,7.29497802734375,-0.1719861556973601,0.010944592766463757,-0.02936204080819664,-0.021118709817528725,-0.2930398964870667,0.9381209973656007,-0.6342932229541388,left,-0.00012427568435668945,-0.3306227227832059,-1.5874096228279173,-9.138682349863648,-0.18219429444965102,-0.0023949220776557922,-0.0003463327884674072,3.1835522949486967,0.0004646778106689453
1746728914573977900,7.334977783203125,-0.1725575251457204,0.004073440562933683,-0.02963521828253314,-0.013316226191818714,-0.2927971567774858,0.9381563257443444,-0.6339126498699834,left,-0.0011255741119384766,-0.33080729611258786,-1.5925298884510992,-9.137194741654396,-0.18235813421613387,5.07105141878128e-7,-0.0013749301433563232,3.1852643595635888,0.001459658145904541
1746728914613977900,7.374977783203125,-0.1725575251457204,-0.0031472076661884785,-0.02963521828253314,-0.010344506241381168,-0.2927971567774858,0.9381563257443444,-0.6339126498699834,left,-0.0009556412696838379,-0.33080729611258786,-1.5925298884510992,-9.137194741654396,-0.18235813421613387,-0.0008042514673434198,-0.0016158521175384521,3.1852643595635888,0.0021447837352752686
1746728914653978000,7.41497802734375,-0.1725575251457204,-0.009323875419795513,-0.02963521828253314,-0.000012558884918689728,-0.2927971567774858,0.9381563257443444,-0.6339126498699834,left,-0.0004062652587890625,-0.33080729611258786,-1.5925298884510992,-9.137194741654396,-0.18235813421613387,0.0024501767475157976,-0.0017060935497283936,3.1852643595635888,0.0010306239128112793
1746728914693978000,7.45497802734375,-0.17322676640973142,-0.017834797501564026,-0.029946266935395274,-0.005615465342998505,-0.29304090351772205,0.9380789183827447,-0.6345164221233289,left,0.0014436841011047363,-0.3304810500691739,-1.5988235817678271,-9.13714973346889,-0.18231357733100226,0.01014078687876463,-0.0012037009000778198,3.1822382897406816,-0.00027188658714294434
1746728914733978000,7.49497802734375,-0.17374307132647182,-0.023487567901611328,-0.030206797400875604,-0.00380756170488894,-0.29344956604925004,0.937981323943534,-0.6354009087494822,left,0.005743265151977539,-0.32986314928371835,-1.6038805728964507,-9.138257986971736,-0.18211551405429982,0.011329393833875656,-0.0017083734273910522,3.176505883568525,0.0007191002368927002
1746728914773978000,7.53497802734375,-0.1743835594130571,-0.018331658095121384,-0.030525628082194205,0.0008177177514880896,-0.2938105019752037,0.9378893520597271,-0.6362134387786016,left,-0.0052509307861328125,-0.3292868545801861,-1.6100504937030373,-9.13903014038801,-0.18195418241918843,0.013078822754323483,0.0014156550168991089,3.1711586773216722,0.0008934438228607178
1746728914813977900,7.574977783203125,-0.1740363762434661,-0.016881676390767097,-0.03038130962025059,0.018882079049944878,-0.2942007976246311,0.9378251942457622,-0.6369066541675552,left,0.00011539459228515625,-0.3287791219774478,-1.6071560874357818,-9.141173582157492,-0.18167788518228456,0.009388146921992302,-0.0008855611085891724,3.166446554107964,0.0008466839790344238
1746728914853977900,7.614977783203125,-0.1739926018047998,-0.023510651662945747,-0.030349288232149715,0.0037203682586550713,-0.2946278095423167,0.9377274745229787,-0.6377515698365861,left,0.000951230525970459,-0.32837332374103373,-1.6069782466508447,-9.142508630153536,-0.18149579361073379,0.007812924683094025,0.00006175041198730469,3.1626798950508235,0.00020122528076171875
1746728914893978000,7.65497802734375,-0.1741965471629873,-0.022382523864507675,-0.030451283135270943,-0.0002293996512889862,-0.2950728649327323,0.9376254323091323,-0.6386621952183936,left,0.0016055107116699219,-0.32782043333918515,-1.6091456538178026,-9.143901545816659,-0.18128294145408125,0.01099160872399807,0.0002289116382598877,3.1575472083374856,0.0013144314289093018
1746728914933978000,7.69497802734375,-0.17444423016650323,-0.01114509254693985,-0.0306083063395002,-0.002445138292387128,-0.29539847533010266,0.9375645839385253,-0.6393166823263863,left,0.0019989013671875,-0.32719845435025624,-1.6117508678801358,-9.145434746733308,-0.18104068736439874,0.011481448076665401,-0.0012756586074829102,3.1517718398064374,0.002723872661590576
1746728914973978000,7.73497802734375,-0.17468176644434466,-0.003536236472427845,-0.030777833367189374,-0.0028091976419091225,-0.2955078554884699,0.9375601500040813,-0.6395280381186401,left,-0.0007028579711914062,-0.3267189359139027,-1.6141856938116252,-9.146538908582926,-0.1808563681239192,0.010081598535180092,-0.001835852861404419,3.147318367528915,0.0019719302654266357
1746728915013978000,7.77497802734375,-0.17468176644434466,-0.0006744835991412401,-0.030777833367189374,-0.00888002011924982,-0.2955078554884699,0.9375601500040813,-0.6395280381186401,left,0.0008466243743896484,-0.3267189359139027,-1.6141856938116252,-9.146538908582926,-0.1808563681239192,0.006322577595710754,-0.0021751374006271362,3.147318367528915,-0.0003209114074707031
1746728915053977900,7.814977783203125,-0.17540955484624862,-0.0011620629811659455,-0.03117434777825976,-0.0066657583229243755,-0.2954264338968373,0.937579131442802,-0.639452149227458,left,-0.0037636160850524902,-0.3264182587259971,-1.6210070642642675,-9.146293409389257,-0.18082310046989902,0.006645983550697565,-0.0005001723766326904,3.1445258142009376,-0.0011205077171325684
1746728915093977900,7.854977783203125,-0.17540955484624862,-0.006402282509952784,-0.03117434777825976,-0.00335706933401525,-0.2954264338968373,0.937579131442802,-0.639452149227458,left,-0.0008140206336975098,-0.3264182587259971,-1.6210070642642675,-9.146293409389257,-0.18082310046989902,0.002158038318157196,-0.0013867318630218506,3.1445258142009376,-0.0012699365615844727
1746728915133978000,7.89497802734375,-0.17593418982739076,-0.01526966504752636,-0.03141267713055538,-0.006746762897819281,-0.2956655795405583,0.9375036194206681,-0.640024637721274,left,0.0004999637603759766,-0.32614454433359874,-1.625955918843299,-9.14628873321414,-0.1807825017955374,-0.001305512385442853,-0.0009395778179168701,3.141983143980801,-0.0012532472610473633
1746728915173978000,7.93497802734375,-0.176338663935445,-0.014393619261682034,-0.0315508649827372,0.0011910186149179935,-0.29599176346152,0.9373917013955557,-0.6407833892751283,left,0.0005194544792175293,-0.32603806619548387,-1.629713810072094,-9.145959647390246,-0.18080484905576721,-0.004115693271160126,-0.00006201863288879395,3.140993840682506,0.0024850666522979736
1746728915213978000,7.97497802734375,-0.17646974615231478,-0.01137496531009674,-0.03155017079474208,0.00646844832226634,-0.2963134177259659,0.9372853648408183,-0.6414932078415959,left,-0.0002052783966064453,-0.32602543117059,-1.6309196787305176,-9.14578487534523,-0.18082958456093767,-0.0037043592892587185,0.0009666532278060913,3.140876644043624,0.003737837076187134
1746728915253978000,8.01497802734375,-0.17646974615231478,-0.011918168514966965,-0.03155017079474208,0.0029622071888297796,-0.2963134177259659,0.9372853648408183,-0.6414932078415959,left,0.0005358457565307617,-0.32602543117059,-1.6309196787305176,-9.14578487534523,-0.18082958456093767,-0.00004336540587246418,0.002145320177078247,3.140876644043624,0.0031651854515075684
1746728915293977900,8.054977783203125,-0.1766617434810964,-0.0170021653175354,-0.03157052162559883,-0.006148547865450382,-0.296739262046696,0.9371496292533754,-0.6424259736670418,left,0.001646876335144043,-0.32593444597867555,-1.632725851369649,-9.145752726641296,-0.18083056895586916,0.005993242375552654,0.0024267584085464478,3.1400311331301927,0.002922564744949341
1746728915333977900,8.094977783203126,-0.1771700177793889,-0.011962909251451492,-0.03179571746102987,-0.011731036007404327,-0.29704041938605596,0.9370576313900187,-0.6431227499731391,left,-0.00018638372421264648,-0.32562571031111864,-1.6375449420891701,-9.145875476238132,-0.18077378236511815,0.009035974740982056,0.0018739551305770874,3.1371628842175006,0.0034956932067871094
1746728915373978000,8.13497802734375,-0.17769625805554046,-0.0008956519886851311,-0.032102280448897944,-0.013387550599873066,-0.2971251716338959,0.9370483343192749,-0.6433353184011837,left,-0.000488579273223877,-0.3251372457912881,-1.642628382833302,-9.146519619360566,-0.18062869475427995,0.013951839879155159,0.0009259879589080811,3.1326240717440843,0.001738220453262329
1746728915413978000,8.17497802734375,-0.17769625805554046,0.008042392320930958,-0.032102280448897944,-0.014639628119766712,-0.2971251716338959,0.9370483343192749,-0.6433353184011837,left,-0.00048673152923583984,-0.3251372457912881,-1.642628382833302,-9.146519619360566,-0.18062869475427995,0.012320742011070251,0.0007003247737884521,3.1326240717440843,-0.0013589560985565186
1746728915453978000,8.21497802734375,-0.17849227648977276,0.005915362387895584,-0.03261568011663287,-0.015860287472605705,-0.29685212998922905,0.9371479189399782,-0.6428228214658801,left,-0.001025557518005371,-0.32455651977312294,-1.6502314051829277,-9.146998342788219,-0.18046914019805274,0.008553922176361084,0.00013056397438049316,3.127226888875663,-0.0013706684112548828
1746728915493978000,8.25497802734375,-0.1790537102168854,0.005549055524170399,-0.032960183701521914,-0.014733783900737762,-0.29663001802488226,0.9372160891826701,-0.6424172217395213,left,-0.0008155107498168945,-0.32427986549284143,-1.6555205976322291,-9.14692118589878,-0.18041742497042118,0.004986393265426159,-0.00028865039348602295,3.124655284821987,-0.001757204532623291
1746728915533978000,8.29497802734375,-0.1796259151466743,0.001858632080256939,-0.033292008020111,-0.010860688053071499,-0.2965083474581322,0.9372527500236976,-0.6422265100553081,left,-0.0015759468078613281,-0.3239929503753624,-1.6609142733693123,-9.146853965881466,-0.18036597350678663,0.004076872020959854,-0.0005906820297241211,3.121988111439347,-0.002755790948867798
1746728915573977900,8.334977783203126,-0.17998259262944932,-0.0012421610299497843,-0.03351831973004946,-0.007837478071451187,-0.2964784550861911,0.9372745340390246,-0.6421823689467958,left,-0.0014456510543823242,-0.3236522853172018,-1.6643668980412185,-9.147306970345973,-0.1802600201377645,0.004525754600763321,-0.00036647915840148926,3.118821171841025,-0.0019048750400543213
1746728915613977900,8.374977783203125,-0.18033336408343617,-0.004772318061441183,-0.03373790949278179,-0.00961605366319418,-0.29649728904256706,0.9372836470954344,-0.6422366302782083,left,-0.0018182992935180664,-0.3232813247078168,-1.6677828439645468,-9.147859928053617,-0.18014077682201507,0.005406884476542473,-0.00035105645656585693,3.1153719081699847,-0.0020053982734680176
1746728915653978000,8.41497802734375,-0.18033336408343617,-0.0026697954162955284,-0.03373790949278179,-0.012632152996957302,-0.29649728904256706,0.9372836470954344,-0.6422366302782083,left,0.006169795989990234,-0.3232813247078168,-1.6677828439645468,-9.147859928053617,-0.18014077682201507,-0.0007986407727003098,-0.0028477758169174194,3.1153719081699847,0.0010986626148223877
1746728915693978000,8.45497802734375,-0.18110410508166,0.004922380670905113,-0.034130437618571395,-0.0036706821992993355,-0.29646706089533176,0.9372766680432361,-0.642288257860084,left,-0.005715548992156982,-0.3230592551181695,-1.6749575578995048,-9.147252025288342,-0.18015285664722974,-0.0009413733496330678,0.000022396445274353027,3.113306792333722,-0.00039309263229370117
1746728915733978000,8.49497802734375,-0.18110410508166,0.0072278184816241264,-0.034130437618571395,0.005769376643002033,-0.29646706089533176,0.9372766680432361,-0.642288257860084,left,0.0012525320053100586,-0.3230592551181695,-1.6749575578995048,-9.147252025288342,-0.18015285664722974,-0.0027804486453533173,-0.0028246939182281494,3.113306792333722,0.0004037022590637207
1746728915773978000,8.53497802734375,-0.18105035799476055,0.00781625509262085,-0.03412304014019747,-0.0024869702756404877,-0.29623925641410404,0.9373383089419263,-0.6418140439241808,left,0.0009937882423400879,-0.3232131646493239,-1.6743796118810772,-9.146870917016267,-0.18020822687567478,-0.0034660818055272102,-0.0004186183214187622,3.1147379941806195,0.00039118528366088867
1746728915813977900,8.574977783203124,-0.1812862985221747,0.010293150320649147,-0.03422923355013124,-0.005776217207312584,-0.2960284126744227,0.9373747212326572,-0.6414432665415778,left,0.000753939151763916,-0.3234467225772192,-1.6764064415335653,-9.145759740903973,-0.18034521332230594,-0.002874840283766389,-0.0009181499481201172,3.11690978526175,0.0007413327693939209
1746728915853977900,8.614977783203125,-0.1812862985221747,0.012770045548677444,-0.03422923355013124,-0.00906546413898468,-0.2960284126744227,0.9373747212326572,-0.6414432665415778,left,0.0006273984909057617,-0.3234467225772192,-1.6764064415335653,-9.145759740903973,-0.18034521332230594,-0.0022835987620055676,-0.0016243606805801392,3.11690978526175,0.0013129711151123047
1746728915893978000,8.65497802734375,-0.18173438173821946,0.01283557340502739,-0.0344422337366253,-0.0128073301166296,-0.2956148842450893,0.937451845285998,-0.6407041262783575,left,-0.0003891587257385254,-0.3238405449791321,-1.680282406184077,-9.143799254485964,-0.18058158862357138,-0.0027551082894206047,-0.0012750178575515747,3.1205712303787467,0.0020852088928222656
1746728915933978000,8.69497802734375,-0.18220035637080798,0.012198452837765217,-0.03467021908975996,-0.013802928850054741,-0.2952859651843362,0.9375122999889355,-0.6401300673919699,left,0.0002256631851196289,-0.32410219280277586,-1.6843949560694396,-9.142212277555466,-0.18076195259313463,-0.0013717663241550326,-0.0032081156969070435,3.1230037182226775,0.0026012659072875977
1746728915973978000,8.73497802734375,-0.18222322177852054,0.011293932795524597,-0.034742332928465,-0.00596939492970705,-0.2950406659451811,0.9375955357061596,-0.6395992249978383,left,0.000545203685760498,-0.32401913933722515,-1.6846509766571223,-9.142429135176538,-0.18071754198206938,0.00014723115600645542,-0.002924218773841858,3.1222315648064014,0.0013487637042999268
1746728916013978000,8.77497802734375,-0.18222322177852054,0.010389412753283978,-0.034742332928465,0.0018641389906406403,-0.2950406659451811,0.9375955357061596,-0.6395992249978383,left,0.0008426308631896973,-0.32401913933722515,-1.6846509766571223,-9.142429135176538,-0.18071754198206938,0.0016662288689985871,-0.0026664137840270996,3.1222315648064014,0.000017523765563964844
1746728916156816000,8.91781591796875,-0.18164688733195516,-0.0037354021333158016,-0.03441467444955805,0.007326874881982803,-0.2947445578184018,0.9376552504015586,-0.6389597732357865,left,0.000682569167111069,-0.32473350549111485,-1.6789783378481864,-9.141202223730087,-0.18095313105076982,-0.021947210654616356,0.00011386460391804576,3.128871733473241,0.0006890633376315236
1746728916196680000,8.957679931640625,-0.18150687166940857,0.00004527985583990812,-0.0341731917808531,0.009451661258935928,-0.29483608189363214,0.9375556503894819,-0.6392610723080208,left,-0.000680844415910542,-0.3256542761647382,-1.6771775720365345,-9.138599347755312,-0.18136508619557223,-0.023967089131474495,0.00032320115133188665,3.137428257155418,0.000621020095422864
1746728916236679700,8.9976796875,-0.18142698738982918,-0.0009161793277598917,-0.034000772012845897,0.0052332328632473946,-0.29488869608615687,0.9374821033943265,-0.6394625215956524,left,0.00008147954940795898,-0.3263773396014372,-1.6760377543516456,-9.136499745127558,-0.18169232503727714,-0.017886897549033165,0.0006769299507141113,3.1441455827116966,0.0005019009113311768
1746728916276679700,9.0376796875,-0.18142698738982918,0.0024965230841189623,-0.034000772012845897,0.0004028663970530033,-0.29488869608615687,0.9374821033943265,-0.6394625215956524,left,0.0004080533981323242,-0.3263773396014372,-1.6760377543516456,-9.136499745127558,-0.18169232503727714,-0.013279477134346962,-0.00030212104320526123,3.1441455827116966,0.002085268497467041
1746728916316679700,9.0776796875,-0.18146611894255332,0.004085404798388481,-0.0339234420268603,-0.0016163187101483345,-0.29478625029472166,0.9374571360354887,-0.6393468231402293,left,0.000272214412689209,-0.32703524833469955,-1.6760216799996792,-9.134397804412245,-0.1820014714218554,-0.011967322789132595,-0.00005416572093963623,3.15025617454648,0.0018252730369567871
1746728916356680000,9.117679931640625,-0.1815051843343637,0.005674286745488644,-0.03384611007245696,-0.0036355038173496723,-0.2946837547141638,0.937432135908415,-0.6392311263926012,left,0.0001360177993774414,-0.32769319725501483,-1.676003998212516,-9.132291772043704,-0.182310601263121,-0.010655167512595654,0.00019362568855285645,3.1563658895984292,0.0015653669834136963
1746728916396680000,9.157679931640626,-0.18166357178968803,0.0009554685093462467,-0.03384140290565666,-0.0035896373447030783,-0.2946195167691422,0.9374021314211992,-0.6391985032340632,left,-0.0002773404121398926,-0.3282007932134053,-1.677160767032206,-9.130448774525522,-0.18256895471535578,-0.008716102689504623,0.00003834068775177002,3.161078305073082,0.000426560640335083
1746728916436680000,9.197679931640625,-0.18183223792084846,-0.002679150551557541,-0.03387520282456562,-0.0010150210000574589,-0.29469866543839746,0.9373566797727967,-0.6394225964044921,left,-0.0002346634864807129,-0.32835443522370483,-1.67861286553666,-9.12968831154704,-0.18266886977084743,-0.005465532653033733,0.0001589059829711914,3.1625045384839177,0.0017076730728149414
1746728916476679700,9.2376796875,-0.18183223792084846,-0.006313770078122616,-0.03387520282456562,0.0015595953445881605,-0.29469866543839746,0.9373566797727967,-0.6394225964044921,left,-0.00011438131332397461,-0.32835443522370483,-1.67861286553666,-9.12968831154704,-0.18266886977084743,-0.0022149626165628433,0.00013141334056854248,3.1625045384839177,0.0031341910362243652
1746728916516679700,9.2776796875,-0.18201531539572827,-0.004646568559110165,-0.033909696452604325,-0.00031417212449014187,-0.294851427254951,0.9372913176085377,-0.6397993814357054,left,0.0030391812324523926,-0.32845895559626503,-1.6802243923865259,-9.1290558588624,-0.18275075704795585,-0.0018396952655166388,-0.0004341602325439453,3.163474844820797,0.004210621118545532
1746728916556679700,9.3176796875,-0.18219851363640896,-0.00297936680726707,-0.03394419827269805,-0.0021879395935684443,-0.2950042558815147,0.9372260707698741,-0.6401764673821689,left,0.00619274377822876,-0.3285634941101887,-1.6818369421496986,-9.128422237133979,-0.1828326567723489,-0.0014644279144704342,-0.0009996145963668823,3.1644451511576768,0.0052870213985443115
1746728916596680000,9.357679931640625,-0.18219851363640896,0.0046343011781573296,-0.03394419827269805,0.0015522348694503307,-0.2950042558815147,0.9372260707698741,-0.6401764673821689,left,-0.002155780792236328,-0.3285634941101887,-1.6818369421496986,-9.128422237133979,-0.1828326567723489,-0.0019419834716245532,0.0006805956363677979,3.1644451511576768,0.005668908357620239
1746728916636680000,9.397679931640624,-0.18215106749853371,0.0026624342426657677,-0.033860169103030656,-0.006256384775042534,-0.29486750084024627,0.9372279722750683,-0.6399497202743739,left,-0.0009315013885498047,-0.32907422347866305,-1.6811108198322355,-9.126911832571029,-0.1830587663306613,-0.0001197947422042489,0.0021836459636688232,3.1691853314220904,0.003911048173904419
1746728916676680000,9.437679931640625,-0.18210351706245045,0.0006905670743435621,-0.03377614615700681,-0.014065004885196686,-0.2947307287780906,0.9372297912229034,-0.6397229238555804,left,0.0002925395965576172,-0.3295849524146772,-1.6803833823405205,-9.12539850539863,-0.1832848717929427,0.0017023939872160554,0.003686562180519104,3.173924634903669,0.0021532177925109863
1746728916716680000,9.477679931640624,-0.1824336863308377,-0.0011895588831976056,-0.0339226717359924,-0.01621214672923088,-0.2946336189803499,0.9372348798479905,-0.6395980070644469,left,0.00014537572860717773,-0.3297065945394271,-1.6833261577941476,-9.124463270375132,-0.18338783955377752,0.006514233071357012,0.002470076084136963,3.175053346672654,0.0030633211135864258
1746728916756679700,9.5176796875,-0.18276367734160331,0.004575646016746759,-0.03410388853680395,-0.009564940817654133,-0.29453413307473086,0.9372574565054945,-0.6394394589170229,left,0.0005325078964233398,-0.32963210605717136,-1.6863801385372876,-9.124140029770135,-0.18339917134243364,0.008157622069120407,0.00013655424118041992,3.1743621495380996,0.0033407211303710938
1746728916796679700,9.5576796875,-0.18293303274708123,0.005255897529423237,-0.034254517470212104,-0.008351098746061325,-0.29431005918302305,0.937334896088469,-0.6389690412970939,left,0.0005823969841003418,-0.32945785668639155,-1.6880258599177003,-9.124398388445377,-0.18333521446279707,0.009994403459131718,-0.00016804039478302002,3.1727453619912267,0.0015504658222198486
1746728916836679700,9.5976796875,-0.18310243026803175,0.005936148576438427,-0.03440514246678709,-0.007137256674468517,-0.29408591848130594,0.9374122203458486,-0.6384984932775528,left,0.000632166862487793,-0.32928363651387804,-1.6896721658200025,-9.124655578076839,-0.18327122449653604,0.011831184849143028,-0.00047260522842407227,3.171128866705298,-0.00023978948593139648
1746728916876680000,9.637679931640625,-0.18340423926256508,-0.0004950813017785549,-0.03464258647797493,-0.008144326508045197,-0.29392738100532795,0.9374821298878919,-0.6381603238489066,left,-0.00312727689743042,-0.3288804305679981,-1.692659072676301,-9.125401428008079,-0.1831226771831432,0.019788695499300957,0.00010554492473602295,3.1673867575675247,-0.002473205327987671
1746728916916680000,9.677679931640625,-0.18342250234228932,-0.005599291529506445,-0.034766863966801294,-0.00006459187716245651,-0.2939674656485218,0.9375287760971589,-0.6381458126279187,left,-0.0008912086486816406,-0.32817080082427635,-1.6932352651290594,-9.127578187525272,-0.18279579778371535,0.018242085352540016,-0.0007542222738265991,3.1607997803926464,-0.0016804933547973633
1746728916956680000,9.717679931640625,-0.18351639008940854,-0.009112169966101646,-0.03490488275028606,-0.004353715106844902,-0.2941131358366287,0.9375388072059019,-0.6383711667153381,left,0.0002734065055847168,-0.32746004282010166,-1.6945017779335378,-9.129625767704844,-0.18248367165545154,0.012773090973496437,-0.0006983578205108643,3.15420082051903,-0.001453995704650879
1746728916996679700,9.7576796875,-0.18378945249188935,-0.009177206084132195,-0.03508418792486531,-0.0046971882693469524,-0.2942965998240459,0.9375129886501838,-0.638738917685952,left,0.0009990930557250977,-0.32693402063188676,-1.6972976922623813,-9.130792473396658,-0.18228615611725113,0.00718669081106782,0.0005018711090087891,3.149315971086919,-0.0009822249412536621
1746728917036679700,9.7976796875,-0.18406534505984273,-0.007246084976941347,-0.03523563864378685,-0.0024022713769227266,-0.2944749097142391,0.937473859598404,-0.6391213410868124,left,0.00012791156768798828,-0.3265809370018374,-1.7000201029635964,-9.131416742774844,-0.18216965828793444,0.0038937716744840145,0.00040924549102783203,3.1460368032857775,-0.00015076994895935059
1746728917076679700,9.8376796875,-0.18411161620583977,-0.006889098323881626,-0.03526128801192146,-0.0043565332889556885,-0.2945681106068974,0.9374535684988711,-0.6393100855356428,left,0.00037103891372680664,-0.32644998276536497,-1.700517969483137,-9.131742905989288,-0.18211900854584195,0.00342328823171556,0.0006211996078491211,3.1448204132333397,0.00003212690353393555
1746728917116680000,9.877679931640625,-0.18411161620583977,-0.006532111670821905,-0.03526128801192146,-0.006310794502496719,-0.2945681106068974,0.9374535684988711,-0.6393100855356428,left,0.000580906867980957,-0.32644998276536497,-1.700517969483137,-9.131742905989288,-0.18211900854584195,0.0029528047889471054,0.0007823854684829712,3.1448204132333397,0.0000909566879272461
1746728917156680000,9.917679931640626,-0.18448502916754178,-0.007033162284642458,-0.035451292660609805,-0.006704839412122965,-0.2947279851981698,0.9374112258367245,-0.6396796444899284,left,0.00032836198806762695,-0.3261488777979271,-1.7041013809278607,-9.13203750502169,-0.18204085703083794,0.005129862576723099,0.00020034611225128174,3.1420231837302444,0.00016435980796813965
1746728917196680000,9.957679931640625,-0.18485835158554262,-0.007534212898463011,-0.03564130550135398,-0.00709888432174921,-0.294887876810329,0.9373689657319376,-0.640049224657075,left,0.0000756382942199707,-0.32584773917220067,-1.707684353981167,-9.132330350488424,-0.18196271796311622,0.007306920830160379,-0.00038173794746398926,3.1392256619662047,0.0002378523349761963
1746728917236679700,9.9976796875,-0.18524452283544432,-0.0058591035194695,-0.035870356835092335,-0.008174476213753223,-0.2950139303186094,0.937349389194572,-0.6403267145052401,left,-0.00040227174758911133,-0.32539443660730416,-1.711472786478698,-9.133068017113208,-0.18181430690548422,0.011000066995620728,-0.000719904899597168,3.1350138894900677,-0.00008744001388549805
1746728917276679700,10.0376796875,-0.18524452283544432,-0.004778416361659765,-0.035870356835092335,-0.003603165503591299,-0.2950139303186094,0.937349389194572,-0.6403267145052401,left,-0.000838160514831543,-0.32539443660730416,-1.711472786478698,-9.133068017113208,-0.18181430690548422,0.007959188893437386,-0.0003685802221298218,3.1350138894900677,-0.000003129243850708008
1746728917316679700,10.0776796875,-0.18524452283544432,-0.003697729203850031,-0.035870356835092335,0.0009681452065706253,-0.2950139303186094,0.937349389194572,-0.6403267145052401,left,-0.0012740492820739746,-0.32539443660730416,-1.711472786478698,-9.133068017113208,-0.18181430690548422,0.004918310325592756,-0.000017255544662475586,3.1350138894900677,0.00008118152618408203
1746728917356680000,10.117679931640625,-0.18534417425527863,-0.0018161777406930923,-0.03600282174540061,-0.0015501950401812792,-0.29514788083740573,0.9373568446913215,-0.6405368348490174,left,0.0006691813468933105,-0.3247462293491787,-1.7127569810703396,-9.13489289445281,-0.18153204121160088,0.006059369537979364,-0.0005005598068237305,3.1289900991559025,0.002498030662536621
1746728917396680000,10.157679931640626,-0.18534417425527863,0.0037113861180841923,-0.03600282174540061,-0.005935150198638439,-0.29514788083740573,0.9373568446913215,-0.6405368348490174,left,0.0007682442665100098,-0.3247462293491787,-1.7127569810703396,-9.13489289445281,-0.18153204121160088,0.006945598404854536,-0.0007838457822799683,3.1289900991559025,0.003211885690689087
1746728917436680000,10.197679931640625,-0.18557057502424093,0.007019691169261932,-0.036235796597827,-0.006704803556203842,-0.29490100118776885,0.9374635151235619,-0.6399843279458709,left,0.0006306767463684082,-0.32427162961197276,-1.7150988680213688,-9.135963154032826,-0.18133527353146486,0.011475732550024986,-0.001257285475730896,3.124578712454438,0.002097576856613159
1746728917476679700,10.2376796875,-0.18579728533504405,0.010327995754778385,-0.03646876948183401,-0.007474456913769245,-0.2946541713272559,0.9375702183240383,-0.6394321272262379,left,0.0004928112030029297,-0.32379723688806744,-1.7174436775818467,-9.137029906481503,-0.18113848930802084,0.01600586622953415,-0.0017304271459579468,3.1201687870576977,0.000983119010925293
1746728917516679700,10.2776796875,-0.18595264534949557,0.003300050739198923,-0.036683190976808853,0.0020785536617040634,-0.29444244906757616,0.9376787633977476,-0.6389237917717199,left,-0.0010172724723815918,-0.32320526413920586,-1.719204403644055,-9.138576551401615,-0.18087733251067234,0.018499013036489487,-0.0019636452198028564,3.114664636683464,-0.0003089606761932373
1746728917556679700,10.3176796875,-0.185457248062594,-0.005742552224546671,-0.03654347169705637,0.02084513194859028,-0.2945745382720557,0.9377124656358066,-0.639018436140642,left,-0.0016117691993713379,-0.32257889428440795,-1.7150364703096448,-9.141343093505501,-0.18051537900199485,0.011243813671171665,-0.001591712236404419,3.108839291530847,-0.0016129016876220703
1746728917596680000,10.357679931640625,-0.1849619286637831,-0.014785155653953552,-0.03640375044888846,0.03961171209812164,-0.2947066104556487,0.9377460853165063,-0.6391135105555616,left,-0.0022068023681640625,-0.3219526203906446,-1.7108660527572035,-9.144103205868602,-0.1801534089500056,0.003988615237176418,-0.0012199878692626953,3.1030139463782307,-0.0029168426990509033
1746728917636680000,10.397679931640624,-0.18425859749106166,-0.02700074389576912,-0.036073987190572025,0.024797551333904266,-0.2951536893582126,0.9376730606637512,-0.6398706052459759,left,0.0004191398620605469,-0.321530640737259,-1.704674066249281,-9.146590931031108,-0.17986752788636426,0.004047315567731857,-0.0010258108377456665,3.099088005106151,-0.0019887983798980713
1746728917676680000,10.437679931640625,-0.18384810732410312,-0.027466250583529472,-0.03586982682978216,0.018484938889741898,-0.2957533651880622,0.9375486936636742,-0.6409911444854688,left,0.002858102321624756,-0.3209803602841459,-1.70123079392761,-9.148965258947014,-0.1795716042634357,0.004501813556998968,-0.0016887485980987549,3.0939675933524966,0.0018016695976257324
1746728917716680000,10.477679931640624,-0.18363464554850473,-0.01447020098567009,-0.0357727525558111,0.013820840045809746,-0.29620740300055054,0.9374559881861014,-0.6418473560619825,left,0.0013660192489624023,-0.3204873930324476,-1.6995561387136577,-9.150826376643776,-0.1793265425077773,0.007465127855539322,-0.0019791871309280396,3.089379973301291,0.003959447145462036
1746728917756679700,10.5176796875,-0.18339347575131518,-0.0013440726324915886,-0.03570398211530708,0.007486286107450724,-0.296376523075115,0.9374478442945857,-0.6421020036662404,left,0.0003860592842102051,-0.3200732743218958,-1.6975823544226585,-9.152493433073163,-0.17910316854181188,0.009606345556676388,-0.0021541863679885864,3.085525343699753,0.0030316412448883057
1746728917796679700,10.5576796875,-0.18339347575131518,0.0026398920454084873,-0.03570398211530708,0.00717812729999423,-0.296376523075115,0.9374478442945857,-0.6421020036662404,left,-0.000194549560546875,-0.3200732743218958,-1.6975823544226585,-9.152493433073163,-0.17910316854181188,0.007374108768999577,-0.0022916048765182495,3.085525343699753,0.0016293823719024658
1746728917836680000,10.597679931640625,-0.18339347575131518,0.0011624934850260615,-0.03570398211530708,0.005491979420185089,-0.296376523075115,0.9374478442945857,-0.6421020036662404,left,-0.00005614757537841797,-0.3200732743218958,-1.6975823544226585,-9.152493433073163,-0.17910316854181188,0.008629456162452698,-0.0024104416370391846,3.085525343699753,-0.0009914636611938477
1746728917876680000,10.637679931640625,-0.18262760312129497,-0.00323597714304924,-0.035388602755520075,0.009733134880661964,-0.2964816353655534,0.9374736389490825,-0.6421381496110284,left,0.00020205974578857422,-0.3197841236916424,-1.6907340959630905,-9.154667854502797,-0.17885611048355865,0.003959525376558304,-0.0018321573734283447,3.0828336203977464,-0.00132066011428833
1746728917916680000,10.677679931640625,-0.18186186780436542,-0.007634447887539864,-0.03507322961937348,0.01397429034113884,-0.2965867476559919,0.9374994336035795,-0.6421747423615752,left,0.0004596114158630371,-0.31949510158683353,-1.6838846684597433,-9.156835846191644,-0.178609048329276,-0.0007104058749973774,-0.0012540221214294434,3.080142773878574,-0.0016498863697052002
1746728917956680000,10.717679931640625,-0.18116938113260375,-0.015717819333076477,-0.03474161130968276,0.021629635244607925,-0.2968768212168359,0.9374563689462325,-0.64263170455336,left,-0.0007255673408508301,-0.3192867074247057,-1.6776589258126913,-9.158630328392983,-0.17841756022693298,-0.0010603830451145768,0.00046315789222717285,3.0782024534657597,-0.0014973580837249756
1746728917996679700,10.7576796875,-0.18021884945312208,-0.018793080002069473,-0.034222114336165586,0.02520814538002014,-0.29738813867541997,0.9373409236271992,-0.6435359065978021,left,-0.00035822391510009766,-0.3192457224007535,-1.6689752686195074,-9.160345315617322,-0.1782729087846202,-0.005023055709898472,0.0014045089483261108,3.0778207606717944,0.00019687414169311523
1746728918036679700,10.7976796875,-0.1792682679142558,-0.02186834067106247,-0.03370259736009851,0.028786655515432358,-0.2978992544304377,0.9372249174275388,-0.6444400378491967,left,0.000008046627044677734,-0.3192055232158799,-1.6602888349473475,-9.162049196925759,-0.1781281456351511,-0.008985728956758976,0.002345636487007141,3.0774466666623947,0.001890331506729126
1746728918076679700,10.8376796875,-0.17857082624188705,-0.01903044432401657,-0.033274020960357094,0.0227341428399086,-0.29840105557101065,0.9370881530882414,-0.6453932242984439,left,0.0006520748138427734,-0.31930940447218414,-1.653841704634577,-9.162890323925017,-0.1780883435443802,-0.007299700751900673,0.0027200430631637573,3.0784137581288813,0.0018493235111236572
1746728918116680000,10.877679931640625,-0.1778735224404636,-0.016192547976970673,-0.032845436686953965,0.016681628301739693,-0.29890278862803676,0.9369510585195074,-0.646346584052894,left,0.0012953877449035645,-0.3194139735017659,-1.6473950127132235,-9.163724436661601,-0.17804847528036202,-0.00561367254704237,0.003094494342803955,3.079387571597099,0.0018076300621032715
1746728918156680000,10.917679931640626,-0.17744465271676557,-0.0071322256699204445,-0.032563440118269005,0.007909374311566353,-0.29919912742093224,0.9368605274432386,-0.6469235911907237,left,0.0015041232109069824,-0.31959636326534846,-1.6433656110666692,-9.163876996874809,-0.17807842505969185,-0.005896886810660362,0.002766937017440796,3.0810856076866386,0.0019549429416656494
1746728918196680000,10.957679931640625,-0.1773075024305005,0.0009944923222064972,-0.032436368189810126,0.004404179751873016,-0.29909180529258683,0.9368607501452277,-0.6467377512012236,left,-0.00036460161209106445,-0.3200835645312564,-1.64184380832687,-9.16262378194332,-0.17828091619632028,-0.009427412413060665,0.0025028586387634277,3.085621205289662,0.0005120933055877686
1746728918236679700,10.9976796875,-0.1773075024305005,0.009121211245656013,-0.032436368189810126,0.0008989851921796799,-0.29909180529258683,0.9368607501452277,-0.6467377512012236,left,-0.002105534076690674,-0.3200835645312564,-1.64184380832687,-9.16262378194332,-0.17828091619632028,-0.012957938015460968,0.002393975853919983,3.085621205289662,-0.00046828389167785645
1746728918276679700,11.0376796875,-0.177147980524923,0.0009294096380472183,-0.03216004720765683,0.0021869204938411713,-0.2990534050423635,0.936780319794557,-0.6467968834799988,left,0.000014960765838623047,-0.3212884573194839,-1.6397257932595908,-9.159219526457786,-0.17881699938553233,-0.023989219218492508,0.002100035548210144,3.096834673221409,-0.0012636184692382812
1746728918316679700,11.0776796875,-0.17698847685138386,-0.007262391969561577,-0.03188370590456101,0.0034748560283333063,-0.29901493670859325,0.936699559214449,-0.6468559483103931,left,0.0021340250968933105,-0.322493384855601,-1.6376067552790046,-9.15580065792501,-0.17935302459355612,-0.03502050042152405,0.001806020736694336,3.1080440494999286,-0.002058565616607666
1746728918356680000,11.117679931640625,-0.1771808958786836,-0.005239891819655895,-0.03176038538536228,-0.0003989920951426029,-0.29918254209477024,0.9365529882918172,-0.6473951580990362,left,0.0013779997825622559,-0.32350550032513326,-1.6388130623288453,-9.152384127479792,-0.17985980290259634,-0.027068860828876495,0.001474618911743164,3.117456313228607,-0.00039651989936828613
1746728918396680000,11.157679931640626,-0.17737398950879849,-0.003217392135411501,-0.0316370547056931,-0.0042728399857878685,-0.29935006365005035,0.9364062194862308,-0.6479348524406722,left,0.0006208419799804688,-0.32451761253767536,-1.6400227303795516,-9.148957660162448,-0.18036655222104003,-0.019117221236228943,0.0011435449123382568,3.126865362086892,0.0012659132480621338
1746728918436680000,11.197679931640625,-0.17769909862315222,-0.000005318783223628998,-0.031672398608947244,-0.006841379217803478,-0.2993883295372022,0.9363300794021753,-0.6481637404450417,left,-0.0014314651489257812,-0.3251068676120692,-1.6426711990617215,-9.146608466687798,-0.18069202179408544,-0.005844303406774998,0.0019316375255584717,3.1323417476713655,0.0004974603652954102
1746728918476679700,11.2376796875,-0.17809839041129438,0.0057220072485506535,-0.031839376129479284,-0.002024431247264147,-0.29924716398442447,0.9363381402955386,-0.6479720740580093,left,-0.004267871379852295,-0.32533517285112246,-1.6461964505784212,-9.145248284250497,-0.18085457921421808,-0.004684855230152607,0.0022473931312561035,3.134463269869983,0.0005085468292236328
1746728918516679700,11.2776796875,-0.17849770373594673,0.011449333280324936,-0.03200635987365175,0.0027925167232751846,-0.29910599843164687,0.9363462011889024,-0.6477805835792279,left,-0.0071045756340026855,-0.325563588693757,-1.649720971442759,-9.143885179203748,-0.18101713253832125,-0.0035254070535302162,0.002563074231147766,3.136585668851435,0.0005195736885070801
1746728918556679700,11.3176796875,-0.17869941399039843,0.010537737980484962,-0.03206193796832512,-0.0036862888373434544,-0.2988541915415082,0.9363774173164072,-0.6473504078617255,left,-0.004075825214385986,-0.32604040858454153,-1.651299326675385,-9.142079591086507,-0.18126144417630827,-0.0061273700557649136,0.002041071653366089,3.1410157602533695,0.0017629563808441162
1746728918596680000,11.357679931640625,-0.17890092964215626,0.009626142680644989,-0.03211751409458157,-0.010165095329284668,-0.29860228507312375,0.9364085679074402,-0.6469201512729646,left,-0.0010473132133483887,-0.3265173468345986,-1.6528747592985629,-9.140271080359817,-0.1815057392709803,-0.008729333057999611,0.0015187710523605347,3.145446143916249,0.0030063092708587646
1746728918636680000,11.397679931640624,-0.1794415839556014,0.011945707723498344,-0.032352144147073984,-0.014600719325244427,-0.2982909926520489,0.9364501547354764,-0.6464169918348653,left,-0.0005925297737121582,-0.32691118460382596,-1.6575950658187268,-9.13815686468482,-0.18176089871816253,-0.003301875665783882,0.0005026012659072876,3.149104081901908,0.003912538290023804
1746728918676680000,11.437679931640625,-0.17998211788111718,0.014265273697674274,-0.03258677026273322,-0.019036343321204185,-0.2979796334209649,0.9364916262379176,-0.645914035944839,left,-0.00013828277587890625,-0.3273053256272455,-1.6623120113380252,-9.136037388312817,-0.18201602507872028,0.002125582192093134,-0.0005138963460922241,3.152764357975125,0.004818528890609741
1746728918716680000,11.477679931640624,-0.18049025729574308,0.013528349809348583,-0.032903274638986374,-0.018667688593268394,-0.2976436088548166,0.9365860790534388,-0.6452768819663984,left,0.00012248754501342773,-0.3271789549020981,-1.667025595856458,-9.13558321480453,-0.18202267834414207,0.00819435901939869,-0.0018897205591201782,3.1515906380206347,0.004131436347961426
1746728918756679700,11.5176796875,-0.1809984989910987,0.012791426852345467,-0.033219768854767434,-0.018299035727977753,-0.2973076000360181,0.9366803995224773,-0.6446399217553855,left,0.0003829002380371094,-0.3270529385220765,-1.671740057157725,-9.135125534164905,-0.182029302618972,0.014263136312365532,-0.003265470266342163,3.150420425197482,0.003443986177444458
1746728918796679700,11.5576796875,-0.1813499243962209,0.011539201252162457,-0.03351976013997567,-0.008269932121038437,-0.29699915853049036,0.9368013544234196,-0.6439821369210239,left,-0.0007712244987487793,-0.3265880633345429,-1.675214163009077,-9.135977182558179,-0.18185498529654584,0.019216671586036682,-0.0020961016416549683,3.146102854259312,0.0025505423545837402
1746728918836680000,11.597679931640625,-0.18144852512448537,0.008398719131946564,-0.03369259484941413,-0.006300844717770815,-0.2967601549431705,0.9369119953689787,-0.6434232939590325,left,0.0008116364479064941,-0.3261209669334639,-1.676379991918057,-9.137256700974703,-0.18164358614533896,0.013980753719806671,-0.0014625191688537598,3.1417639482721684,0.00006783008575439453
1746728918876680000,11.637679931640625,-0.18145685740559803,0.002155482769012451,-0.033774858524524616,-0.0013323710300028324,-0.2967124473086483,0.936959872700536,-0.6432658123787435,left,0.0006306171417236328,-0.3257262604884987,-1.676679705516994,-9.138461400589346,-0.18145909693344442,0.011889306828379631,-0.0004329383373260498,3.1380969501972196,-0.0006495118141174316
1746728918916680000,11.677679931640625,-0.18145685740559803,-0.004087753593921661,-0.033774858524524616,0.00363610265776515,-0.2967124473086483,0.936959872700536,-0.6432658123787435,left,0.0003268122673034668,-0.3257262604884987,-1.676679705516994,-9.138461400589346,-0.18145909693344442,0.009797859936952591,0.0005660802125930786,3.1380969501972196,-0.001740783452987671
1746728918956680000,11.717679931640625,-0.18169888841728862,-0.008645446971058846,-0.03391713728607232,-0.003437364473938942,-0.29689934906807575,0.9369227591881331,-0.6436543238476412,left,0.00045561790466308594,-0.32533122094381095,-1.679115408231318,-9.13927388601601,-0.18131836308651592,0.004605839028954506,0.00040271878242492676,3.134426444990933,-0.0008623301982879639
1746728918996679700,11.7576796875,-0.1819407424909104,-0.013203141279518604,-0.034059422271261255,-0.010510832071304321,-0.29708620103837996,0.9368856129074944,-0.6440426465484085,left,0.0005841851234436035,-0.3249361228850541,-1.6815496496409177,-9.140084617877006,-0.18117762514355562,-0.0005861818790435791,0.00023920834064483643,3.1307550630018115,0.00001621246337890625
1746728919036679700,11.7976796875,-0.18238298668748146,-0.004441332072019577,-0.03430961188225245,-0.011393928900361061,-0.2971344979033508,0.9368785817957258,-0.644181493629623,left,0.00031757354736328125,-0.32459393458357244,-1.6857858259059488,-9.14039324543476,-0.18108701412773934,0.0041864290833473206,0.0001378953456878662,3.1275746794000265,0.001070559024810791
1746728919076679700,11.8376796875,-0.18282522542809476,0.00432047713547945,-0.03455980968530098,-0.012277025729417801,-0.2971828943465678,0.9368716162204296,-0.6443205320061897,left,0.00005066394805908203,-0.32425177461183013,-1.6900224405623971,-9.140698365861176,-0.18099641555920853,0.00895904004573822,0.00003662705421447754,3.124394295798242,0.0021249055862426758
1746728919116680000,11.877679931640625,-0.1831071384079039,0.005293852183967829,-0.03477588979391901,-0.011682724580168724,-0.29695221412783884,0.9369529137659535,-0.643845783451921,left,0.0003362894058227539,-0.3239991166748515,-1.692742951567471,-9.140997641068697,-0.1809128763211758,0.007769550196826458,0.0002380460500717163,3.1220453945845366,0.0010164976119995117
1746728919156680000,11.917679931640626,-0.18338916888319162,0.006267227232456207,-0.03499196793412162,-0.011088423430919647,-0.2967215168882231,0.9370341287541183,-0.6433710535123862,left,0.0006217360496520996,-0.32374660011939665,-1.695464631616324,-9.141294578188658,-0.18082932053983125,0.006580060347914696,0.000439569354057312,3.119697954675555,-0.00009205937385559082
1746728919196680000,11.957679931640625,-0.18338916888319162,0.0018334402702748775,-0.03499196793412162,-0.009219219908118248,-0.2967215168882231,0.9370341287541183,-0.6433710535123862,left,0.0006613731384277344,-0.32374660011939665,-1.695464631616324,-9.141294578188658,-0.18082932053983125,0.006240536458790302,-0.00009261071681976318,3.119697954675555,0.00018021464347839355
1746728919236679700,11.9976796875,-0.1839398510912907,0.00011099828407168388,-0.03533611651558035,-0.007266071159392595,-0.2965537982984655,0.9370918592904101,-0.6430666763642038,left,0.00028377771377563477,-0.3233854501596912,-1.7007042858354746,-9.141467012146114,-0.18073812977442932,0.007643024902790785,0.0002107471227645874,3.1163398764193055,0.0008273422718048096
1746728919276679700,12.0376796875,-0.18433002648736457,-0.0018298240611329675,-0.03560770345746805,-0.004201781470328569,-0.2964749117743886,0.9371369126386353,-0.6429067395184445,left,0.00012105703353881836,-0.32292751210894527,-1.704532319691032,-9.142204678770899,-0.18058070479176638,0.011585813947021961,0.00008985400199890137,3.112081634452939,0.00035256147384643555
1746728919316679700,12.0776796875,-0.18433002648736457,-0.004944014362990856,-0.03560770345746805,-0.0030739163048565388,-0.2964749117743886,0.9371369126386353,-0.6429067395184445,left,0.0002510547637939453,-0.32292751210894527,-1.704532319691032,-9.142204678770899,-0.18058070479176638,0.008801517076790333,-0.0006647109985351562,3.112081634452939,0.000284343957901001
1746728919356680000,12.117679931640625,-0.1848859628128647,-0.008704405277967453,-0.03594888737069948,-0.011703277006745338,-0.29659558191380514,0.9371267083883159,-0.6431768028747717,left,-0.0006796717643737793,-0.3222802287651159,-1.7099844476170838,-9.143233437296747,-0.18036769957160503,0.009794396348297596,-0.00041294097900390625,3.106061351250112,-0.0006733834743499756
1746728919396680000,12.157679931640626,-0.18540358314961675,-0.007152530364692211,-0.03625261018486436,-0.013699833303689957,-0.2967500496280354,0.9371009294186807,-0.6435228783577714,left,0.004345834255218506,-0.32171136262017724,-1.7150423155285417,-9.144082747602463,-0.18018684131640592,0.010237395763397217,-0.0009226500988006592,3.1007693823218343,0.0016389787197113037
1746728919436680000,12.197679931640625,-0.18540358314961675,0.0044469041749835014,-0.03625261018486436,0.0006867982447147369,-0.2967500496280354,0.9371009294186807,-0.6435228783577714,left,-0.006392538547515869,-0.32171136262017724,-1.7150423155285417,-9.144082747602463,-0.18018684131640592,0.0076181781478226185,0.0008834898471832275,3.1007693823218343,-0.0006105601787567139
1746728919476679700,12.2376796875,-0.18540358314961675,0.006437420845031738,-0.03625261018486436,0.006950560491532087,-0.2967500496280354,0.9371009294186807,-0.6435228783577714,left,0.0011254549026489258,-0.32171136262017724,-1.7150423155285417,-9.144082747602463,-0.18018684131640592,0.0034434152767062187,-0.0010386556386947632,3.1007693823218343,-0.0033645927906036377
1746728919625334800,12.386334716796876,-0.18566955567663798,0.009538721293210983,-0.03654795651336736,-0.003453947603702545,-0.2965288080255398,0.9372211195920426,-0.6429910996628528,left,0.0017364240484312177,-0.32095477150314067,-1.7179069111794232,-9.145929252251982,-0.17986564586586137,-0.0027765531558543444,-0.0014873403124511242,3.093729692943394,0.0026777631137520075
1746728919665334800,12.426334716796875,-0.1858924261684832,0.007117520086467266,-0.03665530124955563,-0.0024505313485860825,-0.2963348931749531,0.9372576134091508,-0.6426454777113891,left,-0.0004918575286865234,-0.3211284522545208,-1.719845916417986,-9.145017398104072,-0.1799729400352521,0.0000631408765912056,-0.0009775608777999878,3.0953458959683773,0.0020238161087036133
1746728919705334800,12.466334716796876,-0.18611529146868724,0.004696318879723549,-0.03676264598574309,-0.0014471152098849416,-0.29614102811348975,0.9372941399944948,-0.6423000872615657,left,-0.0027202963829040527,-0.3213022558815904,-1.7217844832651317,-9.14410554395616,-0.18008023420464517,0.002902835141867399,-0.00046782195568084717,3.0969629757761954,0.0013698041439056396
1746728919745334500,12.50633447265625,-0.18611529146868724,0.0011900179088115692,-0.03676264598574309,-0.0008486638544127345,-0.29614102811348975,0.9372941399944948,-0.6423000872615657,left,-0.001134037971496582,-0.3213022558815904,-1.7217844832651317,-9.14410554395616,-0.18008023420464517,0.001597540802322328,-0.00046478211879730225,3.0969629757761954,0.00035139918327331543
1746728919785334500,12.54633447265625,-0.18611529146868724,-0.0023162830621004105,-0.03676264598574309,-0.00025021249894052744,-0.29614102811348975,0.9372941399944948,-0.6423000872615657,left,0.0004521608352661133,-0.3213022558815904,-1.7217844832651317,-9.14410554395616,-0.18008023420464517,0.00029224634636193514,-0.0004617422819137573,3.0969629757761954,-0.0006670057773590088
1746728919825334800,12.586334716796875,-0.18611529146868724,-0.006276152096688747,-0.03676264598574309,0.0035601393319666386,-0.29614102811348975,0.9372941399944948,-0.6423000872615657,left,-0.0014583468437194824,-0.3213022558815904,-1.7217844832651317,-9.14410554395616,-0.18008023420464517,0.0001410385884810239,0.00019069015979766846,3.0969629757761954,-0.0021984875202178955
1746728919865334800,12.626334716796874,-0.1856713666827573,-0.008592301979660988,-0.03649734119004859,0.00891553983092308,-0.2963205612013278,0.9372438282836497,-0.6426233279146177,left,-0.0016006231307983398,-0.32147588116490244,-1.717625756150484,-9.144340521755813,-0.1801009466499206,-0.010321985930204391,0.00040443241596221924,3.098578594279289,-0.0037662386894226074
1746728919905334800,12.666334716796875,-0.18521503309986628,-0.00924619846045971,-0.03613117389640208,0.01277211308479309,-0.29655039918378384,0.9371375729372187,-0.643122796898744,left,-0.0007104277610778809,-0.3221371737989193,-1.7130749609783291,-9.143107180568576,-0.18034916088563374,-0.025750214233994484,0.0006627291440963745,3.1047306871682405,-0.002012699842453003
1746728920063894500,12.82489453125,-0.18405028124855757,0.00587804289534688,-0.034900572955330424,-0.0017583153676241636,-0.29745767437653176,0.9366525140636184,-0.645275657221993,left,0.0020511569455266,-0.32515184892180415,-1.7007035551831124,-9.135852679395676,-0.18161247812786477,-0.007844682782888412,0.001215725322254002,3.1327596808224913,0.004687356762588024
1746728920103763500,12.864763427734376,-0.1840661779284927,0.020442578941583633,-0.034877664884423974,-0.005529768764972687,-0.2971309584289965,0.9367109223077219,-0.6446588409225507,left,-0.0006773949135094881,-0.3256826630664747,-1.700544272968173,-9.134189714619517,-0.18185018314106527,-0.005325376987457275,0.001197332632727921,3.1376918765276667,0.003241186961531639
1746728920143763500,12.904763427734375,-0.18422008490229336,0.010945814661681652,-0.03487577104626591,-0.0047667063772678375,-0.2969949393458675,0.9367003215304915,-0.6444796339254633,left,-0.0004494190216064453,-0.32623763989484533,-1.7016307530306278,-9.132214615154266,-0.18212721749019462,-0.009034590795636177,0.001089438796043396,3.142847944116592,0.0030333995819091797
1746728920183763500,12.944763427734374,-0.18437393591430357,0.0014490503817796707,-0.034873869016051176,-0.004003644455224276,-0.296858953030975,0.9366896709641376,-0.6443006469388943,left,-0.00022172927856445312,-0.3267926663779136,-1.7027157717883585,-9.130236593079566,-0.18240423939204395,-0.012743804603815079,0.0009813755750656128,3.148003134922683,0.0028256773948669434
1746728920223763700,12.984763671875,-0.18437393591430357,-0.0021266015246510506,-0.034873869016051176,-0.003851665183901787,-0.296858953030975,0.9366896709641376,-0.6443006469388943,left,-0.00033843517303466797,-0.3267926663779136,-1.7027157717883585,-9.130236593079566,-0.18240423939204395,-0.01171614695340395,0.0005443096160888672,3.148003134922683,0.0036952197551727295
1746728920263763700,13.024763671875,-0.18457930338939632,-0.003143125679343939,-0.03486868263414923,-0.006372115574777126,-0.2969161397176727,0.9366205604235632,-0.6445349627792921,left,-0.0001723766326904297,-0.32728433881682933,-1.7043064019806682,-9.128364369466901,-0.1826667435847546,-0.008063551969826221,0.000668451189994812,3.1525694199249146,0.002352774143218994
1746728920303763700,13.064763671875,-0.184784874730252,-0.004159649834036827,-0.03486350247589001,-0.008892565965652466,-0.29697335917260637,0.9365514000938661,-0.6447695734673958,left,-0.000006616115570068359,-0.3277759842828539,-1.7058980550862848,-9.126489223244786,-0.18292924368143657,-0.004410956986248493,0.0007927119731903076,3.1571345358833667,0.0010103881359100342
1746728920343763700,13.104763671875,-0.184784874730252,0.0007022852078080177,-0.03486350247589001,-0.0017841304652392864,-0.29697335917260637,0.9365514000938661,-0.6447695734673958,left,-0.004788398742675781,-0.3277759842828539,-1.7058980550862848,-9.126489223244786,-0.18292924368143657,-0.0035450737923383713,0.00231778621673584,3.1571345358833667,0.0011762678623199463
1746728920383763500,13.144763427734375,-0.184784874730252,0.00556422071531415,-0.03486350247589001,0.005324305035173893,-0.29697335917260637,0.9365514000938661,-0.6447695734673958,left,-0.009570181369781494,-0.3277759842828539,-1.7058980550862848,-9.126489223244786,-0.18292924368143657,-0.0026791903655976057,0.003842875361442566,3.1571345358833667,0.0013421475887298584
1746728920423763500,13.184763427734374,-0.18456283675070675,0.0023308724630624056,-0.03466637879355782,0.00815013237297535,-0.29699710004598984,0.9365097980269499,-0.644854083533287,left,-0.0007500648498535156,-0.328300740652516,-1.7035672740511596,-9.125237761878967,-0.18314096590514148,-0.0068139489740133286,0.0021255910396575928,3.1620062335729595,0.0002085864543914795
1746728920463763700,13.224763671875,-0.18487284658357506,0.0012869344791397452,-0.034741761205380445,-0.0007807677611708641,-0.29709002966545134,0.9364437324089124,-0.6451516069656097,left,-0.0003173947334289551,-0.3285618333799778,-1.7062442381754517,-9.123896868664026,-0.18331319709011892,-0.005127226002514362,0.001580655574798584,3.1644296613276004,0.0017996430397033691
1746728920503763700,13.264763671875,-0.18518302756521623,0.0002429966116324067,-0.034817143617201424,-0.009711666963994503,-0.29718305886315954,0.9363777323273468,-0.6454495693517812,left,0.00011521577835083008,-0.3288228897364994,-1.7089220790825783,-9.122555390927195,-0.18348542827510106,-0.0034405032638460398,0.0010358095169067383,3.166852796821296,0.0033907294273376465
1746728920543763700,13.304763671875,-0.1855296152263557,0.014274603687226772,-0.03497091831267033,-0.013317609205842018,-0.29702251479098335,0.9363963725907158,-0.6452028517006241,left,0.0005173087120056152,-0.32901403422154163,-1.7119719681724905,-9.121367057925463,-0.18362117578302956,-0.0005694709252566099,-0.00010673701763153076,3.168626820756495,0.004835903644561768
1746728920583763700,13.344763671875,-0.1858935246931035,0.02720705047249794,-0.035185395528395086,-0.01842229813337326,-0.2965515814279903,0.9365085698184049,-0.6443034311278035,left,0.00060272216796875,-0.32925066317776464,-1.71515264403522,-9.120006875488162,-0.18376906180516256,0.0018939722795039415,0.00022940337657928467,3.1708228694960474,0.0033867359161376953
1746728920623763500,13.384763427734375,-0.18633833541035089,0.02393222786486149,-0.035462341122894404,-0.02306409366428852,-0.2959725407593999,0.9366530823343141,-0.6431852884175447,left,0.0016093254089355469,-0.32946059682450923,-1.7190857457004487,-9.118588240861893,-0.18391251144046328,0.005089328624308109,-0.0007937997579574585,3.1727707886934278,0.0012091994285583496
1746728920663763500,13.424763427734375,-0.18699836509952672,0.01690424606204033,-0.0358654105021386,-0.02189682051539421,-0.2954639525499629,0.9367855225387399,-0.6422239344514002,left,-0.0020118355751037598,-0.32942656582777036,-1.7251240029513835,-9.117557728770375,-0.18397719955090394,0.009792352095246315,-0.00018167495727539062,3.172455146872997,-0.00022146105766296387
