time,seconds_elapsed,roll,rotationRateZ,quaternionY,rotationRateY,quaternionZ,quaternionW,yaw,devicelocation,accelerationZ,pitch,gravityX,gravityZ,quaternionX,rotationRateX,accelerationX,gravityY,accelerationY
1746738971459685600,0.490685546875,0.24689724841773325,0.008591381832957268,0.12298573219633087,0.0015475908294320107,-1.5235626048572035e-17,0.9919963671617854,-0.007045514796382413,right,0.045004069805145264,0.0567672205540136,2.3928502455472946,-9.493949493718146,0.028597250177699565,-0.01027466170489788,-0.0481925904750824,-0.5563973632359877,0.391096830368042
1746738971499685600,0.530685546875,0.21580382964911077,0.008597753942012787,0.10380534146784133,-0.005279612727463245,0.007324418275447113,0.9854279709260108,0.04393675442595354,right,0.01835685968399048,-0.2668043480136398,2.0256256835259494,-9.240253549590706,-0.13454602411350605,-0.009743980132043362,-0.012840688228607178,2.585525027000904,0.0725662112236023
1746738971539685400,0.570685302734375,0.21034574189407765,0.004072099458426237,0.09877819356632957,-0.0020121729467064142,0.00920707136808167,0.9802031683380026,0.055092225188628705,right,-0.0022320151329040527,-0.34064149324502613,1.9299549400143323,-9.039434624648093,-0.17134749245754136,0.005191595293581486,-0.00046025216579437256,3.276321179538965,0.0034062862396240234
1746738971579685400,0.610685302734375,0.20943864366192583,-0.0020638969726860523,0.09834654585605082,-0.0029148340690881014,0.009124190038555384,0.9802095736892404,0.05481697939999943,right,-0.0016562342643737793,-0.3411190301388953,1.9214289576008914,-9.039650313225389,-0.1715635758821097,0.0038926023989915848,0.0008285194635391235,3.2807346120670435,0.0023211240768432617
1746738971619685400,0.650685302734375,0.20998618334500174,-0.0025921412743628025,0.09862086255268823,-0.001411186414770782,0.009097093226921382,0.9802072478528043,0.054824791062129084,right,0.0013207793235778809,-0.34082155400976016,1.926581664188951,-9.03955094450414,-0.17142080436730436,0.017103342339396477,0.0005662292242050171,3.2779853133589025,-0.0010488033294677734
1746738971659685400,0.690685302734375,0.2100806453519039,0.003374451771378517,0.0986740160235428,0.0004581016837619245,0.009032751486036428,0.9801951958067958,0.054720386723886606,right,-0.00075531005859375,-0.3409156155897283,1.9273712071314453,-9.03906696037948,-0.1714621486960869,0.017604969441890717,0.0003269612789154053,3.2788547896698117,-0.0007650852203369141
1746738971699685600,0.730685546875,0.21010924504676826,-0.0006239935755729675,0.09870238912070256,0.0013955918839201331,0.009036895829591853,0.9802344207635962,0.05468002655579219,right,-0.001225590705871582,-0.34042674588442595,1.927963766197115,-9.04057853398621,-0.17122093335177738,0.02018030174076557,0.0005305111408233643,3.2743361432015896,-0.0012415051460266113
1746738971739685600,0.770685546875,0.20996691084625788,-0.0016290369676426053,0.09865833588229847,-0.0014524190919473767,0.00901263421794322,0.9802926080137616,0.054538435567406895,right,-0.0013172030448913574,-0.33981558846626037,1.9270937053643167,-9.042808484995364,-0.1709140576424971,0.0194231029599905,0.0007296949625015259,3.268685862354934,-0.0003927648067474365
1746738971882488000,0.913488037109375,0.20945248009292466,0.004386058077216148,0.09850221459817865,-0.0023971660993993282,0.00892091221177597,0.9805101979888647,0.05400887822879585,right,-0.001969302073121071,-0.3375113915933751,1.9240024613507092,-9.051142013576627,-0.16975722160084802,0.024662844836711884,0.0008523862925358117,3.247373025213182,-0.0019945811945945024
1746738971922488000,0.953488037109375,0.20929569245716154,0.007090398576110601,0.0984233815880926,-0.00957321934401989,0.009149594803592846,0.9806087221996546,0.05432479118934027,right,0.00010532140731811523,-0.3363855501117428,1.9233418054848908,-9.05501388657391,-0.16922062913389557,0.005776560865342617,-0.0006037354469299316,3.236953045746684,-0.0025344491004943848
1746738971962488000,0.993488037109375,0.2089521837999845,0.000021678279154002666,0.09822044043715043,0.0005815215408802032,0.009457096322819781,0.980658439566227,0.05484551023346274,right,-0.0006947517395019531,-0.3359547396882641,1.9205203183233737,-9.057037501356005,-0.16903359664106168,-0.003413430880755186,0.00024333596229553223,3.2329648528933523,-0.0005747377872467041
1746738972002487800,1.03348779296875,0.209101207566634,-0.007811218500137329,0.09829866904604669,0.007798170670866966,0.009392718084004381,0.9806417760022842,0.054753034638017395,right,-0.0012619495391845703,-0.33607467151225845,1.9217894614763558,-9.056371730923653,-0.16908850008820206,-0.0103690754622221,0.0005265176296234131,3.234075152222812,0.001976102590560913
1746738972042487800,1.07348779296875,0.20929665369934655,-0.010548364371061325,0.09841731319164243,0.00758017972111702,0.009189455236449031,0.980609298079045,0.05440500062010365,right,-0.0016291141510009766,-0.33637413799525234,1.9233581720978021,-9.055048373365402,-0.16921898088939016,-0.007808327674865723,-0.00026626884937286377,3.2368475395455953,-0.0006137490272521973
1746738972082488000,1.113488037109375,0.20934323724617798,-0.0041389549151062965,0.09845027424618576,0.0028829039074480534,0.009064450341077791,0.9805797823754793,0.05419580041317298,right,-0.0024120211601257324,-0.3367182302520861,1.923548433972895,-9.053868223670124,-0.16937744349780542,-0.006640168838202953,0.00011374056339263916,3.2400325993224977,-0.002099841833114624
1746738972122488000,1.153488037109375,0.20938970683959143,0.002270454540848732,0.09848320316319789,-0.001814371906220913,0.008939460060288913,0.9805502637635466,0.05398661782087523,right,-0.0031949877738952637,-0.33706237639521225,1.9237372345432637,-9.052688073974847,-0.16953591490407038,-0.005472010467201471,0.0004939138889312744,3.2432176590994,-0.003585994243621826
1746738972162488000,1.193488037109375,0.20967664084652743,0.014890499413013458,0.09853476876572075,-0.00005103345029056072,0.009465774453896323,0.9805468342009512,0.05508852103539564,right,-0.002623260021209717,-0.3368690468476305,1.926465198202431,-9.052748279729485,-0.16949682866128535,-0.001807723194360733,-0.00086955726146698,3.241428437595069,-0.000053763389587402344
1746738972202488000,1.233488037109375,0.2095271358144357,0.0037683723494410515,0.09845368433628501,-0.0029785558581352234,0.00955678816403001,0.9805684679000595,0.05522830881396757,right,-0.002770066261291504,-0.33668683065674754,1.925234487363696,-9.05361395664811,-0.16941375055824154,-0.0018299233634024858,-0.0005331188440322876,3.2397420919433233,0.0014090240001678467
1746738972242487800,1.27348779296875,0.209360118828587,-0.002623031847178936,0.09838605087262395,-0.0020124465227127075,0.009498331070292595,0.9805818635488827,0.05507427708104753,right,-0.0011026263236999512,-0.3366326231907739,1.9237588618531822,-9.054107293123007,-0.1693788229814008,0.0001852470450103283,-0.00014607608318328857,3.2392402799010274,0.00045236945152282715
1746738972282487800,1.31348779296875,0.20919317804894258,-0.009014435112476349,0.09831844082139488,-0.001046336954459548,0.009439888591136926,0.9805952562893397,0.05492030631002165,right,0.0005647540092468262,-0.33657846627658733,1.922283820864558,-9.054600045076013,-0.1693439304504581,0.0022004174534231424,0.0002409219741821289,3.2387390523806214,-0.0005042850971221924
1746738972429754600,1.460754638671875,0.20958937997117405,0.0013128680875524879,0.09852732798700593,0.0013297208352014422,0.009307482827513092,0.9805703128403783,0.05472718703293603,right,-0.004121970850974321,-0.3366560224080107,1.92581886312291,-9.053591744816302,-0.169374272023745,-0.0005682575283572078,-0.0008726228843443096,3.2394568452611563,-0.0006063795299269259
1746738972469754600,1.500754638671875,0.2090102068208074,0.008617337793111801,0.09819651168348087,-0.006517841015011072,0.009687225817750451,0.9806223057554329,0.05536605287813607,right,-0.000352323055267334,-0.33633089527938886,1.9207932900458573,-9.055735771107672,-0.16924369921657573,-0.0020557178650051355,0.0001525282859802246,3.2364471420511602,-0.000356823205947876
1746738972509754600,1.540754638671875,0.20867672795080183,0.013298087753355503,0.09798426185720752,-0.012434256263077259,0.010071115935221276,0.9806678822194115,0.05604778914951828,right,-0.0014040470123291016,-0.33593196872040604,1.9180406303368507,-9.057637805336713,-0.16908008081541387,0.009212062694132328,-0.0007377117872238159,3.2327541327521203,-0.0014250874519348145
1746738972549754600,1.580754638671875,0.2084028363391746,0.014629913493990898,0.09782168954412371,-0.017280971631407738,0.01032123828821683,0.9807070183083868,0.05647329917021579,right,-0.0020595192909240723,-0.33559012640847025,1.9157883213654159,-9.059243486967683,-0.1689320611600819,0.006288923788815737,-0.003272145986557007,3.2295889467194674,0.0004216432571411133
1746738972589754600,1.620754638671875,0.20818945917753867,0.010541553609073162,0.09770795084486228,-0.020421503111720085,0.010417492379948969,0.9807280345618292,0.05661779061282586,right,-0.00228959321975708,-0.33545239799489396,1.9139470774129033,-9.06008753657639,-0.1688705316560717,0.008186077699065208,-0.0027546286582946777,3.2283135199561714,-0.000045686960220336914
1746738972629755000,1.6607548828125,0.20797606364560076,0.006453193724155426,0.09759421505396935,-0.023562034592032433,0.010513752433914456,0.9807489280818794,0.05676231653906424,right,-0.0025197267532348633,-0.3353146415554226,1.9121055411994456,-9.060930417141318,-0.1688089875374788,0.010083231143653393,-0.002237066626548767,3.2270378009319303,-0.0005129873752593994
1746738972669754600,1.700754638671875,0.2073073750784406,-0.0029300986789166927,0.09727221828722579,0.0009413142688572407,0.01060844528990224,0.9808134041685967,0.0567974679867813,right,-0.0006882548332214355,-0.3349206839257434,1.9063076685756444,-9.063450875529647,-0.1686141698959609,-0.0054510836489498615,-0.0021644234657287598,3.2233895075574517,0.0024344027042388916
1746738972709754600,1.740754638671875,0.20726328969140154,-0.0039651221595704556,0.09725174842856343,0.0024482812732458115,0.010547980052600702,0.980790674608537,0.05670050503810759,right,0.0008460879325866699,-0.33523253740474257,1.9057012271150946,-9.06255071181953,-0.1687619995176864,-0.013266963884234428,-0.0008601248264312744,3.2262776302143927,-0.00043570995330810547
1746738972749754600,1.780754638671875,0.20735783512038553,0.009708664380013943,0.09724017726903758,0.0003836000105366111,0.010610120068885539,0.9806666068818081,0.05700047462425971,right,-0.001360774040222168,-0.336675059385102,1.90559776674062,-9.057806732162833,-0.1694837515790521,-0.012825829908251762,-0.0009659826755523682,3.239633078610897,0.0005463957786560059
1746738972789754600,1.820754638671875,0.2073849155568689,0.009746231138706207,0.09720596131622458,-0.0005719944601878524,0.010855712944829702,0.9806506112448196,0.05752184731441688,right,0.0008797049522399902,-0.33682035255637066,1.9057462353006005,-9.057294106465578,-0.16958040923998347,-0.004567896947264671,0.00026328861713409424,3.240977771218121,-0.00030747056007385254
1746738972829754600,1.860754638671875,0.20741209766887275,0.009783797897398472,0.0971717366383122,-0.0015275890473276377,0.01110130582077314,0.9806346156078306,0.058043267125946436,right,0.003119945526123047,-0.336965773501474,1.9058952883824705,-9.056781480768322,-0.16967711074466207,0.0036900360137224197,0.001492530107498169,3.242323632869124,-0.0011613965034484863
1746738972869755000,1.9007548828125,0.2073871808240657,0.00026079267263412476,0.09715018738964995,-0.0032358597964048386,0.011168830416895651,0.9806401392282278,0.05816995585157333,right,-0.0010628104209899902,-0.33690412300179384,1.9057108717262743,-9.057024057352542,-0.1696529342416139,0.002312312601134181,0.0003051459789276123,3.24175313950479,0.0015718042850494385
1746738972909755000,1.9407548828125,0.2072191001491966,-0.007850812748074532,0.09709248716562952,0.0030880863778293133,0.011011110515455893,0.9806372499634713,0.05783631780418876,right,0.0003012418746948242,-0.3370612485756765,1.9040837089158593,-9.056845778176188,-0.16971276927230697,0.0015446111792698503,-0.0012689083814620972,3.2432074299663305,-0.00022608041763305664
1746738972949754600,1.980754638671875,0.20739996804765465,-0.0038475911132991314,0.09719572173181752,0.008046361617743969,0.010906736310440436,0.9806272695319573,0.0576576505085888,right,-0.0004928708076477051,-0.33708790080755974,1.905703857463598,-9.056416739109158,-0.16971813523847062,0.005955045111477375,-0.0014672130346298218,3.2434540982037783,-0.0012833178043365479
1746738972989754600,2.020754638671875,0.20757986850503896,-0.0013319926802068949,0.09730186831551613,0.006318962201476097,0.010828947836845619,0.9806375840418307,0.05750589752754308,right,-0.0010858774185180664,-0.3368655596372968,1.90748168079108,-9.056779142680764,-0.1696028225018932,0.010489569045603275,-0.0016826838254928589,3.2413962888911363,-0.000992119312286377
1746738973029754600,2.060754638671875,0.20774017638687087,0.00014720228500664234,0.09739346695820983,0.0048060487024486065,0.010807458867840871,0.980659849382691,0.05745015529393692,right,-0.0011990666389465332,-0.3365021423151546,1.9091763558797537,-9.05762553037703,-0.16942296000613058,0.007179528474807739,-0.0014119148254394531,3.2380323654159904,-0.0016486048698425293
1746738973069754600,2.100754638671875,0.20807340415117623,0.0007805922068655491,0.09756685724821136,0.006292641628533602,0.010776450651060083,0.9806680256820811,0.05741202820597561,right,-0.0015059113502502441,-0.3362049697448616,1.912393272099644,-9.057929481759667,-0.16927734815436507,-0.003610720857977867,0.00006125867366790771,3.2352813131421803,-0.00019812583923339844
1746738973109754600,2.140754638671875,0.20835129595322865,-0.0002941915299743414,0.09768666457922759,0.005983426235616207,0.010815903561606085,0.9806394506366046,0.05755949596315751,right,-0.0020163655281066895,-0.3363790049903411,1.9147937573701141,-9.056846947219967,-0.1693712925068487,-0.0068174004554748535,0.00028227269649505615,3.2368925477311015,-0.0007150769233703613
1746738973149755000,2.1807548828125,0.20849853692701537,0.00044212391367182136,0.09774799604431417,0.008298298344016075,0.010846487160866886,0.980623032880922,0.05765897568365554,right,-0.00030237436294555664,-0.33648565678657255,1.91605588626042,-9.0562273540169,-0.1694291841738045,-0.0038998390082269907,0.000279352068901062,3.237879805202782,-0.0006399750709533691
1746738973189754600,2.220754638671875,0.2086159507538156,-0.0025254948996007442,0.09778920556407655,-0.0005143876187503338,0.010908386971233013,0.980606399631128,0.0578189445571906,right,-0.00048279762268066406,-0.33660831022449567,1.9170368601217864,-9.055613606032729,-0.16949771788446855,-0.0013970707077533007,-0.0008794814348220825,3.239015238973498,-0.0013335943222045898
1746738973229754600,2.260754638671875,0.208359204697682,-0.005575480870902538,0.0976844290110149,-0.0008258124580606818,0.010832954782132448,0.9806310739458985,0.057606035190023996,right,-0.00010436773300170898,-0.33647406590536577,1.9148017945460973,-9.056530720877646,-0.16942016526628176,0.00587651040405035,0.0007760524749755859,3.2377725454360244,-0.0009997189044952393
1746738973269754600,2.300754638671875,0.20843329118612064,-0.004042862914502621,0.09773785688989309,0.003995602950453758,0.010705685927950181,0.980618964571158,0.05737226199038271,right,-0.00003808736801147461,-0.3365928002967987,1.915393184567988,-9.056012834483385,-0.16946730729261633,-0.005236633121967316,0.0002830624580383301,3.2388714465886355,-0.00036463141441345215
1746738973309754600,2.340754638671875,0.20860430722389184,-0.0005720864864997566,0.09783293271758846,-0.0010345128830522299,0.010585049118595983,0.9805933807023687,0.057180132738339,right,-0.0006930232048034668,-0.33681527702995595,1.9167925299718975,-9.054979399782418,-0.16956780095108256,-0.0007277526892721653,-0.000025346875190734863,3.240930717206001,0.0000292360782623291
1746738973349754600,2.380754638671875,0.20865129604736102,0.003259157296270132,0.09784192313444771,0.0008499138057231903,0.010629415503771443,0.9805759825401179,0.05729816401067694,right,-0.001347362995147705,-0.33699258105685503,1.9170989655725656,-9.054327073353528,-0.16966065908530786,-0.006664050277322531,-0.00038345158100128174,3.242571762411296,0.0008078515529632568
1746738973389755000,2.4207548828125,0.20869827876556493,0.007090401370078325,0.09785089893672444,0.002734340727329254,0.010673767274364565,0.9805585872862334,0.057416176519385256,right,-0.0020015835762023926,-0.3371698859237261,1.9174052550427614,-9.053674746924639,-0.16975351431116645,-0.012600347399711609,-0.0007415562868118286,3.2442128076165915,0.0015864670276641846
1746738973429754600,2.460754638671875,0.20891658650451345,0.011317317374050617,0.0979059781401448,0.0011924821883440018,0.010880933632206689,0.980512498390016,0.057920310085585,right,-0.0016162395477294922,-0.3375689958070794,1.9191129357434809,-9.051988401272892,-0.16997482739076283,-0.018139496445655823,-0.0023310482501983643,3.2479061091765757,0.0005732178688049316
1746738973469754600,2.500754638671875,0.20939434847159868,0.004536721855401993,0.0980414832755803,0.005401483736932278,0.011237832577262344,0.9804087778111166,0.058831888078444944,right,-0.002939581871032715,-0.3384845251951592,1.922818512263149,-9.048158029329777,-0.17047049348475338,-0.01397516205906868,-0.0015178471803665161,3.2563761236190794,0.0032937824726104736
1746738973509754600,2.540754638671875,0.20945097611010888,0.001640318427234888,0.09806666327463205,0.007323425263166428,0.011179682192279999,0.9803765323431017,0.05876312543302497,right,-0.0016123652458190918,-0.33884808215026274,1.9230846158534287,-9.046890785872936,-0.17064545734170533,-0.011569495312869549,-0.0012369155883789062,3.259738878050446,0.0016364455223083496
1746738973549754600,2.580754638671875,0.20950758784636409,-0.0012560850009322166,0.0980918461820512,0.009245367720723152,0.011121520173832038,0.9803442284167574,0.05869435206798507,right,-0.00028526782989501953,-0.3392116187617217,1.9233502810522913,-9.045622373372316,-0.17082040658407446,-0.009163828566670418,-0.0009559392929077148,3.2631010479599234,-0.000020772218704223633
1746738973589754600,2.620754638671875,0.21010181244589637,0.0030448255129158497,0.09835736382112531,0.01218910701572895,0.011114687056150957,0.9802685882903523,0.058845060042911915,right,-0.0024463534355163574,-0.33976498623766693,1.928348089339584,-9.042710285317897,-0.17110205777101775,-0.009712925180792809,-0.001186653971672058,3.268218244843185,-0.001997619867324829
1746738973629755000,2.6607548828125,0.21045982479263053,0.0005864289123564959,0.09851681289028073,0.010175077244639397,0.011132394347036398,0.9802312136565077,0.0589692638092196,right,-0.0020824074745178223,-0.33999627984038283,1.9314274967849254,-9.041279960253835,-0.17122339927858826,-0.007330674212425947,-0.001628682017326355,3.270356718176603,-0.0028214752674102783
1746738973669754600,2.700754638671875,0.21082140479943412,0.0017195085529237986,0.09869056301067979,0.0032932704780250788,0.011133195756383234,0.9802182917529016,0.0590270342364831,right,-0.001766979694366455,-0.339932872461559,1.9347398362033068,-9.04078370116949,-0.17119721807265728,0.007117380388081074,-0.00020954012870788574,3.2697704427212475,-0.0011861324310302734
1746738973709754600,2.740754638671875,0.21095118451527808,0.0019466497469693422,0.09875495706849087,0.004855572711676359,0.01114667359683648,0.9802244825269684,0.059060046256418565,right,-0.0016474127769470215,-0.33977816541288175,1.936019062358886,-9.0410268622756,-0.1711238256491902,0.0033937287516891956,-0.00064849853515625,3.2683401176571842,-0.0004843473434448242
1746738973749754600,2.780754638671875,0.21108095966337206,0.002173790941014886,0.0988193540346684,0.006417875178158283,0.011160151437289932,0.9802306733010352,0.05909303376803101,right,-0.0015278458595275879,-0.33962343075892604,1.937298288514465,-9.04127002338171,-0.17105041861114073,-0.0003299228847026825,-0.001087471842765808,3.266909208071232,0.0002174973487854004
1746738973789754600,2.820754638671875,0.2113172893310003,0.0012730058515444398,0.09893409370714482,0.004264943301677704,0.011188489398412908,0.980236945518489,0.05916720135750621,right,-0.0006733536720275879,-0.3393992624742518,1.939588445278257,-9.04152779753506,-0.1709456736678519,0.005826552398502827,-0.000845298171043396,3.264836493450403,-0.001212388277053833
1746738973829754600,2.860754638671875,0.21129301865178438,0.002195396926254034,0.09891744494483563,0.0017252357210963964,0.01121285139620663,0.9802356830059441,0.059215605684968066,right,-0.0010200142860412598,-0.33942564308332046,1.9393509832605718,-9.041490388134122,-0.1709608508103325,-0.0020183399319648743,-0.0033544450998306274,3.265080239078402,-0.0028041303157806396
1746738973869755000,2.9007548828125,0.21107370197021535,-0.004534302279353142,0.09883496316965132,0.005124709568917751,0.011127019949310901,0.980264979304062,0.058979310883512104,right,-0.0011973977088928223,-0.3392190442709456,1.9375093009166418,-9.04257526076138,-0.17084677365223488,0.006499322131276131,0.0006697475910186768,3.263169729281962,0.0014684200286865234
1746738973909755000,2.9407548828125,0.21109717798071911,-0.00717319268733263,0.09886957550374001,0.005456754006445408,0.010994472244361743,0.9802661966791006,0.05871176578545275,right,0.00004190206527709961,-0.33920819001210384,1.9377289350166915,-9.042564154845476,-0.1708283647128001,0.0020166472531855106,0.0007741749286651611,3.2630694837778806,0.0009835660457611084
1746738973949754600,2.980754638671875,0.21112058302945025,-0.009812084026634693,0.09890416151703238,0.005788798443973064,0.010861930501646097,0.9802672913207467,0.05844421871774074,right,0.0012812614440917969,-0.3391972675773794,1.9379479845948515,-9.042553633451462,-0.1708099353420497,-0.002466027159243822,0.0008786767721176147,3.2629683614909646,0.0004988610744476318
1746738973989754600,3.020754638671875,0.21103214965403935,-0.004313790705054998,0.09888094340755085,-0.0018224348314106464,0.010731193988806235,0.9802631040636288,0.0581755619488892,right,-0.0017704963684082031,-0.3393189670088498,1.9370652104109525,-9.042336775830387,-0.17085575678939297,-0.0024401734117418528,-0.00045447051525115967,3.2640938583895562,-0.00028640031814575195
1746738974029754600,3.060754638671875,0.21101293421350528,0.007653876673430204,0.0988592986193517,-0.001742410589940846,0.010814882384173925,0.9802683889151592,0.05833592792779265,right,-0.002754688262939453,-0.33925551375666607,1.9369348620295523,-9.042576429805159,-0.1708325184555037,-0.00045350962318480015,0.00016216933727264404,3.263506998412311,0.00036266446113586426
1746738974069754600,3.100754638671875,0.21108713438833224,0.006953905336558819,0.09882152566263115,-0.009679210372269154,0.01125891224919768,0.9802706989835704,0.05924008515659676,right,-0.0007464289665222168,-0.33912291076389633,1.937696494051814,-9.04285583126843,-0.1708126796622581,0.003723129164427519,-0.001842692494392395,3.2622806714877486,-0.000050514936447143555
1746738974109754600,3.140754638671875,0.21104590823537345,-0.001677284948527813,0.09880325815268635,-0.006130428984761238,0.01131240523805091,0.9802990094187137,0.059306123367629235,right,-0.004309654235839844,-0.33879914168536235,1.9375448106214403,-9.043968176424503,-0.1706571867130572,0.008541397750377655,-0.002110406756401062,3.259286458107829,0.0033531486988067627
1746738974149755000,3.1807548828125,0.21084743849588752,-0.004730464890599251,0.09875603741997298,0.00639781029894948,0.011138904981300327,0.9803537135196388,0.05886038713821426,right,-0.00019472837448120117,-0.3382826905943031,1.9361017722062766,-9.045997051903605,-0.17038119168503227,0.00686124712228775,-0.002157151699066162,3.2545091607034204,-0.0018627345561981201
1746738974189754600,3.220754638671875,0.211099328938621,-0.0014935429207980633,0.09890772431078095,0.005232316441833973,0.011020734309336028,0.9803712134383694,0.05862436833211262,right,-0.0024434328079223633,-0.33793353917225094,1.9386182850718496,-9.046619567716121,-0.17019996243763133,0.009602140635251999,-0.000006660819053649902,3.2512790927410125,-0.00200653076171875
1746738974229754600,3.260754638671875,0.2112526827004219,-0.001550092943944037,0.09900285051247981,0.004614055156707764,0.010965413675173879,0.9803960180627949,0.05849524388783075,right,-0.002118527889251709,-0.3375469594440695,1.9402689748883246,-9.047550711086393,-0.17000512239345705,0.007447607349604368,-0.0017036199569702148,3.2477021110370754,-0.0019487440586090088
1746738974269754600,3.300754638671875,0.2112788770657836,0.0006333988858386874,0.09902235744025546,-0.0006615994498133659,0.010958068497310392,0.9804095737012338,0.05846509220701612,right,-0.001509547233581543,-0.33736938783755804,1.9406269945457577,-9.048063336783647,-0.16991679585525865,-0.000018362421542406082,-0.0019923150539398193,3.246059020005166,-0.0023568570613861084
1746738974309754600,3.340754638671875,0.21133580060115978,0.0060405670665204525,0.09902950456989987,0.0007753781974315643,0.011065001934703882,0.9804020282723094,0.05869779858212865,right,0.00009578466415405273,-0.33741173625205717,1.9411131706275044,-9.047818422111868,-0.16994936455567547,-0.003383162198588252,-0.001008540391921997,3.2464509419322014,-0.001382380723953247
1746738974349754600,3.380754638671875,0.21150250248746089,0.006532289087772369,0.09907641202788736,0.0026036822237074375,0.01123559387346909,0.9803845493256711,0.059084161252654185,right,0.000027418136596679688,-0.33749680295707063,1.9425633694358169,-9.047224547871947,-0.1700111012489343,-0.003468043403699994,-0.00028811395168304443,3.2472380006566643,-0.000394970178604126
1746738974389755000,3.4207548828125,0.21162908523280127,-0.0012351260520517826,0.0991090988718684,0.003294418565928936,0.0113561966776643,0.9803601841939974,0.059374425794275584,right,-0.0005314946174621582,-0.3376971246240645,1.943571961956471,-9.04634250434041,-0.17012429385228536,-0.0021801316179335117,0.000994458794593811,3.2490915195688603,0.0008797943592071533
1746738974429754600,3.460754638671875,0.21162413151116286,-0.0003294080379419029,0.09909856966931416,0.0003716791979968548,0.011362607614804987,0.9803426211062009,0.059410522399582985,right,-0.0005980730056762695,-0.3379118220474749,1.9433805310375987,-9.04566971964538,-0.17023118046706792,-0.0018970964010804892,-0.0007888674736022949,3.2510780172109603,-0.0007919669151306152
1746738974469754600,3.500754638671875,0.21130722287299147,-0.0030512113589793444,0.09895985464652525,0.00019051846174988896,0.011316911515994952,0.9803692175809011,0.05924872201944927,right,-0.00021576881408691406,-0.33778979881319143,1.9405970377989112,-9.046673343729973,-0.17016162669670665,0.0024276452604681253,0.002327561378479004,3.2499490131810305,0.0009100735187530518
1746738974509754600,3.540754638671875,0.21153674674349443,-0.008208062499761581,0.09907799760110195,0.007348624523729086,0.011216552840287263,0.9803376535240741,0.05911225376766205,right,-0.0011070966720581055,-0.3380456080762184,1.9424987797670066,-9.045414283579587,-0.1702814179882706,-0.00880467426031828,0.0009031891822814941,3.2523157423123714,0.0013944506645202637
1746738974549754600,3.580754638671875,0.21160063662590414,-0.012255324050784111,0.09913144953343808,0.0022558351047337055,0.011016201637616818,0.9803072094273716,0.058754360588409216,right,-0.0003146529197692871,-0.33840326195796827,1.9428322495050727,-9.044152885341644,-0.1704391420754972,-0.005814248695969582,0.0002565830945968628,3.2556244284689426,0.00039628148078918457
1746738974589754600,3.620754638671875,0.21148144095263205,-0.0033199144527316093,0.09909321612972201,-0.003339031245559454,0.010842800953758353,0.9802853799482667,0.05841974367016725,right,-0.0010067224502563477,-0.33876221889530395,1.9415087458163498,-9.043241031193732,-0.17059767284997726,-0.010594494640827179,-0.0007979422807693481,3.258944805063307,-0.0014081895351409912
1746738974629755000,3.6607548828125,0.2115349190535887,0.011970575898885727,0.09908545546886771,-0.0022377604618668556,0.010955214145395924,0.9802469650366294,0.05870458162498154,right,-0.0027319788932800293,-0.3391777993833194,1.9417079216502606,-9.04181187517345,-0.1708155509535438,-0.009858634322881699,-0.00001341104507446289,3.2627883287489414,-0.0009756982326507568
1746738974669754600,3.700754638671875,0.21167500301554112,0.015607663430273533,0.0990843550061289,-0.007158310152590275,0.01131203176579496,0.9802220837946011,0.05947551015067725,right,-0.0028348565101623535,-0.339344038979291,1.94286045268625,-9.041009911140799,-0.17093590646858425,-0.004269345663487911,-0.0014390945434570312,3.2643256213188168,0.001145005226135254
1746738974709754600,3.740754638671875,0.2116504951557419,0.005335294641554356,0.09903856886615409,-0.000503049697726965,0.011545411709976326,0.9802370213296271,0.0599253647633601,right,-0.001934051513671875,-0.33914591449787046,1.9427746740989387,-9.041689125576616,-0.17086105315876773,-0.00033629313111305237,-0.0016110092401504517,3.2624934374555945,0.002984076738357544
1746738974749754600,3.780754638671875,0.2115715401380999,-0.0054652392864227295,0.09899990378669062,0.00041099783265963197,0.011543006556868629,0.980237074550873,0.05991196151642199,right,-0.0020794272422790527,-0.3391932338873167,1.9420283857762812,-9.041691463664174,-0.17088310723635272,-0.0004654045042116195,-0.0023326873779296875,3.2629312443509697,0.0015545189380645752
1746738974789754600,3.820754638671875,0.21145091401313454,-0.004697183147072792,0.098971689032825,0.004288047086447477,0.01139261618714562,0.9802522349526597,0.059574330274460074,right,-0.0005053877830505371,-0.33910544592821995,1.9409978736847637,-9.042205842927098,-0.17082272030991097,0.0071617914363741875,-0.002176150679588318,3.262119343446195,-0.0013196766376495361
1746738974829754600,3.860754638671875,0.21155847360352342,0.00041913799941539764,0.09903922492472907,0.0060677435249090195,0.011331523599736878,0.980262083258367,0.05944893865661779,right,-0.0015698075294494629,-0.33893021860144795,1.9420904912270605,-9.04255597153902,-0.17073132606454994,0.0029594972729682922,-0.002326592803001404,3.260498756507039,-0.0017546117305755615
1746738974869755000,3.9007548828125,0.21179075415206275,-0.000022952095605432987,0.09915739331940386,0.004659884609282017,0.011298594553128628,0.9802558738636449,0.059415318425703065,right,-0.0018453001976013184,-0.3388683133551108,1.944233202344179,-9.042301704517007,-0.1707006625741242,0.002589923795312643,-0.0006841719150543213,3.259926217316091,-0.00221213698387146
1746738974909755000,3.9407548828125,0.21181403910642146,-0.0010452446294948459,0.09917498910475353,0.002166729187592864,0.011277819232985731,0.9802622568620168,0.05936715039790357,right,-0.0009205341339111328,-0.3387799650798728,1.9445042743705212,-9.04253843588233,-0.17065515043288856,0.00033000833354890347,-0.0008668601512908936,3.259109055714309,-0.002576082944869995
1746738974949754600,3.980754638671875,0.21178533502706096,0.0006955192657187581,0.09915997420433974,0.00042375747580081224,0.011272457937617438,0.9802579149467929,0.05935901994524655,right,-0.0011796951293945312,-0.33885006663473305,1.9441966697260735,-9.042370678099989,-0.1706889151395525,-0.0028807916678488255,-0.0011178404092788696,3.2597572904899716,-0.0022508203983306885
1746738974989754600,4.020754638671875,0.21187354941233175,0.008298714645206928,0.09918935938469765,-0.0025326060131192207,0.011359674629410513,0.9802590943399243,0.059543395004704215,right,-0.0022330880165100098,-0.33876985737118925,1.945049341032654,-9.042454849252104,-0.17065928642562514,0.0020525483414530754,-0.001825287938117981,3.259015532211959,-0.002494990825653076
1746738975029754600,4.060754638671875,0.21182893277213538,0.0095362588763237,0.09913992118800186,-0.005462198052555323,0.011566173558655819,0.9802782873938146,0.05993095246720593,right,-0.003119826316833496,-0.33853652076897095,1.944805741535127,-9.043284870335459,-0.17056400055182347,0.0012802741257473826,-0.0013443529605865479,3.2568571851342916,-0.0006579160690307617
1746738975069754600,4.100754638671875,0.21175982626819526,0.007652957923710346,0.0990719047431972,-0.0025588080752640963,0.011752213466997858,0.9802726237241449,0.06030787687423026,right,0.001122593879699707,-0.3386207937084942,1.9441231660984455,-9.043150430300832,-0.1706235298509113,-0.009866844862699509,-0.0010282546281814575,3.2576366450741885,-0.00036963820457458496
1746738975109754600,4.140754638671875,0.2116122148417591,-0.002706911414861679,0.09897075406651876,-0.0035897628404200077,0.011855427173956663,0.9802463102606909,0.060536418530649005,right,0.00036209821701049805,-0.3390129336566926,1.942519676424563,-9.042187722748517,-0.17082596795425514,-0.006188515108078718,0.000116690993309021,3.261263603399694,-0.0010106861591339111
1746738975149755000,4.1807548828125,0.2118088899104573,-0.009188121184706688,0.09906752152007034,0.00719723803922534,0.011764957047161203,0.980206336353497,0.060427892740421964,right,-0.0015200972557067871,-0.3393879964009495,1.9440407485119997,-9.040608929124474,-0.17100537831301274,-0.011690231040120125,-0.00032939016819000244,3.264732156293094,0.002196758985519409
1746738975189754600,4.220754638671875,0.21195192962303303,-0.012702170759439468,0.09915812957056484,0.004666687920689583,0.011540394362620747,0.9801603513461434,0.060050214707130775,right,-0.0009455084800720215,-0.3398865048819911,1.9449913272351025,-9.038739043599367,-0.17123154355263565,-0.010791040025651455,-0.00029212236404418945,3.269341695915162,0.001042485237121582
1746738975229754600,4.260754638671875,0.21200202831076037,-0.007600200828164816,0.09921119553792526,0.0018731264863163233,0.01126730567064081,0.9801146033445755,0.05956386513174696,right,-0.0026911497116088867,-0.3404439688398501,1.9450603008180856,-9.036858052158355,-0.17148060927810488,-0.011044145561754704,-0.0017965883016586304,3.2744951331555843,-0.0011471807956695557
1746738975269754600,4.300754638671875,0.21195860906404998,0.0059539261274039745,0.09918173091543214,-0.0019377446733415127,0.011232814257034976,0.9800797767060093,0.05953595210615563,right,-0.003213167190551758,-0.3408932514225531,1.944358290028572,-9.035503714939951,-0.17169890852347566,-0.00955047458410263,-0.0002866089344024658,3.2786478689208627,-0.0009000599384307861
1746738975309754600,4.340754638671875,0.21216301847136096,0.016552405431866646,0.09921607915780896,-0.0003939294256269932,0.011515617687617018,0.9800330997767032,0.060193088329109225,right,-0.0009197592735290527,-0.34128943786591576,1.9459315306946634,-9.033835489466785,-0.17192659466333768,-0.016342641785740852,-0.0017724335193634033,3.2823093140378594,0.00008556246757507324
1746738975349754600,4.380754638671875,0.21223205921435803,0.008491096086800098,0.09918291819304755,0.0019108299165964127,0.011832836268374544,0.9800001762760874,0.06088688353841859,right,-0.000303804874420166,-0.34159665621368684,1.946342741844058,-9.032714961004256,-0.17211178127535123,-0.005375996232032776,-0.0008985251188278198,3.285148336856067,0.0009332001209259033
1746738975389755000,4.4207548828125,0.21224509423366414,-0.0015055052936077118,0.09917365215593485,-0.0020634885877370834,0.011892316673374833,0.9799862731150734,0.06102725205715622,right,-0.002634882926940918,-0.3417460269389191,1.9463570626303552,-9.032209349569678,-0.17219193585881892,-0.0019522784277796745,-0.0014906376600265503,3.2865283930376172,0.0012113451957702637
1746738975429754600,4.460754638671875,0.21203120561486452,-0.002552618971094489,0.09908563713313169,0.002293684519827366,0.011797073083944077,0.9799903375155087,0.06080588452157887,right,0.00032448768615722656,-0.3418409205823072,1.9443594590723514,-9.032320993250607,-0.17222613867703881,0.0012337157968431711,-0.0006571114063262939,3.2874051758721468,-0.0008102059364318848
1746738975469754600,4.500754638671875,0.2121573727152973,0.0030185601208359003,0.09915086478554126,0.006201223004609346,0.011755086416324615,0.9799793063211102,0.06074924683372809,right,-0.0018097758293151855,-0.34190251345938283,1.9454563143983483,-9.031877341136337,-0.17225422146730246,0.002567786257714033,-0.0023457854986190796,3.287974207931757,-0.002383589744567871
1746738975509754600,4.540754638671875,0.21246842486793194,0.0017393663292750716,0.09929462047048214,0.0038270107470452785,0.011796632402223676,0.9799714031295911,0.060877530430029914,right,-0.003066420555114746,-0.3418025065346123,1.9483349385745823,-9.031593263497948,-0.17221347179502974,0.0028804237954318523,-0.0012472271919250488,3.2870503710851073,0.0005800127983093262
1746738975549754600,4.580754638671875,0.21261440732294024,-0.0005644640186801553,0.09936246692455812,0.0019196697976440191,0.011827887827789088,0.9799736306715288,0.06095357931518948,right,-0.00232088565826416,-0.34168281780328535,1.9497364759355782,-9.031693216741084,-0.17215953021375968,0.00039531756192445755,-0.00013487040996551514,3.2859444556698203,-0.00037091970443725586
1746738975589754600,4.620754638671875,0.21266631566077202,-0.00015600898768752813,0.09939128374622103,0.0005305665545165539,0.011807426397255618,0.979972658391539,0.06091903262340854,right,-0.0016280412673950195,-0.3416657795309304,1.950217099059373,-9.03164645498991,-0.1721497828542094,0.0001092595630325377,-0.0006781220436096191,3.2857869270205495,-0.00044023990631103516
1746738975629755000,4.6607548828125,0.21278313634095966,0.0038547543808817863,0.09944310101079704,0.002172790002077818,0.011833085749824546,0.9799685244429585,0.06098908913484358,right,-0.0018886327743530273,-0.3416404780830835,1.951289696726948,-9.031499739995597,-0.17214157401308677,-0.0008019915549084544,-0.001914292573928833,3.285553118264675,-0.0015154480934143066
1746738975669754600,4.700754638671875,0.21293091516286722,0.004985499661415815,0.09949919903873575,0.0020514221396297216,0.011920904768955187,0.9799632635327425,0.061189793364469384,right,-0.0024475455284118652,-0.3416004512527975,1.9526520711213349,-9.031340165519714,-0.17213284966135478,-0.0023458367213606834,-0.0014038383960723877,3.285183408169448,-0.0020064115524291992
1746738975709754600,4.740754638671875,0.21300965038203032,0.0005142739973962307,0.099518331083195,-0.0026990065816789865,0.012006393310930303,0.9799502619822537,0.06138885277953545,right,-0.001199960708618164,-0.34169638681015035,1.9532965065047143,-9.030878393226862,-0.1721901680385805,-0.0054053678177297115,-0.0035803020000457764,3.286069835615158,-0.0003590881824493408
1746738975749754600,4.780754638671875,0.21302041763152055,-0.004616450052708387,0.09951140504424687,-0.005561755038797855,0.012050698690364523,0.9799385886637579,0.06149531679884427,right,-0.0032833218574523926,-0.34182251381073225,1.9533061511158942,-9.03045169224739,-0.17225726620122603,0.0005719759501516819,-0.0035576075315475464,3.2872350800022483,-0.0014014840126037598
1746738975789754600,4.820754638671875,0.2130266599657092,-0.008753746747970581,0.0995338419166279,0.0070150746032595634,0.011934609113026245,0.9799373816265385,0.06126258601160051,right,-0.002474963665008545,-0.3418501955612019,1.9533432682558893,-9.030350569960474,-0.17225926991173227,-0.00687822699546814,-0.0015818476676940918,3.287490808328986,0.0009092390537261963
1746738975829754600,4.860754638671875,0.21317686541360845,-0.01164958719164133,0.09963206309672037,0.006040188018232584,0.011721902846106979,0.9799062360241474,0.060889862431206004,right,-0.0016685724258422852,-0.3421621489985195,1.9544826475493609,-9.029054684931038,-0.1723942707009267,-0.003883753903210163,-0.001076817512512207,3.2903730857670306,-0.00008887052536010742
1746738975869755000,4.9007548828125,0.21309920122602904,-0.011226112022995949,0.099641474043441,0.001827422995120287,0.01142523478305235,0.9798989704552024,0.06029045387019857,right,-0.0009340047836303711,-0.342338378187875,1.9536587639458476,-9.028639674389362,-0.17245020149164683,0.00026740366593003273,-0.00008910894393920898,3.2920009792298077,-0.0005068778991699219
1746738975909755000,4.9407548828125,0.21295727304688494,0.002978932112455368,0.0995899866077394,-0.00034795282408595085,0.01131266375648893,0.979897731717224,0.0600488231145308,right,-0.0016510486602783203,-0.34245539496672195,1.952295805029571,-9.028540305668114,-0.17249462097263019,-0.0025458401069045067,-0.0013486295938491821,3.293081760203838,-0.0024515390396118164
1746738975949754600,4.980754638671875,0.21315233509492973,0.010663621127605438,0.09964536019145907,0.003495729062706232,0.0115140302940968,0.9798810566619246,0.060500115985977806,right,-0.0009652972221374512,-0.3425085092563682,1.954019998473674,-9.027988517004252,-0.17254420131167794,-0.003671952523291111,-0.0012187212705612183,3.29357246633023,-0.0005269944667816162
1746738975989754600,5.020754638671875,0.21322646335826617,0.0049466839991509914,0.0996462126246665,0.0009565972723066807,0.011726452499400285,0.9798822974883961,0.060936540393581554,right,0.0007866621017456055,-0.3424175992019218,1.9547525505319236,-9.028135816520452,-0.17252189997334358,0.0036927396431565285,0.00007036328315734863,3.292732800635695,-0.001008838415145874
1746738976029754600,5.060754638671875,0.21337754332404396,-0.003904025536030531,0.09972287837634307,0.004586854483932257,0.011707714645558752,0.9798789159129024,0.060919421575555195,right,-0.0007878541946411133,-0.34236886002969674,1.9561504346311092,-9.027997284832596,-0.17249807947388804,-0.001009911298751831,0.000023931264877319336,3.2922824265196917,-0.0003262162208557129
1746738976069754600,5.100754638671875,0.21344717732994023,-0.004145497921854258,0.09977404433489098,0.0025923370849341154,0.011585806724278006,0.979868474493689,0.060694057824583536,right,-0.0006807446479797363,-0.3424685889177491,1.9567095298185944,-9.02754018871486,-0.1725360503794342,0.0006277702050283551,-0.0004356652498245239,3.293203633017838,-0.0008611977100372314
1746738976109754600,5.140754638671875,0.21362160012038509,-0.0012723198160529137,0.09987242547421099,0.0036947298794984818,0.011496001874195309,0.9798600919307741,0.06054225428816725,right,-0.0021209716796875,-0.3424755860232845,1.9582792633533477,-9.027176031577586,-0.17253289939244132,0.00194984907284379,-0.000998660922050476,3.293268514947593,-0.0018304288387298584
1746738976149755000,5.1807548828125,0.213904156056836,0.0025015505962073803,0.10000980706831374,0.004964090883731842,0.011513432707014477,0.9798611811288604,0.06060647329041001,right,-0.0015327930450439453,-0.34228798017020134,1.9609609036527573,-9.0272263004601,-0.17244592409481452,0.006600913591682911,0.0001418590545654297,3.2915354075446723,-0.0014660358428955078
1746738976189754600,5.220754638671875,0.21411251226062117,0.0015202969079837203,0.10011589516932778,0.0052079991437494755,0.01153704055597077,0.9798784222774832,0.06065342269684695,right,-0.0008715391159057617,-0.3419514743720108,1.963077019023895,-9.027899085155129,-0.17228479174063024,0.007876621559262276,-0.0010537803173065186,3.288426627874374,-0.0014607608318328857
1746738976229754600,5.260754638671875,0.21429492448125834,-0.0016935082385316491,0.10021124784158168,0.00314801256172359,0.011524821091470558,0.9798856551088677,0.0606384494260305,right,-0.0021494030952453613,-0.3417554012957111,1.9648608337007463,-9.028170887833832,-0.1721891334408883,0.0013297353871166706,0.0005417764186859131,3.2866151945382356,-0.0023339688777923584
1746738976269754600,5.300754638671875,0.21439280508778827,-0.001660207868553698,0.10026316336524405,0.00423694821074605,0.011474796623163712,0.9798729417061869,0.06056477060119936,right,-0.0024734139442443848,-0.3418549411781011,1.9656749265626072,-9.027658846658468,-0.17223471345419056,-0.004283074755221605,-0.00032526254653930664,3.2875346474707126,-0.0031498372554779053
1746738976309754600,5.340754638671875,0.21452307813677174,0.000552746350876987,0.10031921664293202,0.0009612347930669785,0.011484307669398322,0.9798559163797071,0.06062091941487267,right,-0.0040932297706604,-0.34197756255500344,1.966765206017345,-9.027008858317137,-0.17229828539675826,-0.004176410846412182,-0.000757858157157898,3.28866774315387,-0.0029883086681365967
1746738976349754600,5.380754638671875,0.21435487634437433,0.003311682492494583,0.10022162513417698,-0.0023423891980201006,0.011581867773294067,0.9798619655580527,0.06079239753639691,right,-0.002066195011138916,-0.341994637343584,1.9652347815796731,-9.027284752649068,-0.17231426478622622,0.00008275732398033142,0.00020891427993774414,3.2888252718031405,-0.0017791986465454102
1746738976389755000,5.4207548828125,0.21405214320862248,0.004175449255853891,0.10005192153386763,-0.006132874172180891,0.011704031416001959,0.9798647594048531,0.06100351839413831,right,-0.0014703869819641113,-0.34212787399368905,1.9624087643735109,-9.02745075686574,-0.1723882899125699,-0.005269133951514959,-0.0021315664052963257,3.2900562749028204,-0.002609342336654663
1746738976429754600,5.460754638671875,0.2135713920955326,-0.002896512858569622,0.09981477358471558,-0.001861930824816227,0.011739646849413336,0.9798824065626274,0.061000394993579364,right,-0.00039756298065185547,-0.34220584390368636,1.9580141826763748,-9.028142246261238,-0.17242345962930852,-0.0014056803192943335,-0.000576317310333252,3.290776698131859,-0.0007055699825286865
1746738976469754600,5.500754638671875,0.21344777085660183,-0.00692397216334939,0.0997563835472056,0.0005520139820873737,0.0116738759366581,0.9798613405891601,0.06088204300714231,right,-0.0016901493072509766,-0.3425409023657648,1.956664375502616,-9.027306379958986,-0.17258082030470087,-0.007200625725090504,-0.0007635951042175293,3.2938717415377496,0.001112431287765503
1746738976509754600,5.540754638671875,0.21319535474449935,-0.007647411897778511,0.09964986406507972,-0.005575952585786581,0.011526210872818063,0.9798442349042245,0.06057860074094641,right,-0.00043278932571411133,-0.34291894277449964,1.9541221436738967,-9.026582157337666,-0.1727492355898443,-0.004181983415037394,-0.0015088766813278198,3.2973633830457922,-0.0002795755863189697
1746738976549754600,5.580754638671875,0.21273257681085345,0.0014678789302706718,0.09944196571007177,-0.011372623965144157,0.01143880578256386,0.9798597449230729,0.06033071178223615,right,-0.0015688538551330566,-0.3430270599789791,1.9498693085350096,-9.027136868610977,-0.17278714185093158,-0.0013581679668277502,-0.002149417996406555,3.298362038694322,-0.0014819204807281494
1746738976589754600,5.620754638671875,0.21238913327510187,0.016929876059293747,0.09923818560464738,-0.010670413263142109,0.011669129460829146,0.9798741359699958,0.06074068944044902,right,-0.0020070672035217285,-0.34303092240290645,1.946766227953136,-9.027793871214985,-0.17280740773432948,-0.004497865214943886,-0.0011873692274093628,3.298397694529593,0.0009055733680725098
1746738976629755000,5.6607548828125,0.21226298348006506,0.014181332662701607,0.0990994388324141,-0.013601797632873058,0.012090286202899552,0.9798640420985046,0.06159321376211342,right,-0.0021271705627441406,-0.3431665241159796,1.945533179026842,-9.027602148035168,-0.17291529090653693,-0.004078151658177376,-0.003947719931602478,3.2996497404173013,0.0013088881969451904
1746738976669754600,5.700754638671875,0.2120595053615765,0.005065443925559521,0.09897363194098668,-0.007730596698820591,0.01231529627338462,0.9798975402910005,0.06198196013298235,right,-0.004357695579528809,-0.3428567825953088,1.9439111307829617,-9.02899623274207,-0.17278171341801998,0.006995345465838909,-0.00395609438419342,3.29678938255012,0.0049505531787872314
1746738976709754600,5.740754638671875,0.2116926145920313,-0.0064223213121294975,0.09881115568406175,-0.008014006540179253,0.012297732509525929,0.9799376211671949,0.06185304252804301,right,-0.0032500028610229492,-0.3426023372564507,1.9407745863229036,-9.030528849136829,-0.17264855678691268,0.004381310194730759,-0.003832295536994934,3.2944393122926354,0.0021986961364746094
1746738976749754600,5.780754638671875,0.2114320758608782,-0.007941732183098793,0.09872378434781014,0.0016126679256558418,0.012128854105641428,0.9799692839648765,0.061440709358346134,right,-0.00022369623184204102,-0.34240691928349576,1.9385567641429602,-9.03166340612471,-0.17253095409873753,0.010344650596380234,-0.00433078408241272,3.292634016436338,-0.0025115907192230225
1746738976789754600,5.820754638671875,0.2114796721757208,-0.004360085353255272,0.09878379710917906,0.005081127863377333,0.01197322385982236,0.9799936915417324,0.06109825120152245,right,-0.0014320611953735352,-0.34210861017430844,1.9391927239589393,-9.032530836609006,-0.1723683403858522,0.008489144966006279,-0.0044548362493515015,3.2898782879874107,-0.0038768351078033447
1746738976829754600,5.860754638671875,0.211601027814789,-0.0012635099701583385,0.098856588516661,0.0032048928551375866,0.011913040868187185,0.9799997124273749,0.06098155067826404,right,-0.0028380751609802246,-0.3419719652812255,1.9403832489177584,-9.032734834748506,-0.17229642155720387,0.001447602640837431,-0.003587886691093445,3.288616012966633,-0.0027893781661987305
1746738976869755000,5.9007548828125,0.2116766898922825,-0.0002910182229243219,0.09889209228772157,-0.00030720210634171963,0.01190866674917145,0.9799929254432972,0.06098990548420891,right,-0.0026358962059020996,-0.3420076566096056,1.941042005087435,-9.032473553463817,-0.17231476043763208,-0.002228223253041506,-0.0027407556772232056,3.288945683312416,-0.003857642412185669
1746738976909755000,5.9407548828125,0.21172850990934958,0.003818834200501442,0.09890744699738972,0.0026533552445471287,0.011948755130059652,0.9799843399439997,0.06108814635970891,right,-0.001631021499633789,-0.3420732836039133,1.9414647605441508,-9.032162003296612,-0.1723520467337732,-0.004877140745520592,-0.0022769272327423096,3.2895521247729658,-0.002877354621887207
1746738976949754600,5.980754638671875,0.21190319409018188,0.004148137290030718,0.09896772114494275,-0.0012275169137865305,0.012044442037293884,0.9799598282174073,0.06133352873677534,right,-0.0019531846046447754,-0.34224692827007897,1.9429222658760845,-9.031264177674055,-0.17245021829575474,-0.003519629593938589,-0.0021144449710845947,3.2911560528382657,-0.000964045524597168
1746738976989754600,6.020754638671875,0.21192594762577804,0.004188403952866793,0.09896353054966595,-0.0011005245614796877,0.012127086621042069,0.9799565086431812,0.061507702308614465,right,-0.0030264854431152344,-0.3422603543730302,1.9431185191005467,-9.031176499390602,-0.17246555008532127,-0.0006062788888812065,-0.002067387104034424,3.291280263739824,-0.000515371561050415
1746738977029754600,6.060754638671875,0.21185092572354872,0.00231166067533195,0.09891253610980483,-0.003443265100941062,0.0121803081305831,0.9799448234043181,0.06162297320008677,right,-0.0012460947036743164,-0.3424383183077766,1.9423178702421484,-9.030749798411131,-0.17255788118174628,-0.004893744830042124,-0.0048609524965286255,3.2929242315545677,-0.002616405487060547
1746738977069754600,6.100754638671875,0.21166196410705454,-0.004631614312529564,0.09882893091625031,0.005108238197863102,0.012124408303015791,0.9799457985507051,0.06148796375488919,right,-0.000811457633972168,-0.34254911341558736,1.9405346400871872,-9.030759735283254,-0.17260428062941605,-0.004180323798209429,-0.0018082112073898315,3.293947437122464,-0.0015004873275756836
1746738977109754600,6.140754638671875,0.21187059927695953,-0.006714120507240295,0.09893571423788289,0.009431135840713978,0.012001383799200682,0.9799020323969202,0.0613198399804484,right,-0.0007135272026062012,-0.3429632961767251,1.9421317000202833,-9.029020198139548,-0.17279993556147752,-0.009436151944100857,-0.0026310086250305176,3.2977731328904625,-0.0008507966995239258
1746738977149755000,6.1807548828125,0.21203589632682052,-0.00904657132923603,0.09902704377021547,0.005789179354906082,0.011845706903888548,0.9798591730564566,0.06107967826975941,right,-0.0002009868621826172,-0.3433970901143808,1.9433228095009922,-9.02729936569631,-0.17300132726959042,-0.011858329176902771,-0.0007410496473312378,3.3017791536614296,-0.0002397000789642334
1746738977189754600,6.220754638671875,0.2121428906217542,-0.0037833978421986103,0.09908193862418216,0.005163396708667278,0.011701873205582067,0.9798022275921782,0.06087571551049399,right,-0.0009657144546508789,-0.3440303289090727,1.943848148549348,-9.025046033811568,-0.1733017458703546,-0.01722288876771927,-0.0017235130071640015,3.30762583386302,-0.0018787980079650879
1746738977229754600,6.260754638671875,0.21248373462137918,0.007445985917001963,0.09920313319583803,0.0085415905341506,0.011782666063787691,0.9797184478428366,0.06118799516160564,right,-0.0027742981910705566,-0.3448084472409329,1.9463807357668876,-9.021863896644115,-0.17369998542748538,-0.02167775109410286,-0.000674709677696228,3.3148084388434884,-0.00020071864128112793
1746738977269754600,6.300754638671875,0.21288075134963938,0.010477978736162186,0.09932308281707504,-0.006164430640637875,0.012042013397798567,0.9796394885289131,0.06186181742757869,right,-0.0032848715782165527,-0.34546803812932214,1.9495000368312,-9.018951808589696,-0.17405852008046765,-0.006739187985658646,-0.003350690007209778,3.32089535754174,0.000035375356674194336
1746738977309754600,6.340754638671875,0.21300981096497937,0.0019244151189923286,0.09936116174655449,-0.0009714118205010891,0.012217595585194833,0.9796506739407288,0.06221671667563319,right,-0.0045986175537109375,-0.34523202013549176,1.9508296779997645,-9.019465603330731,-0.17396146128693216,0.0023713205009698868,-0.0033842623233795166,3.3187174289807677,0.003628343343734741
1746738977349754600,6.380754638671875,0.21302052430525154,-0.007723722606897354,0.09937388001102516,0.005427193362265825,0.012160454539852312,0.979644724830572,0.06211020256292099,right,-0.0013076066970825195,-0.34530544902374627,1.9508748323157428,-9.0192066601336,-0.17399214557321885,-0.005088989622890949,-0.003279268741607666,3.3193948898509142,0.0010706782341003418
1746738977389755000,6.4207548828125,0.2132580012778182,-0.006534145213663578,0.0995185610300531,0.010083729401230812,0.011963985793345086,0.9796279114157206,0.061760746114408065,right,-0.00124281644821167,-0.3453897244613906,1.9529573376782237,-9.018469578030706,-0.17401744325905846,0.008515497669577599,-0.004361197352409363,3.3201725962251425,-0.002366691827774048
1746738977429754600,6.460754638671875,0.21351004478834368,-0.0020414190366864204,0.09968122127148608,0.007970491424202919,0.011799378851237084,0.979651492138825,0.06142357183161593,right,-0.0023097991943359375,-0.3449816998132746,1.9555172512941061,-9.01930018363595,-0.17380252623280473,0.013938967138528824,-0.002498835325241089,3.3164073984727263,-0.001336127519607544
1746738977469754600,6.500754638671875,0.21376234324599236,-0.0017999106785282493,0.09983469236493697,0.007189975120127201,0.011684699098952332,0.9796734023183173,0.061189617734872734,right,-0.0030589699745178223,-0.3445855443760382,1.9580713196910917,-9.020089872708915,-0.17359851256213243,0.007838784717023373,-0.0030544698238372803,3.3127509217917916,-0.0020957887172698975
1746738977509754600,6.540754638671875,0.21393308436176658,-0.0005277154268696904,0.09993561914525392,0.0025878860615193844,0.01161397368486744,0.9796840129043867,0.06105089784343329,right,-0.0022406578063964844,-0.3443672620921355,1.959764825735986,-9.020461628630757,-0.17348576188810197,0.003482445143163204,-0.0021691173315048218,3.310736074838042,-0.0028798282146453857
1746738977549754600,6.580754638671875,0.2141971140664898,0.0014052935875952244,0.10005899857360152,0.008751168847084045,0.01161914689077357,0.9796680939224282,0.0611114632896508,right,-0.00199967622756958,-0.34439608740034483,1.9621261480398475,-9.019850803256034,-0.1735044199156164,-0.00564508605748415,-0.0025628209114074707,3.3110023245587943,-0.003385484218597412
1746738977589754600,6.620754638671875,0.2146217130119937,0.0050199320539832115,0.10023369897894542,0.008579518646001816,0.011700570998488306,0.9796148183679668,0.061393891840656134,right,-0.002475261688232422,-0.344758855989173,1.9656999148733914,-9.017842970564962,-0.17369853403063493,-0.010382644832134247,-0.0015884488821029663,3.314350758203864,-0.0025272369384765625
1746738977629755000,6.6607548828125,0.21490430798087465,0.00043194228783249855,0.1003477273411636,0.0015422701835632324,0.011749143995683614,0.9795716051883414,0.06158105377702934,right,-0.0021950602531433105,-0.34509365014007365,1.968011406686157,-9.016202217620611,-0.1738733572944952,-0.007159894332289696,-0.0012822449207305908,3.317440540912747,-0.0006147325038909912
1746738977669754600,6.700754638671875,0.21497949436837027,-0.0035211313515901566,0.10036535150403574,-0.006360029801726341,0.011803754769299384,0.9795465164174577,0.06173355134241791,right,-0.004010438919067383,-0.345337892903573,1.968516433598846,-9.015262306421995,-0.17400093356075655,-0.002125456463545561,-0.0033533424139022827,3.3196944573193785,-0.0022316575050354004
1746738977709754600,6.740754638671875,0.21491409523517926,-0.004323564004153013,0.10034870230976142,0.005000611767172813,0.011709457422326366,0.979545105223328,0.06153729477884031,right,-0.0026830434799194336,-0.34540762656170154,1.9678774050429462,-9.015165275788307,-0.17402481641076123,-0.002127728657796979,-0.0015369504690170288,3.320337723658979,0.0006631016731262207
1746738977749754600,6.780754638671875,0.21494803563600978,-0.0032682069577276707,0.1003818623867627,0.002539224224165082,0.011587515764423883,0.979533272728315,0.06130967140926441,right,-0.0007259249687194824,-0.3455429684267582,1.9680875406622886,-9.014659079831839,-0.17407982145609935,-0.0026806816458702087,-0.0017152130603790283,3.321586554676294,-0.0003872513771057129
1746738977789754600,6.820754638671875,0.2149563934413246,-0.0040161279030144215,0.10040106947757534,0.002710264641791582,0.011466941261588648,0.9795189195457255,0.06108553564824495,right,-0.0016475915908813477,-0.3457247183879352,1.9680340569093822,-9.014052346110343,-0.17415752906058463,-0.003235484706237912,-0.0015554577112197876,3.3232635479778048,-0.001210331916809082
1746738977829754600,6.860754638671875,0.21497740822536657,0.0018139849416911602,0.10041208762234148,0.0013421099865809083,0.01141632785057593,0.9794986658906321,0.06101237462741881,right,-0.0033252835273742676,-0.3459583987216249,1.9680577300459146,-9.013252135643363,-0.1742682934710174,-0.007279699668288231,-0.0008959174156188965,3.3254195569679137,-0.0028786957263946533
1746738977869755000,6.9007548828125,0.21520488785301262,0.011397184804081917,0.10048192760356117,0.0008907067822292447,0.011567017940133631,0.9794573740370712,0.061397815370366364,right,-0.003936588764190674,-0.3462873206163663,1.9698744240790604,-9.011735301339625,-0.1744498658609677,-0.0144051443785429,-0.0019282251596450806,3.328453810097277,-0.0006161928176879883
1746738977909755000,6.9407548828125,0.2153535563841235,0.009239845909178257,0.10049437009643866,-0.0012687969719991088,0.011829722246568121,0.9794189510629997,0.061997908941966356,right,0.0004933476448059082,-0.34661508456812457,1.970980924016237,-9.010376287946105,-0.17464119544308715,-0.003223923034965992,-0.0012230277061462402,3.3314772495716807,-0.0020330846309661865
1746738977949754600,6.980754638671875,0.21557982736233405,-0.00021452922374010086,0.10056768607323034,0.0028140963986516,0.011971238666340379,0.9793841643654947,0.062356020469316466,right,-0.0037971138954162598,-0.34686843218833097,1.9728389729730784,-9.009104952836037,-0.1747844582158091,-0.009863696992397308,-0.0015244483947753906,3.3338138758257028,0.001790076494216919
1746738977989754600,7.020754638671875,0.21567824730747498,-0.009992212057113647,0.10061279371077805,0.0074483295902609825,0.011879995860474253,0.9793362613559549,0.06224609807082584,right,-0.0011507272720336914,-0.3473861610923575,1.9733559825845062,-9.007223961395026,-0.17503274544947428,-0.010583602823317051,-0.0017040371894836426,3.338588250620663,0.000004202127456665039
1746738978029754600,7.060754638671875,0.21609061890646783,-0.007423482835292816,0.10082690525606006,0.012462716549634933,0.011711076485541903,0.9792886229699346,0.06201299096940729,right,-0.0012188553810119629,-0.34772138828944726,1.9768300884358583,-9.005315497425197,-0.17518739042785522,-0.003431850578635931,-0.0026001781225204468,3.341678910112381,-0.0020156502723693848
1746738978069754600,7.100754638671875,0.21644515520065685,-0.004494960885494947,0.10101715382898584,0.009524216875433922,0.011560362361647106,0.9792603947928232,0.061784346163470054,right,-0.002658665180206299,-0.347859422450204,1.9799236705370247,-9.004163404780625,-0.17524542751404998,-0.002146570011973381,-0.0020588934421539307,3.3429517065271734,-0.0028728246688842773
1746738978109754600,7.140754638671875,0.21663406144381475,-0.0014333841390907764,0.101119709454456,0.003580387681722641,0.01146905766672327,0.9792435593299695,0.06164265482786409,right,-0.0026029348373413086,-0.3479556727400781,1.9815553633920848,-9.003474837994576,-0.1752864235380547,-0.003907416947185993,-0.0016998201608657837,3.3438390107557177,-0.0035489797592163086
1746738978149755000,7.1807548828125,0.21668873588408497,0.0005109908524900675,0.10113760858272865,0.0009242331143468618,0.011480299486628848,0.9792257641570273,0.061695285109249036,right,-0.0016661882400512695,-0.3481298789394216,1.9819222970083354,-9.002797377124429,-0.17537459736659491,-0.004066086374223232,-0.00259968638420105,3.3454449846476315,-0.0031119883060455322
1746738978189754600,7.220754638671875,0.2168475110222072,0.004745134152472019,0.10118646642002861,0.0037876262795180082,0.011591829254222856,0.9792004697951928,0.06197271043453876,right,-0.0013996362686157227,-0.348315422784049,1.9832181820377706,-9.001876755148173,-0.17548028155661133,-0.005688370671123266,-0.0016418546438217163,3.3471552956968544,-0.0024278461933135986
1746738978229754600,7.260754638671875,0.21709037066714243,0.00413870345801115,0.10126956275508615,0.004572566598653793,0.0117175146667305,0.9791632423816229,0.06230415504851503,right,-0.001363515853881836,-0.34858826497717865,1.9852074561588464,-9.000502544185519,-0.1756318870682036,-0.006178866606205702,-0.0017359107732772827,3.349670201127231,-0.0013447701930999756
1746738978269754600,7.300754638671875,0.21722383296810494,-0.0015526576898992062,0.10131781180110598,-0.00006703194230794907,0.011758996094125474,0.9791373023230947,0.06243771085463058,right,-0.003753066062927246,-0.348805666787863,1.9862517045147716,-8.999525808107853,-0.17574574567960247,-0.007218172308057547,-0.0025662481784820557,3.3516739421650765,-0.0009710490703582764
1746738978309754600,7.340754638671875,0.217238465486262,-0.0021861393470317125,0.10130919270244235,-0.004613984376192093,0.011783813482631827,0.9791090873241578,0.06252756014944963,right,-0.003885626792907715,-0.34912475605156756,1.986152774184942,-8.998452041396499,-0.17590640188141754,-0.0076106879860162735,-0.005330711603164673,3.354614379531145,-0.0035168230533599854
1746738978349754600,7.380754638671875,0.21720791388252753,-0.0030693053267896175,0.1012967860241786,0.0073163751512765884,0.011708736210675003,0.9790835529202018,0.062406325338077016,right,-0.0016712546348571777,-0.34945334343841794,1.9856402946181595,-8.997436142352223,-0.17606074356675075,-0.01070918794721365,-0.0030649304389953613,3.3576422029197213,-0.001216977834701538
1746738978389755000,7.4207548828125,0.21743494621566983,-0.005887115374207497,0.10140904795072103,0.0047179218381643295,0.011582384676985597,0.9790290234529547,0.062248419980920566,right,-0.0029042959213256836,-0.3499715301781359,1.9873073510475456,-8.995285101798176,-0.1763074293402011,-0.008920140564441681,-0.0023604631423950195,3.3624162854537367,-0.0006078779697418213
1746738978429754600,7.460754638671875,0.2174565183085021,-0.009603621438145638,0.1014357425618037,0.0034502828493714333,0.011413317403822036,0.9789954531609713,0.06195304166707673,right,-0.003294229507446289,-0.35037402686363944,1.9872091513700783,-8.993919658663868,-0.17648936449497651,-0.006727030500769615,-0.0015241801738739014,3.3661239078000187,-0.0001448988914489746
1746738978469754600,7.500754638671875,0.21742370111525378,-0.0000809086486697197,0.10142240143805063,0.0010660076513886452,0.011326412284771194,0.9789649189643093,0.061814052481258014,right,-0.0018728971481323242,-0.3507622165322992,1.9866320821344852,-8.992708529308437,-0.17667191661149578,-0.00943687092512846,-0.0025501102209091187,3.3696991359382866,-0.002071946859359741
1746738978509754600,7.540754638671875,0.2175486399640197,0.012414483353495598,0.1014384722657308,0.0008240252500399947,0.011503731592170061,0.9789290239034948,0.06223538860353542,right,-0.0029802322387695312,-0.3510807765724664,1.987523770277202,-8.991411475235223,-0.17684974726178534,-0.010308774188160896,-0.0015812814235687256,3.3726328513026234,-0.0005906224250793457
1746738978549754600,7.580754638671875,0.21761138656500595,0.00889977440237999,0.10141384298300124,-0.005640638060867786,0.011767627815954954,0.9789062863739356,0.06280772518114834,right,-0.0023252367973327637,-0.3512711574302454,1.9879493022128938,-8.990659780085087,-0.17697221186823597,-0.00042593758553266525,-0.003152027726173401,3.3743858324497937,-0.0009188055992126465
1746738978589754600,7.620754638671875,0.21759454140190004,-0.00014795083552598953,0.10139332116006697,-0.0021857921965420246,0.011872677707087333,0.9789217234992883,0.06299818708341479,right,-0.0037030577659606934,-0.35108712921570034,1.9879317665562033,-8.991299247032403,-0.1768917964950191,0.0015163803473114967,-0.0033593475818634033,3.3726913034915924,0.0016524195671081543
1746738978629755000,7.6607548828125,0.2174943541110402,-0.004799157381057739,0.10135662392527373,-0.0017842900706455112,0.011826805876922489,0.9789334654537677,0.06287833529414899,right,-0.0026017427444458008,-0.3510171157049867,1.9870820178590713,-8.991728870621323,-0.17685090106315024,0.0008745061932131648,-0.0034636855125427246,3.3720465758472677,0.00091591477394104
1746738978669754600,7.700754638671875,0.21758190776143174,-0.0027817878872156143,0.10142072475514738,0.00711299292743206,0.011719556518999898,0.9789382781752922,0.06266429474191786,right,-0.002106010913848877,-0.35092348186539474,1.9879373195141552,-8.991863310655951,-0.17679478590806005,0.0057687642984092236,-0.00356428325176239,3.3711844060599803,-0.0024928152561187744
1746738978709754600,7.740754638671875,0.21789089467614833,-0.00018493318930268288,0.10158048857607394,0.007797254249453545,0.011654416066094483,0.9789271751333788,0.06258145306721068,right,-0.002470076084136963,-0.3508750682953112,1.9907509156301617,-8.991407968103886,-0.1767687232974998,-0.0022363816387951374,-0.0031668245792388916,3.3707384158581495,-0.002837240695953369
1746738978749754600,7.780754638671875,0.2181891777297375,-0.00026733134291134775,0.10171878714820982,0.005971875973045826,0.011623000260078668,0.9788910071573318,0.0625994332517081,right,-0.00207674503326416,-0.35112116599491033,1.99325325383991,-8.990003362002968,-0.1768916748189012,-0.006756835617125034,-0.002852723002433777,3.3730046072244644,-0.003356456756591797
1746738978789754600,7.820754638671875,0.21836332180294865,0.0018380949040874839,0.10178901604155534,0.001449038740247488,0.011627743471834645,0.9788541461338169,0.06267791642234315,right,-0.0024614930152893066,-0.3514454320904892,1.9945817259646952,-8.988588234508038,-0.17705518372971346,-0.0078140739351511,-0.00295102596282959,3.375990637297928,-0.0030991435050964355
1746738978829754600,7.860754638671875,0.21841962693351785,0.00339161092415452,0.10179436091615722,0.001005958067253232,0.01168860594311836,0.9788251999891687,0.06284628248261853,right,-0.0016161203384399414,-0.35173913791732575,1.994872817865759,-8.987507453534006,-0.17720766441177388,-0.008530709892511368,-0.0029852986335754395,3.378694635559618,-0.0029724538326263428
1746738978869755000,7.9007548828125,0.2185974008043024,0.005697714630514383,0.10184932357495771,0.0031845804769545794,0.011815703584241947,0.9787994208097981,0.0631583775608937,right,-0.0018977522850036621,-0.3519145067630457,1.9963420136354864,-8.986573972076178,-0.17731030934763162,-0.003777710720896721,-0.001322239637374878,3.380309085018933,-0.001688241958618164
1746738978909755000,7.9407548828125,0.21871196527326175,0.004748138599097729,0.10187920932334596,-0.0015297026839107275,0.011940750742308022,0.9787878452566804,0.0634401595047493,right,-0.003932356834411621,-0.3519623184561006,1.9973364315003155,-8.986187603107094,-0.17734870976286923,0.000021368497982621193,-0.002447456121444702,3.3807492300018667,-0.0010719895362854004
1746738978949754600,7.980754638671875,0.21859073111737648,0.0017779343761503696,0.10180929258575315,-0.007402217015624046,0.012013060922016667,0.9787946651411942,0.06356408502539349,right,-0.0035973787307739258,-0.35194617997274985,1.9962588653966784,-8.986482786661385,-0.17734640375160488,-0.0013773965183645487,-0.005052745342254639,3.3806004691809415,-0.0007887780666351318
1746738978989754600,8.020754638671875,0.21850527655949817,-0.00005806598346680403,0.10174729800337794,-0.00954967737197876,0.01211132224054839,0.978788663180617,0.06376161798320786,right,-0.0038971900939941406,-0.3520522671849723,1.9954132083527742,-8.986303338441251,-0.1774078151277202,-0.00015669374261051416,-0.005871668457984924,3.3815772052586075,-0.002324730157852173
1746738979029754600,8.060754638671876,0.21846038648919863,-0.004429159220308065,0.10173060097907491,0.007490929216146469,0.012065470558994672,0.9787824121867196,0.0636720549631959,right,-0.0021620988845825195,-0.3521586683780515,1.9949317084461449,-8.986041472634673,-0.17745499507460746,-0.004739032592624426,-0.003403767943382263,3.3825565716847774,-0.00042364001274108887
1746738979069754600,8.100754638671875,0.21853731386142655,-0.010197658091783524,0.10178700156678952,0.0051092361100018024,0.01188629653934358,0.9787501239012792,0.06336070893542406,right,-0.0025568008422851562,-0.3525128121346938,1.995363231731206,-8.984718115076422,-0.1776127134165601,-0.005843218881636858,-0.002262681722640991,3.3858161580026147,-0.000779956579208374
1746738979109754600,8.140754638671876,0.21843319316653811,-0.009842447005212307,0.10177528509672469,0.001520912628620863,0.01162283244449792,0.9787335765638603,0.06283702661738247,right,-0.004041492938995361,-0.352804319061751,1.9942137694351374,-8.983961743751168,-0.1777279328106963,-0.003366090590134263,-0.001946866512298584,3.3884991134762763,-0.0025595128536224365
1746738979149755000,8.1807548828125,0.21824716202521302,0.003035050816833973,0.10168841966062311,-0.0037890146486461163,0.01156194657927017,0.9787198036320187,0.06271119025417554,right,-0.0025586485862731934,-0.3530855651682263,1.9923359928645192,-8.983401771780848,-0.1778579002510339,-0.006493149325251579,-0.0018609315156936646,3.3910870841428635,-0.002997368574142456
1746738979189754600,8.220754638671876,0.21824737240385722,0.013523122295737267,0.10163815932007166,-0.0023984680883586407,0.011794106040875591,0.9786970006465405,0.06321232130022852,right,-0.0022856593132019043,-0.3533172674312679,1.9921676505602894,-8.98263429453969,-0.17799662602766284,-0.008644343353807926,-0.0011415332555770874,3.3932191277354953,0.00034925341606140137
1746738979229754600,8.260754638671875,0.21824501646311703,0.008290771394968033,0.10157389369763255,-0.007579640485346317,0.012103436886746385,0.9786765860592201,0.06386640260685862,right,-0.0016531944274902344,-0.35351156793745525,1.9920036921702324,-8.981994827592372,-0.17812480088552102,0.0005345642566680908,-0.0032291263341903687,3.395006595674157,-0.00017365813255310059
1746738979269754600,8.300754638671876,0.21817308190241835,0.0005778544582426548,0.10152414852496358,-0.0024653133004903793,0.012229707656120914,0.9786964299642326,0.06408775981949122,right,-0.0019808411598205566,-0.35330671737536284,1.9915081637382506,-8.982817249891161,-0.178035485684859,0.004705305676907301,-0.0034253299236297607,3.3931218048408627,0.0003642737865447998
1746738979309754600,8.340754638671875,0.21799056594780464,-0.006594093982130289,0.10145351376763122,-0.001310050836764276,0.012150285400652277,0.9787099867256801,0.06388811200925533,right,-0.0024923086166381836,-0.35327068065291795,1.989895029453188,-8.983300064972042,-0.17800663072210643,-0.0014536851085722446,-0.0028914213180541992,3.3927903809294104,-0.0008231699466705322
1746738979349754600,8.380754638671876,0.21799716843823352,-0.005149730946868658,0.10147882217297226,0.004989983979612589,0.012005341845250832,0.9787012123738141,0.06360671862383863,right,-0.0011143684387207031,-0.35338887925961615,1.989867556924373,-8.982894991302489,-0.1780501671789086,0.00011141004506498575,-0.002773091197013855,3.393877883905172,-0.002708256244659424
1746738979389755000,8.4207548828125,0.21818975729970166,-0.002552440855652094,0.10158518410122325,0.0023254703264683485,0.011926830284598962,0.9786945326702895,0.06347819914883152,right,-0.002682983875274658,-0.35336182990191867,1.991617469331622,-8.982601561313867,-0.17803157264759215,-0.000356066768290475,-0.0031224489212036133,3.3936288775801655,-0.002486616373062134
1746738979429754600,8.460754638671874,0.21843486818229849,0.0009867562912404537,0.10170186206466693,0.004327337257564068,0.01190813082852854,0.9786754639059854,0.06349336389432211,right,-0.002148926258087158,-0.35343810260200714,1.9937629569277167,-8.981860387557745,-0.1780710793594556,-0.0016916607273742557,-0.0022115856409072876,3.3943308883696792,-0.0029768049716949463
1746738979469754600,8.500754638671875,0.21867815844530614,0.001166637521237135,0.10181163193370815,0.0028806691989302635,0.011907576940824598,0.9786496238741254,0.063554210473956,right,-0.003002345561981201,-0.35359162286407797,1.9958350870266555,-8.980866115823387,-0.17815064362349,-0.004191025625914335,-0.002329006791114807,3.395743093255162,-0.002289384603500366
1746738979509754600,8.540754638671874,0.2187998578140461,0.00039381859824061394,0.10185772760477645,-0.00024990085512399673,0.01193845421519075,0.9786286504407521,0.06365854893485234,right,-0.002729356288909912,-0.35375690395460047,1.9968061240158974,-8.980075257706641,-0.1782374549365768,-0.0037548495456576347,-0.003419741988182068,3.3972637269511816,-0.003056436777114868
1746738979549754600,8.580754638671875,0.2188873366466744,0.007664558477699757,0.1018729391019553,0.0038484539836645126,0.012054734808891776,0.9786104327373222,0.0639283836114265,right,-0.0016921758651733398,-0.35389762012042164,1.9974878226697443,-8.979433452671765,-0.17832050552155815,-0.002734591020271182,-0.0031256824731826782,3.3985581506758926,-0.002959012985229492
1746738979589754600,8.620754638671874,0.2190987414429789,0.0060883210971951485,0.1019409341475581,0.002556287217885256,0.01222645810429143,0.9785955849979681,0.06432018353193232,right,-0.002948462963104248,-0.35391768720208683,1.999371298328787,-8.978944792371987,-0.1783515547829572,-0.0028741960413753986,-0.004015430808067322,3.3987428595930336,-0.0007952451705932617
1746738979629755000,8.6607548828125,0.2191170365344472,-0.0002085636369884014,0.10193201608116728,0.0024327952414751053,0.012306519036285391,0.9785864591437167,0.06449678684256945,right,-0.0023438334465026855,-0.35400106699607553,1.9994740280508994,-8.978631488639115,-0.1784014070874836,-0.0016374537954106927,-0.0020153820514678955,3.3995097523123023,-0.00014767050743103027
1746738979669754600,8.700754638671874,0.21895353335744314,-0.00013315366231836379,0.10184993451794772,0.0019369728397578,0.012309168420139759,0.9785846556606874,0.06448617091826093,right,-0.00007921457290649414,-0.35412023748995286,1.9979178846500814,-8.978562515056133,-0.17845809178288213,-0.002528504468500614,-0.00376756489276886,3.4006060231164095,-0.0030159354209899902
1746738979709754600,8.740754638671875,0.21871464501700197,-0.0051785800606012344,0.10175227718600681,0.006424137391149998,0.012229119263718419,0.9785997957402964,0.06427661855538709,right,0.00048351287841796875,-0.35409951192018724,1.9957883252754807,-8.9791084585011,-0.17843584676959368,0.001053367741405964,-0.0009292066097259521,3.400415176719427,-0.0013172328472137451
1746738979749754600,8.780754638671874,0.21895520946357294,-0.010587011463940144,0.10189146017227942,0.007204068824648857,0.01205159443598132,0.9785725880964227,0.06398031870851077,right,-0.0023459792137145996,-0.3542955552311557,1.9978034644901752,-8.977977408644556,-0.17851801299197312,-0.008202759549021721,-0.0008570998907089233,3.4022184267491102,0.0008112490177154541
1746738979789754600,8.820754638671875,0.21911289041895507,-0.01418524980545044,0.10199028667730875,0.007993016391992569,0.011788303410789321,0.9785095754091728,0.06354843351594201,right,-0.001633763313293457,-0.3549655778347297,1.998723209683597,-8.975435322946309,-0.17882434821842744,-0.014248067513108253,-0.0021299272775650024,3.408380164249241,-0.0006434023380279541
1746738979829754600,8.860754638671875,0.2191533497484818,-0.003166929818689823,0.10202497203214121,-0.000031871721148490906,0.011581288551502748,0.9784554187508269,0.06320536434866869,right,-0.002274632453918457,-0.35559402776914006,1.9986201877005396,-8.973261486038565,-0.17911416631363195,-0.012159093283116817,-0.0029686540365219116,3.414158455389738,-0.003453165292739868
1746738979869755000,8.9007548828125,0.21926278776624766,0.010677429847419262,0.10203593639300827,-0.00034214212791994214,0.011698086052150128,0.9784009379820142,0.06352723816588633,right,-0.0036078691482543945,-0.3561393468703015,1.999196964675188,-8.971224427253008,-0.1793976685286064,-0.015278051607310772,-0.00251750648021698,3.419171022854745,-0.0008470416069030762
1746738979909755000,8.9407548828125,0.2196071190944818,0.013923337683081627,0.10212291023730306,-0.002023911802098155,0.012020073072082315,0.9783383804782746,0.06430282170915652,right,-0.002562880516052246,-0.3566071000409534,2.001937203294039,-8.968973433455824,-0.17966782461280742,-0.012509658001363277,-0.0032143890857696533,3.4234698890924453,0.00016579031944274902
1746738979949754600,8.980754638671876,0.21961262026646083,0.00633685989305377,0.10208695682270304,-0.004798018839210272,0.01225407679317728,0.9783458402925148,0.06476795169079322,right,-0.003741025924682617,-0.35648423990566785,2.0020782191999253,-8.96937266190648,-0.17963158963686898,0.005705156363546848,-0.002985134720802307,3.4223408850625154,0.0011152327060699463
1746738979989754600,9.020754638671875,0.21942184660596525,-0.001923323143273592,0.1020073359908914,-0.002373191760852933,0.012258877265819574,0.9783834761118929,0.06470582898086262,right,-0.0035828351974487305,-0.35616582874322855,2.0006042011246086,-8.970817600017785,-0.17947168129863658,0.009564805775880814,-0.002721816301345825,3.4194144762217995,0.0009789764881134033
1746738980029754600,9.060754638671876,0.2191523932422978,-0.003452595788985491,0.10191885287198461,-0.000717882183380425,0.012127701563206429,0.9784351055013482,0.06434030510678077,right,-0.0013862252235412598,-0.3557514612347275,1.9984946616247294,-8.972738923469185,-0.17924896240280813,0.010311161167919636,-0.0023271888494491577,3.415605731588602,-0.003066450357437134
1746738980069754600,9.100754638671875,0.21913385877720798,0.0028624366968870163,0.10193391037121569,0.000445009209215641,0.01206790188290241,0.9784680942872842,0.06417300325274738,right,-0.002180039882659912,-0.35539131343643754,1.9985956377811729,-8.973975771787762,-0.17906435129935028,0.00885000266134739,-0.004283934831619263,3.412294707344472,-0.004735052585601807
1746738980109754600,9.140754638671876,0.2191642164655466,0.004708478227257729,0.10194834418248447,0.0008870848687365651,0.012134125699146134,0.9784953297946768,0.06427441094127245,right,-0.0024378299713134766,-0.35504989795221564,1.9991212690904736,-8.975051876586676,-0.1789028771156572,0.0038587581366300583,-0.0036083608865737915,3.40915553253591,-0.004671037197113037
1746738980149755000,9.1807548828125,0.21924485582682013,0.004259993322193623,0.10197789038131033,0.001297010574489832,0.012220931359976444,0.9785076517513993,0.06444301823295605,right,-0.002121150493621826,-0.3548463407410486,1.999995859967917,-8.975568009415268,-0.17881250700443674,0.0007329154759645462,-0.002747654914855957,3.407283893445134,-0.00273817777633667
1746738980189754600,9.220754638671876,0.21934197272312655,0.0010728449560701847,0.10200755044095954,0.003932700492441654,0.012297546160553044,0.9784961730211631,0.06462468567432139,right,-0.001044929027557373,-0.35490957992187666,2.000820766484737,-8.975162935745715,-0.17885326305675334,-0.0013656853698194027,-0.003125593066215515,3.407865492725372,-0.002396225929260254
1746738980229754600,9.260754638671875,0.21943698887725574,0.0021891603246331215,0.10203938429853253,0.002476520836353302,0.012351178624801533,0.9784825827988601,0.06476232609073332,right,-0.0016625523567199707,-0.35500147468882454,2.001605340991169,-8.974667261183262,-0.17890577075741718,-0.0024611391127109528,-0.0022086650133132935,3.408710419116914,-0.0029521584510803223
1746738980269754600,9.300754638671876,0.21953135691045467,0.0044633932411670685,0.10207183815067702,0.002144352998584509,0.012398025997519784,0.9784683373161882,0.06488698620515945,right,-0.0028640031814575195,-0.35510193375252885,2.0023776405379174,-8.974144114091992,-0.17896180515230856,-0.002794208936393261,-0.0023288577795028687,3.409633963702619,-0.002277851104736328
1746738980309754600,9.340754638671875,0.21954539093642494,0.0034223943948745728,0.10205761210391012,-0.002724303863942623,0.012480375604868517,0.9784526178875786,0.06507656951400277,right,-0.004238009452819824,-0.35526312062950577,2.0023839241482317,-8.973579465946555,-0.17905031658881224,-0.0038149722386151552,-0.002755790948867798,3.411116018953919,-0.0012395977973937988
1746738980349754600,9.380754638671876,0.21927686058012602,0.0025640528183430433,0.10190935279841648,-0.012206698767840862,0.012585707465459329,0.9784604629903194,0.06524919256427965,right,-0.0036260485649108887,-0.35531890256371196,1.999932731603831,-8.973931348124147,-0.17908468522002224,-0.0005462656263262033,-0.005402863025665283,3.4116289369121193,-0.002003699541091919
1746738980389755000,9.4207548828125,0.21892487727588453,-0.0027168237138539553,0.10172150651102965,-0.01202296931296587,0.01269782426913709,0.9784752230468245,0.0654167953368358,right,-0.004440903663635254,-0.3553436155772374,1.996755709002912,-8.974552110370993,-0.17910306261276837,0.0005103528965264559,-0.004920303821563721,3.4118563159272073,-0.0017183125019073486
1746738980429754600,9.460754638671874,0.21850827090769412,-0.005000472068786621,0.10152814674420461,0.0016953935846686363,0.012667622465320666,0.9784927195163049,0.06528489008602811,right,-0.002815067768096924,-0.3553962794453583,1.9929776517689226,-8.975207943931222,-0.17911944638823912,-0.006779582239687443,-0.0032951384782791138,3.4123403000518677,0.00019362568855285645
1746738980469754600,9.500754638671875,0.21840272632222585,-0.005204106215387583,0.10148634309033641,-0.003157990053296089,0.012557441768409028,0.9784702813483177,0.06507920882358179,right,-0.0037395358085632324,-0.35573278628395505,1.991781427721679,-8.9742966743052,-0.17927278462691953,-0.004961054772138596,-0.004500478506088257,3.415433882153034,-0.000602424144744873
1746738980509754600,9.540754638671874,0.21810451581018034,-0.007185265887528658,0.1013632330977771,-0.004782296717166901,0.012424674552749457,0.9784718462710585,0.06477390822986556,right,-0.002050638198852539,-0.35591249611028236,1.9889722155198453,-8.974290829086303,-0.17934324369359456,0.0001558125950396061,-0.002578049898147583,3.417086033274233,-0.000786900520324707
1746738980549754600,9.580754638671875,0.21771065579269694,-0.000905883964151144,0.10118679354828927,-0.006267630960792303,0.012342340579918015,0.9784803913183114,0.06455052464005068,right,-0.0029111504554748535,-0.3560611094721847,1.9853278676681219,-8.97457782933414,-0.17940210237529017,-0.0038091307505965233,-0.0033010244369506836,3.4184520609304307,-0.003090888261795044
1746738980589754600,9.620754638671874,0.21749562097086986,0.010638806968927383,0.10105406840804561,-0.004988516680896282,0.012481285254886567,0.9784761992596143,0.06481302690962931,right,-0.0027693510055541992,-0.356217114494829,1.983282771706581,-8.9744837213099,-0.17949026261741077,-0.0070818401873111725,-0.002849489450454712,3.419885893125832,-0.0018442869186401367
1746738980629755000,9.6607548828125,0.21733633725659243,0.00957445241510868,0.10092263146130306,-0.012992724776268005,0.012761902514612325,0.9784694601226905,0.06537229236853483,right,-0.0022649168968200684,-0.35634681744116087,1.9817576079659163,-8.974366232410073,-0.17958088225520638,0.00015472061932086945,-0.00584469735622406,3.4210780255198476,-0.001241534948348999
1746738980669754600,9.700754638671874,0.21714963188830336,0.002002156339585781,0.10080647710385625,-0.0071737440302968025,0.012971816523222131,0.9785020729980958,0.06573312607014495,right,-0.004211843013763428,-0.3560511064771434,1.9802999565035104,-8.975723492237925,-0.1794533886440368,0.00456905597820878,-0.0049766600131988525,3.418359998732805,0.0017462670803070068
1746738980709754600,9.740754638671875,0.21683954514867942,-0.003117714077234268,0.1006614687963586,-0.006421561352908611,0.012988789855355362,0.9785292642688366,0.06569590016809024,right,-0.0021699070930480957,-0.3559198825565668,1.9776130555070937,-8.97677504711747,-0.17938537806149796,0.0016763953026384115,-0.003341272473335266,3.4171538378134367,-0.0003854334354400635
1746738980749754600,9.780754638671874,0.2167215784860606,-0.0011134576052427292,0.10062557330998978,0.0027350354939699173,0.012905230871805335,0.9785475337585007,0.06548889743869951,right,-0.0005049705505371094,-0.3557925547397687,1.9766475714758038,-8.977433218765258,-0.17931197645614613,0.006017712876200676,-0.005002126097679138,3.4159833327293394,-0.0029762685298919678
1746738980789754600,9.820754638671875,0.21693188663463442,0.00023508048616349697,0.10074479339584368,0.009354345500469208,0.01284461642085183,0.978558563156227,0.06537578824072368,right,-0.003026127815246582,-0.3555505537112024,1.9787134179644286,-8.977824263909458,-0.17918937452704983,0.0040171947330236435,-0.0046041011810302734,3.4137586424171924,-0.002421349287033081
1746738980829754600,9.860754638671875,0.21718514852285528,-0.0020517101511359215,0.10088166694994624,0.006094633601605892,0.012799629756680845,0.978567576477565,0.06530178347829167,right,-0.0032570362091064453,-0.3553028818815019,1.9811692866839468,-8.978148089036345,-0.17906624428254916,0.004176863469183445,-0.0036581605672836304,3.411481637395918,-0.002400726079940796
1746738980869755000,9.9007548828125,0.21723814666586136,-0.0035801453050225973,0.1009256006729855,0.002513008890673518,0.012718064977792494,0.9785754822686134,0.06513211420004231,right,-0.004245102405548096,-0.3551925899667662,1.9817261899143457,-8.978410539364814,-0.17900412545435457,0.0008260339964181185,-0.003613486886024475,3.4104677841782567,-0.0036207735538482666
1746738980909755000,9.9407548828125,0.2172197996098005,0.0009409885387867689,0.10091636721125279,-0.00020253821276128292,0.012686657159037851,0.9785614950068333,0.06508481052410581,right,-0.002572000026702881,-0.3553688907609674,1.9814318831428885,-8.977859919744729,-0.17908778099185468,-0.006905040703713894,-0.0036097466945648193,3.412088663378358,-0.0038754045963287354
1746738980949754600,9.980754638671876,0.2172972506132772,0.009023872204124928,0.10092294264114399,0.0018473539967089891,0.0128343191091879,0.9785482753614005,0.06541046383009054,right,-0.0026122331619262695,-0.3554531921825983,1.982065212610364,-8.977425035458802,-0.17914589750746462,-0.0011710147373378277,-0.0031719952821731567,3.412863739404082,-0.003244340419769287
1746738980989754600,10.020754638671875,0.21739443428665772,0.005669496022164822,0.10093840623250858,-0.00143964565359056,0.013021968000192242,0.9785500097259806,0.0657994593429043,right,-0.0026711225509643555,-0.35534596033037513,1.9830165219858287,-8.977589870631695,-0.17911377181792104,0.002114047994837165,-0.0034445524215698242,3.411877650976181,-0.002165883779525757
1746738981029754600,10.060754638671876,0.21734998320552934,0.003437037579715252,0.10091197477943664,0.003169280244037509,0.013110174036369222,0.9785770032676675,0.06593732228444095,right,-0.0006204843521118164,-0.3550477542866635,1.98283678150475,-8.978671236127614,-0.17897471911378096,0.003609027247875929,-0.003368064761161804,3.409135951052606,-0.0038290023803710938
1746738981069754600,10.100754638671875,0.21733715254691563,0.001925795222632587,0.10090434987294893,0.0018605238292366266,0.013135661280237772,0.978584754389681,0.06597716458313492,right,-0.0005309581756591797,-0.35496159454932924,1.9827849051870405,-8.978983370816707,-0.17893454981584994,0.0006370937917381525,-0.004178181290626526,3.4083436316311357,-0.004168570041656494
1746738981109754600,10.140754638671876,0.2172349767095779,-0.004657527897506952,0.10087322229705499,0.006466548889875412,0.013071680890274363,0.9786042933953387,0.0658101119814914,right,-0.0011121034622192383,-0.3548083588988847,1.981980018544942,-8.979695903000236,-0.17885055009232545,0.0020173396915197372,-0.0024697333574295044,3.406934641616046,-0.0018164515495300293
1746738981149755000,10.1807548828125,0.21751092630129912,-0.0064428504556417465,0.10102517870631737,0.004968599881976843,0.012926025009201475,0.9785794950661054,0.06557943454662347,right,-0.002333700656890869,-0.3549524939283925,1.9843518622428178,-8.978668898040056,-0.178911131226858,-0.003936566412448883,-0.004042789340019226,3.4082600450009104,0.000041097402572631836
1746738981189754600,10.220754638671876,0.21754701097899332,-0.005950078833848238,0.10106097219399725,0.004254803992807865,0.012778923590443672,0.9785597247315322,0.06531160766785545,right,-0.0006374716758728027,-0.3551804721816832,1.9845080757178366,-8.97783829243481,-0.17900924732070278,-0.003985512536019087,-0.003069445490837097,3.410356140497327,-0.0008363723754882812
1746738981229754600,10.260754638671875,0.21749838914796568,0.0012856055982410908,0.10104366318746445,0.0004744352772831917,0.012717157650036288,0.9785494694792817,0.0651944867910748,right,-0.003075122833251953,-0.3553371606375371,1.9839562870539724,-8.977412760499119,-0.1790795817079476,-0.0007591529283672571,-0.004046827554702759,3.411796986955404,-0.0018038749694824219
1746738981269754600,10.300754638671876,0.21753111454559432,0.010296976193785667,0.1010324865178557,-0.001162493834272027,0.012873660615310022,0.978550595394745,0.06551395543647136,right,-0.004314124584197998,-0.35528163255214357,1.984290925835818,-8.977533172008394,-0.17906878844868748,0.0005367255071178079,-0.003253847360610962,3.411286407084763,-0.0010919570922851562
1746738981309754600,10.340754638671875,0.2176188459813645,0.013749217614531517,0.10102874351237986,0.0005466750590130687,0.01313303423558199,0.9785479622916876,0.06605299638541863,right,-0.002738654613494873,-0.3552196286742566,1.985124161789566,-8.977565320712328,-0.17906629634177446,-0.001570174121297896,-0.004072278738021851,3.4107162059813736,-0.00017240643501281738
1746738981349754600,10.380754638671876,0.2176027468322465,0.007644977420568466,0.1010022946307278,0.005552167538553476,0.013281644519434843,0.9785667638477501,0.06632716620209665,right,-0.0017594695091247559,-0.3549883319569145,1.9851498807527124,-8.978367284744978,-0.1789670315805113,0.006368023809045553,-0.004745468497276306,3.4085894230857487,-0.0006162822246551514
1746738981389755000,10.4207548828125,0.21763753047345755,-0.0018938109278678894,0.10102445322132737,0.0038537592627108097,0.013266556961883702,0.9785722580500491,0.06629328353471786,right,-0.004443526268005371,-0.35490661207071594,1.9855223673269151,-8.978570113840698,-0.17892561806340163,-0.002309469971805811,-0.004287794232368469,3.407838020196557,-0.0006097257137298584
1746738981429754600,10.460754638671874,0.2177943722621164,-0.004905815236270428,0.10111142949516926,0.009233323857188225,0.013169990654928073,0.978553795639474,0.06614009714804377,right,-0.0010603666305541992,-0.35504117154033865,1.9868314040988682,-8.977810819905995,-0.17898466288489293,-0.0013027969980612397,-0.0038447976112365723,3.4090754530370235,-0.004573792219161987
1746738981469754600,10.500754638671875,0.21809729810294753,-0.0006493935361504555,0.10127453838373794,0.00765588041394949,0.01306878243436225,0.9785426989766922,0.0659843548262013,right,-0.003201901912689209,-0.35500393364425914,1.9895783647194503,-8.977332681000233,-0.17896057258596967,0.003517358098179102,-0.004270732402801514,3.408732923209667,-0.0028739571571350098
1746738981509754600,10.540754638671874,0.21844926372839157,-0.001480510807596147,0.10145730075914444,0.007870101369917393,0.012986490572545388,0.9785286279299739,0.06587646015648525,right,-0.0037303566932678223,-0.35496871464848573,1.9927640090182421,-8.976749328154325,-0.17894018071099,-0.0030765943229198456,-0.002952098846435547,3.408409098082781,-0.003905177116394043
1746738981549754600,10.580754638671875,0.21876024444049227,0.00032240548171103,0.10160154296074593,0.006328522227704525,0.012951052413023958,0.9784906471621502,0.0658906841806662,right,-0.0028725266456604004,-0.355226286422589,1.9953649852968751,-8.975271656817197,-0.17906876669537033,-0.008795015513896942,-0.003855794668197632,3.410777580779791,-0.004717230796813965
1746738981589754600,10.620754638671874,0.2189325391277612,0.004029338248074055,0.10165738955071668,0.001064471434801817,0.012996307394700968,0.9784394644523002,0.06607021558091024,right,-0.0036731362342834473,-0.3557057045975567,1.9965559486471116,-8.973330459621549,-0.17931325042633858,-0.014338874258100986,-0.003872603178024292,3.415185168088972,-0.003813832998275757
1746738981629755000,10.6607548828125,0.21918762350090432,0.009793139062821865,0.10172691432702125,0.004213767591863871,0.013164115167771185,0.9783753186022989,0.06652481399557345,right,-0.002389371395111084,-0.3562648870867349,1.998429341303557,-8.97095554718375,-0.17961123238843218,-0.013320747762918472,-0.004320457577705383,3.4203248690649866,-0.0042150914669036865
1746738981669754600,10.700754638671874,0.21952529788019062,0.007602105848491192,0.10183034772267303,0.0031185741536319256,0.013394945153474832,0.9783217857355738,0.06710253765372673,right,-0.002690911293029785,-0.35664244063026973,2.0011770325765013,-8.96901902616322,-0.1798273090599622,-0.012208545580506325,-0.005213052034378052,3.423794883263111,-0.0009244978427886963
1746738981709754600,10.740754638671875,0.2196694540447724,0.003950474783778191,0.10185913564925368,0.004121642094105482,0.013533333256400427,0.9782792956244494,0.06745605048142876,right,-0.001697838306427002,-0.35702170401108224,2.0021869402714074,-8.967462444370984,-0.18003155443065963,-0.011003394611179829,-0.004671201109886169,3.4272798027694225,-0.0017312467098236084
1746738981749754600,10.780754638671874,0.2197101677435984,0.00009280955418944359,0.1018487418352883,0.0015599045436829329,0.013597043397033375,0.9782337385917881,0.0676504980736638,right,-0.001332104206085205,-0.3575091502906485,2.002187670923769,-8.965749795234203,-0.18027984220563834,-0.009441087022423744,-0.0060262531042099,3.431758117227256,-0.003712296485900879
1746738981789754600,10.820754638671875,0.2195642522078226,-0.004199240822345018,0.10178679816765493,0.0056460825726389885,0.013515925569995554,0.9782235057228166,0.06748294160660691,right,-0.0014132261276245117,-0.35772571719423035,2.0007174522407354,-8.965316079992055,-0.18037611727938177,-0.005086146295070648,-0.002118125557899475,3.4337475374788045,-0.00021034479141235352
1746738981829754600,10.860754638671875,0.21971349348936842,-0.005380288697779179,0.10186312920840794,0.005679205525666475,0.013403609481253709,0.9781818626875197,0.06732800748212368,right,-0.0023879408836364746,-0.35813137794987204,2.001751617594063,-8.963657206869124,-0.18056736814946633,-0.006391542963683605,-0.002909153699874878,3.4374735722646115,-0.00011047720909118652
1746738981869755000,10.9007548828125,0.21969518715385122,-0.006465999409556389,0.10186696929289468,0.0011361688375473022,0.01326627940376425,0.9781540096944459,0.06708463577991589,right,-0.0021248459815979004,-0.358482175854066,2.0013246243536473,-8.962516220140456,-0.18072618886688332,-0.004752037115395069,-0.0012597739696502686,3.440695164659619,-0.0008403956890106201
1746738981909755000,10.9407548828125,0.2195358167537453,0.0003378363326191902,0.10179485272673686,-0.004215841181576252,0.013196886616568426,0.9781401672481724,0.06694393507281961,right,-0.0035073161125183105,-0.3587457519640002,1.9996987767174839,-8.96194981842935,-0.1808467088088065,-0.006938807666301727,-0.003534287214279175,3.4431156698048113,-0.001808255910873413
1746738981949754600,10.980754638671876,0.21944384787567675,0.010123640298843384,0.10172036523923522,-0.00420684227719903,0.013332898054113373,0.9781290230109343,0.06722370562263409,right,-0.003971695899963379,-0.35890646883335764,1.998754043213278,-8.961593260076642,-0.18093883153419024,-0.005047412123531103,-0.0033084750175476074,3.444591295315325,-0.0006154179573059082
1746738981989754600,11.020754638671875,0.21938130122685015,0.01107883919030428,0.1016310507945599,-0.007242643274366856,0.013625314228470799,0.9781147700959893,0.06782793169075056,right,-0.002577364444732666,-0.3590604004695852,1.9980780436478554,-8.961201045888663,-0.18104430610755873,-0.006248292047530413,-0.004326581954956055,3.446004669244587,-0.0012192130088806152
1746738982029754600,11.060754638671876,0.21929032510422938,0.00703066773712635,0.10154830040560536,-0.0001556924544274807,0.013861024654722342,0.9781252328068046,0.06828098503624033,right,-0.00225067138671875,-0.35895645785527325,1.9973406692840159,-8.961731791764498,-0.18101594201740903,0.0020347689278423786,-0.0037416964769363403,3.445050437259674,0.00007861852645874023
1746738982069754600,11.100754638671875,0.2192323982969201,-0.0020461883395910263,0.10151909419861704,0.0015595462173223495,0.01388783353541748,0.9781352734014148,0.06831528822283342,right,-0.004121005535125732,-0.3588721699198054,1.9968847422100602,-8.962131020215153,-0.18097611192023277,-0.0002073452342301607,-0.004204586148262024,3.4442765302777287,0.00006371736526489258
1746738982109754600,11.140754638671876,0.21920947420650136,-0.003823063336312771,0.10153705476116794,0.006409807596355677,0.013748503061117145,0.9781456195779069,0.06801667138356157,right,-0.0015131235122680664,-0.3587905041705295,1.9967403653033076,-8.962451338210702,-0.18092090303880048,0.0064136190339922905,-0.005059748888015747,3.443526588693261,-0.003349602222442627
1746738982149755000,11.1807548828125,0.21932519143227014,-0.00030391919426620007,0.10163616957944718,0.006751433480530977,0.013580460890129889,0.9781737734257967,0.06765225472597096,right,-0.0032296180725097656,-0.3584270005923561,1.9980496943362056,-8.96344151829183,-0.18072564127634913,0.010358363389968872,-0.004450872540473938,3.440188676442206,-0.0046110451221466064
1746738982189754600,11.220754638671876,0.21953969981574628,0.0017039282247424126,0.10175976745140558,0.006094800774008036,0.013542241205694052,0.9781993074801726,0.06756567022896234,right,-0.0027989745140075684,-0.3580135096704903,2.000281983432919,-8.964400134190916,-0.18052072689945953,0.007236142177134752,-0.003406912088394165,3.436391037724912,-0.0034477710723876953
1746738982229754600,11.260754638671875,0.21967825639887614,0.002410083543509245,0.10183040899100286,0.002495039254426956,0.013542394038879656,0.9782045035831698,0.06757506078493912,right,-0.0036063790321350098,-0.35787174463460014,2.0016301831714807,-8.96459828711152,-0.1804528926665403,-0.0013213627971708775,-0.0033428817987442017,3.435089015215635,-0.0043551623821258545
1746738982269754600,11.300754638671876,0.21972224867921578,0.003715135157108307,0.10183396976071468,-0.0010861996561288834,0.013603540435009935,0.9781872909841263,0.06772697060325807,right,-0.003282785415649414,-0.3580331327423003,2.0019037394158543,-8.963969341558217,-0.1805397476285663,-0.007186837960034609,-0.0050445497035980225,3.4365713627278804,-0.005892813205718994
1746738982309754600,11.340754638671875,0.21982089277012815,0.006863669492304325,0.10183983211816555,0.0018994410056620836,0.01376242413878631,0.9781528160724481,0.06810604432575157,right,-0.0013536810874938965,-0.35834237390746004,2.0025562119752167,-8.96273424680531,-0.18071077603279856,-0.0075108991004526615,-0.0037821680307388306,3.4394115545898676,-0.0032822489738464355
1746738982349754600,11.380754638671876,0.22008230207501145,0.005825200118124485,0.10192195658801266,0.001975314226001501,0.013959000371240583,0.9781245142069541,0.06857212144257421,right,-0.0038943886756896973,-0.35847822496758036,2.00479697663933,-8.961754003596305,-0.18080267574826303,-0.00422732112929225,-0.0029370635747909546,3.4406589243024586,-0.0003167390823364258
1746738982389755000,11.4207548828125,0.2201894005932723,-0.0012536910362541676,0.10194860070301716,-0.0010661990381777287,0.014046625046948018,0.9780994190555441,0.0687954138687904,right,-0.0030565857887268066,-0.3586866779169365,2.0056001097157594,-8.960839226838946,-0.18091661057142455,-0.002057091798633337,-0.0021004527807235718,3.4425732334911823,-0.0007593333721160889
1746738982429754600,11.460754638671874,0.22010973060152217,-0.0003994094440713525,0.10191484531633233,0.0008388038258999586,0.01401998288304032,0.978101439197452,0.06872952023493087,right,-0.00023895502090454102,-0.3587151208908182,2.004864781178534,-8.960903524246811,-0.18092659060278662,0.001980944536626339,-0.0031920522451400757,3.442834514775872,-0.002970397472381592
1746738982469754600,11.500754638671875,0.21980833237773276,-0.005859796889126301,0.10178719525047653,-0.003211951581761241,0.013984576608461157,0.9781369879449373,0.06857573175508758,right,-0.0005158782005310059,-0.35849501678367296,2.0023291252210735,-8.96224675554931,-0.18080914629942452,0.008131042122840881,-0.0019772350788116455,3.440813238081336,-0.0018850862979888916
1746738982509754600,11.540754638671874,0.21981952782563213,-0.009862472303211689,0.1018210447560886,0.004123182967305183,0.013858262198487337,0.9781505173444315,0.06830311928753403,right,-0.0022106170654296875,-0.35835414093064033,2.002535169187188,-8.96269742192626,-0.1807265455407473,-0.00009237229824066162,-0.0019955039024353027,3.4395193988785144,0.0008932352066040039
1746738982549754600,11.580754638671875,0.21964417254896643,-0.011506450362503529,0.10177335579538314,-0.0031465841457247734,0.013645138273335486,0.9781526979283001,0.067848281786505,right,-0.0010712742805480957,-0.35846871689031806,2.000877611238509,-8.962663519656658,-0.1807581380694418,-0.0013369269436225295,-0.001639634370803833,3.4405718305408954,-0.0007965564727783203
1746738982589754600,11.620754638671874,0.21932981314915928,-0.0009726518765091896,0.10164496608111476,-0.0066887070424854755,0.01350329213003307,0.9781564342383623,0.06751947374991789,right,-0.0021083950996398926,-0.35863490978382434,1.9979355664372442,-8.96273424680531,-0.18082046634219479,-0.003899571020156145,-0.004132404923439026,3.442097724933922,-0.004132121801376343
1746738982629755000,11.6607548828125,0.21910197357504083,0.013981313444674015,0.10149686560992499,-0.00936602521687746,0.013687129090088542,0.9781502365885196,0.06787370932900351,right,-0.0019990205764770508,-0.35881126945076736,1.995761437268555,-8.962596299639344,-0.1809230543838142,-0.009807201102375984,-0.004159390926361084,3.443717142829299,-0.0031164884567260742
1746738982669754600,11.700754638671874,0.21914373663465186,0.017927279695868492,0.10143380785429053,-0.004782598465681076,0.014085726018092411,0.9781209913520929,0.06872480462028649,right,-0.0015439987182617188,-0.3590554343467353,1.9959528681874275,-8.961692044275999,-0.18108577622117422,-0.009235456585884094,-0.004775196313858032,3.4459590765371915,-0.0014468729496002197
1746738982709754600,11.740754638671875,0.2190609654476449,0.007997378706932068,0.10133631742149019,0.00008392613381147385,0.014400356494622606,0.9781204889520045,0.0693532348706372,right,0.00011992454528808594,-0.3590590815513941,1.9952083334304391,-8.961845189011097,-0.18111880748540352,0.007580230012536049,-0.0030667632818222046,3.4459926865458486,-0.001690596342086792
1746738982749754600,11.780754638671874,0.21903905135106888,-0.0016483105719089508,0.101325501255285,-0.0014183782041072845,0.014456206504729946,0.9781440761885787,0.06943256071145137,right,-0.0029096603393554688,-0.3587938624574816,1.9952105253875254,-8.962780424034595,-0.18099313300327874,0.004238912835717201,-0.005742073059082031,3.4435575683534143,-0.001717597246170044
1746738982789754600,11.820754638671875,0.2189990537646221,-0.005662138573825359,0.10132663617256128,0.0038819918408989906,0.014345110749755561,0.9781464333664087,0.06919968603533408,right,-0.0007482171058654785,-0.35880830400158964,1.9948411075532435,-8.962811403694749,-0.18098811714580368,-0.0008071167394518852,-0.005461961030960083,3.4436899625614283,-0.002195209264755249
1746738982829754600,11.860754638671875,0.2192845397872653,-0.0028652965556830168,0.10148180624252104,0.006713552866131067,0.014222669945853085,0.9781278935804523,0.06900943585504361,right,-0.002940833568572998,-0.35887093419913685,1.9973529442436992,-8.962031066972017,-0.18101109612583494,0.0003248456632718444,-0.006082415580749512,3.44426513210088,-0.006056308746337891
1746738982869755000,11.9007548828125,0.2195665058083689,0.0009909530635923147,0.10162684029560214,0.0056093293242156506,0.014180922344130301,0.9781235606646229,0.06896330806626218,right,-0.003117859363555908,-0.35875972311932897,1.9999632728725671,-8.961841681879758,-0.18095644064146618,-0.0015354732749983668,-0.004534810781478882,3.4432439723595976,-0.005804151296615601
1746738982909755000,11.9407548828125,0.2198745584631522,0.0010314403334632516,0.10177244465954721,0.006156460382044315,0.014165291588145577,0.9781012071845093,0.06899705772058207,right,-0.004267513751983643,-0.35883454214160443,2.0026677095256744,-8.960973666873574,-0.18099687234630443,-0.002456816378980875,-0.004262849688529968,3.443931077840924,-0.0036839544773101807
1746738982949754600,11.980754638671876,0.22001521399993107,0.00033447996247559786,0.10183887450233887,0.0005799578502774239,0.014143486132293707,0.9780847012770905,0.068991144966179,right,-0.004530370235443115,-0.3589429826314694,2.0038465440467,-8.96032718566358,-0.18105052170948294,-0.003257292089983821,-0.0044245123863220215,3.4449265186190603,-0.004283010959625244
1746738982989754600,12.020754638671875,0.22015618653775068,0.005763333756476641,0.10188447047337955,0.005436684004962444,0.014201230828178106,0.978052303763684,0.06916754698621164,right,-0.0021442174911499023,-0.35921910167387655,2.004901898318529,-8.95911605630815,-0.18119534818312522,-0.00931688491255045,-0.004683762788772583,3.447461590054631,-0.0038712620735168457
1746738983029754600,12.060754638671876,0.2205900296976881,0.009246841073036194,0.10204283194443335,0.007468077354133129,0.01436672237177653,0.9779899558711159,0.069635884612807,right,-0.002481698989868164,-0.35964254080263,2.0084689431503415,-8.95682005432546,-0.18142911682849291,-0.00973610207438469,-0.004108816385269165,3.451348952881992,-0.003520369529724121
1746738983069754600,12.100754638671875,0.22088039843062066,0.0026743533089756966,0.10213991008645186,-0.0002026115544140339,0.014516925892704298,0.9779440812923683,0.07003481976656874,right,-0.005192220211029053,-0.35996590936171086,2.0108250047571956,-8.955147152677178,-0.18160948542769179,-0.007862888276576996,-0.004305616021156311,3.454316862776875,-0.0009919703006744385
1746738983109754600,12.140754638671876,0.22095415840247465,-0.0002311172429472208,0.10215031149398217,-0.0013881418853998184,0.014562870081853327,0.9779025459506154,0.07019190431638843,right,-0.00040912628173828125,-0.3603875371820983,2.0111662194103,-8.95357712688148,-0.1818238977561696,-0.012408392503857613,-0.003778904676437378,3.4581863976866005,-0.001371145248413086
1746738983149755000,12.1807548828125,0.22092388902132165,-0.003947014920413494,0.10212081660752213,-0.0024055449757725,0.014568073032056492,0.9778708199512759,0.07024119169563593,right,-0.0010149478912353516,-0.36076520219174807,2.010608877788484,-8.952363074916601,-0.182010588790345,-0.00263197161257267,-0.0032173842191696167,3.461652027970552,-0.0024862289428710938
1746738983189754600,12.220754638671876,0.22115955609108676,-0.006436761002987623,0.10223985503487208,0.005538633093237877,0.014487156400896794,0.9778427404282307,0.07014212954983433,right,-0.0034111738204956055,-0.3609575436604227,2.012572432946414,-8.951239039322733,-0.1821011439399597,-0.00821760669350624,-0.0020982474088668823,3.4634166995555162,0.0018821656703948975
1746738983229754600,12.260754638671875,0.2213013753226593,-0.012982938438653946,0.10232635557276887,0.005060483235865831,0.014294155174968817,0.9777998336611848,0.06982482239380325,right,-0.001970231533050537,-0.36139226265018776,2.013511321231723,-8.949483720088004,-0.18229817134356777,-0.010223448276519775,-0.0022723525762557983,3.4674046001479026,0.000810086727142334
1746738983269754600,12.300754638671876,0.2212590222994378,-0.0064822109416127205,0.10233437500746081,-0.0013713906519114971,0.014056113623533593,0.9777670448120528,0.06938116820948591,right,-0.004413485527038574,-0.3618280128289038,2.0128003964833914,-8.94809431155622,-0.18248790662166378,-0.006288424599915743,-0.004071429371833801,3.47140156082958,-0.0026044845581054688
1746738983309754600,12.340754638671875,0.2211759588124132,0.011428617872297764,0.10227428259903597,-0.005420343019068241,0.014126951084900476,0.9777523401082409,0.0695345069589543,right,-0.00409775972366333,-0.36203210946494513,2.011901694077998,-8.947569995421171,-0.18259480562469618,-0.0023578396067023277,-0.004576817154884338,3.473273492181301,-0.003504455089569092
1746738983349754600,12.380754638671876,0.22126929450431748,0.01607617549598217,0.1022505252843791,0.0000592479482293129,0.014482699727253105,0.977739036231039,0.07028383735491868,right,-0.00318068265914917,-0.3620679207414126,2.0127095033295452,-8.947260783341527,-0.18265127667456488,-0.0011217861901968718,-0.004650592803955078,3.473601993483305,-0.00040146708488464355
1746738983389755000,12.4207548828125,0.22114818608960163,0.008648937568068504,0.10215248043347504,-0.002475002082064748,0.014761588524748728,0.9777672819288572,0.07079703915479897,right,-0.0008485913276672363,-0.3617728459864163,2.011850694543123,-8.94850406140089,-0.18253256787209754,0.013226942159235477,-0.003224506974220276,3.4708956571340557,-0.0009716153144836426
1746738983429754600,12.460754638671874,0.220990950707136,-0.0025041811168193817,0.10209487976829433,-0.0014753749128431082,0.014800348691336958,0.9778304303174791,0.070773209668467,right,-0.003215789794921875,-0.36114424333648076,2.010921450868994,-8.950947362899779,-0.18222330003328552,0.014747139066457748,-0.004509493708610535,3.4651296409532426,-0.0009446442127227783
1746738983469754600,12.500754638671875,0.22079620179360002,-0.0027339826337993145,0.10203378752994531,0.0006375929806381464,0.014698241831922785,0.9778697113472047,0.07049149640394524,right,-0.0007631778717041016,-0.36083214652684753,2.009414991828799,-8.952393470054865,-0.182055106597478,0.006677042692899704,-0.005357682704925537,3.462266068215668,-0.003180772066116333
1746738983509754600,12.540754638671874,0.2208589867495637,0.001975099556148052,0.10208512077713595,0.005930251441895962,0.014630968363121673,0.9778888117697591,0.07033710135149042,right,-0.0020062923431396484,-0.360589061838691,2.010161426281929,-8.953088466581702,-0.18192900731189662,0.007066941354423761,-0.006467297673225403,3.4600358249455687,-0.005386620759963989
1746738983549754600,12.580754638671875,0.22108196737158572,0.00432145269587636,0.1021891668676007,0.006062227301299572,0.014683291977319818,0.9778962057598567,0.07045910480062188,right,-0.0025043487548828125,-0.3603632448223972,2.012328979579359,-8.953401770314574,-0.18182661634019315,0.0016029453836381435,-0.004361629486083984,3.457963402585685,-0.00274050235748291
1746738983589754600,12.620754638671874,0.22142396808923911,0.0029486282728612423,0.10233919464873754,0.006097746081650257,0.014734280152707255,0.9778729926001111,0.07063297179494764,right,-0.004674255847930908,-0.36041422637872467,2.015352126792818,-8.952541354092956,-0.18186291451679257,-0.00458540441468358,-0.004820778965950012,3.458431312358379,-0.0014843940734863281
1746738983629755000,12.6607548828125,0.22165305425147547,0.001834043301641941,0.10244013463140242,0.0009245779365301132,0.014733565724182432,0.9778439027505127,0.07069687910490312,right,-0.005249619483947754,-0.3606077034281653,2.0172559145875275,-8.951426086327434,-0.18196234174595227,-0.005551738664507866,-0.0032503604888916016,3.460206797598302,-0.0014740824699401855
1746738983669754600,12.700754638671874,0.22181770639027426,0.0063270158134400845,0.10249739010621704,0.0036315075121819973,0.014805948192433915,0.9778179513660852,0.07089724048549086,right,-0.0033755898475646973,-0.36079179142219264,2.0185895012788473,-8.950472731125354,-0.18206369572502754,-0.004479489289224148,-0.0017731934785842896,3.4618957735985516,-0.0019946396350860596
1746738983709754600,12.740754638671875,0.22205576029738075,0.008665252476930618,0.10257863563434559,0.0028430968523025513,0.014967331709506421,0.9778005425069877,0.07127491775219696,right,-0.0043201446533203125,-0.3608194363830903,2.020699186909199,-8.949898146107792,-0.18209832387913455,-0.0003844350576400757,-0.0018005818128585815,3.4621494560986754,-0.0029578208923339844
1746738983749754600,12.780754638671874,0.2220945039153045,0.004438010044395924,0.10257100127901483,0.0002103624865412712,0.015128185455720628,0.9778053606060925,0.07159866077729488,right,-0.0026679039001464844,-0.36071359724044705,2.021126618541032,-8.950177547571062,-0.18206354634585523,0.0032823148649185896,-0.0032771825790405273,3.461178272978961,-0.0015853345394134521
1746738983789754600,12.820754638671875,0.22203150007507047,0.003197804093360901,0.1025352141963958,0.0007344557670876384,0.015198757367845057,0.9778238302746,0.07170941074734824,right,0.0009064674377441406,-0.3605281446341837,2.0207040092147888,-8.950930411764979,-0.1819782243346897,0.0021871558856219053,-0.0041777342557907104,3.4594767297580837,-0.003456205129623413
1746738983829754600,12.860754638671875,0.22167204154236958,-0.004923438653349876,0.1023780307610799,-0.003279946744441986,0.015170265025701696,0.977859765548197,0.07156207556655732,right,-0.0006312727928161621,-0.3603398885567635,2.0176295702055094,-8.952291763246059,-0.1818760367244695,0.008247418329119682,-0.0016232877969741821,3.457749175313115,-0.0034034550189971924
1746738983869755000,12.9007548828125,0.22162127367766174,-0.008585885167121887,0.10238721924399538,0.0032952269539237022,0.01499649162104303,0.9778670599488403,0.07119463553485093,right,-0.0021584033966064453,-0.3603179412867256,2.017191763310134,-8.952468288856744,-0.18184612634099856,0.0002835625782608986,-0.001085028052330017,3.457547807522118,-0.0013298988342285156
1746738983909755000,12.9407548828125,0.22138428267020085,-0.011171862483024597,0.10231401331637899,-0.0034445091150701046,0.014748971590293848,0.9778661186647559,0.07066720207413417,right,-0.001498878002166748,-0.3605125977037101,2.0149222109429537,-8.95228884063661,-0.1819124170969501,-0.0012457780539989471,-0.002474352717399597,3.4593341064170002,-0.0024815499782562256
1746738983949754600,12.980754638671876,0.22101892999633985,-0.0048281787894666195,0.10217212415234884,-0.005855340510606766,0.014557567618336556,0.9778764354357795,0.07022343619644902,right,-0.0027121305465698242,-0.36064616503907226,2.0115499580308795,-8.952573502796888,-0.18195226197049172,-0.0012912285747006536,-0.004179403185844421,3.460559556558728,-0.005109250545501709
1746738983989754600,13.020754638671875,0.22070684009561234,0.005921112839132547,0.102008556923877,-0.006298924796283245,0.014620367487143075,0.9778811976386153,0.07030800101769108,right,-0.004225492477416992,-0.36076735446107155,2.008664027331024,-8.95279211398363,-0.18201346959619003,-0.004343995358794928,-0.003923296928405762,3.4616716094538567,-0.0022733211517333984
1746738984029754600,13.060754638671876,0.22070003167033742,0.012755217030644417,0.10194856623129678,-0.003811943344771862,0.014897238401865003,0.977865176424275,0.07088921809267543,right,-0.0021380186080932617,-0.360905733710735,2.0084981692448256,-8.952337940475344,-0.18211061951381338,-0.004720366559922695,-0.00536423921585083,3.462941190998256,-0.0014878809452056885
1746738984069754600,13.100754638671875,0.2205612364330223,0.007529840338975191,0.1018502381129069,-0.00046483450569212437,0.015124874156135027,0.977891102375214,0.07129940850534518,right,-0.001052558422088623,-0.36065359416217746,2.0074466143652794,-8.953468405809998,-0.1820073819531402,0.009391718544065952,-0.004909604787826538,3.4606279456198212,-0.0014165043830871582
1746738984109754600,13.140754638671876,0.22046283994567883,-0.0019443235360085964,0.10181416595913659,0.00014629884390160441,0.015142846583932414,0.9779278185744864,0.07127549977972565,right,-0.004274904727935791,-0.36029190856944393,2.0068391499914227,-8.954886455914378,-0.18182882233281025,0.008588740602135658,-0.00562073290348053,3.457308738069236,-0.001405179500579834
1746738984149755000,13.1807548828125,0.22035179721727344,-0.001770886592566967,0.10178495976692298,0.005043570883572102,0.015074687581886384,0.9779591891356219,0.07108286799582415,right,-0.0025185346603393555,-0.36001339291489565,2.0060551600068806,-8.956048485431074,-0.1816821829150832,0.00631372258067131,-0.005454793572425842,3.4547529161065813,-0.003852635622024536
1746738984189754600,13.220754638671876,0.2206075877208279,0.0011857340577989817,0.10192785139571471,0.008128009736537933,0.015009917500415752,0.9779702554679048,0.07096665545729698,right,-0.0035181641578674316,-0.35974640445573336,2.0085477074749765,-8.956434854400158,-0.18154782212509574,0.0018586241640150547,-0.005198180675506592,3.4523023080840707,-0.005055844783782959
1746738984229754600,13.260754638671875,0.22094035143151955,0.00511979591101408,0.10208085558480184,0.006475041154772043,0.01503757491182884,0.9779547846790512,0.07108179854994363,right,-0.004376709461212158,-0.35971917834832506,2.0115486428566274,-8.955857931295037,-0.18154290049247013,-0.00285619730129838,-0.005089759826660156,3.4520524249762294,-0.0037470757961273193
1746738984269754600,13.300754638671876,0.2211579864017797,0.005455083213746548,0.10216004949575465,0.0008129444904625416,0.015138381430426345,0.9779306519167573,0.07134332903255454,right,-0.0036077499389648438,-0.359846655052303,2.013401138855517,-8.954990500810743,-0.18162013276737035,-0.003393229329958558,-0.005064874887466431,3.453222345538437,-0.003339052200317383
1746738984309754600,13.340754638671875,0.22122775859706328,0.005403583403676748,0.10216721531737866,0.0022581913508474827,0.015265338953667483,0.9779199724343931,0.0716227037062475,right,-0.0014139413833618164,-0.3599042811768005,2.0139822997443377,-8.954656154289841,-0.1816630670595208,-0.0017605393659323454,-0.0037692487239837646,3.4537513378486033,-0.0025484859943389893
1746738984349754600,13.380754638671876,0.22134594650773942,0.006469151005148888,0.10220320090890175,0.0016850440297275782,0.015389747209757615,0.9779194632454542,0.07188889975655552,right,-0.0038649439811706543,-0.35981758536567815,2.015106335338205,-8.954709930303693,-0.18163523804468368,0.0038022862281650305,-0.004460379481315613,3.4529555112957953,-0.0018574893474578857
1746738984389755000,13.4207548828125,0.2212628526058157,0.0010700477287173271,0.10215106103306634,-0.005436058156192303,0.015517177181238302,0.9779464300506657,0.07210097885323206,right,-0.00254666805267334,-0.3595359681401327,2.0145755894623694,-8.955825782591104,-0.18150794907463755,0.005200801882892847,-0.003358811140060425,3.450370755499601,-0.0009896159172058105
1746738984429754600,13.460754638671874,0.22112006949952515,0.0024891544599086046,0.10207263530185194,-0.0055231573060154915,0.015607950442455795,0.9779658629828105,0.07224216826140731,right,-0.0020335912704467773,-0.35938318916935375,2.0134123909018933,-8.956627162101864,-0.18143945392243918,-0.002976119052618742,-0.005489647388458252,3.4489681952252984,-0.004034280776977539
