time,seconds_elapsed,roll,rotationRateZ,quaternionY,rotationRateY,quaternionZ,quaternionW,yaw,devicelocation,accelerationZ,pitch,gravityX,gravityZ,quaternionX,rotationRateX,accelerationX,gravityY,accelerationY
1746575992200204500,0.24320458984375,-0.4911374536221047,0.0768561065196991,-0.22631000213190872,-0.03855711221694946,-8.144306114189247e-18,0.9496419205582359,-0.10783614919604544,right,-0.07297134399414062,-0.42420486933261714,-4.215162995357812,-7.881015699663758,-0.2167112928211449,0.06664109230041504,0.5421726107597351,4.036381130178272,0.0629454255104065
1746575992240204500,0.28320458984375,0.00116194323517279,0.05634499341249466,-0.02173852488820663,-0.03775499388575554,0.08894100619461205,0.9659810811184383,0.18391956377334598,right,0.003248751163482666,-0.4905773945522729,0.010050497700134291,-8.650056536877155,-0.24186207186610828,0.07704205811023712,0.11086352914571762,4.620259461264312,0.006169945001602173
1746575992280204500,0.32320458984375,0.12133230680777624,0.02117721363902092,0.027148560658736432,-0.03104802407324314,0.11036442325049524,0.9622470145877259,0.25871284554381696,right,0.004039585590362549,-0.489242841529384,1.047703976271674,-8.592582837551832,-0.24731183926674613,0.08221861720085144,0.003505304455757141,4.608711646811664,-0.003749340772628784
1746575992320204500,0.36320458984375,0.12475572055585585,0.01352912187576294,0.028439488067558055,-0.02751363255083561,0.11109775713480532,0.9619800113894752,0.26118513126987025,right,-0.004882872104644775,-0.4899537955701904,1.0767057604808359,-8.585692493516206,-0.24787638049260496,0.07442455738782883,-0.0015350505709648132,4.61486461648345,-0.013516426086425781
1746575992360204500,0.40320458984375,0.12460529688534702,-0.014411138370633125,0.028415580961677005,-0.02904568240046501,0.11132843935016484,0.9621092994225594,0.26150707014981517,right,-0.0008147358894348145,-0.4887025134346293,1.0761311023980378,-8.591576875379682,-0.24727315397977057,0.032875530421733856,-0.0014924034476280212,4.604033718128502,-0.016387969255447388
1746575992400204500,0.44320458984375,0.12428272075833242,0.0074698589742183685,0.02863994985296808,-0.0060333795845508575,0.1113659004025609,0.9626699641656326,0.26106560592760303,right,-0.009804069995880127,-0.48409029704119044,1.0759805149462074,-8.612903741046786,-0.2450384973047079,0.020337529480457306,-0.008742928504943848,4.564048913742601,-0.03357544541358948
1746575992440204500,0.48320458984375,0.12374347067637757,0.03421040251851082,0.028436208903671493,-0.021099917590618134,0.1118392267316497,0.9628629554522098,0.26172875882709984,right,-0.010118722915649414,-0.4821479029373917,1.072428083161637,-8.622263690066337,-0.24408658181273565,0.012272498570382595,-0.00994759052991867,4.547180781050026,-0.029139846563339233
1746575992480204500,0.52320458984375,0.12334459080373018,0.05145573616027832,0.028272044770174497,-0.005709794349968433,0.1130167973299675,0.9631899944162111,0.2637156086202823,right,-0.002513408660888672,-0.47834001754127903,1.0711113014746456,-8.639811621716618,-0.24226610460680745,-0.015856105834245682,-0.008358091115951538,4.5140620630413295,-0.012025505304336548
1746575992520204500,0.56320458984375,0.12225833431403621,0.015738021582365036,0.02785736134040237,0.009113192558288574,0.11401525444668759,0.9635699472048977,0.26514632046188713,right,0.0014345049858093262,-0.47438595563470715,1.0638939905069769,-8.658618028995393,-0.24032745387866356,-0.05046941339969635,-0.0018670782446861267,4.479603036339581,0.011631309986114502
1746575992560204500,0.60320458984375,0.12201615941724056,-0.009945301339030266,0.02780663810947624,0.030992036685347557,0.11387148886844167,0.9636264740118535,0.2647617095900329,right,0.007068336009979248,-0.4741084762840445,1.0619483363319189,-8.660109144335985,-0.2401751192136851,-0.020661965012550354,0.003423251211643219,4.477182238933444,0.00894153118133545
1746575992600204500,0.64320458984375,0.12250326832678204,-0.012507698498666286,0.028231639723928864,0.03725340962409973,0.11315228539941578,0.9637341209433666,0.2633613490756147,right,-0.0008500218391418457,-0.4737959701956302,1.0663375842668115,-8.660978912907838,-0.24003317930409732,0.05041249096393585,0.004624612629413605,4.474455444318056,0.0013267099857330322
1746575992640204500,0.68320458984375,0.12389353985250956,0.02404142916202545,0.029063576270792577,0.024872876703739166,0.11294716196388312,0.9639365996526168,0.26310786725767327,right,-0.00028461217880249023,-0.47193819356166167,1.0794030367407947,-8.667721957427263,-0.23921633572019968,0.0968637764453888,0.004447348415851593,4.458236130923033,-0.008222430944442749
1746575992680204500,0.72320458984375,0.1261013740123829,0.06305716931819916,0.03015055407208412,0.01797690987586975,0.11364657680697025,0.9641604150320492,0.26480647651690725,right,-0.003370821475982666,-0.4687678310758562,1.1003093389082699,-8.679296075364947,-0.23784444294289797,0.08309081196784973,0.0024621859192848206,4.4305216100454325,-0.008095592260360718
1746575992719576000,0.762576171875,0.1287896709549821,0.08633151650428772,0.031232892008509084,0.011426819488406181,0.11533280387887354,0.9642700681908889,0.2686443659978799,right,-0.0012025975156575441,-0.4654087110200656,1.1255430027555673,-8.691016908296943,-0.2364443571180517,0.01713607832789421,-0.0024350008461624384,4.401108468556404,0.0035569206811487675
1746575992759576000,0.802576171875,0.13082415763955924,0.05821759253740311,0.0319698589471459,0.02779119275510311,0.11624383248793561,0.9641523906816475,0.27098858419175975,right,-0.0020492076873779297,-0.4649516990867181,1.1434846829637884,-8.69070243552029,-0.23637976256980267,0.017523886635899544,-0.0014634355902671814,4.397103032307326,0.004554957151412964
1746575992799576000,0.842576171875,0.13285693088243553,0.030103670433163643,0.03270678438354686,0.04415556415915489,0.1171546217904842,0.9640333424203666,0.2733310356283595,right,-0.0028976798057556152,-0.4644903898525555,1.1614170838870108,-8.69036984256506,-0.23631482675806076,0.017911694943904877,-0.000490926206111908,4.39305901761353,0.005557000637054443
1746575992839576000,0.882576171875,0.1337562821453474,-0.007199263200163841,0.0331321705182654,0.03381891921162605,0.11705604394274971,0.9640092544589592,0.2733542440712477,right,-0.006561636924743652,-0.46456320100223714,1.169189690649882,-8.68900498395264,-0.2364028030975612,0.01213387493044138,0.0019042938947677612,4.393697315517068,0.008713454008102417
1746575992879576300,0.922576416015625,0.13394149785164206,-0.04109934717416763,0.03340824569079043,0.018438570201396942,0.11626241658864862,0.964096159500759,0.271756049521136,right,-0.004240155220031738,-0.46459185793228414,1.1707821474730968,-8.688663038647174,-0.23640079891860746,0.017809318378567696,0.003502458333969116,4.393948659929633,0.0012989044189453125
1746575992919576000,0.962576171875,0.13300383908568056,-0.03296330198645592,0.03328649817481383,0.0011618826538324356,0.11519234112852635,0.9643092597707987,0.2692589349656708,right,-0.0043517351150512695,-0.46410817309128016,1.162916382534057,-8.691862711471318,-0.23607270374727657,0.01803535781800747,0.0017268732190132141,4.389707369098067,-0.0032407641410827637
1746575992959576000,1.002576171875,0.13206770170240026,-0.0248272567987442,0.03316470321737282,-0.01611480489373207,0.11412207406875767,0.9645210250206891,0.26676280314059037,right,-0.004463374614715576,-0.4636222259012696,1.1550598238147796,-8.695061215251684,-0.23574423452604412,0.018261395394802094,-0.00004967302083969116,4.385445620000362,-0.007778286933898926
1746575992999576000,1.042576171875,0.131771392425443,0.0047491490840911865,0.03307278188732191,-0.01193007081747055,0.1141293308902143,0.9645899829014147,0.2666538560655744,right,-0.0029027462005615234,-0.4630928526950916,1.152788225620985,-8.697703254193067,-0.23547128550606847,0.013821104541420937,-0.00067891925573349,4.380801593586802,-0.011321783065795898
1746575993039576000,1.082576171875,0.13226587561778552,0.043413639068603516,0.03321201634810849,0.003350374288856983,0.1147382518523774,0.9645897076795176,0.26796302083188844,right,0.0015194416046142578,-0.4623342199999373,1.1575269445806742,-8.700424203589558,-0.2351569030148964,-0.007924329489469528,-0.0002871975302696228,4.374144181524217,-0.008422523736953735
1746575993079576000,1.122576171875,0.13406315571054309,0.04183007404208183,0.033767836086992055,0.0241488516330719,0.11584006203520701,0.9644152702590899,0.27067516241152256,right,0.0018477439880371094,-0.4622237825543452,1.1732266910810023,-8.698808585086464,-0.23525289570523333,-0.022952938452363014,0.001652553677558899,4.373174751970172,-0.0022898316383361816
1746575993119576000,1.162576171875,0.13525877522720567,0.02892172336578369,0.03422689395192774,0.0229943934828043,0.11632455691412043,0.9643668554643455,0.271930635524046,right,-0.001582503318786621,-0.46181209448929755,1.1838690080612897,-8.699182679095864,-0.2351459732123473,0.005254508927464485,0.0050785839557647705,4.369560945387184,0.0012390613555908203
1746575993159576000,1.202576171875,0.13574020999025618,-0.006902769207954407,0.03449314780180833,-0.011896001175045967,0.11652938182837784,0.9644580847881681,0.27235824709769074,right,-0.0011855363845825195,-0.46066553061747323,1.1887341298796237,-8.703569515877962,-0.2346308753557704,0.024365859106183052,0.005087688565254211,4.359491971315443,0.005085676908493042
1746575993199576000,1.242576171875,0.134741640150788,-0.02597353607416153,0.034181911611643724,-0.0016794120892882347,0.11621818069632375,0.9646156664916478,0.2713927735703352,right,0.007938981056213379,-0.45988702979920537,1.180497997258231,-8.708113004526496,-0.2341823856676096,0.0008039996027946472,0.012584112584590912,4.352651896162331,0.0064057111740112305
1746575993239576000,1.282576171875,0.13507686787450138,0.00045165419578552246,0.034345656836917655,-0.005542393773794174,0.11598518224759592,0.9645728901434935,0.2710437350059852,right,-0.009215712547302246,-0.460416896321698,1.183106353125721,-8.705430049052834,-0.2344502984286203,-0.008260823786258698,0.002313949167728424,4.357307613013685,-0.0008036494255065918
1746575993279576000,1.322576171875,0.13487181847036223,0.03207007050514221,0.034115076462371934,-0.027524715289473534,0.1164949571368807,0.9644994727231665,0.27206680094121505,right,-0.0034853219985961914,-0.46057687753812415,1.181227553641796,-8.704981720763444,-0.2345327432313094,0.0016349554061889648,0.006230376660823822,4.358713095897436,-0.0045455992221832275
1746575993319576000,1.362576171875,0.13473324856073762,0.04421325773000717,0.03376587996102908,-0.035651061683893204,0.11764203841592963,0.9643547725640639,0.2744204262032921,right,0.002286076545715332,-0.4606627240635496,1.1799709777094423,-8.704774215492606,-0.23460578604003515,-0.020189128816127777,0.00030416250228881836,4.3594671291351315,0.004053622484207153
1746575993359576000,1.402576171875,0.13413729218599466,0.028155634179711342,0.03313741604262177,-0.03125406801700592,0.11886531069770188,0.9641431466434833,0.2768824586016907,right,0.004556715488433838,-0.46136400444561826,1.1743739614199846,-8.702444311240315,-0.234948354544997,-0.026309186592698097,0.0012954846024513245,4.365626528547704,-0.0012316703796386719
1746575993399576000,1.442576171875,0.13440369574967367,0.018734093755483627,0.033138201755161995,-0.0027945972979068756,0.11921150257308145,0.9640451350110255,0.2777066993349015,right,0.002145707607269287,-0.4617757426017743,1.1764513522159308,-8.700349384787678,-0.23517543834857996,-0.016932880505919456,0.0026744678616523743,4.369241796435415,-0.0006355941295623779
1746575993439576000,1.482576171875,0.1353637909071233,0.021377451717853546,0.033453867957547595,0.009296777658164501,0.11950926367904463,0.9639164345050532,0.2786129528182437,right,-0.0016739964485168457,-0.4623153466720252,1.1844856786549092,-8.69687849380672,-0.23550676454751812,-0.014749811962246895,0.0012837499380111694,4.373978469568491,0.0003509223461151123
1746575993479576000,1.522576171875,0.13632469837538447,0.024020809680223465,0.033769522281467644,0.021388152614235878,0.11980701261698773,0.9637873525371758,0.2795200672901314,right,-0.005494415760040283,-0.46285414683039683,1.1925215394638478,-8.693399419519304,-0.23583802517365088,-0.012566742487251759,-0.00010713189840316772,4.37870695939511,0.0013383328914642334
1746575993519576000,1.562576171875,0.13703020427844048,0.018181312829256058,0.03395949025598384,-0.006205039098858833,0.12026127641891275,0.9636843475521665,0.28065684927167966,right,-0.003789544105529785,-0.4630646577148597,1.1985285247936843,-8.691642931240796,-0.23600058281757064,0.0028852131217718124,-0.0012849867343902588,4.38055404856652,0.0004572570323944092
1746575993559576000,1.602576171875,0.1370506008915125,-0.00008408166468143463,0.033958663071351806,-0.010375626385211945,0.12048900992902326,0.9637150633253458,0.2810815296408711,right,-0.0017151832580566406,-0.46254404131705884,1.1990172581586986,-8.693876973903178,-0.235759287735289,0.01376131922006607,-0.0032581090927124023,4.375985717737675,0.008394122123718262
1746575993599576000,1.642576171875,0.13603883784625295,-0.016339344903826714,0.03359329340362351,-0.007396703585982323,0.12033433238075171,0.9638385570715973,0.280449292960867,right,0.005260288715362549,-0.4619134693366892,1.1905944438587874,-8.697817235961557,-0.2353852270740019,0.018254103139042854,-0.0002568736672401428,4.370450879964232,0.008234500885009766
1746575993639576300,1.682576416015625,0.13544123142597564,-0.003888719715178013,0.03352477872406707,0.005029506981372833,0.11994207743464011,0.9640460922833743,0.27936639127604357,right,0.0007688403129577637,-0.46069048999963286,1.1861172253794967,-8.7038167686373,-0.23474436710408295,0.0413222461938858,0.00297536700963974,4.359711167024075,0.003932952880859375
1746575993679576000,1.722576171875,0.1354116550506101,0.011554820463061333,0.033566269378003596,-0.0051668258383870125,0.12000711384955909,0.9641316662727916,0.2794124452932764,right,-0.002350449562072754,-0.4598781249900907,1.1863375170666723,-8.70735838676691,-0.23435350963533338,0.03750783950090408,0.004427671432495117,4.352573570229113,0.00440138578414917
1746575993719576000,1.762576171875,0.13563369749093723,0.05903976410627365,0.03361565953735722,-0.013883463107049465,0.1207483419884111,0.9642000295113523,0.2808556266563931,right,-0.0037834644317626953,-0.4584040692025628,1.1891371577225625,-8.713442090594768,-0.23368365533305516,0.0361553393304348,0.001713573932647705,4.339615304456651,-0.003677576780319214
1746575993759576000,1.802576171875,0.13632219184906638,0.09929165244102478,0.03372863986634146,-0.013205358758568764,0.12219148342027175,0.9641900944129707,0.2838434781007774,right,-0.0004696846008300781,-0.45669826323693363,1.1961403144828975,-8.719942558529972,-0.23295710602555014,0.04815175011754036,0.0009938180446624756,4.3246077049389475,-0.006531119346618652
1746575993799576000,1.842576171875,0.1383074492273976,0.1084870919585228,0.03432809170322913,-0.0010200636461377144,0.12453674091642929,0.9641611809617054,0.2888848132795128,right,-0.004406630992889404,-0.45373657872825085,1.2152097566120326,-8.730198579606414,-0.23174408357454745,0.05266605317592621,-0.00017624348402023315,4.298521077524125,-0.004884123802185059
1746575993839576000,1.882576171875,0.13919637230165707,0.057043470442295074,0.034507596486533516,-0.018446877598762512,0.12658070316081915,0.9641971814126493,0.29303414585585796,right,-0.00017118453979492188,-0.4507884239779224,1.2247227773014455,-8.741627151593566,-0.2304566602954884,0.05517721548676491,0.00031982362270355225,4.272516575434803,-0.01597711443901062
1746575993879576300,1.922576416015625,0.13906580918051498,0.010931428521871567,0.03449042064963476,-0.01668385975062847,0.12706650901869215,0.9643323480994416,0.2938305187121609,right,-0.00300520658493042,-0.4490440482469589,1.2246126679904759,-8.749154624488948,-0.2296250390630202,0.04401150718331337,0.0011623874306678772,4.2571123778149484,-0.018221735954284668
1746575993919576000,1.962576171875,0.13805170659734853,-0.0392046757042408,0.034230513541670934,-0.002607184462249279,0.12672457207191426,0.9645579109313712,0.29274372468386983,right,0.0013405084609985352,-0.44771530561525075,1.216516820622608,-8.755987100857496,-0.22890426981962125,0.00948343425989151,0.004142835736274719,4.245369917573035,-0.019266724586486816
1746575993959576000,2.002576171875,0.13705480634623313,-0.05586174130439758,0.034056056924996345,0.008891656994819641,0.12561195193275868,0.9647543375392802,0.2901829635995465,right,0.0019789934158325195,-0.44754369053643234,1.207886866378039,-8.757916607615352,-0.22871529353310568,-0.01351039856672287,0.006499648094177246,4.2438527910083526,-0.018916696310043335
1746575993999576000,2.042576171875,0.13687048542959815,-0.04115084931254387,0.03404775331239311,0.010122057050466537,0.1249889263492455,0.9647512721134666,0.2889297858900739,right,-0.0002849102020263672,-0.4483522231314071,1.2058039956893771,-8.754737393057345,-0.22907064515589562,-0.04168123006820679,0.0056452155113220215,4.250999447892606,-0.013374119997024536
1746575994039576000,2.082576171875,0.13685633151002283,0.002655457705259323,0.03391827283591623,-0.007027875632047653,0.12468334359260379,0.9645462989356866,0.28851581574008606,right,-0.0021743178367614746,-0.4505481215376871,1.2044036273721606,-8.745485580587387,-0.23011705659900278,-0.07242003083229065,0.002857394516468048,4.270395053236186,-0.006392955780029297
1746575994079576000,2.122576171875,0.1379477466719025,0.046334993094205856,0.03389806252404693,0.020347250625491142,0.12540893110730586,0.9639882751306885,0.29067270889252167,right,0.008750379085540771,-0.45437021164796915,1.211694661163166,-8.727935310849547,-0.23205611700658835,-0.10627242922782898,0.004822395741939545,4.304105307397246,0.010209798812866211
1746575994119576000,2.162576171875,0.1394935643392112,0.054363932460546494,0.034242267830142316,0.012639324180781841,0.12614621542085902,0.9636179626203778,0.29278070741953177,right,-0.0030100345611572266,-0.45635534251144716,1.2239945360921323,-8.717573491311073,-0.2331413711517644,-0.06966044008731842,0.001694224774837494,4.321589233900607,0.010656565427780151
1746575994159576000,2.202576171875,0.1407628413147106,0.04927987605333328,0.03441619181678091,-0.014123496599495411,0.12738377549611535,0.9632875353572891,0.29577366672181027,right,-0.0003725886344909668,-0.4574700064018639,1.2343819284632802,-8.71123785854876,-0.23380755685396162,-0.004719346761703491,0.00008270144462585449,4.331398972514272,0.01795351505279541
1746575994199576000,2.242576171875,0.14080102117392865,0.03159986436367035,0.03432637947292076,-0.013566308654844761,0.12806010802234402,0.9632668555268367,0.2971220875252457,right,0.004105210304260254,-0.4568502826752212,1.2350910996459423,-8.71384716426432,-0.23353615592682103,0.02490762248635292,-0.00010217726230621338,4.325945675544441,0.01715746521949768
1746575994239576000,2.282576171875,0.14043270798313814,0.019477952271699905,0.03416399723639081,-0.00873550120741129,0.12859500890620434,0.963372366905863,0.2979906508477334,right,0.0035961270332336426,-0.45539433754264386,1.2327617799155413,-8.720528249463438,-0.23282956421778314,0.04258465766906738,-0.0014209896326065063,4.313127402764558,0.009904921054840088
1746575994279576000,2.322576171875,0.14050693214707674,0.007644148543477058,0.034293658939328196,0.0006786538287997246,0.1289654457998551,0.9635471262012746,0.29856682035508836,right,-0.0031903982162475586,-0.4533843523356552,1.2346207056552172,-8.729003232342004,-0.23188064673353984,0.04798765480518341,0.0008950233459472656,4.295416389507055,0.004557162523269653
1746575994319576000,2.362576171875,0.1402986679703194,0.005831400863826275,0.034284543696390876,-0.002207729732617736,0.12908401201725614,0.9636769636930456,0.2986334952339561,right,-0.0019530057907104492,-0.4521487872143973,1.2335440163344145,-8.734508844020962,-0.23127592925744198,0.043700966984033585,0.0007387250661849976,4.284520316961407,-0.0003586411476135254
1746575994359576000,2.402576171875,0.1404366065378725,0.01488037221133709,0.034452780105573226,-0.0006267071003094316,0.12925813163432487,0.9638280798177697,0.29886072239744843,right,-0.004097163677215576,-0.45055080085487353,1.2357055782824753,-8.741106342589855,-0.23052245956340986,0.03615676239132881,0.0018030554056167603,4.270418726372719,-0.009424030780792236
1746575994399576000,2.442576171875,0.14040738092415123,0.031961590051651,0.0344794907160996,-0.025550182908773422,0.12986984000121946,0.9639718314658919,0.299912247562953,right,-0.006204366683959961,-0.4485351334141629,1.236652211482823,-8.749647960963845,-0.229571918217129,0.03692391887307167,-0.0016414448618888855,4.252615943178534,-0.010730564594268799
1746575994439576000,2.482576171875,0.14033806260791756,0.028781510889530182,0.034433364811050395,-0.02039283514022827,0.1302911689867819,0.9640202793912779,0.30067304087377705,right,-0.0015915632247924805,-0.44760863845312593,1.2365962435118854,-8.75363089312017,-0.22913611572318493,0.029863927513360977,-0.001903332769870758,4.244426791504025,-0.005808234214782715
1746575994479576000,2.522576171875,0.14033710211655992,0.004887310788035393,0.034462893525228695,-0.003613928332924843,0.1306337495421454,0.9641074498200759,0.3012578713573458,right,-0.00013518333435058594,-0.4464062096830467,1.2373008846499025,-8.758679408681392,-0.22856930948201482,0.02192312479019165,-0.0010383576154708862,4.233793753808737,-0.0008135437965393066
1746575994519576000,2.562576171875,0.14041368685988437,-0.034281641244888306,0.03465356992242703,0.01900315470993519,0.13030399682632543,0.9642425725744596,0.3005042354104629,right,0.0011442303657531738,-0.4455658545477158,1.2384690516464412,-8.762104122433065,-0.2281581251202457,0.013096479699015617,0.0015266388654708862,4.226358635371923,0.0020170211791992188
1746575994559576000,2.602576171875,0.14065183961122865,-0.054224781692028046,0.03508480487545405,0.03058292716741562,0.1290930663372732,0.9644413993492572,0.29800784217233317,right,-0.0025554299354553223,-0.445169812498606,1.240790334200859,-8.763465473914145,-0.22794000705964287,0.018063900992274284,0.0033235251903533936,4.222853842121363,-0.002384871244430542
1746575994599576000,2.642576171875,0.14058760683010438,-0.03879975527524948,0.03527905447024072,0.010606003925204277,0.1282836721206379,0.9645905180185577,0.2962776145436969,right,-0.006106734275817871,-0.44481688835997896,1.2404362600661814,-8.765020302140712,-0.22773603911287504,0.017812062054872513,0.0031913965940475464,4.219729864881932,-0.003472566604614258
1746575994639576300,2.682576416015625,0.14010858054987796,-0.010670021176338196,0.03525593216742364,-0.010374793782830238,0.12770270384335233,0.9647535196650928,0.2948940557273953,right,-0.004680216312408447,-0.4441797694158542,1.2366126101247965,-8.768273750978707,-0.22737514478835558,0.01933683082461357,0.001966342329978943,4.2140889363855125,-0.0037467479705810547
1746575994679576000,2.722576171875,0.1395579372568859,0.016194239258766174,0.0350461272185465,-0.020096514374017715,0.12785675761931012,0.9648449249392567,0.29499576681084766,right,-0.0011249184608459473,-0.44332793494139244,1.232283056487888,-8.77250510493815,-0.22693274980219177,0.014150146394968033,-0.0001515597105026245,4.206544512355327,-0.0012167394161224365
1746575994719576000,2.762576171875,0.13898629812535257,0.02728131413459778,0.034712867617334324,-0.014766307547688484,0.12845745540291245,0.964866565724468,0.2960289896401284,right,0.0026317238807678223,-0.44257471336542153,1.2277068346135318,-8.77634366018772,-0.2265524559057086,0.0025163954123854637,-0.002467706799507141,4.19987073367983,0.0029943883419036865
1746575994759576000,2.802576171875,0.13906369062284854,0.013885818421840668,0.03465772426343369,-0.002062031999230385,0.128823903947417,0.9648100138867566,0.2968117259171243,right,0.005026817321777344,-0.44262267734746397,1.228358138129115,-8.77604906115532,-0.2265940182677332,-0.009150399826467037,-0.0014834702014923096,4.200295681093633,0.0051819682121276855
1746575994799576000,2.842576171875,0.13968945160215515,-0.009191518649458885,0.03488718960128304,0.02608596719801426,0.12881646751227677,0.9647214104266619,0.2970084122884527,right,0.004269003868103027,-0.4432524537374332,1.2334810341008007,-8.772657665151357,-0.22694010635444659,-0.00748187443241477,-0.00047850608825683594,4.205875819313526,0.0032669007778167725
1746575994839576000,2.882576171875,0.14034805707146272,-0.013864412903785706,0.03523891533366621,0.02789989486336708,0.128538351473867,0.9647202792645875,0.29660245953157827,right,0.00048232078552246094,-0.44340370606620383,1.2391694550007581,-8.771213311561942,-0.22704799211332574,0.0023370501585304737,0.0011208951473236084,4.207215543484687,0.0025781989097595215
1746575994879576300,2.922576416015625,0.14106334233428774,-0.012101436965167522,0.035666838194394264,0.012993790209293365,0.12812487419740287,0.9647573946768321,0.2959082721062585,right,-0.003022909164428711,-0.4433522975912192,1.245473523581028,-8.770538773301244,-0.22705691793971094,0.006540094502270222,0.0018052905797958374,4.206760200932622,-0.0008586347103118896
1746575994919576000,2.962576171875,0.1412412334946257,0.0004507647827267647,0.03583515850655256,0.00427872221916914,0.12792002159940208,0.9648258819767889,0.29548088843512615,right,-0.0028644800186157227,-0.4429236656211833,1.2472872950047253,-8.772101200312376,-0.22685487033614243,0.014709829352796078,0.005853086709976196,4.202962854476273,-0.0049610435962677
1746575994959576000,3.002576171875,0.14152716893501488,0.004433972295373678,0.03599874488160617,0.0034014566335827112,0.1279331915834378,0.9648586083146516,0.2955338689717803,right,-0.005582332611083984,-0.442524550319838,1.2500320636682212,-8.773404099604488,-0.2266824699969118,0.010939467698335648,0.004105418920516968,4.199426204782724,-0.003974318504333496
1746575994999576000,3.042576171875,0.1416342535934788,0.007400305010378361,0.036062980515741826,-0.0012323681730777025,0.12807360778812663,0.9648947450638765,0.29579477780084895,right,-0.0014803409576416016,-0.44199359423887863,1.2512861553825436,-8.775476814225316,-0.22643908023342665,0.012452260591089725,0.003095492720603943,4.1947202190488575,-0.003722071647644043
1746575995039576000,3.082576171875,0.14203913843322766,0.0065483530052006245,0.03625518740887709,0.003538886783644557,0.12828492395521116,0.9649220263171141,0.29626241474897885,right,0.0005339384078979492,-0.4413669531636078,1.2552109276108443,-8.777569987112283,-0.22617257969936205,0.006024170201271772,0.0019778311252593994,4.189164630748332,-0.0038216114044189453
1746575995079576000,3.122576171875,0.14203913843322766,-0.001010725274682045,0.03625518740887709,-0.003971869125962257,0.12828492395521116,0.9649220263171141,0.29626241474897885,right,-0.0014392733573913574,-0.4413669531636078,1.2552109276108443,-8.777569987112283,-0.22617257969936205,-0.008786788210272789,0.0026323050260543823,4.189164630748332,-0.002522587776184082
1746575995119576300,3.162576416015625,0.14203913843322766,0.0004128948785364628,0.03625518740887709,-0.010148687288165092,0.12828492395521116,0.9649220263171141,0.29626241474897885,right,-0.003937482833862305,-0.4413669531636078,1.2552109276108443,-8.777569987112283,-0.22617257969936205,-0.017156198620796204,0.0019420236349105835,4.189164630748332,-0.0016739964485168457
1746575995159576000,3.202576171875,0.14196431469998252,0.0085679329931736,0.03606812638788887,-0.004997406154870987,0.12864131255876873,0.964793895816102,0.29706280317705425,right,-0.0023880600929260254,-0.4421254247961349,1.254104281543195,-8.77451586023867,-0.22654640918529537,-0.012556910514831543,0.0006298869848251343,4.195888678306341,-0.001996457576751709
1746575995199576000,3.242576171875,0.14222226050252093,0.011109935119748116,0.03611863015809479,0.009459374472498894,0.1289862319667947,0.9647558472830813,0.29782248701825526,right,0.00033402442932128906,-0.4419735272250651,1.2564578589320181,-8.774822734230757,-0.22650383499435914,0.014399442821741104,0.0025322139263153076,4.194542232133448,-0.0005217492580413818
1746575995239576000,3.282576171875,0.1422454585411803,0.0015866421163082123,0.03616447200360688,0.0023104255087673664,0.12906341839208235,0.9648085950822374,0.2979270547755526,right,0.0011808276176452637,-0.4413917756577724,1.2570071633778512,-8.777207583540678,-0.22622792046904008,0.010046078823506832,0.0017039626836776733,4.189384703239798,0.0003400146961212158
1746575995279576000,3.322576171875,0.1422454585411803,0.0009638768387958407,0.03616447200360688,0.007074919529259205,0.12906341839208235,0.9648085950822374,0.2979270547755526,right,0.00040984153747558594,-0.4413917756577724,1.2570071633778512,-8.777207583540678,-0.22622792046904008,0.006016128230839968,0.0009168088436126709,4.189384703239798,-0.00015676021575927734
1746575995319576000,3.362576171875,0.14264244188658168,0.005401241593062878,0.03637364898313184,0.006728079169988632,0.12906685328146805,0.9648295617670923,0.2979941417461211,right,-0.00018405914306640625,-0.4410758332222205,1.2606795682802796,-8.778017730879784,-0.22610306649121553,-0.0009814430959522724,0.0004802197217941284,4.1865830898225305,-0.0004462897777557373
1746575995359576000,3.402576171875,0.14264244188658168,0.006048836279660463,0.03637364898313184,0.005511563271284103,0.12906685328146805,0.9648295617670923,0.2979941417461211,right,-0.00040912628173828125,-0.4410758332222205,1.2606795682802796,-8.778017730879784,-0.22610306649121553,-0.009723097085952759,0.0008965432643890381,4.1865830898225305,0.0004639625549316406
1746575995399576000,3.442576171875,0.1429474253599248,0.0045769657008349895,0.036441843276413394,0.0022817193530499935,0.129184701092874,0.9647520589905645,0.298359301815607,right,-0.0005599260330200195,-0.4415460907729384,1.2630761080279946,-8.775683150452375,-0.2263551742733921,-0.010163309052586555,0.0009430050849914551,4.190753068983555,0.0001653730869293213
1746575995439576000,3.482576171875,0.14325267026640448,0.0031050951220095158,0.03651002863672225,-0.00094812479801476,0.1293025489042795,0.9646745562140367,0.2987247503609018,right,-0.0007110238075256348,-0.4420163079419136,1.2654733784280716,-8.773345647415518,-0.22660727012885165,-0.010603521019220352,0.000989377498626709,4.194921586839855,-0.00013309717178344727
1746575995479576000,3.522576171875,0.14325267026640448,0.005855969153344631,0.03651002863672225,-0.004480577073991299,0.1293025489042795,0.9646745562140367,0.2987247503609018,right,-0.0012151598930358887,-0.4420163079419136,1.2654733784280716,-8.773345647415518,-0.22660727012885165,-0.002738233655691147,0.0003696531057357788,4.194921586839855,-0.0017693042755126953
1746575995519576000,3.562576171875,0.14334221374168676,0.007857409305870533,0.036475892865022744,-0.002500532427802682,0.1295670395401382,0.9646208003118805,0.29930877679778817,right,-0.00047087669372558594,-0.4421551347237378,1.26617568147853,-8.772655911585687,-0.22669036521249433,-0.00021856906823813915,-0.0003275275230407715,4.196152005417645,-0.0009744167327880859
1746575995559576000,3.602576171875,0.14334221374168676,0.0013769189827144146,0.036475892865022744,0.0023015111219137907,0.1295670395401382,0.9646208003118805,0.29930877679778817,right,-0.0006228089332580566,-0.4421551347237378,1.26617568147853,-8.772655911585687,-0.22669036521249433,-0.0016270069172605872,-0.00015312433242797852,4.196152005417645,0.0015274584293365479
1746575995599576000,3.642576171875,0.14334221374168676,-0.003579051699489355,0.036475892865022744,-0.00027075991965830326,0.1295670395401382,0.9646208003118805,0.29930877679778817,right,-0.0013343095779418945,-0.4421551347237378,1.26617568147853,-8.772655911585687,-0.22669036521249433,0.0023767934180796146,-0.000015482306480407715,4.196152005417645,0.0003827214241027832
1746575995639576300,3.682576416015625,0.14334221374168676,-0.003224239218980074,0.036475892865022744,-0.0006367598543874919,0.1295670395401382,0.9646208003118805,0.29930877679778817,right,-0.0023931264877319336,-0.4421551347237378,1.26617568147853,-8.772655911585687,-0.22669036521249433,0.006646033842116594,0.000034689903259277344,4.196152005417645,-0.0025985538959503174
1746575995679576000,3.722576171875,0.14334221374168676,0.0009049144573509693,0.036475892865022744,-0.005485359579324722,0.1295670395401382,0.9646208003118805,0.29930877679778817,right,-0.001958906650543213,-0.4421551347237378,1.26617568147853,-8.772655911585687,-0.22669036521249433,0.004049616865813732,0.00016367435455322266,4.196152005417645,-0.002838999032974243
1746575995719576000,3.762576171875,0.14334221374168676,-0.0029339443426579237,0.036475892865022744,0.0044554248452186584,0.1295670395401382,0.9646208003118805,0.29930877679778817,right,0.0003795623779296875,-0.4421551347237378,1.26617568147853,-8.772655911585687,-0.22669036521249433,-0.0033033397048711777,0.00040502846240997314,4.196152005417645,-0.0005512237548828125
1746575995759576000,3.802576171875,0.14334221374168676,-0.008793046697974205,0.036475892865022744,0.0038614978548139334,0.1295670395401382,0.9646208003118805,0.29930877679778817,right,-0.001103222370147705,-0.4421551347237378,1.26617568147853,-8.772655911585687,-0.22669036521249433,-0.00791070144623518,0.0003460198640823364,4.196152005417645,0.0018144547939300537
1746575995799576000,3.842576171875,0.14330755573589346,-0.011573697440326214,0.036503400573513825,0.010249835439026356,0.12925543113819873,0.9646280951086871,0.2986888020976948,right,0.0005189180374145508,-0.4424800435159407,1.2656767920456826,-8.771350089684129,-0.2268327576942434,-0.006609434727579355,0.0007056742906570435,4.199031652507186,0.0014069080352783203
1746575995839576000,3.882576171875,0.14330755573589346,0.00026899948716163635,0.036503400573513825,0.007073180750012398,0.12925543113819873,0.9646280951086871,0.2986888020976948,right,-0.0018902420997619629,-0.4424800435159407,1.2656767920456826,-8.771350089684129,-0.2268327576942434,-0.0006139161996543407,0.0006440430879592896,4.199031652507186,-0.0007547438144683838
1746575995879576300,3.922576416015625,0.14376050355612524,0.011529294773936272,0.036698139621879164,-0.0018322169780731201,0.12928084211620092,0.9646028181933185,0.2988545053990565,right,-0.0028805136680603027,-0.44254147792303516,1.2696128163203597,-8.770520653122663,-0.22689454037830598,0.0010949767893180251,0.0008839517831802368,4.199576134647429,0.0002471804618835449
1746575995919576000,3.962576171875,0.14376050355612524,0.011859194375574589,0.036698139621879164,-0.007541990373283625,0.12928084211620092,0.9646028181933185,0.2988545053990565,right,-0.001084446907043457,-0.44254147792303516,1.2696128163203597,-8.770520653122663,-0.22689454037830598,-0.0006588718388229609,0.0014447569847106934,4.199576134647429,0.0008576810359954834
1746575995959576000,4.002576171875,0.14366567370997524,0.008216306567192078,0.03657698795447555,-0.008654744364321232,0.1296453605499213,0.964566342453304,0.29957908657927085,right,0.0017172694206237793,-0.44245705724310985,1.2688317489452658,-8.770991777765751,-0.22686115928554323,0.003033298999071121,0.0007661134004592896,4.19882794662863,0.0012130141258239746
1746575995999576000,4.042576171875,0.14366567370997524,0.0024710996076464653,0.03657698795447555,0.0012950273230671883,0.1296453605499213,0.964566342453304,0.29957908657927085,right,0.0011138319969177246,-0.44245705724310985,1.2688317489452658,-8.770991777765751,-0.22686115928554323,-0.0017159869894385338,0.0003500431776046753,4.19882794662863,0.0008202493190765381
1746575996039576000,4.082576171875,0.14366567370997524,0.003856740426272154,0.03657698795447555,0.0032573940698057413,0.1296453605499213,0.964566342453304,0.29957908657927085,right,0.00029724836349487305,-0.44245705724310985,1.2688317489452658,-8.770991777765751,-0.22686115928554323,-0.004598106257617474,0.0000683218240737915,4.19882794662863,-0.0007514059543609619
1746575996079576000,4.122576171875,0.14366567370997524,0.006095183081924915,0.03657698795447555,0.006946631707251072,0.1296453605499213,0.964566342453304,0.29957908657927085,right,-0.00015479326248168945,-0.44245705724310985,1.2688317489452658,-8.770991777765751,-0.22686115928554323,0.0024442379362881184,0.00046096742153167725,4.19882794662863,-0.0006665587425231934
1746575996119576300,4.162576416015625,0.14431186982374716,-0.000018551014363765717,0.0368456878598626,0.007174788974225521,0.1298373670438952,0.9645418516934124,0.3001069206984648,right,-0.0007748007774353027,-0.4422467858298138,1.2746262605682015,-8.771043215692043,-0.22681186146594057,0.008333941921591759,0.0017782002687454224,4.196964490844309,0.0013978183269500732
1746575996159576000,4.202576171875,0.14431186982374716,-0.010030520148575306,0.0368456878598626,0.003749632043763995,0.1298373670438952,0.9645418516934124,0.3001069206984648,right,-0.0014615654945373535,-0.4422467858298138,1.2746262605682015,-8.771043215692043,-0.22681186146594057,0.009863821789622307,0.0026397258043289185,4.196964490844309,0.00008532404899597168
1746575996199576000,4.242576171875,0.14430369629643422,-0.01061064749956131,0.0369491744029273,0.0009955235291272402,0.12959216542306085,0.9646338851256201,0.2995397796639404,right,-0.0014121532440185547,-0.4417106360291113,1.2748778972417116,-8.773279596441984,-0.22654356003765433,0.00939252320677042,0.0020457804203033447,4.192211743359268,-0.002825498580932617
1746575996239576000,4.282576171875,0.14422737194361035,-0.0015473132953047752,0.03698601437605875,-0.0008195261470973492,0.12945665660796152,0.9647019579628732,0.2991952966669757,right,-0.0013886094093322754,-0.44127947701514975,1.2744680012665688,-8.775164679536223,-0.22632528781740935,0.007570804096758366,0.0015366077423095703,4.188388970200717,-0.0034582912921905518
1746575996279576000,4.322576171875,0.14422737194361035,0.006808031350374222,0.03698601437605875,-0.0003398740664124489,0.12945665660796152,0.9647019579628732,0.2991952966669757,right,-0.0022441744804382324,-0.44127947701514975,1.2744680012665688,-8.775164679536223,-0.22632528781740935,0.003630423452705145,0.0010840296745300293,4.188388970200717,-0.00339624285697937
1746575996319576000,4.362576171875,0.14422737194361035,0.006415350362658501,0.03698601437605875,0.0007443529320880771,0.12945665660796152,0.9647019579628732,0.2991952966669757,right,-0.0015817880630493164,-0.44127947701514975,1.2744680012665688,-8.775164679536223,-0.22632528781740935,-0.0003187446855008602,0.0013144910335540771,4.188388970200717,-0.0020520389080047607
1746575996359576000,4.402576171875,0.14456632829478325,0.0053918808698654175,0.0371154972373596,0.00006493390537798405,0.1297155767215181,0.9646980947556386,0.2997706592944568,right,-0.0014640092849731445,-0.4408929706110755,1.2776754190057515,-8.776333723315597,-0.2261723799466661,0.0037325769662857056,0.0004931539297103882,4.1849613338395955,-0.000982910394668579
1746575996399576000,4.442576171875,0.14456632829478325,-0.0004514288157224655,0.0371154972373596,-0.00011669103696476668,0.1297155767215181,0.9646980947556386,0.2997706592944568,right,-0.0012196898460388184,-0.4408929706110755,1.2776754190057515,-8.776333723315597,-0.2261723799466661,0.0012704140972346067,0.0004909932613372803,4.1849613338395955,0.0004976093769073486
1746575996439576000,4.482576171875,0.14456632829478325,-0.0038753075059503317,0.0371154972373596,0.0032909633591771126,0.1297155767215181,0.9646980947556386,0.2997706592944568,right,-0.0009878873825073242,-0.4408929706110755,1.2776754190057515,-8.776333723315597,-0.2261723799466661,-0.0011545857414603233,0.0004649609327316284,4.1849613338395955,-0.00031620264053344727
1746575996479576000,4.522576171875,0.14456632829478325,-0.005456407088786364,0.0371154972373596,0.0034519871696829796,0.1297155767215181,0.9646980947556386,0.2997706592944568,right,-0.0005400776863098145,-0.4408929706110755,1.2776754190057515,-8.776333723315597,-0.2261723799466661,-0.0018024565652012825,0.0009341239929199219,4.1849613338395955,-0.000051647424697875977
1746575996519576000,4.562576171875,0.14456632829478325,-0.003700879868119955,0.0371154972373596,-0.0007117553614079952,0.1297155767215181,0.9646980947556386,0.2997706592944568,right,-0.0011181831359863281,-0.4408929706110755,1.2776754190057515,-8.776333723315597,-0.2261723799466661,-0.002400091150775552,0.0015982389450073242,4.1849613338395955,-0.0009022951126098633
1746575996559576000,4.602576171875,0.14456632829478325,-0.0019453525310382247,0.0371154972373596,-0.004875498358160257,0.1297155767215181,0.9646980947556386,0.2997706592944568,right,-0.0016963481903076172,-0.4408929706110755,1.2776754190057515,-8.776333723315597,-0.2261723799466661,-0.002997725736349821,0.0022623538970947266,4.1849613338395955,-0.0017529428005218506
1746575996599576000,4.642576171875,0.14495806117177343,-0.002185272751376033,0.03731357354177535,0.007210762705653906,0.12950630364832594,0.9646779289635474,0.299462586226454,right,-0.0016837120056152344,-0.44121274293225016,1.2809199538849294,-8.774507676932215,-0.22634552715310713,-0.005885519552975893,0.0016814470291137695,4.187797141787409,0.00018641352653503418
1746575996639576300,4.682576416015625,0.14495806117177343,-0.007839275524020195,0.03731357354177535,0.0019826777279376984,0.12950630364832594,0.9646779289635474,0.299462586226454,right,-0.001743614673614502,-0.44121274293225016,1.2809199538849294,-8.774507676932215,-0.22634552715310713,-0.006796745117753744,0.002813190221786499,4.187797141787409,0.0026164650917053223
1746575996679576000,4.722576171875,0.1450447948964953,-0.010555003769695759,0.037389772695432894,0.0019483634969219565,0.1291568351136619,0.9646679629347837,0.2988105526895411,right,-0.0006067156791687012,-0.441703897828195,1.281383479743451,-8.772360143509507,-0.22657471618010178,-0.002424781210720539,0.0022227615118026733,4.19215212212652,0.0019086599349975586
1746575996719576000,4.762576171875,0.1449946272783212,-0.002878071740269661,0.03736869776029589,0.0006115545984357595,0.12905864759897423,0.9646575718809209,0.29861969189676907,right,-0.0006326436996459961,-0.44193450106147825,1.2808037801593541,-8.771467578583955,-0.22667858003242924,-0.005052866414189339,0.0013330280780792236,4.194196487435698,0.0014586448669433594
1746575996759576000,4.802576171875,0.1449946272783212,0.0047988612204790115,0.03736869776029589,-0.0007252544164657593,0.12905864759897423,0.9646575718809209,0.29861969189676907,right,-0.0005674958229064941,-0.44193450106147825,1.2808037801593541,-8.771467578583955,-0.22667858003242924,-0.007680951617658138,0.0003841668367385864,4.194196487435698,0.0012170672416687012
1746575996799576000,4.842576171875,0.1449946272783212,0.0062160189263522625,0.03736869776029589,-0.0015123605262488127,0.12905864759897423,0.9646575718809209,0.29861969189676907,right,0.00014597177505493164,-0.44193450106147825,1.2808037801593541,-8.771467578583955,-0.22667858003242924,-0.004723806865513325,0.00037382543087005615,4.194196487435698,0.002061694860458374
1746575996839576000,4.882576171875,0.1449946272783212,0.004133882466703653,0.03736869776029589,0.0013167320284992456,0.12905864759897423,0.9646575718809209,0.29861969189676907,right,0.002427041530609131,-0.44193450106147825,1.2808037801593541,-8.771467578583955,-0.22667858003242924,0.008548866026103497,0.0021369457244873047,4.194196487435698,0.001331031322479248
1746575996879576300,4.922576416015625,0.14516338952774122,-0.00008912337943911552,0.0374661305278135,0.0045420401729643345,0.12912539936325246,0.964685971978237,0.29875607165016266,right,-0.0011548399925231934,-0.4415421789137489,1.2825219822540879,-8.772879198947548,-0.2265037109323707,0.01573900878429413,0.0013784021139144897,4.190718289931119,-0.00003209710121154785
1746575996919576000,4.962576171875,0.1450303152573644,-0.004710532259196043,0.037462073538285304,-0.003842707257717848,0.1290999802570795,0.9647539139013207,0.29861386986403304,right,-0.0013491511344909668,-0.4409933451256016,1.2816867004737258,-8.775323669490218,-0.22622903366690889,0.015200207009911537,0.0007827877998352051,4.1858515606775875,0.0008151829242706299
1746575996959576000,5.002576171875,0.14488953471282254,-0.005881235469132662,0.03747411986768679,0.0003530038520693779,0.12898876157795167,0.9648331051536817,0.29829261453550726,right,-0.0002594590187072754,-0.44044901645804324,1.2807801070228217,-8.777757618638873,-0.22595262786820633,0.015773633494973183,0.00030197203159332275,4.181023702129721,0.0007474124431610107
1746575996999576000,5.042576171875,0.1449085519940588,-0.005690216086804867,0.03757533298423172,0.004441506695002317,0.1288275509156657,0.9649190879530991,0.29789983897668304,right,-0.00048613548278808594,-0.4398534712641933,1.2813063228540122,-8.780195659440755,-0.2256605605899291,0.015448734164237976,0.0002012103796005249,4.1757399165079,-0.00002276897430419922
1746575997039576000,5.082576171875,0.14510440329057114,-0.008187085390090942,0.037750993065473575,0.008345657028257847,0.12866572354784953,0.9649915766574744,0.29755433753131844,right,-0.0003922581672668457,-0.43932585519512163,1.2833442584224044,-8.782123412632941,-0.22541334188214474,0.01195196807384491,0.0010736733675003052,4.17105789617151,0.0003165900707244873
1746575997079576000,5.122576171875,0.1452688764694796,-0.006722623016685247,0.03790357760894035,0.003728570882230997,0.12845957591581542,0.9650483703645758,0.2971315861655137,right,-0.0018116235733032227,-0.4390055566606935,1.2849820887573062,-8.783233419701457,-0.22526212089556166,0.0050999680534005165,0.0017223507165908813,4.168214781700074,-0.0010026395320892334
1746575997119576300,5.162576416015625,0.1452688764694796,-0.002726281061768532,0.03790357760894035,0.001720441970974207,0.12845957591581542,0.9650483703645758,0.2971315861655137,right,-0.0018188953399658203,-0.4390055566606935,1.2849820887573062,-8.783233419701457,-0.22526212089556166,0.004673810675740242,0.001949504017829895,4.168214781700074,-0.0010595321655273438
1746575997159576000,5.202576171875,0.1452688764694796,0.0009205329697579145,0.03790357760894035,-0.00119566242210567,0.12845957591581542,0.9650483703645758,0.2971315861655137,right,-0.0017015337944030762,-0.4390055566606935,1.2849820887573062,-8.783233419701457,-0.22526212089556166,0.0032096963841468096,0.0007985234260559082,4.168214781700074,-0.0007969439029693604
1746575997199576000,5.242576171875,0.14524123251266027,0.004573575686663389,0.03792399425761172,-0.003457583487033844,0.12846172405950096,0.9650888524499993,0.29709091207684574,right,-0.001156151294708252,-0.43864018092819135,1.2849595846645534,-8.78477538844645,-0.22508411289929658,-0.00018290849402546883,0.0004320293664932251,4.164971269734203,-0.0007392466068267822
1746575997239576000,5.282576171875,0.14524123251266027,0.005044464487582445,0.03792399425761172,-0.0014619661960750818,0.12846172405950096,0.9650888524499993,0.29709091207684574,right,-0.0006850361824035645,-0.43864018092819135,1.2849595846645534,-8.78477538844645,-0.22508411289929658,0.0003629818093031645,0.0007877051830291748,4.164971269734203,-0.0003459453582763672
1746575997279576000,5.322576171875,0.14524123251266027,0.0003268793225288391,0.03792399425761172,-0.00041523436084389687,0.12846172405950096,0.9650888524499993,0.29709091207684574,right,-0.0004290938377380371,-0.43864018092819135,1.2849595846645534,-8.78477538844645,-0.22508411289929658,-0.001378761837258935,0.0009893178939819336,4.164971269734203,-0.00009638071060180664
1746575997319576000,5.362576171875,0.14524123251266027,-0.0013037646422162652,0.03792399425761172,0.0011347170220687985,0.12846172405950096,0.9650888524499993,0.29709091207684574,right,-0.00021207332611083984,-0.43864018092819135,1.2849595846645534,-8.78477538844645,-0.22508411289929658,-0.0013328097993507981,0.0006045252084732056,4.164971269734203,-0.00011554360389709473
1746575997359576000,5.402576171875,0.14524123251266027,-0.0013310328358784318,0.03792399425761172,0.003992541693150997,0.12846172405950096,0.9650888524499993,0.29709091207684574,right,-0.0006074309349060059,-0.43864018092819135,1.2849595846645534,-8.78477538844645,-0.22508411289929658,-0.0019002726767212152,0.001747041940689087,4.164971269734203,-0.0008064806461334229
1746575997399576000,5.442576171875,0.14524123251266027,0.00177230394911021,0.03792399425761172,-0.0006660083308815956,0.12846172405950096,0.9650888524499993,0.29709091207684574,right,-0.0016157031059265137,-0.43864018092819135,1.2849595846645534,-8.78477538844645,-0.22508411289929658,-0.010777439922094345,0.0015202164649963379,4.164971269734203,-0.0023517906665802
1746575997439576000,5.482576171875,0.14543594252652225,-0.00037887843791395426,0.03792336194488547,-0.0025259116664528847,0.1285193178994725,0.9649843162734021,0.29734343448132794,right,0.0003363490104675293,-0.4394681083274548,1.2861698372371495,-8.781109851676225,-0.2254989728031091,-0.025651132687926292,0.0016930252313613892,4.172320463453233,-0.003490239381790161
1746575997479576000,5.522576171875,0.14541977800953157,-0.0005481166299432516,0.037786655540633735,-0.003623249474912882,0.12854692556892053,0.9648352033258062,0.2975386861620024,right,0.0010488033294677734,-0.4408047056284006,1.285218673992157,-8.775605409041047,-0.226143335734785,-0.03792797774076462,0.0006245225667953491,4.184178659029305,-0.004015147686004639
1746575997519576000,5.562576171875,0.14587596842467634,-0.0015320987440645695,0.03785039903844257,0.020835058763623238,0.12854159445907706,0.9646473448452574,0.2978027258097053,right,0.0014998912811279297,-0.44238412052812265,1.2882596491232514,-8.768468981289862,-0.22693577768911483,-0.04100704938173294,0.0005968660116195679,4.198181465418637,-0.0006065964698791504
1746575997559576000,5.602576171875,0.1465046057287772,-0.009626315906643867,0.038028513797325136,0.010158456861972809,0.12838980051883042,0.9644743751066571,0.29780278622546563,right,-0.00471949577331543,-0.4439452536549311,1.2928132207743823,-8.76116245766878,-0.22772536714075342,-0.03414593264460564,0.0005151182413101196,4.2120121301114555,0.002909749746322632
1746575997599576000,5.642576171875,0.14653828077970407,-0.015002620406448841,0.03800970127435659,0.006281265057623386,0.1281003408975829,0.9643891610637564,0.2973294184829773,right,-0.0018059611320495605,-0.44505682752646797,1.2924237830653786,-8.756481606376171,-0.22825188310547675,-0.016013193875551224,0.0020694583654403687,4.221853725168109,0.0027438700199127197
1746575997639576300,5.682576416015625,0.14653828077970407,-0.005999190732836723,0.03800970127435659,0.0006428207270801067,0.1281003408975829,0.9643891610637564,0.2973294184829773,right,-0.001987278461456299,-0.44505682752646797,1.2924237830653786,-8.756481606376171,-0.22825188310547675,-0.008647909387946129,0.0017315298318862915,4.221853725168109,0.0022357702255249023
1746575997679576000,5.722576171875,0.14653828077970407,0.00300423800945282,0.03800970127435659,-0.00499562406912446,0.1281003408975829,0.9643891610637564,0.2973294184829773,right,-0.002168595790863037,-0.44505682752646797,1.2924237830653786,-8.756481606376171,-0.22825188310547675,-0.0012826253660023212,0.0013935863971710205,4.221853725168109,0.0017277002334594727
1746575997719576000,5.762576171875,0.14633648984504494,0.0019335966790094972,0.03790844029132529,-0.01189432479441166,0.1280509210159128,0.9643773913577527,0.29720365897199663,right,-0.0014570355415344238,-0.44528575595443914,1.2905159036174416,-8.755786025327444,-0.2283463996713089,-0.01065284013748169,0.0005003809928894043,4.223879970298707,0.002696692943572998
1746575997759576000,5.802576171875,0.14578712633033633,-0.0020232521928846836,0.03760588165695641,-0.009342743083834648,0.1280267500616942,0.9643294252803571,0.2970908924646839,right,0.0026658177375793457,-0.4459179214440632,1.2853174581915139,-8.753850088828802,-0.2286124070193803,-0.01865578442811966,0.0012960433959960938,4.229473844783008,-0.0018792152404785156
1746575997799576000,5.842576171875,0.1458558162530372,-0.003955482505261898,0.03757730719732682,0.0081594567745924,0.12793106284752248,0.9642406286520079,0.2970043347742436,right,0.0012457966804504395,-0.4468136054628879,1.2853675809435545,-8.75001036453545,-0.22904488137406134,-0.022301478311419487,0.0008385926485061646,4.23739703899771,-0.0015763938426971436
1746575997839576000,5.882576171875,0.14609985412336673,-0.009221957996487617,0.037643060589757166,0.009149699471890926,0.12772544913553446,0.9641462765470973,0.29674503656036216,right,-0.0010349154472351074,-0.447835057789394,1.2868721402876078,-8.745409592741728,-0.22954559114433185,-0.022347690537571907,0.0013752728700637817,4.246428486715257,-0.0011823177337646484
1746575997879576300,5.922576416015625,0.1462970732928883,-0.010504642501473427,0.03771917916513897,0.009579367004334927,0.1274565424803088,0.9640814458991883,0.2963243591075507,right,-0.0012931227684020996,-0.4486776002936808,1.288074794075638,-8.741613123068213,-0.22995438682217675,-0.015498580411076546,0.0012509971857070923,4.253874711067974,-0.0011242032051086426
1746575997919576000,5.962576171875,0.1465137775335223,-0.0070845093578100204,0.037823105061551954,0.010647043585777283,0.1272121977107642,0.9640423843116604,0.2959307092686325,right,-0.0014140605926513672,-0.4492520186786548,1.289612232775986,-8.73891497002542,-0.23023625451874205,-0.009681105613708496,0.0011929720640182495,4.258949530114233,-0.0010969340801239014
1746575997959576000,6.002576171875,0.1465137775335223,-0.005089283920824528,0.037823105061551954,0.012528738938272,0.1272121977107642,0.9640423843116604,0.2959307092686325,right,-0.0006322860717773438,-0.4492520186786548,1.289612232775986,-8.73891497002542,-0.23023625451874205,-0.005135044921189547,0.0018480867147445679,4.258949530114233,0.00011536478996276855
1746575997999576000,6.042576171875,0.14698753801511788,-0.008180014789104462,0.03806574172596702,0.006972501985728741,0.12695869611253296,0.9640193265394558,0.295556735903354,right,-0.0009061098098754883,-0.44961326992142914,1.2935267758712172,-8.736780296084284,-0.23043253037339376,-0.0037603420205414295,0.002152055501937866,4.262140435110032,0.0008709728717803955
1746575998039576000,6.082576171875,0.14698753801511788,-0.008185761980712414,0.03806574172596702,-0.001126282848417759,0.12695869611253296,0.9640193265394558,0.295556735903354,right,-0.0005081892013549805,-0.44961326992142914,1.2935267758712172,-8.736780296084284,-0.23043253037339376,-0.0010361461900174618,0.001940399408340454,4.262140435110032,0.0009123384952545166
1746575998079576000,6.122576171875,0.14680030835512248,0.0017218077555298805,0.038009597329351115,-0.006119376979768276,0.12675134906660812,0.9640280081565872,0.29510587592957693,right,-0.0009642839431762695,-0.4498375332086178,1.2917511445008218,-8.736076531729102,-0.23051963601535871,-0.0009967527585104108,0.001262769103050232,4.264121087533235,-0.0010003745555877686
1746575998119576300,6.162576416015625,0.14680030835512248,0.014727877452969551,0.038009597329351115,-0.003203257452696562,0.12675134906660812,0.9640280081565872,0.29510587592957693,right,-0.0011723637580871582,-0.4498375332086178,1.2917511445008218,-8.736076531729102,-0.23051963601535871,0.0009055094560608268,0.0004157423973083496,4.264121087533235,-0.00047776103019714355
1746575998159576000,6.202576171875,0.14694532888527975,0.014477760531008244,0.037991001392255495,-0.001789880101568997,0.1271214623465212,0.9639791906275283,0.2959037522199831,right,-0.0007951855659484863,-0.44979400528286073,1.2930452759645878,-8.736073024597763,-0.23052311977524828,-0.0004056650213897228,0.0009552985429763794,4.263736472129821,0.002348273992538452
1746575998199576000,6.242576171875,0.14694532888527975,0.004689035005867481,0.037991001392255495,0.0017741761403158307,0.1271214623465212,0.9639791906275283,0.2959037522199831,right,0.00010901689529418945,-0.44979400528286073,1.2930452759645878,-8.736073024597763,-0.23052311977524828,0.0030057437252253294,0.0022017955780029297,4.263736472129821,0.0015808641910552979
1746575998239576000,6.282576171875,0.14694532888527975,0.0008168555796146393,0.037991001392255495,0.0013975253095850348,0.1271214623465212,0.9639791906275283,0.2959037522199831,right,-0.000029027462005615234,-0.44979400528286073,1.2930452759645878,-8.736073024597763,-0.23052311977524828,0.005412940867245197,0.0018785148859024048,4.263736472129821,-0.0015467405319213867
1746575998279576000,6.322576171875,0.14694532888527975,-0.0005708233220502734,0.037991001392255495,-0.0031661447137594223,0.1271214623465212,0.9639791906275283,0.2959037522199831,right,-0.0009166598320007324,-0.44979400528286073,1.2930452759645878,-8.736073024597763,-0.23052311977524828,0.0003377925604581833,0.001352652907371521,4.263736472129821,-0.0008296966552734375
1746575998319576000,6.362576171875,0.14694532888527975,-0.005551828537136316,0.037991001392255495,0.00003078649751842022,0.1271214623465212,0.9639791906275283,0.2959037522199831,right,0.0012645721435546875,-0.44979400528286073,1.2930452759645878,-8.736073024597763,-0.23052311977524828,-0.00456465408205986,0.001424163579940796,4.263736472129821,-0.0005168318748474121
1746575998359576000,6.402576171875,0.14694532888527975,-0.006948237307369709,0.037991001392255495,-0.0029783491045236588,0.1271214623465212,0.9639791906275283,0.2959037522199831,right,0.0004886388778686523,-0.44979400528286073,1.2930452759645878,-8.736073024597763,-0.23052311977524828,-0.0018853312358260155,0.001113012433052063,4.263736472129821,-0.0007390081882476807
1746575998399576000,6.442576171875,0.14694532888527975,-0.001540559809654951,0.037991001392255495,-0.006272424012422562,0.1271214623465212,0.9639791906275283,0.2959037522199831,right,-0.002042055130004883,-0.44979400528286073,1.2930452759645878,-8.736073024597763,-0.23052311977524828,-0.0036100526340305805,0.000570937991142273,4.263736472129821,-0.0003546178340911865
1746575998439576000,6.482576171875,0.14694532888527975,0.003867118153721094,0.037991001392255495,-0.009566498920321465,0.1271214623465212,0.9639791906275283,0.2959037522199831,right,-0.004572749137878418,-0.44979400528286073,1.2930452759645878,-8.736073024597763,-0.23052311977524828,-0.005334774032235146,0.00002886354923248291,4.263736472129821,0.000029772520065307617
1746575998479576000,6.522576171875,0.1465076914393451,0.00470138993114233,0.037735203604838875,-0.008519458584487438,0.12724957850763335,0.9639453475741185,0.2960954977026648,right,-0.00015300512313842773,-0.4500793069948737,1.289044223629683,-8.735434142172336,-0.2306357529102802,-0.0006798622198402882,0.0015454292297363281,4.266256053735315,-0.0002481043338775635
1746575998519576000,6.562576171875,0.14612158984053364,0.007253574673086405,0.037528127909324714,-0.011384678073227406,0.1274058973396096,0.9639448410126369,0.29632076308450145,right,-0.00007194280624389648,-0.45001679093907804,1.2857102569013834,-8.736195189672708,-0.23058542569659884,0.002999016083776951,0.0007276833057403564,4.265703972810506,-0.00011679530143737793
1746575998559576000,6.602576171875,0.14581874899465405,0.008728084154427052,0.0373403511250242,-0.009856504388153553,0.12763028713609678,0.9639297110605688,0.29670982914388444,right,-0.0003948807716369629,-0.44997877165613637,1.2830880917042493,-8.736744640249013,-0.2305551604977321,-0.0028024930506944656,0.0004029572010040283,4.265368164984881,-0.0004194676876068115
1746575998599576000,6.642576171875,0.14569365048363472,0.008868861012160778,0.037204165173078355,-0.0074175624176859856,0.12788784134336495,0.9638783557611307,0.29723484817001095,right,-0.0003497600555419922,-0.450170879299085,1.281876085565984,-8.736094067385793,-0.23064908223018518,-0.007305514998733997,0.0009259134531021118,4.267064447508752,0.0008178949356079102
1746575998639576300,6.682576416015625,0.14555946609512355,0.009939039126038551,0.03706792033599679,-0.008748915046453476,0.12812800455686044,0.9638295389638142,0.29772168968217705,right,-0.0008845925331115723,-0.4503635122164126,1.2805845844507218,-8.735452846872805,-0.2307418937881755,-0.0007106293924152851,0.00009486079216003418,4.2687654062077405,0.0010420680046081543
1746575998679576000,6.722576171875,0.14555946609512355,0.00514489458873868,0.03706792033599679,0.000650603324174881,0.12812800455686044,0.9638295389638142,0.29772168968217705,right,-0.0013307929039001465,-0.4503635122164126,1.2805845844507218,-8.735452846872805,-0.2307418937881755,0.004760723561048508,0.000499337911605835,4.2687654062077405,0.0020818114280700684
1746575998719576000,6.762576171875,0.14555946609512355,0.0009815013036131859,0.03706792033599679,-0.003916934598237276,0.12812800455686044,0.9638295389638142,0.29772168968217705,right,-0.002228260040283203,-0.4503635122164126,1.2805845844507218,-8.735452846872805,-0.2307418937881755,0.003410087898373604,0.0004757344722747803,4.2687654062077405,0.0009186863899230957
1746575998759576000,6.802576171875,0.14555946609512355,0.00406377948820591,0.03706792033599679,-0.000977255403995514,0.12812800455686044,0.9638295389638142,0.29772168968217705,right,-0.0003714561462402344,-0.4503635122164126,1.2805845844507218,-8.735452846872805,-0.2307418937881755,0.0019313489319756627,0.00025221705436706543,4.2687654062077405,-0.0013027191162109375
1746575998799576000,6.842576171875,0.14555946609512355,0.008010250516235828,0.03706792033599679,0.003330537583678961,0.12812800455686044,0.9638295389638142,0.29772168968217705,right,-0.00026541948318481445,-0.4503635122164126,1.2805845844507218,-8.735452846872805,-0.2307418937881755,-0.0015191897982731462,0.0005076080560684204,4.2687654062077405,-0.0015364587306976318
1746575998839576000,6.882576171875,0.14598002240601798,0.004776254761964083,0.03720060777508997,0.005170381627976894,0.1283939920665904,0.9637862129011071,0.2983681578635098,right,-0.0003708004951477051,-0.45030606587567495,1.2842938142322002,-8.735155909752844,-0.2307533418666765,-0.008353091776371002,0.0014567524194717407,4.268258041207492,0.0004488229751586914
1746575998879576300,6.922576416015625,0.14598002240601798,-0.0012319330126047134,0.03720060777508997,0.004763677716255188,0.1283939920665904,0.9637862129011071,0.2983681578635098,right,-0.0005272626876831055,-0.45030606587567495,1.2842938142322002,-8.735155909752844,-0.2307533418666765,-0.010816504247486591,0.0017450004816055298,4.268258041207492,0.001132875680923462
1746575998919576000,6.962576171875,0.14627336848445507,-0.0048941755667328835,0.03729438037215927,0.0034180954098701477,0.12837026555205716,0.9637250262139446,0.2984415030590305,right,-0.0012143254280090332,-0.45079313353680195,1.2865531374663113,-8.73272079156041,-0.2310070502135998,-0.006236074957996607,0.0021610409021377563,4.272558076488972,0.000982433557510376
1746575998959576000,7.002576171875,0.14627336848445507,-0.0022653345949947834,0.03729438037215927,0.001381236594170332,0.12837026555205716,0.9637250262139446,0.2984415030590305,right,-0.0012058019638061523,-0.45079313353680195,1.2865531374663113,-8.73272079156041,-0.2310070502135998,-0.003637835616245866,0.0015027821063995361,4.272558076488972,0.0002888143062591553
1746575998999576000,7.042576171875,0.14627336848445507,0.00036350591108202934,0.03729438037215927,-0.0006556222215294838,0.12837026555205716,0.9637250262139446,0.2984415030590305,right,-0.0011973381042480469,-0.45079313353680195,1.2865531374663113,-8.73272079156041,-0.2310070502135998,-0.0010395965073257685,0.0008445233106613159,4.272558076488972,-0.00040480494499206543
1746575999039576000,7.082576171875,0.14627336848445507,0.006083568092435598,0.03729438037215927,0.001035111490637064,0.12837026555205716,0.9637250262139446,0.2984415030590305,right,-0.0010073184967041016,-0.45079313353680195,1.2865531374663113,-8.73272079156041,-0.2310070502135998,-0.0010336843552067876,0.001781180500984192,4.272558076488972,-0.0007905364036560059
1746575999079576000,7.122576171875,0.14627336848445507,0.009281229227781296,0.03729438037215927,0.0008703445782884955,0.12837026555205716,0.9637250262139446,0.2984415030590305,right,-0.00009530782699584961,-0.45079313353680195,1.2865531374663113,-8.73272079156041,-0.2310070502135998,-0.003920215182006359,0.0017021894454956055,4.272558076488972,-0.0003883838653564453
1746575999119576300,7.162576416015625,0.14666757042554315,0.006488148123025894,0.03739944771031329,0.0005774542805738747,0.12856495910165455,0.9636528023151193,0.2989716965187271,right,-0.0000451207160949707,-0.4510868098250124,1.2898119931317864,-8.73097131754458,-0.23118306077434153,-0.005947442725300789,0.000806167721748352,4.275150138808787,-0.00018402934074401855
1746575999159576000,7.202576171875,0.14666757042554315,-0.0014507966116070747,0.03739944771031329,0.0038849401753395796,0.12856495910165455,0.9636528023151193,0.2989716965187271,right,-0.00008052587509155273,-0.4510868098250124,1.2898119931317864,-8.73097131754458,-0.23118306077434153,-0.008086181245744228,0.0020461827516555786,4.275150138808787,0.0007088780403137207
1746575999199576000,7.242576171875,0.14666757042554315,-0.0021815719082951546,0.03739944771031329,0.002516587497666478,0.12856495910165455,0.9636528023151193,0.2989716965187271,right,0.00014007091522216797,-0.4510868098250124,1.2898119931317864,-8.73097131754458,-0.23118306077434153,-0.008701025508344173,0.0016236752271652222,4.275150138808787,0.0009748935699462891
1746575999239576000,7.282576171875,0.14705536551853282,-0.005154483951628208,0.03752328047540907,0.01443648710846901,0.12847690054885424,0.9635628682527603,0.29896717251037763,right,0.0005391240119934082,-0.45187601706123,1.2927030383981764,-8.727130424207449,-0.23158622342248641,-0.010344551876187325,0.0020926594734191895,4.282114132602513,0.0016684532165527344
1746575999279576000,7.322576171875,0.14741368613064057,-0.006256147287786007,0.03766592169450339,0.004292171448469162,0.128329125909731,0.9635033474000424,0.2988111598420367,right,-0.002497732639312744,-0.4524730322707589,1.2954542368024586,-8.724135918566583,-0.231892451284687,-0.00799157377332449,0.0019345730543136597,4.287380382567644,0.0014918744564056396
1746575999319576000,7.362576171875,0.1474312335312311,-0.004401393234729767,0.0376698101618802,0.0019650012254714966,0.12819413978777963,0.9634765650614161,0.29857772920574854,right,0.0000016689300537109375,-0.45286621491413687,1.2953596903868019,-8.72244548126161,-0.23207763056588337,-0.004011808428913355,0.002809286117553711,4.290847766417265,0.0005721151828765869
1746575999359576000,7.402576171875,0.1474312335312311,0.004295474849641323,0.0376698101618802,-0.005576971918344498,0.12819413978777963,0.9634765650614161,0.29857772920574854,right,0.00008034706115722656,-0.45286621491413687,1.2953596903868019,-8.72244548126161,-0.23207763056588337,-0.003029974177479744,0.0012990981340408325,4.290847766417265,0.0004429817199707031
1746575999399576000,7.442576171875,0.14739195693784587,0.01106184534728527,0.0375757097758716,-0.007941852323710918,0.1284202084223258,0.9634215108254983,0.2990629273983526,right,-0.00040155649185180664,-0.45310054011496914,1.2948694226518274,-8.721501478409767,-0.2321965345380979,-0.0058077797293663025,0.0009270757436752319,4.2929140512973065,0.000697016716003418
1746575999439576000,7.482576171875,0.14733203583805957,0.005511312745511532,0.037459123571648566,-0.007794653531163931,0.12867812323827776,0.963356350855229,0.2996155451110369,right,-0.0004321932792663574,-0.45339255467433087,1.294162735687196,-8.72033886437118,-0.23234298513683654,-0.007943322882056236,0.0009628981351852417,4.295488577960431,0.0035656988620758057
1746575999479576000,7.522576171875,0.14733203583805957,0.0009913505055010319,0.037459123571648566,0.0007783272303640842,0.12867812323827776,0.963356350855229,0.2996155451110369,right,-0.00038230419158935547,-0.45339255467433087,1.294162735687196,-8.72033886437118,-0.23234298513683654,-0.002593119628727436,0.0012210160493850708,4.295488577960431,0.0025769174098968506
1746575999519576000,7.562576171875,0.14733203583805957,-0.0035286112688481808,0.037459123571648566,0.009351307526230812,0.12867812323827776,0.963356350855229,0.2996155451110369,right,-0.0003324151039123535,-0.45339255467433087,1.294162735687196,-8.72033886437118,-0.23234298513683654,0.002757083624601364,0.0014791339635849,4.295488577960431,0.0015881359577178955
1746575999559576000,7.602576171875,0.14733203583805957,-0.005421215668320656,0.037459123571648566,0.0025203386321663857,0.12867812323827776,0.963356350855229,0.2996155451110369,right,-0.0017764568328857422,-0.45339255467433087,1.294162735687196,-8.72033886437118,-0.23234298513683654,0.0024086707271635532,0.0016029924154281616,4.295488577960431,0.000290602445602417
1746575999599576000,7.642576171875,0.14733203583805957,-0.003067870857194066,0.037459123571648566,0.0007837502053007483,0.12867812323827776,0.963356350855229,0.2996155451110369,right,-0.0009022951126098633,-0.45339255467433087,1.294162735687196,-8.72033886437118,-0.23234298513683654,0.004482982214540243,0.0011302381753921509,4.295488577960431,-0.001324474811553955
1746575999639576300,7.682576416015625,0.14733203583805957,0.003386889351531863,0.037459123571648566,0.0016301737632602453,0.12867812323827776,0.963356350855229,0.2996155451110369,right,-0.0009003877639770508,-0.45339255467433087,1.294162735687196,-8.72033886437118,-0.23234298513683654,0.0036299743223935366,0.0007677227258682251,4.295488577960431,-0.0018892884254455566
1746575999679576000,7.722576171875,0.14733203583805957,0.005187008995562792,0.037459123571648566,0.0016407304210588336,0.12867812323827776,0.963356350855229,0.2996155451110369,right,-0.0008116364479064941,-0.45339255467433087,1.294162735687196,-8.72033886437118,-0.23234298513683654,0.0020457208156585693,0.001875355839729309,4.295488577960431,-0.0007210373878479004
1746575999719576000,7.762576171875,0.14733203583805957,0.0023056946229189634,0.037459123571648566,0.0024744789116084576,0.12867812323827776,0.963356350855229,0.2996155451110369,right,-0.001041114330291748,-0.45339255467433087,1.294162735687196,-8.72033886437118,-0.23234298513683654,0.0014736793236806989,0.0018082410097122192,4.295488577960431,-0.000009328126907348633
1746575999759576000,7.802576171875,0.14747745456576072,-0.00033420673571527004,0.037533049833972564,-0.0002675177529454231,0.12879958900136368,0.9633800067450304,0.2998595323211389,right,-0.0005769133567810059,-0.4529935169190978,1.2956824926003814,-8.721845177280903,-0.2321656898012606,0.0009399187983945012,0.0013396739959716797,4.291970340706408,0.00015550851821899414
1746575999799576000,7.842576171875,0.14747745456576072,-0.0005482077831402421,0.037533049833972564,-0.001489460002630949,0.12879958900136368,0.9633800067450304,0.2998595323211389,right,-0.0008546710014343262,-0.4529935169190978,1.2956824926003814,-8.721845177280903,-0.2321656898012606,-0.0013501843204721808,0.0016582906246185303,4.291970340706408,-0.00008845329284667969
1746575999839576000,7.882576171875,0.14747745456576072,0.0029186252504587173,0.037533049833972564,-0.003951645456254482,0.12879958900136368,0.9633800067450304,0.2998595323211389,right,-0.0012364983558654785,-0.4529935169190978,1.2956824926003814,-8.721845177280903,-0.2321656898012606,-0.0012045830953866243,0.0013403147459030151,4.291970340706408,-0.0006566643714904785
1746575999879576300,7.922576416015625,0.14747745456576072,0.006159881595522165,0.037533049833972564,-0.005372075363993645,0.12879958900136368,0.9633800067450304,0.2998595323211389,right,-0.0006178021430969238,-0.4529935169190978,1.2956824926003814,-8.721845177280903,-0.2321656898012606,-0.0018738757353276014,0.0005532801151275635,4.291970340706408,-0.0003458261489868164
1746575999919576000,7.962576171875,0.14737978237460372,0.003912619315087795,0.037412732607125465,-0.004477481823414564,0.129082217709878,0.963336038100521,0.3004318990812676,right,0.0004203915596008301,-0.4530779224315821,1.294777506584674,-8.721613122090696,-0.23221056569141182,-0.006638231687247753,0.0001443624496459961,4.292714729332924,0.0005567371845245361
1746575999959576000,8.002576171875,0.14737978237460372,-0.0008232123218476772,0.037412732607125465,0.00014685280621051788,0.129082217709878,0.963336038100521,0.3004318990812676,right,0.00029098987579345703,-0.4530779224315821,1.294777506584674,-8.721613122090696,-0.23221056569141182,-0.005474338307976723,-0.00020833313465118408,4.292714729332924,0.001147836446762085
1746575999999576000,8.042576171875,0.14737978237460372,-0.006484647747129202,0.037412732607125465,0.0011671165702864528,0.129082217709878,0.963336038100521,0.3004318990812676,right,0.000030159950256347656,-0.4530779224315821,1.294777506584674,-8.721613122090696,-0.23221056569141182,-0.006195771507918835,0.0012103170156478882,4.292714729332924,0.0013399124145507812
1746576000039576000,8.082576171875,0.1472226084129489,-0.005617879331111908,0.03729699015602657,0.0011460523819550872,0.12904645592081834,0.9632823694005769,0.3003812864527787,right,-0.0006995797157287598,-0.4536456303346831,1.2930489292263985,-8.71940479839146,-0.23247151440345673,-0.005763475317507982,0.0006963163614273071,4.29771940575242,-0.0000819861888885498
1746576000079576000,8.122576171875,0.14698408962703183,-0.0015411530621349812,0.03714536745361455,-0.003792872652411461,0.12904226642450178,0.9632374540549657,0.30036650877640086,right,-0.00022661685943603516,-0.45412121034145686,1.2906696328744292,-8.717689811167121,-0.2326837503218415,-0.006914085242897272,0.0008683502674102783,4.301911304484308,-0.0011665821075439453
1746576000119576300,8.162576416015625,0.14674557138565442,0.0025355732068419456,0.03699374772081659,-0.008731798268854618,0.12903812463505382,0.9631925744412457,0.3003517709527082,right,0.0002460479736328125,-0.4545969044051217,1.2882909210443496,-8.715971901333331,-0.23289600263342783,-0.00806469563394785,0.001040339469909668,4.30610291095525,-0.002251178026199341
1746576000159576000,8.202576171875,0.1466811259266203,-0.0020531192421913147,0.0369099054237661,-0.008753746747970581,0.12906607664263225,0.9631333808421405,0.3004496626283016,right,-0.0023894309997558594,-0.4551089321376005,1.2874068316861986,-8.713872883227467,-0.23313894159920354,-0.01136422622948885,0.0011294186115264893,4.310613666377962,0.00017219781875610352
1746576000199576000,8.242576171875,0.1466811259266203,-0.006641812156885862,0.0369099054237661,-0.00877569429576397,0.12906607664263225,0.9631333808421405,0.3004496626283016,right,-0.004810929298400879,-0.4551089321376005,1.2874068316861986,-8.713872883227467,-0.23313894159920354,-0.01466375682502985,0.0011283457279205322,4.310613666377962,0.0030555129051208496
1746576000239576000,8.282576171875,0.14632227726770267,-0.011778999119997025,0.03668402787652235,-0.005245509557425976,0.12897633269325467,0.9630548442897182,0.300274669457095,right,-0.001118302345275879,-0.4560178791905984,1.283707977168262,-8.71045459921658,-0.23354804382781577,-0.012475539930164814,0.0024187713861465454,4.318618109135329,0.0013245940208435059
1746576000279576000,8.322576171875,0.14595669177577056,-0.005207421723753214,0.03648108464946906,-0.00819399207830429,0.12886927422434757,0.9630048934208462,0.30003676362832615,right,-0.0013282299041748047,-0.45669501383804717,1.2800978238470853,-8.7080276643306,-0.23384451705637424,-0.011614540591835976,0.0017521828413009644,4.324579063366353,0.00007268786430358887
1746576000319576000,8.362576171875,0.145736444751843,0.003402027767151594,0.03631459829920151,-0.009626206010580063,0.12892547546586253,0.9629404959210398,0.30016128708052703,right,-0.0014277100563049316,-0.4572630000825774,1.2778230107828974,-8.705877792820335,-0.23410465505695557,-0.013530476950109005,0.0012056827545166016,4.329577602306008,0.00015851855278015137
1746576000359576000,8.402576171875,0.14549415742893876,0.007418271154165268,0.03610974505822879,-0.006631170399487019,0.12911273910040727,0.9628633773410535,0.30054850582618753,right,-0.000405728816986084,-0.4577932327523925,1.275380586066842,-8.703914383792876,-0.2343500205214761,-0.01024913415312767,0.0005382448434829712,4.334242671507597,0.0019618868827819824
1746576000399576000,8.442576171875,0.14533236992385495,0.0024075517430901527,0.036011568217191085,-0.000987315084785223,0.12924056456714525,0.9628592533495934,0.3007674899807737,right,0.0005092620849609375,-0.4577268532302413,1.2740141200192272,-8.704405382180214,-0.234311719049983,-0.0011303676292300224,0.0011380314826965332,4.333658734139799,0.0025481879711151123
1746576000439576000,8.482576171875,0.1451705176280187,-0.002603166736662388,0.03591337647982229,0.00465654069557786,0.1293683423270147,0.9628550936262428,0.3009863709880903,right,0.0014243125915527344,-0.45766050597863456,1.272646777188778,-8.70489579604566,-0.23427341011826106,0.007988398894667625,0.0017378777265548706,4.333075089032948,0.0031344592571258545
1746576000479576000,8.522576171875,0.1451705176280187,-0.004196652211248875,0.03591337647982229,-0.0010687201283872128,0.1293683423270147,0.9628550936262428,0.3009863709880903,right,-0.0016633272171020508,-0.45766050597863456,1.272646777188778,-8.70489579604566,-0.23427341011826106,0.009859406389296055,0.0011948645114898682,4.333075089032948,0.0006126761436462402
1746576000519576000,8.562576171875,0.14507546004469862,-0.000467345817014575,0.03592508461200215,-0.0005551135400310159,0.12935304364714947,0.962922349500613,0.30087272073297083,right,-0.0002484917640686035,-0.4571147874034688,1.2721610394984484,-8.707355464157462,-0.23400381094995257,0.013695348985493183,0.0018624067306518555,4.328273533970117,-0.00003606081008911133
1746576000559576000,8.602576171875,0.14512265304093624,0.005031576380133629,0.03598920912256896,-0.0011330766137689352,0.12941963759682504,0.9629831746302013,0.3009546664239751,right,-0.0005556941032409668,-0.45648472159318365,1.2729660722710192,-8.709992242401837,-0.23370653254807056,0.01535097323358059,0.0014276355504989624,4.322728174802661,-0.0002174079418182373
1746576000599576000,8.642576171875,0.1452014081613905,0.004214017186313868,0.036045128657862156,-0.00184789695776999,0.1295681541165687,0.9630285806161838,0.30121746672989047,right,-0.0004273056983947754,-0.45588330234408175,1.2740280024141073,-8.712463016429544,-0.23342826420462195,0.01026875525712967,0.001408889889717102,4.3174332832649345,0.0008965134620666504
1746576000639576300,8.682576416015625,0.1452014081613905,0.0010868026874959469,0.036045128657862156,-0.0005455254577100277,0.1295681541165687,0.9630285806161838,0.30121746672989047,right,-0.0005312561988830566,-0.45588330234408175,1.2740280024141073,-8.712463016429544,-0.23342826420462195,0.0013883532956242561,0.002192065119743347,4.3174332832649345,0.0007123649120330811
1746576000679576000,8.722576171875,0.1452014081613905,0.0011809134157374501,0.036045128657862156,-0.0007839859463274479,0.1295681541165687,0.9630285806161838,0.30121746672989047,right,-0.00043463706970214844,-0.45588330234408175,1.2740280024141073,-8.712463016429544,-0.23342826420462195,0.0011343371588736773,0.0018290728330612183,4.3174332832649345,0.0000832676887512207
1746576000719576000,8.762576171875,0.1452014081613905,0.0012750241439789534,0.036045128657862156,-0.001022446434944868,0.1295681541165687,0.9630285806161838,0.30121746672989047,right,-0.00033801794052124023,-0.45588330234408175,1.2740280024141073,-8.712463016429544,-0.23342826420462195,0.0008803210221230984,0.0014660805463790894,4.3174332832649345,-0.0005458593368530273
1746576000759576000,8.802576171875,0.1452014081613905,0.004316827282309532,0.036045128657862156,-0.004040113650262356,0.1295681541165687,0.9630285806161838,0.30121746672989047,right,-0.0005671381950378418,-0.45588330234408175,1.2740280024141073,-8.712463016429544,-0.23342826420462195,0.001152383047156036,0.0006206333637237549,4.3174332832649345,-0.0006790757179260254
1746576000799576000,8.842576171875,0.1452014081613905,0.0009760141838341951,0.036045128657862156,-0.002644243184477091,0.1295681541165687,0.9630285806161838,0.30121746672989047,right,-0.001194775104522705,-0.45588330234408175,1.2740280024141073,-8.712463016429544,-0.23342826420462195,-0.0015681624645367265,0.0005288124084472656,4.3174332832649345,0.0012585818767547607
1746576000839576000,8.882576171875,0.1452014081613905,-0.005909628234803677,0.036045128657862156,0.0018197204917669296,0.1295681541165687,0.9630285806161838,0.30121746672989047,right,-0.000729680061340332,-0.45588330234408175,1.2740280024141073,-8.712463016429544,-0.23342826420462195,-0.002869128715246916,0.0009528398513793945,4.3174332832649345,0.0010069608688354492
1746576000879576300,8.922576416015625,0.14482635565526863,-0.0068661803379654884,0.03589841671910708,0.002330278977751732,0.12940460854914415,0.9630434089049991,0.300805745710618,right,-0.0010600686073303223,-0.4560584769304438,1.2706510733269154,-8.712191798272729,-0.23348049163261353,0.0007043250370770693,0.0005757510662078857,4.318975544270873,-0.0002333521842956543
1746576000919576000,8.962576171875,0.14482635565526863,-0.004716205410659313,0.03589841671910708,-0.0003138626925647259,0.12940460854914415,0.9630434089049991,0.300805745710618,right,-0.0012277960777282715,-0.4560584769304438,1.2706510733269154,-8.712191798272729,-0.23348049163261353,0.0005749562405981123,0.00020231306552886963,4.318975544270873,-0.0007904469966888428
1746576000959576000,9.002576171875,0.14482635565526863,-0.0003005238249897957,0.03589841671910708,0.000953459762968123,0.12940460854914415,0.9630434089049991,0.300805745710618,right,-0.0002689361572265625,-0.4560584769304438,1.2706510733269154,-8.712191798272729,-0.23348049163261353,0.0013258564285933971,0.00009733438491821289,4.318975544270873,-0.0007196962833404541
1746576000999576000,9.042576171875,0.14482635565526863,0.0032400572672486305,0.03589841671910708,0.0043552289716899395,0.12940460854914415,0.9630434089049991,0.300805745710618,right,0.00011932849884033203,-0.4560584769304438,1.2706510733269154,-8.712191798272729,-0.23348049163261353,0.0009956578724086285,0.00048407912254333496,4.318975544270873,0.00011369585990905762
1746576001039576000,9.082576171875,0.14482635565526863,-0.0026274602860212326,0.03589841671910708,0.005226285196840763,0.12940460854914415,0.9630434089049991,0.300805745710618,right,-0.0005499720573425293,-0.4560584769304438,1.2706510733269154,-8.712191798272729,-0.23348049163261353,0.003053557826206088,0.0016511380672454834,4.318975544270873,0.0007827877998352051
1746576001079576000,9.122576171875,0.14495363021894386,-0.008285492658615112,0.03604987531932301,0.00006163353100419044,0.12909302214431279,0.9631030723287152,0.30016852881754263,right,-0.0014066100120544434,-0.45586296428300205,1.2718817841656505,-8.712865167489648,-0.23338358316997165,0.005423041060566902,0.0009921789169311523,4.317254127305746,0.0008219778537750244
1746576001119576300,9.162576416015625,0.14475866743074492,-0.009591290727257729,0.03604894948408641,-0.0037101064808666706,0.12882485826416365,0.9631727688943212,0.2995385253250194,right,-0.00040465593338012695,-0.45562153135575273,1.2703333856798709,-8.714144101384282,-0.23324399443604696,0.007232962641865015,0.0013465732336044312,4.315128221192956,-0.00044861435890197754
1746576001159576000,9.202576171875,0.14479252700010803,-0.010265260003507137,0.03614131439976839,0.004731102380901575,0.12856897302442633,0.9632241827185749,0.29899805190133305,right,-0.00043702125549316406,-0.4554595820258664,1.2707293992601334,-8.714792336159944,-0.23315880322288784,0.00034245988354086876,0.0020714551210403442,4.31370198778212,0.0002593994140625
1746576001199576000,9.242576171875,0.14479252700010803,-0.009796272031962872,0.03614131439976839,-0.003667328041046858,0.12856897302442633,0.9632241827185749,0.29899805190133305,right,-0.0015550851821899414,-0.4554595820258664,1.2707293992601334,-8.714792336159944,-0.23315880322288784,-0.00408762414008379,0.002925679087638855,4.31370198778212,-0.00018933415412902832
1746576001239576000,9.282576171875,0.14479252700010803,-0.002597071696072817,0.03614131439976839,-0.003697819309309125,0.12856897302442633,0.9632241827185749,0.29899805190133305,right,0.000027298927307128906,-0.4554595820258664,1.2707293992601334,-8.714792336159944,-0.23315880322288784,-0.0009619628544896841,0.001444995403289795,4.31370198778212,-0.0005068182945251465
1746576001279576000,9.322576171875,0.1443041221932685,0.003147052600979805,0.03590501684780268,-0.009775831364095211,0.12857712664793566,0.9632237363690003,0.2989115825352517,right,-0.0011252164840698242,-0.45559830218254355,1.266386693880707,-8.714819808688759,-0.23319234020425314,0.0012196318712085485,0.002057477831840515,4.314923638531566,0.000036597251892089844
1746576001319576000,9.362576171875,0.1438156879727621,0.008891177363693714,0.035668722265453,-0.015853842720389366,0.1285852445395546,0.963223337726294,0.29882501072375894,right,-0.0022780299186706543,-0.45573710222545344,1.2620441346317528,-8.714844358608126,-0.2332258935788217,0.0034012263640761375,0.002669975161552429,4.3161458738029,0.0005799829959869385
1746576001359576000,9.402576171875,0.14318518281185777,0.011554484255611897,0.035353503784869844,-0.019200002774596214,0.12877752778269597,0.9632396402245917,0.29905189641198177,right,-0.0009041428565979004,-0.4555517591709874,1.256663318376243,-8.716430166494845,-0.233100531542405,0.009978216141462326,0.0019485950469970703,4.3145138886868954,0.0016317963600158691
1746576001399576000,9.442576171875,0.1424882358276121,0.010077960789203644,0.035024439408355305,-0.0162590891122818,0.12903673236803448,0.9632884911970011,0.29936465344390784,right,0.0027424097061157227,-0.4550163014174722,1.2509160068958998,-8.719589507308601,-0.23280452284169806,0.015478547662496567,0.0015401840209960938,4.309797673819959,0.0006058216094970703
1746576001439576000,9.482576171875,0.14220911699322406,0.0053019775077700615,0.034918671606489836,-0.007228166796267033,0.12922414736671076,0.9633530527668484,0.2996108661679391,right,0.0013224482536315918,-0.4543036235336252,1.248917088163644,-8.722976227137446,-0.23244922995988454,0.01381506398320198,0.0007423758506774902,4.303518739680945,0.0002919435501098633
1746576001479576000,9.522576171875,0.14184016201910557,0.0018466683104634285,0.03477589825390414,-0.0069125061854720116,0.12929203558280414,0.9634059854080618,0.29961608785364646,right,0.00028449296951293945,-0.45386153355214515,1.245967444577813,-8.725319575393199,-0.23221356796396556,0.007685672491788864,0.0004169195890426636,4.299622609025239,-0.00021600723266601562
1746576001519576000,9.562576171875,0.14184016201910557,0.0019816101994365454,0.03477589825390414,-0.001283116638660431,0.12929203558280414,0.9634059854080618,0.29961608785364646,right,0.0003426671028137207,-0.45386153355214515,1.245967444577813,-8.725319575393199,-0.23221356796396556,0.005368110723793507,0.00019073486328125,4.299622609025239,-0.0006719231605529785
1746576001559576000,9.602576171875,0.14184016201910557,0.003073934931308031,0.03477589825390414,0.0015164157375693321,0.12929203558280414,0.9634059854080618,0.29961608785364646,right,-0.000060439109802246094,-0.45386153355214515,1.245967444577813,-8.725319575393199,-0.23221356796396556,0.0022410566452890635,0.0005840659141540527,4.299622609025239,-0.00046828389167785645
1746576001599576000,9.642576171875,0.14184016201910557,-0.00398064311593771,0.03477589825390414,0.005550605244934559,0.12929203558280414,0.9634059854080618,0.29961608785364646,right,-0.0005548000335693359,-0.45386153355214515,1.245967444577813,-8.725319575393199,-0.23221356796396556,-0.0025328199844807386,0.000944286584854126,4.299622609025239,-0.000650554895401001
1746576001639576300,9.682576416015625,0.14184016201910557,-0.006850912235677242,0.03477589825390414,0.004467862192541361,0.12929203558280414,0.9634059854080618,0.29961608785364646,right,-0.0008155107498168945,-0.45386153355214515,1.245967444577813,-8.725319575393199,-0.23221356796396556,-0.0026586870662868023,0.0015747100114822388,4.299622609025239,-0.00045737624168395996
1746576001679576000,9.722576171875,0.14184016201910557,-0.004725447855889797,0.03477589825390414,-0.0006141704507172108,0.12929203558280414,0.9634059854080618,0.29961608785364646,right,-0.0011318325996398926,-0.45386153355214515,1.245967444577813,-8.725319575393199,-0.23221356796396556,-0.0005997708067297935,0.0009426325559616089,4.299622609025239,-0.001017242670059204
1746576001719576000,9.762576171875,0.14184016201910557,0.0017087031155824661,0.03477589825390414,-0.004447363782674074,0.12929203558280414,0.9634059854080618,0.29961608785364646,right,-0.0006120800971984863,-0.45386153355214515,1.245967444577813,-8.725319575393199,-0.23221356796396556,-0.0014538669493049383,0.0006212592124938965,4.299622609025239,-0.0012796223163604736
1746576001759576000,9.802576171875,0.14184016201910557,0.006390503142029047,0.03477589825390414,-0.005194827448576689,0.12929203558280414,0.9634059854080618,0.29961608785364646,right,-0.0010407567024230957,-0.45386153355214515,1.245967444577813,-8.725319575393199,-0.23221356796396556,-0.0030455575324594975,0.00029371678829193115,4.299622609025239,-0.0013759732246398926
1746576001799576000,9.842576171875,0.14184016201910557,0.007092987187206745,0.03477589825390414,-0.0026093076448887587,0.12929203558280414,0.9634059854080618,0.29961608785364646,right,-0.0009359121322631836,-0.45386153355214515,1.245967444577813,-8.725319575393199,-0.23221356796396556,-0.00399016635492444,0.0003736168146133423,4.299622609025239,-0.00016838312149047852
1746576001839576000,9.882576171875,0.14184016201910557,0.0051647815853357315,0.03477589825390414,-0.000472682761028409,0.12929203558280414,0.9634059854080618,0.29961608785364646,right,-0.00003218650817871094,-0.45386153355214515,1.245967444577813,-8.725319575393199,-0.23221356796396556,-0.0040536606684327126,0.00010532140731811523,4.299622609025239,0.00041916966438293457
1746576001879576300,9.922576416015625,0.14184016201910557,0.0011332579888403416,0.03477589825390414,0.0022077527828514576,0.12929203558280414,0.9634059854080618,0.29961608785364646,right,-0.00012737512588500977,-0.45386153355214515,1.245967444577813,-8.725319575393199,-0.23221356796396556,-0.0010669836774468422,0.0010986477136611938,4.299622609025239,0.0006669163703918457
1746576001919576000,9.962576171875,0.14184016201910557,-0.002898265141993761,0.03477589825390414,0.004888188559561968,0.12929203558280414,0.9634059854080618,0.29961608785364646,right,-0.0002225637435913086,-0.45386153355214515,1.245967444577813,-8.725319575393199,-0.23221356796396556,0.0019196933135390282,0.0020919591188430786,4.299622609025239,0.0009146630764007568
1746576001959576000,10.002576171875,0.14184016201910557,-0.00760086253285408,0.03477589825390414,0.006665219087153673,0.12929203558280414,0.9634059854080618,0.29961608785364646,right,-0.0010837912559509277,-0.45386153355214515,1.245967444577813,-8.725319575393199,-0.23221356796396556,0.0070366342552006245,0.0028599947690963745,4.299622609025239,0.0017201900482177734
1746576001999576000,10.042576171875,0.14215433186703663,-0.017439547926187515,0.03500169993351272,0.007501388434320688,0.1289898677223801,0.9634487984551428,0.2990526302537734,right,0.001611471176147461,-0.45374894388556686,1.2487772413015366,-8.725406669154763,-0.2321700568018537,0.007165113463997841,0.0033104270696640015,4.298630090856552,0.0025975406169891357
1746576002039576000,10.082576171875,0.142059494566887,-0.020397022366523743,0.035061707067523165,-0.00032496312633156776,0.12858961662875976,0.9635133949740896,0.2981913723465777,right,0.0012426376342773438,-0.4536774876198474,1.2479932513169945,-8.725828693959116,-0.23211463056817422,0.0027711777947843075,0.0033513158559799194,4.298000268520415,0.0010930001735687256
1746576002079576000,10.122576171875,0.14185948986369412,-0.01528802141547203,0.03505772505989578,0.005257117096334696,0.12823699593240612,0.9635692822052897,0.29740916791994404,right,0.0003922581672668457,-0.4536574888210206,1.2462601439140737,-8.726163625001908,-0.23207847926355946,0.0018404722213745117,0.00531141459941864,4.297824035170674,0.0006365478038787842
1746576002119576300,10.162576416015625,0.14171966694450852,-0.009921067394316196,0.0350555698484149,-0.00629907613620162,0.12798148366043682,0.9636075708467711,0.2968454254570405,right,-0.0032862424850463867,-0.4536600322384017,1.2450384931646288,-8.726326706609129,-0.2320608617173294,0.0012794657377526164,0.004313752055168152,4.297846539263427,-0.00023093819618225098
1746576002159576000,10.202576171875,0.14171966694450852,-0.0007877787575125694,0.0350555698484149,-0.011965963989496231,0.12798148366043682,0.9636075708467711,0.2968454254570405,right,-0.00010716915130615234,-0.4536600322384017,1.2450384931646288,-8.726326706609129,-0.2320608617173294,0.005353282671421766,0.0033977478742599487,4.297846539263427,-0.0014629065990447998
1746576002199576000,10.242576171875,0.1409326908419952,0.008874333463609219,0.03470667115689112,-0.014428194612264633,0.12806384154518835,0.9636568939999732,0.2967947593273175,right,-0.00048351287841796875,-0.4533538698504674,1.2383553621388972,-8.728606341978907,-0.23186281681344362,0.005980778485536575,0.0024046003818511963,4.2951475094377995,-0.001581639051437378
1746576002239576000,10.282576171875,0.14028090605224486,0.011568982154130936,0.034364794887270296,-0.01598677784204483,0.1283234243274747,0.9636638784223301,0.2971579961869015,right,-0.001365065574645996,-0.4531748344912105,1.232773470353335,-8.730172860643266,-0.23174144741144725,0.0007084100507199764,0.0013653486967086792,4.293569008074701,-0.0003280937671661377
1746576002279576000,10.322576171875,0.13965039700975726,0.006737725809216499,0.034002464216224465,-0.016699643805623055,0.12860643352046278,0.9636368014953012,0.2976028740616369,right,-0.0018725991249084473,-0.45326240802134093,1.2272164207480847,-8.730576180747152,-0.23175054679862953,-0.0039857481606304646,0.00110548734664917,4.294341161490976,0.0011108219623565674
1746576002319576000,10.362576171875,0.1389816401653635,0.005521500948816538,0.033641818435905774,-0.021114036440849304,0.12883710825896993,0.9636257086718859,0.29792261378948626,right,-0.0017198920249938965,-0.45327970690701225,1.2213672563284634,-8.731321446156501,-0.23172120525650974,0.0017073587514460087,-0.0013683438301086426,4.2944937217041845,0.0010268986225128174
1746576002359576000,10.402576171875,0.1385338162490907,0.0036695064045488834,0.03342624681944782,-0.007307036779820919,0.1290005369492633,0.9636513043413448,0.29812361245990626,right,-0.0004876255989074707,-0.45298568701420605,1.2176313577357678,-8.733117681923508,-0.23155473883118313,0.0074997167102992535,-0.0005002766847610474,4.291901367123425,0.0001811981201171875
1746576002399576000,10.442576171875,0.13830092219411497,0.005276425741612911,0.033325020168129466,-0.009432893246412277,0.12911096851047987,0.963682036494583,0.2982618473795412,right,-0.003035426139831543,-0.45264784882184617,1.2157972741764038,-8.734836760801077,-0.2313800033111889,0.006207095459103584,-0.0006732717156410217,4.288922059051692,-0.0000514984130859375
1746576002439576000,10.482576171875,0.13801869398313074,0.00682387501001358,0.03319830471301617,-0.005113787949085236,0.1292370523701391,0.9637129492445932,0.29842004683122214,right,-0.0007003545761108398,-0.45230276594656976,1.2135355397894978,-8.736644687005876,-0.23119892722695684,0.008199743926525116,-0.0004655122756958008,4.285878745833039,-0.0008187294006347656
1746576002479576000,10.522576171875,0.13816343459841735,0.0055445292964577675,0.0332529824065504,-0.0008780783973634243,0.1293821809469238,0.9637178381847835,0.2987291967137235,right,-0.000462949275970459,-0.45204431671051926,1.2149525669805705,-8.737565893504023,-0.23108948081183686,0.00405464693903923,-0.0003078356385231018,4.283598818202316,-0.0005413293838500977
1746576002519576000,10.562576171875,0.13816343459841735,0.004265184048563242,0.0332529824065504,0.003357631154358387,0.1293821809469238,0.9637178381847835,0.2987291967137235,right,-0.00031954050064086914,-0.45204431671051926,1.2149525669805705,-8.737565893504023,-0.23108948081183686,-0.00009045004844665527,-0.000005647540092468262,4.283598818202316,-0.0004964172840118408
1746576002559576000,10.602576171875,0.13816343459841735,-0.0021716258488595486,0.0332529824065504,0.004841906949877739,0.1293821809469238,0.9637178381847835,0.2987291967137235,right,-0.0009019374847412109,-0.45204431671051926,1.2149525669805705,-8.737565893504023,-0.23108948081183686,-0.006116099189966917,0.00044830888509750366,4.283598818202316,0.0005274713039398193
1746576002599576000,10.642576171875,0.13816343459841735,-0.0037526071537286043,0.0332529824065504,0.0026350198313593864,0.1293821809469238,0.9637178381847835,0.2987291967137235,right,-0.0010745525360107422,-0.45204431671051926,1.2149525669805705,-8.737565893504023,-0.23108948081183686,-0.008877542801201344,0.0011098012328147888,4.283598818202316,-0.00008505582809448242
1746576002639576300,10.682576416015625,0.13846827179288487,-0.0025869666133075953,0.033352126391985384,0.0013059554621577263,0.12937243892127687,0.9636585617087475,0.29882901719945526,right,-0.0003343820571899414,-0.45249677769450325,1.2173484491411595,-8.735274567696452,-0.23132782804796548,-0.00873967632651329,0.0016439631581306458,4.287589933665097,-0.000046879053115844727
1746576002679576000,10.722576171875,0.13874679702720377,0.0014747835230082273,0.03343550585498391,0.0015037950361147523,0.12938975770536537,0.9635997445416804,0.29897574588671594,right,-0.00024271011352539062,-0.45291944762815334,1.219530615485832,-8.733139309233426,-0.23155096886562626,-0.00836014375090599,0.001270197331905365,4.291317429755628,0.0001334547996520996
1746576002719576000,10.762576171875,0.13896700072285434,0.0009765211143530905,0.033495764293340925,0.0018818506505340338,0.1294791975018759,0.9635583805837745,0.29923485629393465,right,-0.00008803606033325195,-0.4531169759945478,1.221336203603074,-8.73203105573058,-0.23166427014966195,-0.005825030617415905,0.0018785744905471802,4.293059012725949,0.00018808245658874512
1746576002759576000,10.802576171875,0.13896700072285434,0.0004782587056979537,0.033495764293340925,0.002259906381368637,0.1294791975018759,0.9635583805837745,0.29923485629393465,right,0.00017970800399780273,-0.4531169759945478,1.221336203603074,-8.73203105573058,-0.23166427014966195,-0.0032899172510951757,0.002671077847480774,4.293059012725949,0.0004202723503112793
1746576002799576000,10.842576171875,0.13925504876830022,-0.0013200035318732262,0.03358831961717899,0.002687213011085987,0.1295584436722442,0.9635151158791647,0.29949023110723044,right,-0.00007158517837524414,-0.45332433251335896,1.2237278479799627,-8.730797130021452,-0.23178661351828983,-0.0013313654344528913,0.0022399798035621643,4.294887104935944,0.0005175471305847168
1746576002839576000,10.882576171875,0.13925504876830022,0.0000593910226598382,0.03358831961717899,0.006039843894541264,0.1295584436722442,0.9635151158791647,0.29949023110723044,right,0.0005161166191101074,-0.45332433251335896,1.2237278479799627,-8.730797130021452,-0.23178661351828983,-0.00210857717320323,0.0030578747391700745,4.294887104935944,0.00020962953567504883
1746576002879576300,10.922576416015625,0.13970136086886353,-0.003452361561357975,0.033771859750719266,0.007467448711395264,0.12953596989045468,0.963473931698335,0.29957860365552547,right,0.00009292364120483398,-0.45358878399421604,1.2274661577254533,-8.729125397416949,-0.23194378321830195,-0.003130512312054634,0.0024291127920150757,4.297218470492958,0.0004146695137023926
1746576002919576000,10.962576171875,0.13970136086886353,-0.006719072815030813,0.033771859750719266,0.009747224859893322,0.12953596989045468,0.963473931698335,0.29957860365552547,right,-0.000026464462280273438,-0.45358878399421604,1.2274661577254533,-8.729125397416949,-0.23194378321830195,-0.0033552905078977346,0.0028795450925827026,4.297218470492958,0.000926971435546875
1746576002959576000,11.002576171875,0.1399517997464375,-0.004332931712269783,0.03388813774721244,0.012447549030184746,0.12941209541647866,0.9634492164009388,0.29941254515295396,right,0.0005173087120056152,-0.4538831289987757,1.2294757439821957,-8.727564723971486,-0.23209830909908002,-0.004908696282655001,0.0027178674936294556,4.2998128709003325,0.0016224384307861328
1746576002999576000,11.042576171875,0.14020224632055764,-0.0019467908423393965,0.03400442467668021,0.015147874131798744,0.1292881852106123,0.9634245488104107,0.2992465226346185,right,0.0010609030723571777,-0.45417761375933213,1.2314844534561038,-8.726002296960353,-0.232252846906575,-0.006462101824581623,0.0025562644004821777,4.302408148090541,0.0023178458213806152
1746576003039576000,11.082576171875,0.14020224632055764,-0.002410217886790633,0.03400442467668021,0.0027082329615950584,0.1292881852106123,0.9634245488104107,0.2992465226346185,right,-0.0016338229179382324,-0.45417761375933213,1.2314844534561038,-8.726002296960353,-0.232252846906575,-0.006102534011006355,0.002108842134475708,4.302408148090541,0.003124713897705078
1746576003079576000,11.122576171875,0.1401990233488516,-0.0005696176085621119,0.03400037415337954,0.0007466108072549105,0.12919299666617307,0.9634062760788636,0.299077115380518,right,-0.0011346936225891113,-0.45445407208715427,1.231290099927783,-8.724827992483974,-0.2323822743015177,-0.004220853094011545,0.0018527358770370483,4.304844435326755,0.0017286837100982666
1746576003119576300,11.162576416015625,0.1401990233488516,0.0012709827860817313,0.03400037415337954,-0.0012150113470852375,0.12919299666617307,0.9634062760788636,0.299077115380518,right,-0.0005158185958862305,-0.45445407208715427,1.231290099927783,-8.724827992483974,-0.2323822743015177,-0.0023391717113554478,0.0015768259763717651,4.304844435326755,0.0005810856819152832
1746576003159576000,11.202576171875,0.1401990233488516,0.008530838415026665,0.03400037415337954,-0.006130552850663662,0.12919299666617307,0.9634062760788636,0.299077115380518,right,-0.00019991397857666016,-0.45445407208715427,1.231290099927783,-8.724827992483974,-0.2323822743015177,-0.004339733626693487,0.0011618584394454956,4.304844435326755,0.0007296204566955566
1746576003199576000,11.242576171875,0.14010232705405157,0.01037567388266325,0.03386104275099033,-0.0066448659636080265,0.12942174539326137,0.9633295478577139,0.29957432213347185,right,0.000013172626495361328,-0.4548896206565859,1.2301844767734407,-8.723089624384045,-0.23259323518640837,-0.004111622925847769,0.001687958836555481,4.308681821532547,0.0018449127674102783
1746576003239576000,11.282576171875,0.14003557144012488,0.007855565287172794,0.033763312380448815,-0.009799955412745476,0.12963794970850606,0.9632840844389892,0.3000243495499982,right,-0.0011150240898132324,-0.45505426445826136,1.2295032165110111,-8.722469446659087,-0.23267542630099547,0.000643427949398756,0.0007986128330230713,4.31013202034086,0.0020099282264709473
1746576003279576000,11.322576171875,0.14003557144012488,0.0017305067740380764,0.033763312380448815,0.002644362859427929,0.12963794970850606,0.9632840844389892,0.3000243495499982,right,0.0006126761436462402,-0.45505426445826136,1.2295032165110111,-8.722469446659087,-0.23267542630099547,0.007043780293315649,0.0013057291507720947,4.31013202034086,0.001886606216430664
1746576003319576000,11.362576171875,0.14003557144012488,-0.004120375961065292,0.033763312380448815,-0.000027620932087302208,0.12963794970850606,0.9632840844389892,0.3000243495499982,right,-0.0024284720420837402,-0.45505426445826136,1.2295032165110111,-8.722469446659087,-0.23267542630099547,0.008366050198674202,0.0013914257287979126,4.31013202034086,0.000481337308883667
1746576003359576000,11.402576171875,0.13999066280608113,-0.0024365936405956745,0.03380987193825529,0.0015320399543270469,0.12956447953703357,0.9633554311090826,0.29980527672967755,right,-0.0004963278770446777,-0.4545229067794798,1.2294308819271624,-8.724791167604923,-0.2324141287950241,0.010957110673189163,0.0010116398334503174,4.3054508767873045,-0.0003972947597503662
1746576003399576000,11.442576171875,0.14014144302674125,-0.001006747130304575,0.03391795468017615,0.0034477743320167065,0.12956814387111115,0.9633993573588794,0.2998032876260246,right,-0.0001513361930847168,-0.45408458151391223,1.2310098216816783,-8.72647342160344,-0.23221378262473097,0.008662084117531776,0.001087978482246399,4.301588356140256,-0.00036975741386413574
1746576003439576000,11.482576171875,0.1402922868177169,0.0004230993799865246,0.03402605229429798,0.0053635090589523315,0.12957185591205814,0.9634433193405674,0.2998014006413103,right,0.00019341707229614258,-0.4536464154803603,1.2325896382190287,-8.72815275299251,-0.23201348116755974,0.00636705756187439,0.0011642277240753174,4.297726420015096,-0.00034230947494506836
1746576003479576000,11.522576171875,0.1402922868177169,-0.001869415631517768,0.03402605229429798,0.007198505103588104,0.12957185591205814,0.9634433193405674,0.2998014006413103,right,-0.00008314847946166992,-0.4536464154803603,1.2325896382190287,-8.72815275299251,-0.23201348116755974,0.001246242318302393,0.001673370599746704,4.297726420015096,0.000054329633712768555
1746576003519576000,11.562576171875,0.1402922868177169,-0.006845670752227306,0.03402605229429798,0.004600905813276768,0.12957185591205814,0.9634433193405674,0.2998014006413103,right,-0.00014203786849975586,-0.4536464154803603,1.2325896382190287,-8.72815275299251,-0.23201348116755974,-0.002877571154385805,0.0019578635692596436,4.297726420015096,0.0003947317600250244
1746576003559576000,11.602576171875,0.14054310765610323,-0.00452966196462512,0.034184768379330085,0.003823590697720647,0.12934609227495775,0.963453920230089,0.29940389671431555,right,-0.000417172908782959,-0.4537488545025957,1.2347170056365429,-8.727407487583159,-0.23207204720404204,0.0010508624836802483,0.0010192394256591797,4.298629506334662,-0.00015693902969360352
1746576003599576000,11.642576171875,0.14054310765610323,0.0030068703927099705,0.034184768379330085,0.0014430622104555368,0.12934609227495775,0.963453920230089,0.29940389671431555,right,-0.0009973645210266113,-0.4537488545025957,1.2347170056365429,-8.727407487583159,-0.23207204720404204,0.0036743986420333385,0.0012308359146118164,4.298629506334662,-0.000703662633895874
1746576003639576300,11.682576416015625,0.14091280955138957,0.006338312290608883,0.0343664538456989,0.0016179831000044942,0.12938127773904753,0.9634644116939378,0.2995405552767295,right,-0.00022077560424804688,-0.4535067901831688,1.2380896969400346,-8.727980903556942,-0.2319822497770045,0.00232622679322958,0.0010116249322891235,4.296495709176361,0.00016137957572937012
1746576003679576000,11.722576171875,0.14122232866592985,0.005372617859393358,0.03450173664832546,0.0037631867453455925,0.1294829391712694,0.9634640001321902,0.2998041650668777,right,-0.00002092123031616211,-0.45329839204116085,1.2409170293204486,-8.728483007860182,-0.2319069330448403,0.0022500790655612946,0.0012489557266235352,4.294658556877076,0.0005454123020172119
1746576003719576000,11.762576171875,0.14122232866592985,0.0044069234281778336,0.03450173664832546,0.005908390041440725,0.1294829391712694,0.9634640001321902,0.2998041650668777,right,0.00012767314910888672,-0.45329839204116085,1.2409170293204486,-8.728483007860182,-0.2319069330448403,0.002173931570723653,0.0017745941877365112,4.294658556877076,0.0007420778274536133
1746576003759576000,11.802576171875,0.14168488495960524,-0.0013013607822358608,0.03471771074011569,0.007396046072244644,0.12954347476249284,0.9634657013702544,0.300017697564078,right,0.00017255544662475586,-0.45307589758867567,1.245089200438559,-8.728854179260134,-0.231833920146256,-0.0010234203655272722,0.0022098571062088013,4.2926969014152885,0.001181274652481079
1746576003799576000,11.842576171875,0.14168488495960524,-0.0023385430686175823,0.03471771074011569,0.008184749633073807,0.12954347476249284,0.9634657013702544,0.300017697564078,right,-0.00013774633407592773,-0.45307589758867567,1.245089200438559,-8.728854179260134,-0.231833920146256,-0.00018854724476113915,0.0028271228075027466,4.2926969014152885,0.0009766221046447754
1746576003839576000,11.882576171875,0.14225553569343827,-0.0037600910291075706,0.03500374784080129,0.0075705330818891525,0.12941880201346193,0.9634600481521202,0.29989958078149476,right,-0.0007317066192626953,-0.45310765893721583,1.2500507683686912,-8.728007207041978,-0.23188403028470445,-0.0027839045505970716,0.0033077746629714966,4.292976887400448,0.000750422477722168
1746576003879576300,11.922576416015625,0.14258325380694756,-0.0009924485348165035,0.035167375132426716,0.005442479625344276,0.12930608283171144,0.9634495711387079,0.2997584534605655,right,-0.000597834587097168,-0.4532394986770222,1.252830608345568,-8.727036900705098,-0.23196593174191787,-0.0028586366679519415,0.003242969512939453,4.2941392091780894,0.00016799569129943848
1746576003919576000,11.962576171875,0.14258325380694756,0.0015901888255029917,0.035167375132426716,0.0007789446972310543,0.12930608283171144,0.9634495711387079,0.2997584534605655,right,0.00012439489364624023,-0.4532394986770222,1.252830608345568,-8.727036900705098,-0.23196593174191787,-0.0004182523116469383,0.0018727630376815796,4.2941392091780894,-0.00012096762657165527
1746576003959576000,12.002576171875,0.14258325380694756,0.0005639900919049978,0.035167375132426716,0.0000829781056381762,0.12930608283171144,0.9634495711387079,0.2997584534605655,right,0.0015779733657836914,-0.4532394986770222,1.252830608345568,-8.727036900705098,-0.23196593174191787,-0.0033243962097913027,0.003161683678627014,4.2941392091780894,0.0005180537700653076
1746576003999576000,12.042576171875,0.1425256407558318,-0.0028856322169303894,0.0351184483504982,-0.003600383410230279,0.12922160960876528,0.9634104298403905,0.29961847743123,right,0.0012954473495483398,-0.45370448939129726,1.2520441341429949,-8.72513135934472,-0.2321826449265694,-0.004350077826529741,0.003546670079231262,4.298238461190462,0.0003363490104675293
1746576004039576000,12.082576171875,0.1425256407558318,-0.00633525475859642,0.0351184483504982,-0.007283744867891073,0.12922160960876528,0.9634104298403905,0.29961847743123,right,0.0012072324752807617,-0.45370448939129726,1.2520441341429949,-8.72513135934472,-0.2321826449265694,-0.0053757596760988235,0.003851458430290222,4.298238461190462,0.0005726814270019531
1746576004079576000,12.122576171875,0.1422889938660986,-0.0021704151295125484,0.03498143738295922,-0.008106963708996773,0.12909537142933783,0.9633621245607991,0.2993679739489201,right,0.0003253817558288574,-0.4543526222077407,1.2495840276397765,-8.722667599579692,-0.23247363551098,-0.007331931497901678,0.0017095357179641724,4.303950409096479,-0.0008894801139831543
1746576004119576300,12.162576416015625,0.14198657514749102,0.004824236035346985,0.0347835039693971,-0.00985531322658062,0.1291165753263749,0.9633016001916845,0.2994025092118127,right,0.00008118152618408203,-0.45495296387087186,1.2465801696486771,-8.720486163887381,-0.23274243307057604,-0.012301537208259106,0.001305609941482544,4.309239747676253,-0.00028261542320251465
1746576004159576000,12.202576171875,0.14182101939061334,0.007571196183562279,0.034612272721451835,-0.011415211483836174,0.12928381868587505,0.9632167102117775,0.29977327351309985,right,-0.0005410909652709961,-0.4555538271819183,1.2447701976172625,-8.718127618062496,-0.23302613865591051,-0.014630179852247238,0.0014278292655944824,4.314532008865475,0.0019722580909729004
1746576004199576000,12.242576171875,0.14163682530574967,0.006808563135564327,0.03443654409397026,-0.008761560544371605,0.12947024831933365,0.9631403074270137,0.3001694455438441,right,-0.00026530027389526367,-0.4560610941224496,1.2428551577761768,-8.716188758954406,-0.23326415585033466,-0.0077456338331103325,0.00048094987869262695,4.318998632885515,0.0016359984874725342
1746576004239576000,12.282576171875,0.1413601093156072,0.006869425065815449,0.03425680560538787,-0.0055268071591854095,0.12965428968964754,0.9631128296852061,0.3004956647034336,right,0.002055346965789795,-0.45616573836039914,1.2403795614428816,-8.716084714058042,-0.23330196735446296,0.0014257347211241722,0.0018905401229858398,4.319920131644606,0.00172385573387146
1746576004279576000,12.322576171875,0.14129171662483422,0.008441375568509102,0.03420687936879324,-0.004175436217337847,0.1298273503522483,0.9631197986188439,0.30081236235598036,right,-0.001993715763092041,-0.455918490211842,1.2399338635019956,-8.717226869830489,-0.23318446466890896,0.005224250257015228,0.0021201670169830322,4.317743079866468,0.0005106329917907715
1746576004319576000,12.362576171875,0.14118256935240775,0.010376603342592716,0.0341217693988844,-0.007728892378509045,0.13007799998030925,0.9631200177326399,0.3012780118710191,right,-0.0011408329010009766,-0.4556493883338134,1.2391457818642257,-8.71851223346591,-0.23305637724711678,0.0055253407917916775,0.0021941065788269043,4.315373428125679,-0.00010344386100769043
1746576004359576000,12.402576171875,0.14118256935240775,0.008413790725171566,0.0341217693988844,-0.002661028876900673,0.13007799998030925,0.9631200177326399,0.3012780118710191,right,0.0008036494255065918,-0.4556493883338134,1.2391457818642257,-8.71851223346591,-0.23305637724711678,0.003959395457059145,0.0026008784770965576,4.315373428125679,0.0005831718444824219
1746576004399576000,12.442576171875,0.14118256935240775,-0.002765127457678318,0.0341217693988844,0.0010013317223638296,0.13007799998030925,0.9631200177326399,0.3012780118710191,right,0.0008366107940673828,-0.4556493883338134,1.2391457818642257,-8.71851223346591,-0.23305637724711678,0.0000028186477720737457,0.0021261274814605713,4.315373428125679,0.0010969340801239014
1746576004439576000,12.482576171875,0.14118256935240775,-0.011728799901902676,0.0341217693988844,0.0032975575886666775,0.13007799998030925,0.9631200177326399,0.3012780118710191,right,-0.0003037452697753906,-0.4556493883338134,1.2391457818642257,-8.71851223346591,-0.23305637724711678,-0.0026989392936229706,0.0026660561561584473,4.315373428125679,0.0013841986656188965
1746576004479576000,12.522576171875,0.14118256935240775,-0.008016911335289478,0.0341217693988844,-0.00016048643738031387,0.13007799998030925,0.9631200177326399,0.3012780118710191,right,-0.0013824105262756348,-0.4556493883338134,1.2391457818642257,-8.71851223346591,-0.23305637724711678,-0.000057227909564971924,0.0022373348474502563,4.315373428125679,-0.00007942318916320801
1746576004519576000,12.562576171875,0.14118256935240775,0.0012518223375082016,0.0341217693988844,-0.004496212583035231,0.13007799998030925,0.9631200177326399,0.3012780118710191,right,-0.0014727115631103516,-0.4556493883338134,1.2391457818642257,-8.71851223346591,-0.23305637724711678,0.0044465740211308,0.001109197735786438,4.315373428125679,-0.0015052556991577148
1746576004559576000,12.602576171875,0.1406340945391482,0.009587199427187443,0.03389481201721539,-0.010399490594863892,0.1301465572491334,0.9631752387612319,0.301244300691929,right,-0.0008051395416259766,-0.4552377486213085,1.234612668479234,-8.720948520702123,-0.23282287056445414,0.006451434455811977,0.0010104328393936157,4.311748223365843,-0.0005879402160644531
1746576004599576000,12.642576171875,0.14023159844680655,0.011630309745669365,0.0336951556236642,-0.010095919482409954,0.13037633983456304,0.963203914733158,0.30158076065476325,right,-0.00020813941955566406,-0.45482509293723494,1.2313510363347828,-8.723205944240092,-0.23260458670964504,0.006014993414282799,0.0011458396911621094,4.308113373994827,0.0010319352149963379
1746576004639576300,12.682576416015625,0.1400366674638942,0.00834441278129816,0.033585938943081255,-0.00453563779592514,0.13058274760226823,0.963217466262867,0.30192950462750223,right,0.00016421079635620117,-0.4545132339434651,1.229838001423329,-8.724775970035791,-0.2324482906724545,0.004318995866924524,0.0009709149599075317,4.3053655365914105,0.0010128617286682129
1746576004679576000,12.722576171875,0.1400453009232661,0.004180031828582287,0.03358918342164938,-0.0003045978955924511,0.1306949700145107,0.9632339755840656,0.30213481467599035,right,-0.000264585018157959,-0.4542296577896336,1.2300837928779422,-8.725973655387758,-0.23231639512236382,0.005721068475395441,0.0005369037389755249,4.302866997773945,0.00015106797218322754
1746576004719576000,12.762576171875,0.1400453009232661,0.002601365093141794,0.03358918342164938,0.002179359784349799,0.1306949700145107,0.9632339755840656,0.30213481467599035,right,0.00003510713577270508,-0.4542296577896336,1.2300837928779422,-8.725973655387758,-0.23231639512236382,0.0031963989604264498,0.000721365213394165,4.302866997773945,0.00035899877548217773
1746576004759576000,12.802576171875,0.1400453009232661,-0.0026262952014803886,0.03358918342164938,0.005142283625900745,0.1306949700145107,0.9632339755840656,0.30213481467599035,right,-0.0003871917724609375,-0.4542296577896336,1.2300837928779422,-8.725973655387758,-0.23231639512236382,0.002720512682572007,0.002118036150932312,4.302866997773945,0.0012344121932983398
1746576004799576000,12.842576171875,0.14030591570958809,-0.004305267706513405,0.03377105361823858,0.007601579651236534,0.1305542020593086,0.9632805345459399,0.30187183899074604,right,-0.0007722973823547363,-0.4539105651430276,1.2325497446000575,-8.727011766263843,-0.23217606201253668,0.005468972958624363,0.002491563558578491,4.3000548629626625,0.0007252693176269531
1746576004839576000,12.882576171875,0.14030591570958809,-0.0017573223449289799,0.03377105361823858,0.003751431591808796,0.1305542020593086,0.9632805345459399,0.30187183899074604,right,-0.0024410486221313477,-0.4539105651430276,1.2325497446000575,-8.727011766263843,-0.23217606201253668,0.004880676046013832,0.002869531512260437,4.3000548629626625,-0.000512927770614624
1746576004879576300,12.922576416015625,0.14030591570958809,0.0026610088534653187,0.03377105361823858,0.0018632549326866865,0.1305542020593086,0.9632805345459399,0.30187183899074604,right,-0.0012325048446655273,-0.4539105651430276,1.2325497446000575,-8.727011766263843,-0.23217606201253668,-0.00009297160431742668,0.00236724317073822,4.3000548629626625,-0.0013599991798400879
1746576004919576000,12.962576171875,0.14030591570958809,0.007079340051859617,0.03377105361823858,-0.000024921842850744724,0.1305542020593086,0.9632805345459399,0.30187183899074604,right,-0.00002396106719970703,-0.4539105651430276,1.2325497446000575,-8.727011766263843,-0.23217606201253668,-0.005066619720309973,0.0018649697303771973,4.3000548629626625,-0.0022070705890655518
1746576004959576000,13.002576171875,0.1407771160756219,0.0014011119492352009,0.03397801722985665,0.0004677835968323052,0.13058535118724696,0.963261715057306,0.3020492758107597,right,-0.0016459822654724121,-0.45390291866664245,1.2366663861386478,-8.726462315687536,-0.2322061801916431,-0.003392227226868272,0.0019759684801101685,4.299987350684404,0.0007337331771850586
1746576004999576000,13.042576171875,0.14124834224566887,-0.0042771161533892155,0.03418497784773215,0.0009604891529306769,0.13061651229016294,0.963242979007431,0.3022267939758306,right,-0.003268301486968994,-0.4538953287976961,1.2407830276772378,-8.725911111545562,-0.23223631923043728,-0.001717834617011249,0.0020869672298431396,4.299920422928035,0.0036744773387908936
1746576005039576000,13.082576171875,0.14124834224566887,-0.012471882626414299,0.03418497784773215,0.003462327178567648,0.13061651229016294,0.963242979007431,0.3022267939758306,right,-0.0009410381317138672,-0.4538953287976961,1.2407830276772378,-8.725911111545562,-0.23223631923043728,0.005857909098267555,0.002990633249282837,4.299920422928035,0.0027211904525756836
1746576005079576000,13.122576171875,0.14119380879657545,-0.008817200548946857,0.034278508862450006,0.0014684756752103567,0.13027866120444254,0.963335024770038,0.3014704254828466,right,-0.001154780387878418,-0.4534997178503881,1.2405464424423873,-8.727662339127063,-0.23203022818370403,0.010952332988381386,0.001597583293914795,4.29643345759511,0.0006541013717651367
1746576005119576300,13.162576416015625,0.14110490310136126,0.004554374143481255,0.03430560082992894,-0.004769495688378811,0.13019268584266902,0.9634061649641404,0.3012175631037616,right,-0.0020273327827453613,-0.45299720500305735,1.240074002625048,-8.729909241271018,-0.23177922967326547,0.008786064572632313,0.0014828294515609741,4.292002781671285,-0.0009112656116485596
1746576005159576000,13.202576171875,0.14097926247748124,0.01218179427087307,0.03424390566169105,-0.010423832572996616,0.1303864671191844,0.9634346854382592,0.30154211231290434,right,-0.0018494725227355957,-0.45254631127955725,1.2392489499777555,-8.731980202326177,-0.23156049426985845,0.006634990219026804,0.0015516728162765503,4.288026571516692,-0.000178605318069458
