time,seconds_elapsed,z,y,x
1746735834671060200,0.023060302734375,-0.012704583272337913,0.01009805403575301,-0.008956464518886058
1746735834681026300,0.0330263671875,-0.009996493357419967,-0.00018485504761338233,-0.0005946414249017834
1746735834690992400,0.042992431640625,-0.03544716095626354,-0.009372516240179539,0.007666205512639135
1746735834700958200,0.052958251953125,-0.011060907718539237,-0.0032024493031203743,0.01273974591726437
1746735834710924000,0.062924072265625,-0.005968553015589714,-0.009966244349628686,0.0025281302381306883
1746735834720890400,0.072890380859375,-0.025864509096741675,0.005855886421352625,-0.002140409562177956
1746735834730856200,0.082856201171875,-0.0050672202616930005,0.008280921611189842,-0.004489657835755497
1746735834740822300,0.092822265625,-0.023322423398494718,-0.009229016116261481,-0.011231843838654458
1746735834750788000,0.1027880859375,-0.021364275068044662,0.0011458090342581272,-0.002997556114476174
1746735834760754400,0.11275439453125,-0.03513035009205341,0.0008472644791007041,-0.009297551307827234
1746735834770720300,0.12272021484375,-0.010437807384133338,0.014299305117875336,-0.004686312919016927
1746735834780686000,0.13268603515625,-0.020020459243655205,0.012839753959327935,0.01302192385951057
1746735834790652200,0.142652099609375,-0.017625673061609268,-0.0007860358111560344,-0.005793689639028161
1746735834800618200,0.1526181640625,-0.03258300369679928,0.0047004327759146685,-0.020619521115347744
1746735834810584300,0.162584228515625,-0.0327343948662281,-0.008899930292367934,0.0016693031853996217
1746735834820550100,0.172550048828125,-0.0207744924813509,0.0037603754468262195,0.006272486131917685
1746735834830516200,0.18251611328125,-0.010004092141985893,0.00497486580312252,0.012179463419690728
1746735834840482300,0.192482421875,-0.04158288723230362,0.009348258581757545,0.0033799247618764637
1746735834850448100,0.2024482421875,-0.01509936945438385,0.008024024240672587,-0.02270511348405853
1746735834860414200,0.212414306640625,-0.029170564904808998,-0.006153261932730674,-0.029718791638407856
1746735834870380300,0.22238037109375,-0.013006781089305877,0.01146861173659563,-0.013002451974060386
1746735834880346400,0.232346435546875,-0.01002338136434555,0.02559343707039952,0.00009043649611994623
1746735834890312200,0.242312255859375,-0.001954056677222252,0.019096768527477978,0.0011370594722218811
1746735834900279300,0.252279296875,-0.020963293051719664,0.006870031899958848,-0.0031020028696395457
1746735834910245000,0.2622451171875,-0.0274058933198452,-0.012665712566673756,0.002387607522588223
1746735834920211200,0.272211181640625,-0.030847558206319806,-0.006075958912819624,-0.0031840733962133524
1746735834930177300,0.28217724609375,-0.014987725773453711,0.017871318385750054,-0.0008813311454840003
1746735834940143400,0.292143310546875,-0.0010813654959201812,0.012254501417279243,-0.0008214176517911255
1746735834950109200,0.302109130859375,-0.008557984986901282,-0.00005362988337874412,0.013231639353744684
1746735834960075300,0.3120751953125,-0.02966097877025604,-0.014546996268630027,0.0044627150299027555
1746735834970041300,0.322041259765625,-0.010363573104143143,0.0045082712046802045,0.0026324673954397438
1746735834980007200,0.332007080078125,-0.00033259295523166654,0.003117985890060663,-0.00019979688841849564
1746735834989973200,0.34197314453125,-0.011409282764792441,0.027691724523901937,-0.007418569160811603
1746735834999939300,0.351939208984375,-0.03567395544946193,0.010496405703574418,-0.005688877557683736
1746735835009905400,0.361905517578125,-0.022224106767773626,0.007772533697634935,-0.0028652715043164787
1746735835019871200,0.371871337890625,0.020426117435097695,-0.011871201188117264,-0.013966730428952722
1746735835029837000,0.381837158203125,-0.05304886862039566,-0.024429361727088688,0.005847173391934484
1746735835039803400,0.391803466796875,-0.04317570938169956,0.008354571369290352,0.016707681433856487
1746735835049769200,0.401769287109375,-0.004263502663373947,0.027158056038618088,-0.001860240913927555
1746735835059735300,0.4117353515625,0.01100070196390152,0.0011224281586706638,-0.015999642762355507
1746735835069701000,0.421701171875,-0.020416765084862707,0.005273702619224787,-0.011429741030931473
1746735835079667500,0.43166748046875,-0.026840076130628585,0.02628668003156781,-0.0015266615780070423
1746735835089633300,0.44163330078125,-0.013676058652997015,0.002381342178583145,0.021622816406376658
1746735835099599000,0.45159912109375,-0.01907470282614231,-0.00546221092864871,-0.0012875373261980712
1746735835109565200,0.461565185546875,-0.012053425887227057,-0.005526362206041813,-0.016376074859313666
1746735835119531300,0.47153125,-0.04752747485041618,-0.0049989773310720916,-0.011327961156889796
1746735835129498400,0.481498291015625,-0.03269289381206036,-0.00828691296055913,-0.000008694763109087944
1746735835139464200,0.491464111328125,-0.015931728625297546,-0.0090495678961277,0.023798461678717284
1746735835149430300,0.50143017578125,-0.011574702459573745,-0.007981354142725466,0.0029735541843809187
1746735835159396000,0.51139599609375,-0.02891805144846439,0.014489713123440742,-0.004095909277815371
1746735835169362400,0.521362548828125,-0.037294250127673144,0.008183014194667338,-0.00040384982684627175
1746735835179328300,0.531328369140625,-0.00931318726837635,-0.023073709334433076,-0.010630133352149277
1746735835189294300,0.54129443359375,0.008638064485788344,-0.026635785730183124,-0.02267493754150346
1746735835199260200,0.55126025390625,-0.041352585607767105,0.009216595026105641,-0.0009829648890532553
1746735835209226200,0.561226318359375,-0.003060556614398956,0.07562193495631217,0.0026101459657773374
1746735835219192300,0.5711923828125,0.0264081144541502,0.0647841684691608,0.007148465248849242
1746735835229158100,0.581158203125,-0.04245031771659851,-0.0396175785087049,0.012960567327402531
1746735835239124200,0.591124267578125,-0.09555997661352157,-0.1091504028096795,-0.012541026741079986
1746735835249090300,0.60109033203125,-0.0636778146624565,-0.06434329283386468,-0.039524511664081365
1746735835259056400,0.611056396484375,0.029395021310448646,0.052967181686311954,-0.04326190809411928
1746735835269022200,0.621022216796875,0.04586275650858879,0.1126196863554418,0.004874309771787375
1746735835278988000,0.630988037109375,-0.020730068817734718,0.0531024985037744,0.060031146989483385
1746735835288954400,0.640954345703125,-0.07997837660014628,-0.033450872572511434,0.057344319058302784
1746735835298920200,0.650920166015625,-0.04598667514920234,-0.059519233678281304,0.010378332281857729
1746735835308886300,0.66088623046875,-0.018895839127898214,-0.022308862441778182,-0.05067634906908497
1746735835318852000,0.67085205078125,-0.03014671646058559,0.04523249578103423,-0.08235650390833615
1746735835328818400,0.680818359375,-0.0024795418560504914,0.04938727737292647,-0.047604376011528074
1746735835338784300,0.6907841796875,0.000678045392036438,0.014401158057153224,0.01696147353183478
1746735835348750300,0.700750244140625,-0.03041735009551048,-0.018884294820576904,0.06539026286983862
1746735835358717200,0.71071728515625,-0.04208440701365471,-0.02937587821856141,0.0606192490757443
1746735835368683300,0.720683349609375,-0.004686696511507034,0.002008855604380369,-0.003019585283193737
1746735835378649000,0.730649169921875,-0.009032032239437103,0.013888386229425669,-0.06612372824354097
1746735835388615200,0.740615234375,-0.012782909205555915,0.02307195576876402,-0.06643164341524244
1746735835398581000,0.7505810546875,-0.011280687949061393,0.01658127857521176,-0.028324487735796718
1746735835408547000,0.760547119140625,-0.017405308309197426,-0.016267244189977645,0.023018271086458115
1746735835418513200,0.77051318359375,-0.028920974057912826,-0.005528261902183294,0.06913155002370476
1746735835428479200,0.780479248046875,-0.0171013569265604,0.008568360250443219,0.041181010166835036
1746735835438445000,0.790445068359375,-0.03610591712594032,0.020112083049863574,-0.00505054312152788
1746735835448411100,0.8004111328125,-0.019047814819216725,0.02281374322399497,-0.03606655322993174
1746735835458377200,0.810377197265625,-0.0008013795107603073,0.01283931556791067,-0.05670540010025724
1746735835468343000,0.820343017578125,-0.03791793498396873,-0.0065877078272402285,-0.019264252315182237
1746735835478309000,0.83030908203125,-0.04060439758896828,-0.0072463178664445875,0.02880423407675698
1746735835488275000,0.84027490234375,-0.01112520512640476,0.004277531188726425,0.05297881732517853
1746735835498241300,0.8502412109375,-0.018760230049490928,-0.0039048984840512274,0.041595637116022405
1746735835508207000,0.86020703125,-0.03761807525455951,0.017528788558393717,-0.009488598634209483
1746735835518173200,0.870173095703125,-0.02114157222807407,0.0069356444820761675,-0.060987096007447686
1746735835528139000,0.880138916015625,-0.028168109863996503,-0.007337211020290851,-0.033094716078601774
1746735835538105000,0.89010498046875,-0.0073667293757200235,-0.006618249095976352,-0.00036404753942042585
1746735835548071200,0.9000712890625,-0.019642273581027984,0.026491554953902957,0.0018944537107832729
1746735835558037000,0.910037109375,-0.023838556227087974,0.025496698697656393,0.009797116594109683
1746735835568003000,0.920003173828125,0.0033966567009687423,0.008595978909730911,0.022843480775132773
1746735835577970000,0.929969970703125,-0.003644493982195854,0.00014013912305235862,0.0001372165136039257
1746735835587936300,0.939936279296875,-0.021595161214470863,0.011755027462542056,-0.0033548633858561513
1746735835597902000,0.949902099609375,-0.02115267814397812,0.005504004243761301,-0.030942707410175352
1746735835607868200,0.9598681640625,-0.032979894059896465,0.010325140789896249,-0.01618484486984089
1746735835617834000,0.969833984375,-0.014576222363114356,0.0024149521872401237,-0.00036150852246209976
1746735835627800300,0.97980029296875,-0.0292313551813364,0.01417450969442725,0.0021213212692178783
1746735835637766100,0.98976611328125,-0.02981879968047142,0.007063070254027843,0.00493004028070718
1746735835647732000,0.99973193359375,0.0022001403927803037,0.016973054371774196,0.0002392155833542347
1746735835657698000,1.009697998046875,-0.012309446474909782,0.014841303040087222,-0.00040481794122606516
1746735835667664100,1.0196640625,-0.0012684125006198882,0.009696779758483171,-0.0024994886655360458
1746735835677630200,1.029630126953125,0.014418985974788665,0.005694412249326705,-0.012546031709760427
1746735835687596000,1.039595947265625,-0.04814356092214584,-0.016486732159554957,-0.018445227549877017
1746735835697562000,1.04956201171875,-0.06086567985117435,-0.015108721804618835,-0.009366561423428356
1746735835707528200,1.059528076171875,-0.028092706540226935,-0.003606061667948961,-0.00412796665020287
1746735835717494000,1.069493896484375,-0.00983516531586647,0.005502981330454349,-0.0010809088381938635
1746735835727460000,1.079460205078125,-0.022713351589441298,0.008406301556527614,0.005245937829464674
1746735835737426000,1.089426025390625,0.004515431597828865,-0.007258738956600427,-0.004825447395071387
1746735835747392300,1.099392333984375,-0.01882978815436363,-0.0044018882207572455,0.0008475567400455475
1746735835757358000,1.109358154296875,-0.048915129816532135,-0.0010446867473423481,-0.004262589347921311
1746735835767324200,1.11932421875,-0.02812777785360813,0.0035403029553592205,0.004259264879673719
1746735835777290000,1.1292900390625,0.01092354507446289,0.02481923782750964,-0.02567740729311481
1746735835787256000,1.139256103515625,-0.019154197803139685,0.014349720130860805,-0.010132559093553572
1746735835797222100,1.14922216796875,-0.03411971174478531,-0.008233283077180385,0.005144358884822577
1746735835807189200,1.159189208984375,-0.023940847557783126,-0.0022680910624563694,-0.0032460327165201304
1746735835817155000,1.169155029296875,-0.020647066709399222,0.0011560381673276423,-0.0006846760622225701
1746735835827121000,1.179120849609375,-0.017958266016840935,0.0191448454529047,-0.0021699096512980756
1746735835837087200,1.189087158203125,-0.03472352285683155,0.01259600833132863,0.0028318258924409745
1746735835847053000,1.199052978515625,-0.008691840499639511,-0.0051743338979780675,-0.0014823292459361255
1746735835857019100,1.20901904296875,0.0037292496562004087,0.00020808979272842406,-0.004203680501226335
1746735835866985000,1.21898486328125,-0.035329672056436535,0.009056289897859096,-0.023004954947158693
1746735835876951300,1.228951416015625,-0.03592997603714466,-0.00919511384665966,-0.007504238150268793
1746735835886917000,1.238917236328125,0.008055880683660506,0.007011924588680267,0.008878540444467216
1746735835896883000,1.248883056640625,-0.01798456950187683,-0.007486702493578195,0.010773670008685439
1746735835906849000,1.25884912109375,-0.04566051193475723,0.006663257281482219,-0.020101086731813846
1746735835916815000,1.268815185546875,-0.015281740283966063,0.01786021246984601,-0.004945036920439452
1746735835926781200,1.27878125,-0.010195230799913406,0.0075479311615228644,-0.00046288653770461675
1746735835936747000,1.2887470703125,0.014345336216688155,0.0222056943282485,-0.0053759208846837275
1746735835946713000,1.298713134765625,-0.023504794228076935,0.008226707205921412,0.004802559709828347
1746735835956679200,1.30867919921875,-0.028882980135083197,-0.0021660919927060603,0.0006199402629397809
1746735835966645000,1.31864501953125,-0.0306692790299654,-0.005232493826001882,0.003202778096683323
1746735835976611000,1.328611083984375,-0.020047347250580785,-0.006123159055411815,0.0007327712539583444
1746735835986577200,1.3385771484375,-0.028427053061127663,-0.006882452990114689,0.004276161215547472
1746735835996543200,1.348543212890625,0.007056348252296447,0.0115298404045403,-0.009971030122600495
1746735836006509000,1.358509033203125,0.021719664376974104,0.022606091822683808,-0.00004508125074207783
1746735836016475100,1.36847509765625,-0.008946107521653176,0.011608312468230724,0.0012703669956885277
1746735836026441200,1.378441162109375,-0.038565585237741465,0.0045255146004259585,0.0013334953597746789
1746735836036407300,1.3884072265625,-0.013564999493956564,-0.003324029856175184,-0.0016470730872824788
1746735836046373000,1.398373046875,-0.018799393016099928,-0.0064743105806410305,-0.00937744814362377
1746735836056339000,1.4083388671875,-0.042291327762603755,0.015811755507439375,-0.004140917463321238
1746735836066306000,1.41830615234375,-0.01999064862728119,0.019080401914566752,-0.010063000988680869
1746735836076272000,1.428272216796875,0.005297521886229515,0.01085953992754221,-0.0020202903138473627
1746735836086238200,1.43823828125,-0.006526771420240402,-0.012014701312035322,0.009502901154197751
1746735836096204000,1.4482041015625,-0.022385434809327125,-0.006194762986898422,0.0028809439974837
1746735836106170000,1.458170166015625,-0.023131869262456892,-0.008306640574336051,0.0024633761725388467
1746735836116136200,1.46813623046875,-0.005785597664117813,-0.0019457272402942179,-0.03231903726467863
1746735836126102300,1.478102294921875,-0.020609072786569593,0.00575067248120904,0.0015614588967524468
1746735836136068000,1.488068115234375,-0.03197276284396648,0.0014805939465761184,-0.001945526310894638
1746735836146034000,1.498033935546875,-0.028673136776685714,0.017124883932620287,0.0021664390525780617
1746735836156000300,1.508000244140625,-0.007568973949551582,0.0004800386019051075,0.012151625564694403
1746735836165966000,1.517966064453125,-0.024031448450684546,-0.01012011973708868,-0.0014927775747142732
1746735836175932200,1.52793212890625,-0.02418108605444431,0.00290112826898694,-0.00853697873149067
1746735836185898000,1.53789794921875,-0.02478840429782867,0.011801789213716983,-0.01666935871746391
1746735836195864300,1.5478642578125,-0.03288520151376724,0.00009366963282227516,-0.003429883117135614
1746735836205830100,1.557830078125,0.01125906063914299,0.0002456453241407871,0.002024327168148011
1746735836215796200,1.567796142578125,-0.019116788402199745,0.006534077943861484,0.006464209311734885
1746735836225762000,1.577761962890625,-0.07731646391451358,0.007365706462413072,0.002220671724155545
1746735836235728100,1.58772802734375,0.004831657940149307,0.01487842018008232,-0.015177786719147116
1746735836245694200,1.597694091796875,0.014096914413571356,0.006877922945469617,-0.006437211706954986
1746735836255660000,1.607659912109375,-0.02287234154343605,0.008147796750813723,-0.003631689299549907
1746735836265626000,1.617626220703125,-0.033813422274589534,0.02728635859340429,-0.000486212614364922
1746735836275592200,1.62759228515625,-0.020493921974301336,-0.004297258802503347,-0.003968355641700327
1746735836285558300,1.637558349609375,-0.007481880187988281,-0.00020867431461811065,0.001700063649844378
1746735836295524000,1.647524169921875,-0.03247486714720726,0.008797638961672783,0.00319607436126098
1746735836305490000,1.657489990234375,-0.04265373133420944,0.018854630334675312,0.0030158954887650907
1746735836315456300,1.667456298828125,-0.013486673560738563,0.006213759948313236,-0.023206267939228562
1746735836325423000,1.677423095703125,-0.019927520263195036,0.007164046410471201,-0.007385872467607259
1746735836335389200,1.68738916015625,-0.01843289779126644,0.014366817396134138,-0.003823248082585633
1746735836345355000,1.69735498046875,-0.04327683166861534,0.008704699981212616,0.005336410858202726
1746735836355321000,1.707321044921875,-0.005112228447198867,-0.007957973267138005,0.0023656148864887655
1746735836365287200,1.717287109375,-0.016778700843453405,-0.005463379972428083,0.000492605822533369
1746735836375253500,1.72725341796875,-0.01917173345983028,0.004105535622686148,0.002717259602062404
1746735836385219300,1.73721923828125,-0.02350888588130474,0.0069368135258555405,-0.004070701771322637
1746735836395185400,1.747185302734375,-0.02022796451449394,0.004473199891299009,0.004631897584348917
1746735836405151500,1.7571513671875,-0.03114683341383934,-0.00858092747107148,-0.006428352547064423
1746735836415117300,1.767117431640625,-0.02935118216872215,-0.008880933330953121,0.0010452164703048765
1746735836425083400,1.77708349609375,-0.031599253356456754,-0.008408931905031204,-0.0011443111969158053
1746735836435049200,1.78704931640625,-0.019039631512761116,0.006181903505325317,-0.004173084433563053
1746735836445015600,1.797015625,-0.0051315176695585244,-0.0018332067765295505,-0.009278846607357264
1746735836454981400,1.8069814453125,-0.0018447510838508604,0.00329085823893547,-0.007588902492728084
1746735836464947500,1.816947509765625,-0.034167642539739605,0.003291150499880314,0.0014286993625573813
1746735836474913300,1.826913330078125,-0.03295183700919151,0.003762275142967701,0.0016292269033379853
1746735836484879400,1.83687939453125,-0.0022620997130870816,0.02415449030846357,0.0007369907713495195
1746735836494845400,1.846845458984375,-0.030544191345572468,0.025806495299190282,-0.004811400603409856
1746735836504811300,1.856811279296875,-0.03698445352613926,-0.01589402696341276,0.001619308297522366
1746735836514777300,1.86677734375,-0.03758592655062675,-0.02635243874415755,0.0019619659890420735
1746735836524743400,1.876743408203125,-0.018435820400714873,-0.01841594665646553,0.0034611185056157407
1746735836534709500,1.88670947265625,-0.022336334970593452,0.0008088321648538113,0.0007716054270043969
1746735836544675300,1.89667529296875,-0.015761632755398748,0.019589082089066505,0.0038895547844469544
1746735836554641200,1.90664111328125,-0.008884732723236083,0.015001315907388924,-0.001811506401374936
1746735836564607500,1.916607421875,-0.00813245305120945,0.026639731252938507,0.004339746237359941
1746735836574573300,1.9265732421875,-0.012616904988884925,0.016587854446470738,-0.012471870495006442
1746735836584540400,1.93654052734375,-0.03447042487859726,-0.006861410202085971,-0.01021875780597329
1746735836594506200,1.94650634765625,-0.021449030742049215,-0.010767477729916573,0.0041214090452529484
1746735836604472300,1.956472412109375,-0.023985855743288993,-0.010065759201347828,0.0023983298460021614
1746735836614438400,1.9664384765625,-0.025481062737107277,0.018660569067299366,0.0037121706572361287
1746735836624404500,1.976404541015625,-0.020824176841974257,0.023618191474676132,0.0023276026973500846
1746735836634370300,1.986370361328125,-0.010648819786310196,0.016292086370289324,-0.0007015175991691648
1746735836644336400,1.99633642578125,-0.022460253611207008,-0.00128010293841362,0.004003134694136679
1746735836654302500,2.006302490234375,-0.043704117169976235,-0.005368687426298856,0.0004985423729754984
1746735836664268300,2.016268310546875,-0.007495908713340759,-0.00010813654959201812,0.003699566903989762
1746735836674234400,2.026234375,-0.013480828341841698,0.001241670624166727,-0.00024834873788058754
1746735836684200200,2.0362001953125,-0.0398275679975748,0.008954583089053631,-0.0011383381138555704
1746735836694166500,2.04616650390625,-0.012883446970582007,0.010979074653983116,0.0022911796770989892
1746735836704132400,2.05613232421875,-0.01497428176999092,-0.006864186681061982,-0.009048179656639694
1746735836714098400,2.066098388671875,-0.03219546568393707,0.0056466275848448275,-0.014091489319782702
1746735836724064300,2.076064208984375,-0.000028057050704956055,0.01914499158337712,-0.0055312575768679375
1746735836734030300,2.0860302734375,-0.005112228447198867,-0.006470511188358068,0.002552497494406998
1746735836743996400,2.095996337890625,-0.04041910414993763,-0.0024780805513262747,-0.004397540839202701
1746735836753962200,2.105962158203125,-0.011990297523140906,-0.006941489700973033,0.00408489469345659
1746735836763928300,2.11592822265625,-0.01916881085038185,0.0044018882207572455,0.00331745398491621
1746735836773894400,2.125894287109375,-0.03771276780068874,0.0007297755792737006,-0.000027015871088951823
1746735836783860500,2.135860595703125,-0.030239070919156074,0.020541414377838373,0.004034205685835331
1746735836793826300,2.145826416015625,0.007173252630233764,0.004201835604012012,-0.0008178557215258479
1746735836803792400,2.15579248046875,-0.02843582088947296,-0.010354220753908157,-0.0013747772182337939
1746735836813758500,2.165758544921875,-0.03830547299683094,-0.003362900561839342,0.0039437509234063325
1746735836823724300,2.175724365234375,-0.0007400047123432159,-0.004167494942992926,0.0007169160977005958
1746735836833690400,2.1856904296875,-0.02108721169233322,0.010929244162887335,-0.0021780746914446354
1746735836843656200,2.19565625,-0.013158172258734703,0.016925708098709583,-0.0026253983338363467
1746735836853622500,2.20562255859375,-0.014659224471449852,0.007986468709260225,-0.0023446268973872065
1746735836863589400,2.21558935546875,-0.024081132811307904,0.005553980865329503,-0.015389237512741237
1746735836873555500,2.225555419921875,-0.018088614398241044,-0.017543693866580723,-0.006702201052382588
1746735836883521300,2.235521240234375,-0.021080781951546668,-0.0037859482795000073,-0.002475578066986054
1746735836893487400,2.2454873046875,-0.03186228820681572,0.007938391783833503,0.011613865426182746
1746735836903453400,2.255453369140625,-0.013448095116019248,0.02342471472918987,0.012599150136485696
1746735836913419300,2.265419189453125,-0.020766309174895286,0.0002672726340591907,0.009652337828557938
1746735836923385300,2.27538525390625,0.0025818331867456436,0.0023329729922115803,-0.0020583573019132017
1746735836933351200,2.28535107421875,-0.027505846562981603,0.0173693602129817,-0.01578601827798411
1746735836943317500,2.2953173828125,-0.027503508475422857,0.013750585193932055,-0.0007430734522640705
1746735836953283300,2.305283447265625,-0.017786416581273078,0.007987637753039598,-0.001198397738020867
1746735836963249400,2.31524951171875,-0.022725626549124717,-0.011752250983566045,0.0005579992089420557
1746735836973215200,2.32521533203125,-0.039790158596634866,0.01822612317278981,0.006215623111836612
1746735836983181600,2.335181640625,-0.022578327032923697,0.004595072705298662,0.011200370988156646
1746735836993147400,2.3451474609375,-0.009703647890686989,-0.0038210195928812026,0.0017129596640355885
1746735837003113200,2.35511328125,-0.014783727633953093,0.006001724632829428,-0.019116240412928164
1746735837013079300,2.365079345703125,-0.02913724715709686,0.00351896790638566,-0.026137572150770574
1746735837023045400,2.37504541015625,-0.031087212181091308,0.0035426410429179665,-0.00930873028896749
1746735837033011500,2.385011474609375,-0.03258826439380646,0.005070873523503542,0.004165650045778602
1746735837042977300,2.394977294921875,-0.007753098344802856,0.01900909024402499,0.002332151008304208
1746735837052943400,2.404943359375,-0.04006956005990505,0.0019128478839993475,-0.0030797179725952444
1746735837062909400,2.414909423828125,-0.039622400814294814,0.004627367539703846,0.009157284320611506
1746735837072875300,2.424875244140625,0.004679682248830795,-0.0012738193280994892,0.002242773958109319
1746735837082841300,2.43484130859375,0.00048281508088111874,0.0053543666400015354,-0.023443766489531843
1746735837092807200,2.44480712890625,-0.04695055174529552,-0.001703296786546707,-0.01285261344090104
1746735837102773500,2.4547734375,-0.014629413855075836,0.006984159798920154,0.00041747649339959024
1746735837112739300,2.4647392578125,0.005879121166467666,-0.014325900863856076,0.0018967735320329665
1746735837122705400,2.474705322265625,-0.0381155033826828,-0.00892959477826953,-0.0010948277656920254
1746735837132671200,2.484671142578125,-0.02481295421719551,0.0212592072583735,0.0016136822743341326
1746735837142638300,2.494638427734375,-0.003561491873860359,0.026621026552468535,0.0029782668921165168
1746735837152604400,2.5046044921875,-0.011939444118738174,0.005357727640867233,-0.011075191972218453
1746735837162570500,2.514570556640625,-0.04127659776210785,-0.015238193403184414,-0.018631342972815036
1746735837172536300,2.524536376953125,-0.0270440742701292,-0.008186375195533037,0.0032501426360569893
1746735837182502100,2.534502197265625,-0.005046177473664284,-0.0068514733299613,-0.0003337254663929343
1746735837192468500,2.544468505859375,-0.013717559707164763,0.008814882357418537,0.009153813721891491
1746735837202434300,2.554434326171875,-0.0051841246396303175,0.024793811125308273,0.014404993982054292
1746735837212400400,2.564400390625,-0.029120880544185636,-0.004430383662879467,-0.003504446190688759
1746735837222366200,2.5743662109375,-0.03570376606583595,-0.0050350715577602385,0.004693181051220745
1746735837232332500,2.58433251953125,-0.03197100927829742,0.0007210077509284019,-0.020509229141287503
1746735837242298400,2.59429833984375,-0.010271218645572662,0.012376520361751317,-0.02306333407089114
1746735837252264200,2.60426416015625,-0.0400368268340826,0.0010619301430881023,-0.0018264847747981546
1746735837262230300,2.614230224609375,-0.0038239422023296356,0.004355710991472006,0.0017320114243775605
1746735837272196400,2.6241962890625,0.00769932233095169,0.002105009455233812,-0.0015645824356004595
1746735837282162400,2.634162353515625,-0.026869302225112912,-0.009542758240550757,-0.0026951939007267356
1746735837292128300,2.644128173828125,-0.035389877811074257,0.0005747311480343341,0.0027887904683127998
1746735837302094300,2.65409423828125,-0.019664485412836073,0.004513970293104648,-0.0009535195988602936
1746735837312060400,2.664060302734375,-0.024757424637675284,-0.01789922930598259,-0.011068743965122849
1746735837322026200,2.674026123046875,-0.030144378373026845,0.00004077040180563926,-0.013177826807275413
1746735837331992300,2.683992431640625,-0.03150105367898941,0.007595277434587478,-0.0008985014759935439
1746735837341958400,2.69395849609375,-0.01025602107644081,0.012411007153242826,0.003872475785482675
1746735837351924500,2.703924560546875,-0.028665537992119787,-0.005064151521772146,0.0008659509132616221
1746735837361890300,2.713890380859375,-0.030466449934244154,0.0039598435416817665,-0.005751457932498306
1746735837371856400,2.7238564453125,-0.024786650732159615,0.005800795233249664,-0.001848386079352349
1746735837381822000,2.733822021484375,-0.02942717001438141,0.0017785539798438547,-0.008772650650888681
1746735837391788000,2.7437880859375,0.004833996027708053,-0.0010213058717548846,-0.003969232424534857
1746735837401753900,2.75375390625,-0.028973581027984616,-0.0021387655943632127,-0.0034605522500351068
1746735837411720000,2.763719970703125,-0.0376449632614851,0.0055881753958761686,-0.00285873216567561
1746735837421686000,2.77368603515625,-0.023272154515981674,0.0052409693934023375,0.0028910452663898465
1746735837431653000,2.783653076171875,-0.0328477921128273,-0.004636427628993987,-0.022878369425423442
1746735837441619000,2.793618896484375,-0.02401741992533207,-0.0015121581286191938,0.003768156894482672
1746735837451585000,2.8035849609375,-0.020123335096240043,0.0065418228588998316,0.0003236424637958407
1746735837461550800,2.81355078125,-0.00830196439921856,0.011190233186632394,0.0038404366794042286
1746735837471517000,2.823516845703125,-0.036727848416566844,0.002627425894141197,-0.0033980084078386423
1746735837481483000,2.83348291015625,-0.02116962927877903,-0.0007809212446212769,-0.0066920632508583365
1746735837491448800,2.84344873046875,-0.036594577425718304,0.003343026817589998,0.0014486644383519887
1746735837501415000,2.853414794921875,-0.007564297774434089,0.008568214119970798,0.0033074257812462744
1746735837511381000,2.863381103515625,-0.018325345763564108,-0.0009628536827862262,0.0005074563317932189
1746735837521347000,2.87334716796875,-0.02683890708684921,0.005361819294095039,-0.007173216097615659
1746735837531313000,2.88331298828125,-0.03281330532133579,0.009160188663750886,0.002467632222548127
1746735837541278700,2.89327880859375,0.00803834502696991,-0.008946399782598018,0.000929097543656826
1746735837551245000,2.9032451171875,-0.03026712796986103,-0.009562485854327679,0.0018618300828151405
1746735837561211000,2.9132109375,-0.045994273933768266,0.007312368839979171,-0.020599263778608292
1746735837571177000,2.923177001953125,-0.003960135802626609,0.020890373945981262,-0.013886249071266501
1746735837581142800,2.933142822265625,-0.00426291814148426,0.00011807342171669006,0.01496874707834795
1746735837591109000,2.943109130859375,-0.018190321207046507,-0.0015980828464031219,0.01231733752042055
1746735837601075000,2.953074951171875,-0.022828502401709555,-0.016739684007316825,-0.031360585762374105
1746735837611040800,2.963040771484375,-0.013840309303998946,0.015650135204941032,-0.03233478282308206
1746735837621006800,2.9730068359375,-0.033895255339145655,-0.0045164545111358164,-0.004561152169387787
1746735837630973000,2.982972900390625,0.004556348130106926,0.02649608499854803,0.0005592961168847978
1746735837640939000,2.99293896484375,-0.005325578936934471,-0.008181991281360388,0.005660436914488673
1746735837650904800,3.00290478515625,-0.059656888583302495,-0.003008972557634115,-0.0129397620013915
1746735837660871000,3.012870849609375,-0.03286825037896633,-0.019647826538980007,-0.02098824482988566
1746735837670837000,3.0228369140625,-0.011613280904293059,-0.012074760936200617,-0.02437375908233225
1746735837680803000,3.032802978515625,-0.01639817709326744,0.008696808935701846,0.008278674855176358
1746735837690769000,3.042768798828125,-0.05171089801490306,-0.006291062968224286,0.008959953383915125
1746735837700735000,3.05273486328125,-0.010267126992344855,0.007362053200602531,0.012444982488080859
1746735837710701000,3.062701171875,-0.016694529691338538,0.012246610371768473,-0.0014581263864412903
1746735837720667000,3.0726669921875,-0.048557986941933626,-0.016247516576200723,-0.00015900822030380366
1746735837730634000,3.082634033203125,-0.027464930030703542,0.008614245218783616,-0.006728595868963748
1746735837740599800,3.092599853515625,-0.022232874596118925,0.024655279437452552,-0.03613609306849539
1746735837750566000,3.10256591796875,-0.009220248287916183,0.025293723471462724,-0.010810093028936535
1746735837760532000,3.112531982421875,-0.005628945797681808,0.016910072138160467,0.012396576769091188
1746735837770498000,3.122498046875,-0.025980828952789307,-0.005072042567282915,0.023901739390101283
1746735837780463900,3.1324638671875,-0.03166764241755009,0.007351531806588173,-0.0016967939805239438
1746735837790430000,3.142429931640625,-0.0219376910418272,0.001795358984172344,0.004402363144792616
1746735837800396000,3.15239599609375,-0.03749883278906345,0.0055360068172216415,-0.013496902693808079
1746735837810361900,3.16236181640625,-0.019537644162774086,0.01013970122039318,-0.01393180524604395
1746735837820328000,3.172327880859375,0.0035071313381195065,0.0008475567400455475,-0.017144739410560578
1746735837830294000,3.1822939453125,-0.023265140253305432,-0.004801993454247712,0.0018360197881236672
1746735837840260000,3.192260009765625,-0.03672667937278747,0.017458645931631326,0.004466496155876666
1746735837850226000,3.202225830078125,-0.008889993420243263,0.005159574720263481,-0.006337568991072476
1746735837860192000,3.21219189453125,-0.008881225591897964,-0.000284516029804945,-0.02046323457509279
1746735837870158000,3.222157958984375,-0.032817396974563595,-0.01917407154738903,-0.01514709931993857
1746735837880124000,3.2321240234375,-0.031765842095017434,0.006961509575694799,-0.006159874336607754
1746735837890090000,3.242090087890625,-0.01113046582341194,0.018136837454140187,0.014400062078610061
1746735837900055800,3.252055908203125,-0.005441314271092414,-0.004023848688602448,0.013724299975205212
1746735837910022100,3.262022216796875,-0.014088731107115745,-0.019042846383154392,0.0013391579155810176
1746735837919988000,3.271988037109375,-0.018579612785577772,0.017627280496805904,0.014119929962977767
1746735837929954000,3.2819541015625,-0.040734161448478697,0.0013728957884013653,0.0008351173835806548
1746735837939920000,3.291919921875,-0.028904022923111915,-0.006933744785934687,0.019929730486590413
1746735837949886000,3.301885986328125,0.0017909750699996946,0.025702888794243334,0.002177161375992
1746735837959852000,3.31185205078125,-0.03653086453974247,-0.022814473876357075,-0.006838431185297668
1746735837969817900,3.32181787109375,-0.04788169511556625,-0.005306728105992078,-0.006790975314378738
1746735837979784000,3.331783935546875,0.042646717071533204,0.023741379462927578,0.023282036589179187
1746735837989750000,3.34175,-0.027397710013389587,0.004249181877076625,0.01965509652998298
1746735837999716000,3.351716064453125,-0.01945464205443859,0.025717063450068234,-0.011884846120979637
1746735838009683000,3.361682861328125,-0.010168927314877509,-0.004851823945343494,-0.014413414750527589
1746735838019649000,3.37164892578125,-0.032332828328013416,0.0012752806328237055,-0.010897899176552891
1746735838029614800,3.38161474609375,-0.020948095482587813,-0.00943754430040717,0.004650109094474464
1746735838039581200,3.391581298828125,-0.020646482187509536,0.006261544612795114,-0.0018440204314887523
1746735838049547000,3.401547119140625,-0.04130757742226124,0.011878069320321082,-0.003309964798204601
1746735838059512800,3.411512939453125,0.004932780227065086,-0.005643558844923973,0.0066924285770393905
1746735838069479000,3.42147900390625,-0.022135259440541268,-0.009803893394768238,0.0012926153601147234
1746735838079445000,3.431445068359375,-0.05146598334312439,0.006661649846285581,-0.004192391922231763
1746735838089411000,3.4414111328125,-0.003583703705668449,0.001744651710242033,-0.006036138359084725
1746735838099377000,3.451376953125,-0.018697686207294464,-0.002139057855308056,0.00005784940076991915
1746735838109343000,3.461343017578125,-0.02602934426963329,0.016419073750823736,-0.002245824431721121
1746735838119309000,3.47130908203125,-0.004929857617616653,0.017164923682063817,0.004178546059969812
1746735838129275000,3.48127490234375,-0.028725743746757505,0.014643003989011048,0.011829554003477096
1746735838139241000,3.491240966796875,-0.029919921967387197,0.006991174061596393,-0.002996332271769643
1746735838149206800,3.501206787109375,-0.012564298018813133,-0.00136266665533185,0.0013064246897585689
1746735838159173000,3.511173095703125,-0.040546529921889306,-0.0030126258194446563,0.0023826208202168343
1746735838169139000,3.521138916015625,-0.03202946146726608,-0.007716565726697444,-0.007415536953508854
1746735838179105000,3.53110498046875,-0.009735212072730063,0.008751607862859964,-0.016660152497701346
1746735838189070800,3.54107080078125,-0.001637245813012123,0.0008244681254029274,-0.003718417734932154
1746735838199037000,3.551036865234375,-0.038757308417558665,0.016303338416665793,0.002046849527209997
1746735838209003000,3.5610029296875,-0.017665420550107953,0.012178075180202723,0.005867211532965302
1746735838218968800,3.57096875,0.0020890812337398526,-0.006094079091399908,-0.0026961072161793705
1746735838228935000,3.580934814453125,-0.05867255372107029,0.0032547640122473236,-0.013335739049036056
1746735838238901000,3.59090087890625,-0.043700610038638114,0.0063287646301090714,-0.010590367597341537
1746735838248867000,3.6008671875,-0.0018038345515727996,0.01620645391345024,-0.0063064249341376125
1746735838258833000,3.6108330078125,-0.006591653349995613,0.005132540582865476,0.0001039170322008431
1746735838268799000,3.620799072265625,-0.037270869252085684,0.010106383472681045,-0.0017635390738025307
1746735838278765000,3.63076513671875,-0.02842763758301735,0.0026614742942154407,0.009155768216960132
1746735838288731000,3.64073095703125,-0.026025252616405484,-0.0035344577364623546,-0.0017902992165647446
1746735838298697000,3.650697021484375,-0.01824818887412548,0.007874386636912822,-0.002406184358894825
1746735838308662800,3.660662841796875,-0.015556465572118759,0.01401288939192891,-0.008033632319234311
1746735838318630000,3.6706298828125,-0.018103227445483205,0.004743687395751476,0.0018003456865437327
1746735838328596000,3.680595947265625,-0.031117022797465324,0.008299187920242548,0.002569941819552332
1746735838338562000,3.69056201171875,-0.02213642848432064,0.004679828379303217,0.003251439543999731
1746735838348527900,3.70052783203125,-0.017648469415307046,-0.00489668600037694,0.004184921001829206
1746735838358494000,3.710493896484375,-0.03111585375368595,0.005421732787787914,0.002142765916045755
1746735838368460000,3.7204599609375,-0.026619126856327054,0.008205518287420272,-0.0017299838640727101
1746735838378426400,3.73042626953125,-0.01779284632205963,0.001799158376455307,0.004025474390108138
1746735838388392200,3.74039208984375,-0.03260463100671768,0.004772182837873697,0.001214289426896721
1746735838398358300,3.750358154296875,-0.03244797914028168,0.01609261827543378,0.00044714097930118437
1746735838408324400,3.760324462890625,-0.004765022444725036,0.0012803951993584633,0.00043970659151673316
1746735838418290400,3.77029052734375,-0.01284545304775238,0.006061345865577459,-0.0005330291644670069
1746735838428256300,3.78025634765625,-0.012839023306965828,0.00017521043643355368,-0.00008818974010646343
1746735838438222300,3.790222412109375,-0.030786183407902717,-0.006772855135798454,-0.016755064239539205
1746735838448188400,3.8001884765625,0.002433364626765251,0.010292992085963487,0.00012240253696218131
1746735838458154500,3.810154541015625,-0.017770049968361852,-0.0003163724727928638,0.0023751681661233304
1746735838468120300,3.820120361328125,-0.038732173976302145,0.003219984959810972,0.006729837977979332
1746735838478086100,3.830086181640625,-0.02601063956916332,-0.01581131711602211,0.00038554698517546054
1746735838488052500,3.840052490234375,-0.00970832406580448,-0.0007926116824150085,-0.003446286262664944
1746735838498018300,3.850018310546875,-0.008512976801395416,0.012673603612184524,0.004261785630322992
1746735838507984400,3.859984375,-0.031415128961205484,0.0013562369145452976,-0.0030229645503684877
1746735838517950200,3.8699501953125,-0.04788695581257343,0.004882657475024461,0.001494768602401018
1746735838527916500,3.87991650390625,-0.010186462971568108,-0.009572568856924773,0.009883297040220349
1746735838537882400,3.88988232421875,-0.03802957866489887,-0.011296762301027774,-0.006217687204759567
1746735838547848200,3.89984814453125,-0.03129764006137848,0.017599661837518214,-0.01252451399769634
1746735838557814300,3.909814208984375,-0.014692542219161987,0.011802519866079091,-0.019876520728319882
1746735838567780400,3.9197802734375,-0.013188567396998405,0.007709551464021205,-0.011386486411094665
1746735838577746400,3.929746337890625,0.0022287819653749466,0.0031958734318614005,-0.00353739861221984
1746735838587712300,3.939712158203125,-0.017363807255029676,0.0037307109609246254,0.004602306163683533
1746735838597678300,3.94967822265625,-0.048638650962710375,-0.003007511252909899,0.0007695961330085992
1746735838607644400,3.95964453125,-0.015882044264674187,0.004275923753529787,-0.0032420506611466407
1746735838617611500,3.969611572265625,0.02257248181402683,0.036767742035537954,0.01154794231681153
1746735838627577300,3.979577392578125,-0.025018705922365186,0.052838879131525754,0.0026540947053581474
1746735838637543400,3.98954345703125,-0.035649405530095095,0.004999854113906622,-0.0019468232188373804
1746735838647509200,3.99950927734375,-0.041485856598615645,-0.05590557322576642,-0.005054013720247894
1746735838657475300,4.009475341796875,-0.03579553600251675,-0.04277414284348487,-0.005006265588384121
1746735838667441400,4.01944140625,-0.016935352709889412,0.01643894749507308,-0.019664010488800704
1746735838677407200,4.0294072265625,0.0025146131694316863,0.052818713126331567,-0.0010750270866788922
1746735838687373300,4.039373291015625,0.013272738549113273,0.039759178936481475,0.00934343627616763
1746735838697339400,4.04933935546875,0.0010053776502609252,-0.0009524784192442893,0.005648527280986308
1746735838707305500,4.059305419921875,-0.04552081120312214,-0.027523674480617044,0.008043386528268456
1746735838717271300,4.069271240234375,-0.05434475364983082,-0.005408434914797544,-0.0021765037888661024
1746735838727237000,4.079237060546875,-0.0045078328132629394,0.002911649663001299,-0.028637974131759253
1746735838737203500,4.089203369140625,-0.0037578912287950512,0.023252719163149593,-0.014138561598211526
1746735838747169300,4.099169189453125,-0.016934183666110037,0.009085662122815847,0.004357172296196222
1746735838757135400,4.10913525390625,-0.027266192588210104,0.00479819406196475,0.016951865453273058
1746735838767101200,4.11910107421875,-0.01334521926343441,-0.004814852935820818,0.023817860498931257
1746735838777067500,4.129067626953125,-0.018885317733883855,-0.001487315948307514,0.004000321682542563
1746735838787033300,4.139033447265625,-0.04446341110467911,0.008918050470948218,-0.02385494110630825
1746735838796999200,4.148999267578125,-0.023209610673785207,0.010978490132093429,-0.024331710038892923
1746735838806965200,4.15896533203125,-0.011542553755640983,0.002480126377940178,-0.02133557869652286
1746735838816931300,4.168931396484375,-0.014694295784831047,-0.016007716470956803,-0.001983593298960477
1746735838826897400,4.1788974609375,-0.021870471024513245,-0.006331687239557504,0.022548278954531997
1746735838836863200,4.18886328125,-0.02994505640864372,0.007848229282349347,0.02068951761163771
1746735838846829300,4.198829345703125,-0.02141395942866802,0.003053250090777874,0.0006133461253717542
1746735838856795400,4.20879541015625,-0.019155951368808745,0.004302519499510526,-0.02890446131452918
1746735838866761200,4.21876123046875,-0.02424479894042015,0.0011712357364594935,-0.02594994062418118
1746735838876727300,4.228727294921875,-0.020647066709399222,-0.00651683454811573,-0.013621186660602688
1746735838886693000,4.238693115234375,-0.008977087181806565,0.0039633506730198855,-0.002468143679201603
1746735838896659500,4.248659423828125,-0.007035889986157417,-0.0006534954726696014,0.03020630116071552
1746735838906625300,4.258625244140625,-0.03501812188923359,0.0038350481182336804,0.013442998815793543
1746735838916591400,4.26859130859375,-0.02663198633790016,0.009025748629122973,0.0031263335932977497
1746735838926558200,4.27855810546875,-0.006129296535253524,0.00751285984814167,-0.004962590843439102
1746735838936524300,4.288524169921875,-0.030676877814531326,0.006512304503470659,-0.030956790734454988
1746735838946490400,4.298490478515625,-0.04684299971759319,-0.004224924218654632,-0.011022548469528555
1746735838956456400,4.30845654296875,-0.014219079488515854,0.018041998777538537,-0.0002079253959469497
1746735838966422300,4.31842236328125,-0.012274375161528586,0.014003244780749081,0.012818601573444902
1746735838976388000,4.32838818359375,-0.023349311405420303,0.00235869195535779,0.002987600976042449
1746735838986354400,4.3383544921875,-0.04205459639728069,0.006701251204311847,-0.0026594284676015375
1746735838996320300,4.3483203125,-0.0112280809789896,0.005044716168940067,-0.010596084952075034
1746735839006286300,4.358286376953125,-0.021557167291641234,-0.00045811903104186054,-0.019282208096981047
1746735839016252200,4.368252197265625,-0.018396072912216184,0.011068506503105162,-0.005208217901270836
1746735839026218500,4.378218505859375,-0.018840894070267677,-0.00048442251607775684,0.0007907302525825798
1746735839036184300,4.388184326171875,-0.017045242825150488,0.0017602876707911491,0.009602014147117734
1746735839046150100,4.398150146484375,-0.01660509784221649,-0.006995850236713886,0.004027995140757411
1746735839056116200,4.4081162109375,-0.02305354332923889,0.0023947861820459364,0.00024107874687761066
1746735839066082300,4.418082275390625,-0.03488718898594379,0.0012843407221138476,-0.003323116540722549
1746735839076048400,4.42804833984375,-0.017380758389830588,0.0033744448691606518,-0.0024825009981170295
1746735839086014200,4.43801416015625,-0.01198971300125122,-0.003246726836264133,-0.0007845927727408707
1746735839095980300,4.447980224609375,-0.014377484920620917,0.016015315255522727,-0.011749620635062456
1746735839105946400,4.4579462890625,-0.021866963893175124,0.019059797517955303,-0.007974997467175126
1746735839115912400,4.467912353515625,-0.01843114422559738,0.003237666746973991,0.0016494477074593306
1746735839125878300,4.477878173828125,-0.005106967750191688,-0.006073620825260877,-0.0008674487506039441
1746735839135844400,4.48784423828125,-0.021570611295104025,-0.002596884625405073,0.00011317805089056491
1746735839145810400,4.497810546875,-0.028611761978268622,0.00405073669552803,-0.013211199353914706
1746735839155776300,4.5077763671875,-0.03893558759391308,0.008981763356924057,0.0018806809137575328
1746735839165742300,4.517742431640625,-0.016921908706426618,-0.004305149848014116,0.0009467610645107924
1746735839175708400,4.52770849609375,-0.013169862696528435,0.0066736325450241565,-0.0014042773073539138
1746735839185674500,4.537674560546875,-0.046532618594169614,-0.010275164168328046,-0.002951853809226304
1746735839195640300,4.547640380859375,-0.026781623941659925,-0.0032296295709908006,0.004508015476353466
1746735839205606100,4.557606201171875,-0.009130816438794136,-0.0004899754740297794,-0.0011552892486564814
1746735839215572500,4.567572509765625,-0.01736672986447811,0.010932312902808189,0.004034954604506492
1746735839225538300,4.577538330078125,-0.03412380339801311,0.00268807004019618,0.004730809647869319
1746735839235505400,4.58750537109375,-0.029928689795732495,-0.004838672202825546,0.0035753742687404154
1746735839245471200,4.59747119140625,-0.015557050094008444,-0.003384381741285324,-0.0021549678104929625
1746735839255437300,4.607437255859375,-0.006565934386849403,0.008644055835157632,-0.013119794743414967
1746735839265403400,4.6174033203125,-0.025861586487293243,0.009625029696524142,0.0025203670567832885
1746735839275369500,4.627369384765625,-0.004914660048484802,0.0017069500483572482,0.002853160941414535
1746735839285335300,4.637335205078125,-0.0050660512179136275,-0.013980740687996148,-0.00021893998030573128
1746735839295301400,4.64730126953125,-0.04306640378832817,-0.018975772496312857,-0.010835537997446954
1746735839305267500,4.657267333984375,-0.03424070777595043,0.0057356210425496094,-0.004120422664564103
1746735839315233300,4.6672333984375,-0.010738251635432242,0.0026715572968125344,0.003969561218097805
1746735839325199400,4.677199462890625,-0.007148118188977241,0.002970540243387222,-0.000578402676153928
1746735839335165200,4.687165283203125,-0.009238368466496467,0.0018856676161289215,-0.0040077195377089085
1746735839345131500,4.697131591796875,-0.037971710997819895,0.0092466979034245,0.0032574491596780715
1746735839355097300,4.707097412109375,-0.024055998370051384,0.017633417976647615,-0.00004566577263176441
1746735839365063400,4.7170634765625,-0.017020108383893964,-0.0030500352203845977,-0.0008567446934990584
1746735839375029800,4.72702978515625,-0.008643325182795524,-0.006477525451034307,-0.0033518129122443495
1746735839384995600,4.73699560546875,-0.03227437613904476,0.009750701902806759,0.0018383396093733608
1746735839394961700,4.746961669921875,-0.02897475007176399,0.01270166066288948,0.003841550924256444
1746735839404927700,4.756927734375,-0.009379238241910934,-0.0008731295727193355,-0.0029743579019792378
1746735839414893600,4.7668935546875,-0.02869242599904537,0.0011385025106370448,0.0027613727384246884
1746735839424859600,4.776859619140625,-0.0487421113371849,-0.010091332034021615,0.011539795542974024
1746735839434825700,4.78682568359375,-0.005495674806833267,-0.0006689853027462959,-0.0007301226391457021
1746735839444791800,4.796791748046875,0.002885200047492981,0.008900368683785199,-0.03292767068231478
1746735839454757600,4.806757568359375,-0.026899112841486928,-0.0046706221595406525,-0.054154619638901204
1746735839464723700,4.8167236328125,-0.05188859266936779,0.000562017796933651,-0.01161739082382992
1746735839474689800,4.826689697265625,-0.012380173623561858,0.002613105107843876,0.045033520876523105
1746735839484655600,4.836655517578125,0.0016805004328489302,-0.0024320494525134563,0.07031162665374577
1746735839494621700,4.84662158203125,-0.027807459858059883,-0.004906769002974033,-0.003755242613982409
1746735839504587800,4.856587890625,-0.027214754661917685,0.002620411631464958,-0.04384257579259574
1746735839514553900,4.866553955078125,-0.019123218142986297,0.012408961326628923,-0.06820747571503744
1746735839524519700,4.876519775390625,-0.01087912141084671,0.012745792065560818,0.003500719863642007
1746735839534485800,4.88648583984375,-0.014761515802145003,0.0014632044203579425,0.05677313157422468
1746735839544452600,4.89645263671875,-0.04140110092461109,-0.004790741407871246,0.03880538534298539
1746735839554418700,4.906418701171875,-0.017158640071749685,-0.004645633848756552,0.0000022650223225355148
1746735839564384800,4.916384765625,-0.017016016730666158,-0.004883534257858991,-0.03357802434982732
1746735839574350600,4.9263505859375,-0.020458266139030457,0.0078350775398314,-0.01932292369985953
1746735839584316700,4.936316650390625,-0.02928980737030506,0.005294014754891396,-0.0166368812199682
1746735839594282800,4.94628271484375,-0.015834113469719885,-0.007046995902061462,-0.02596601497614756
1746735839604248800,4.956248779296875,-0.020918869388103483,0.0008591010473668574,0.004566175404377281
1746735839614214700,4.966214599609375,-0.021517419803142545,0.005064443782716989,0.03962610887503251
1746735839624180700,4.9761806640625,-0.039329555347561836,0.011099924554675816,0.040722215282358226
1746735839634146800,4.986146728515625,-0.0065665189087390895,0.009506225622445344,-0.00831628518551588
1746735839644112600,4.996112548828125,-0.013889993664622307,-0.004040361431986093,-0.03514688110174611
1746735839654078700,5.00607861328125,-0.01628185723721981,0.012239011587202548,-0.03549911033920944
1746735839664044500,5.01604443359375,-0.03170037564337253,0.01571735522225499,-0.011943480973038823
1746735839674011000,5.026010986328125,-0.01583002181649208,0.0033776597395539284,0.01501134411105886
1746735839683976700,5.035976806640625,-0.016417466315627096,-0.010468787044286727,0.022759126959927378
1746735839693942800,5.04594287109375,-0.03765490013360977,-0.0029192484475672243,0.01333334616255015
1746735839703908600,5.05590869140625,-0.03839373580217361,-0.009871405673027038,-0.0005889240701682865
1746735839713875000,5.065875,-0.01009703112244606,-0.007299070966988802,-0.009241455472726375
1746735839723840800,5.0758408203125,-0.009945055431127548,-0.006720248165726661,-0.02253870740858838
1746735839733806600,5.085806640625,-0.018465046495199203,0.002632394330203533,-0.007843370444141328
1746735839743772700,5.095772705078125,-0.02683598447740078,0.01588072909042239,0.00012127002580091357
1746735839753738800,5.10573876953125,-0.012341010656952858,0.014976327596604824,0.005550455467682331
1746735839763704800,5.115704833984375,-0.006508651241660118,0.0022946868084371087,0.010261464436538517
1746735839773670700,5.125670654296875,-0.02849602664411068,-0.019466770883649585,-0.007139898349903523
1746735839783636700,5.13563671875,-0.02685585822165012,0.011099632293730973,-0.006516597086098044
1746735839793602800,5.145602783203125,0.0018880057036876677,0.0015706103175878523,0.005137180225364864
1746735839803568600,5.155568603515625,-0.00021276596784591673,-0.007359422852098942,-0.0026614560279063877
1746735839813534700,5.16553466796875,-0.014429507368803024,0.021079466777294872,0.010963548291288316
1746735839823500500,5.17550048828125,-0.02985094838440418,0.0034901802033185957,0.017085465237684547
1746735839833467000,5.185466796875,-0.005310381367802619,-0.003840454945713281,-0.0011927534485235809
1746735839843432700,5.1954326171875,-0.01518120251893997,-0.01406257375255227,-0.008608144271560012
1746735839853398800,5.205398681640625,-0.03209960409402847,0.009040800067782401,-0.0039037111739628014
1746735839863364600,5.215364501953125,-0.023864275190234183,0.004810469021648168,-0.008221757036168127
1746735839873331700,5.225331787109375,-0.0014133739292621612,-0.009887333894520997,0.0005445004065521061
1746735839883297800,5.2352978515625,-0.008463292440772057,0.011190087056159972,-0.010643741752393543
1746735839893264000,5.245263916015625,-0.0295668707460165,0.011676701529324054,-0.000056241965573281045
1746735839903229700,5.255229736328125,-0.024322540351748464,0.010283201344311236,0.013654102549515663
1746735839913195500,5.265195556640625,-0.0002291325807571411,0.006535393118113279,0.0011899404369294642
1746735839923161900,5.275161865234375,-0.009501987838745117,-0.009805500829964876,0.00010035510193556547
1746735839933127700,5.285127685546875,-0.028354572346806526,-0.0012881401143968105,0.004721329433470964
1746735839943093800,5.29509375,-0.03882628200054168,0.003776888190209865,0.0032341048167087135
1746735839953059600,5.3050595703125,0.008901683858036994,0.0033865736983716486,-0.003263257845956832
1746735839963026000,5.31502587890625,-0.011004793617129326,0.00027311785295605656,-0.008465922789275646
1746735839972991700,5.32499169921875,-0.047208910420536994,0.0005230009607970714,0.005210903048701584
1746735839982957600,5.33495751953125,-0.02100654767155647,-0.0010837035834789276,-0.0072867412083782255
1746735839992923600,5.344923583984375,-0.016217559829354286,-0.0141026135019958,-0.02317081303335726
1746735840002889700,5.3548896484375,-0.02549216865301132,-0.015775953541696072,-0.007546104530617595
1746735840012855800,5.364855712890625,-0.0278764334410429,0.006283902575075626,0.0001493088101968169
1746735840022821600,5.374821533203125,-0.010222118806838989,0.007048895598202943,0.017568280318565666
1746735840032787700,5.38478759765625,-0.01890343791246414,-0.010437368992716073,0.01647904204344377
1746735840042753800,5.39475390625,-0.031016485032439232,0.002979308071732521,-0.0007792042115703225
1746735840052719600,5.4047197265625,-0.02681669525504112,0.000499620085209608,-0.01761792814657092
1746735840062685700,5.414685791015625,-0.01693184557855129,-0.002262976495921612,-0.019679281123168767
1746735840072651500,5.424651611328125,-0.025917700588703154,-0.004004997857660055,-0.010968224466405808
1746735840082617900,5.434617919921875,0.004001052334904671,0.006386778427660465,0.010707838230859487
1746735840092583700,5.444583740234375,-0.017092004576325415,0.019361118552088736,0.007405198222585022
1746735840102549800,5.4545498046875,-0.03174596835076809,0.012553192102909087,0.009630034665204583
1746735840112515600,5.464515625,-0.02246668335199356,-0.010498743791133166,-0.00027202187441289425
1746735840122481700,5.474481689453125,-0.022151041531562804,-0.015114859284460543,-0.0020822679004631937
1746735840132447700,5.48444775390625,-0.04235737873613834,-0.006407382824271917,-0.0042218920113518835
1746735840142413600,5.49441357421875,-0.016615034714341163,0.012858604790270328,0.0025332813372835514
1746735840152379600,5.504379638671875,-0.009285714739561081,0.006294423969089985,0.0034382490866817533
1746735840162345700,5.514345703125,-0.005845803418755531,0.01258811728581786,0.0037649054914712906
1746735840172311800,5.524311767578125,-0.05567278738319874,-0.023336451923847198,0.003283515182696283
1746735840182278700,5.534278564453125,-0.016306991678476334,-0.01997647397145629,0.0007212452129460871
1746735840192244700,5.54424462890625,0.03814999017417431,0.05343786793798208,-0.018332396558858453
1746735840202210600,5.55421044921875,0.016291209587454794,0.0599823211453855,-0.005334383297897875
1746735840212177000,5.564177001953125,-0.04835515784621239,0.0012163900524377821,0.010378935070056468
1746735840222142700,5.574142822265625,-0.06914543241858483,-0.07142769813686609,0.005258852109964937
1746735840232108500,5.584108642578125,-0.04443944570720196,-0.07320537533387542,-0.004802486644592136
1746735840242074600,5.59407470703125,0.006607435441017151,-0.011121844125539064,-0.03838378066373989
1746735840252040700,5.604040771484375,-0.021979776617884635,0.05685688260123133,-0.011129296779632567
1746735840262006800,5.6140068359375,0.015253683233261107,0.06289630889594555,0.012652597356773912
1746735840271972600,5.62397265625,0.009556932896375655,0.015678922908008097,0.038909265842568125
1746735840281938700,5.633938720703125,-0.06945347545444965,-0.042363077824562785,0.03080174630321562
1746735840291904800,5.64390478515625,-0.0679395637601614,-0.04952595519125461,-0.013221337155438958
1746735840301870600,5.65387060546875,-0.009440613040328026,-0.006802958013117313,-0.04423259802348912
1746735840311836700,5.663836669921875,0.0008767828345298766,0.03636003801748156,-0.056410782801546155
1746735840321802500,5.673802490234375,-0.015731822139024732,0.017647884893417357,-0.013626977080572396
1746735840331768800,5.683768798828125,-0.035328503012657164,0.015359481695294379,0.039028873634245245
1746735840341734700,5.693734619140625,-0.030396307307481763,-0.016167290946841238,0.044092970357090235
1746735840351700700,5.70370068359375,-0.033249943172931666,-0.027315146296471356,0.010308372318185864
1746735840361666600,5.71366650390625,-0.031004794594645498,0.00740545395091176,-0.02924355707578361
1746735840371633000,5.7236328125,-0.012455576947331428,0.01911532709747553,-0.050327352968323975
1746735840381598500,5.733598388671875,0.00459317300915718,0.015743366446346045,-0.027518322452064602
1746735840391564500,5.743564453125,-0.019487375280261038,-0.016517127297818658,0.002444342678505927
1746735840401530600,5.753530517578125,-0.014990648382902145,-0.01568506038784981,0.04771561783365905
1746735840411496700,5.76349658203125,-0.03250818489491939,0.0035340193450450895,0.047623354706633834
1746735840421462500,5.773462646484375,-0.022642039918899536,0.02590469497665763,0.005130019832216203
1746735840431428600,5.7834287109375,-0.017716858476400376,0.009245090468227862,-0.056989623869117344
1746735840441394700,5.793394775390625,0.0017354454904794693,0.0017658406287431715,-0.06925216246237978
1746735840451360500,5.803360595703125,-0.03343231400251388,-0.003610299451649189,-0.021583032385259864
1746735840461326600,5.81332666015625,-0.03013151889145374,-0.01206350888982415,0.031915753693412985
1746735840471292400,5.82329248046875,-0.01876665979027748,0.00220247848033905,0.03703806514320895
1746735840481258800,5.8332587890625,-0.024604279902577398,0.015393676225841044,0.02812392366239801
1746735840491224600,5.843224609375,-0.03793137898743153,0.015458850416541098,-0.009099014794733375
1746735840501191700,5.853191650390625,-0.014586743757128715,0.0025851941876113413,-0.0361935588767752
1746735840511157500,5.863157470703125,-0.007703998506069183,-0.0019030571423470973,-0.027783914585690943
1746735840521123600,5.87312353515625,-0.032543840730190274,-0.005953209315985441,-0.0007956438897177577
1746735840531089700,5.883089599609375,-0.03270283068418502,0.0029516894124448296,0.024907665029633787
1746735840541055700,5.8930556640625,-0.003980009546875953,0.0034691374152898786,0.02767519351420924
1746735840551021600,5.903021484375,-0.021630232527852056,0.0034184301413595674,0.006094426151271909
1746735840560987400,5.9129873046875,-0.03718552905619144,0.013540449574589728,-0.02098358692107722
1746735840570953700,5.92295361328125,-0.021163199537992478,-0.0012099603116512297,-0.034863260121084746
1746735840580919600,5.93291943359375,-0.005457096362113952,-0.0005786766707897186,-0.028661227143183348
1746735840590885600,5.9428857421875,-0.010847557228803635,-0.004743833526223898,0.004413834386877715
1746735840600851500,5.9528515625,-0.020115736311674116,0.01104863275885582,0.020743330158106983
1746735840610817800,5.96281787109375,-0.02221124728620052,0.020779899308830497,0.01788039674134925
1746735840620783600,5.97278369140625,0.014155951124429703,-0.0011022621534764767,0.007066486053820699
1746735840630749400,5.98274951171875,-0.021298224094510078,-0.004315086720138788,0.0057034723386168475
1746735840640715500,5.992715576171875,-0.028328853383660316,-0.011962678863853216,-0.017804701156634836
1746735840650681600,6.002681640625,-0.022046412113308905,-0.003713759826123714,-0.013483933614380657
1746735840660647700,6.012647705078125,-0.013656769430637358,0.0008500409580767154,-0.000761412826552987
1746735840670613500,6.022613525390625,-0.014095745369791983,-0.0038588673852384086,0.005625712660979479
1746735840680579600,6.03257958984375,-0.0157376673579216,0.014212065225839614,0.005651870015542954
1746735840690545700,6.042545654296875,-0.041916649231314655,0.0032280221357941625,0.008095774302631616
1746735840700511500,6.052511474609375,-0.009148936617374419,-0.015011691170930862,0.003192859490867704
1746735840710477600,6.0624775390625,-0.01229424890577793,-0.02022182703465223,-0.02077328690495342
1746735840720443400,6.072443359375,-0.03175122904777527,0.0012071838326752186,-0.0227201101237908
1746735840730409700,6.08240966796875,-0.015747019708156586,0.013821166212111711,-0.006229779501352459
1746735840740375600,6.09237548828125,0.008933832561969756,0.006865647985786199,0.004508088541589677
1746735840750341600,6.102341552734375,-0.019054829081892967,-0.005955255142599344,0.01767941254284233
1746735840760307500,6.112307373046875,-0.03985270243883133,0.008845423626154661,0.01559630439216271
1746735840770273800,6.122273681640625,-0.019797171881794928,0.02094005830660462,-0.0007653035503812134
1746735840780239600,6.132239501953125,-0.011269582033157349,0.006294131708145141,-0.006944448843039572
1746735840790205400,6.142205322265625,-0.03252455150783062,-0.009360825802385807,-0.014491612819582222
1746735840800171500,6.152171630859375,-0.028934418061375616,-0.010403758984059095,-0.01325341279413551
1746735840810137600,6.1621376953125,-0.01246376025378704,0.007620558006316423,0.0018694106010720133
1746735840820103700,6.172103759765625,-0.009014496582746506,0.012214023276418446,0.00149073174810037
1746735840830069500,6.182069580078125,-0.020849895805120467,0.004231938481330871,-0.0027791275908239186
1746735840840036600,6.19203662109375,-0.03251519915759563,0.005980389583855867,0.009164791773632169
1746735840850002400,6.20200244140625,-0.018601824617385864,0.007346271109580993,-0.004890164928045123
1746735840859968800,6.21196875,-0.021897943553328515,-0.011175181747972964,-0.01701406223559752
1746735840869934600,6.2219345703125,-0.028479660031199453,0.005269172574579715,-0.005655925136152654
1746735840879900400,6.231900390625,-0.010677461358904837,0.024608225425332784,0.0009258826732635498
1746735840889866500,6.241866455078125,-0.029679683470726012,-0.01056669446080923,0.002232837085984647
1746735840899832600,6.25183251953125,-0.030583354312181472,-0.03685775840654969,-0.007195647125132381
1746735840909798700,6.261798583984375,-0.008116086438298226,-0.007083820781111717,0.023555172708444296
1746735840919764500,6.271764404296875,-0.04641220708489418,0.011994243045896292,0.02739301557196304
1746735840929730600,6.28173046875,-0.009299158743023872,0.03755202428102493,0.000050469811912626026
1746735840939696600,6.291696533203125,0.021370704808831215,0.009334230056405067,-0.0407669494732283
1746735840949662700,6.301662841796875,-0.0494090508133173,-0.021018530370295045,0.0026498751879669726
1746735840959628500,6.311628662109375,-0.04356909261345863,-0.026283465161174534,0.01159309663278982
1746735840969594400,6.321594482421875,0.007464344531297683,-0.0022435411430895328,0.001861921414360404
1746735840979560700,6.331560791015625,-0.019780220746994016,0.030152415549010037,-0.030731147018726913
1746735840989526500,6.341526611328125,-0.03743395085930824,0.005131809930503368,-0.013024115816596895
1746735840999492600,6.35149267578125,-0.0248527017056942,-0.011113368558138608,0.007728219631873071
1746735841009458400,6.36145849609375,-0.009141337832808493,-0.005714578254520893,0.015020239803567528
1746735841019424800,6.3714248046875,-0.018868366599082944,-0.008412000644952058,0.00041482787858694787
1746735841029390600,6.381390625,-0.023655016353726386,0.0020525486156344414,-0.03268151390152052
1746735841039356400,6.3913564453125,-0.020217443120479583,0.0052288405641913414,-0.005472129534464329
1746735841049322500,6.401322509765625,-0.020975568011403083,-0.0068171326689422124,0.01742607710259035
1746735841059288600,6.41128857421875,-0.005855740290880203,-0.0022407646641135212,0.019927246268559247
1746735841069254700,6.421254638671875,-0.018582535395026207,-0.02134644715040922,-0.0031999102861620483
1746735841079220500,6.431220458984375,-0.025315058520436286,-0.0029462825849652288,-0.01997716809120029
1746735841089186600,6.4411865234375,-0.022623335218429564,0.0018476736932992934,0.012251524008903652
1746735841099152600,6.451152587890625,0.013140052080154419,0.025339900700747965,-0.0019335984110832214
1746735841109118500,6.461118408203125,-0.03804243814647198,0.006830576672405004,-0.007344919402711093
1746735841119084500,6.47108447265625,-0.035193478456139564,0.0027462299682199953,-0.018104451288189737
1746735841129050400,6.48105029296875,0.0013180968612432479,-0.0015871230609714984,-0.011237981318496166
1746735841139016700,6.4910166015625,0.003261632144451141,0.0023258125990629195,0.02235745082385838
1746735841148982500,6.500982421875,-0.030848142728209495,-0.00806581755578518,0.020313195112533867
1746735841158948600,6.510948486328125,-0.03772796536982059,0.002966886981576681,0.0017067491189576684
1746735841168915500,6.52091552734375,-0.01123334167599678,0.02505830728039145,-0.004042334193363786
1746735841178881500,6.530881591796875,-0.011529109752178192,-0.010877367845177649,-0.007676361580472439
1746735841188847600,6.54084765625,-0.04294949941039085,-0.003422375664114952,-0.007079911790974437
1746735841198813700,6.550813720703125,-0.041302901247143746,0.010487345614284277,-0.01648169065825641
1746735841208779500,6.560779541015625,-0.0284340673238039,0.006747574564069509,-0.0036228666722774505
1746735841218745300,6.570745361328125,-0.019459902751445768,-0.004892594347149133,0.00146298522464931
1746735841228711700,6.580711669921875,-0.02230535531044006,0.00815115775167942,-0.007140501138102263
1746735841238677500,6.590677490234375,-0.03472644546627998,0.0054740474969148635,0.0007196560440585017
1746735841248643600,6.6006435546875,-0.014373977789282798,-0.0035148762531578537,0.0016124036327004431
1746735841258609400,6.610609375,-0.01406710379719734,-0.003131283763051033,-0.014931666470970958
1746735841268575700,6.62057568359375,-0.034118542701005936,0.015114274762570858,-0.03236841109804809
1746735841278541600,6.63054150390625,-0.05521861387491226,0.011833645656704903,-0.01697349276319146
1746735841288507400,6.64050732421875,-0.02006079125404358,-0.019831658673286436,-0.003375942706502974
1746735841298473500,6.650473388671875,-0.0010515548795461654,-0.0004142798893153667,0.017360172259528187
1746735841308439600,6.660439453125,-0.032167408633232114,0.006263298178464174,-0.003794295982737094
1746735841318405600,6.670405517578125,-0.041140404161810876,0.007112462353706359,-0.0011732267641462386
1746735841328371500,6.680371337890625,-0.015241992795467375,0.0020921499736607074,-0.0022515783190727233
1746735841338337500,6.690337646484375,-0.022421675166487694,-0.017678280031681058,-0.01050944784823805
1746735841348303600,6.7003037109375,-0.030952772146463393,-0.019304858320206404,-0.0015678703712299466
1746735841358269700,6.710269775390625,-0.03813186999559402,0.015232055923342704,0.009072546912916004
1746735841368235500,6.720235595703125,-0.030791444104909894,-0.0005501812286674977,-0.0007390913968905806
1746735841378201600,6.73020166015625,-0.014335399344563484,-0.006363543682545423,-0.003533800149336457
1746735841388167700,6.740167724609375,-0.022712767067551612,-0.0198496327213943,0.00021879384983330963
1746735841398133800,6.7501337890625,-0.025099369943141936,0.004645195457339287,-0.010321396196540444
1746735841408099600,6.760099609375,-0.011931260812282561,0.010483107830584048,-0.013928846103977412
1746735841418065700,6.770065673828125,-0.01747135928273201,-0.0005693243205547332,-0.006569532849732786
1746735841428031700,6.78003173828125,-0.027346272087097168,0.002869417956471443,0.014778138143382965
1746735841437997600,6.78999755859375,-0.04230126463472843,-0.009603110125660896,-0.0025261574767529963
1746735841447963600,6.799963623046875,-0.022402385944128037,-0.0004560732044279575,0.00483593225646764
1746735841457929700,6.8099296875,-0.007427519652247428,0.01427212485000491,0.0005141965998336673
1746735841467895800,6.819895751953125,-0.0225344878911972,0.003004296382516622,0.0021262166400440037
1746735841477861600,6.829861572265625,-0.026264906591176983,-0.0038036300666630268,0.0031314846924506124
1746735841487827700,6.83982763671875,-0.028209026396274563,0.0026288871988654136,-0.0059015887266024945
1746735841497794600,6.849794677734375,-0.02505786888897419,0.00031885669082403183,-0.012657784988544881
1746735841507760600,6.8597607421875,-0.02131634427309036,-0.00012084990069270134,-0.004058737338893116
1746735841517726700,6.869726806640625,-0.020263620349764824,0.014961130027472971,0.009327307125274091
1746735841527692800,6.87969287109375,-0.017554361391067502,0.004672521855682134,-0.00329416444087401
1746735841537658600,6.88965869140625,-0.009169979405403136,-0.009421031557023524,-0.011725673503894357
1746735841547624700,6.899624755859375,-0.026676994523406026,-0.003586187923699617,-0.004258114102203399
1746735841557590800,6.9095908203125,-0.02382686578929424,0.013427636849880218,-0.0034440577729605137
1746735841567556600,6.919556640625,-0.011854103922843933,0.00818052997663617,0.0007200396365486085
1746735841577522700,6.929522705078125,-0.0016799159109592437,0.0045937575310468675,0.003909848653804511
1746735841587488800,6.93948876953125,-0.03160919022858143,0.0043036885432899,0.001825534926727414
1746735841597454800,6.949454833984375,-0.038653263521194456,0.004532382732629776,-0.003960665525589138
1746735841607420700,6.959420654296875,-0.008880641070008277,-0.009939648603647946,0.011422105713747441
1746735841617386500,6.969386474609375,-0.007832593321800231,-0.0032081483915448188,0.006177866651024669
1746735841627352800,6.979352783203125,-0.03851005565822124,-0.01965630210638046,0.00033076632432639595
1746735841637318700,6.989318603515625,-0.03626490707993507,-0.005442483314871788,-0.0034174072280526158
1746735841647284700,6.99928466796875,-0.010068974071741104,0.008701338980346918,-0.008332213407009839
1746735841657250600,7.00925048828125,-0.006032265901565552,0.0011046002410352229,-0.011700411198474467
1746735841667217000,7.019216796875,-0.02519464701116085,0.0028190029434859753,-0.0055842481394298375
1746735841677182700,7.0291826171875,-0.02773965531885624,-0.010344722273200749,0.00029806963112205266
1746735841687148800,7.039148681640625,-0.005608487531542777,-0.004379384128004312,0.0018408420937135815
1746735841697114600,7.049114501953125,-0.03029927667379379,-0.0064626201428473,0.0035652912661433217
1746735841707080700,7.059080810546875,-0.019967267751693725,0.002763619494438171,-0.0024494937776587903
1746735841717046800,7.069046875,-0.030591537618637085,0.005020020119100809,0.0006218216927722097
1746735841727012600,7.0790126953125,-0.01218318974673748,-0.005480769498646259,-0.00399862291580066
1746735841736978700,7.088978759765625,0.0006856441766023635,-0.0014436229370534419,-0.001720741111692041
1746735841746944800,7.09894482421875,-0.013832125997543333,-0.0009727905549108981,-0.0020372779812663794
1746735841756910800,7.108910888671875,-0.027898060750961302,0.012047142276912927,0.0035172326070256527
1746735841766876700,7.118876708984375,-0.01801028846502304,-0.005853256072849035,-0.0012622019555419684
1746735841776842500,7.128842529296875,0.0048860184758901595,-0.011695990751683712,-0.0026635749197565016
1746735841786808800,7.138808837890625,-0.03222644534409046,0.014658201558142899,-0.0029631423882208762
1746735841796774700,7.148774658203125,-0.03955810340642929,0.004337152421474456,0.0025347061093896625
1746735841806740700,7.15874072265625,-0.006489362019300461,-0.0031296763278543947,-0.002167352368030697
1746735841816706600,7.16870654296875,-0.021303484791517256,-0.011656535524129867,-0.013113748595118522
1746735841826673000,7.1786728515625,-0.03117255237698555,0.0004142798893153667,-0.01312825204450637
1746735841836639700,7.1886396484375,-0.02263970183134079,0.0071242989219725125,0.0036118703542277215
1746735841846605800,7.198605712890625,-0.019949732095003128,0.01629413219690323,-0.0006883658566512167
1746735841856571600,7.208571533203125,-0.021452537873387335,-0.002670826644450426,0.010581088312342762
1746735841866537700,7.218537841796875,-0.033735096341371534,0.009687281277775763,-0.0010323569887317717
1746735841876503800,7.22850390625,-0.0273012639015913,0.0020610241830348965,-0.0016235460812225938
1746735841886469600,7.2384697265625,-0.0023223054677248,0.0037780572339892386,-0.007247779171168804
1746735841896435700,7.248435791015625,-0.02222176868021488,-0.0035699674412608146,-0.007280567195918411
1746735841906401500,7.258401611328125,-0.03778115686178207,-0.01137538049519062,-0.013989563315268605
1746735841916368000,7.268367919921875,-0.018175708159804342,0.005656564456969499,-0.0036249124988913532
1746735841926333700,7.278333740234375,-0.008604162216186522,0.01168254674822092,0.0008420037820935248
1746735841936299800,7.2882998046875,-0.01685118155777454,-0.001815232728421688,0.004358250008430332
1746735841946265600,7.298265625,-0.04483925867974758,-0.0016284779846668243,-0.0036636553403921425
1746735841956231700,7.308231689453125,-0.02733516617119312,-0.004149520894885063,-0.003040281011350453
1746735841966197800,7.31819775390625,-0.019264087918400764,-0.007525427068769931,-0.011675843012798576
1746735841976163600,7.32816357421875,0.0007914426386356353,0.007562251947820186,-0.013505579190608113
1746735841986129700,7.338129638671875,-0.02450140404999256,0.0146156775906682,-0.01058349946513772
1746735841996095700,7.348095703125,-0.010581015247106551,-0.0020290216095745564,0.0020369491877034306
1746735842006061800,7.358061767578125,-0.010582768812775612,0.011444500208646059,-0.0037738377165980634
1746735842016027600,7.368027587890625,-0.009091068950295447,0.014176555521041153,-0.007811240006517619
1746735842025993500,7.377993408203125,-0.02795709746181965,-0.0004034662343561649,-0.020680512321274727
1746735842035959800,7.387959716796875,-0.027062194448709487,0.0029166180990636346,-0.01083950178651139
1746735842045925600,7.397925537109375,-0.012108955466747283,0.00899184635952115,0.0010618022789247333
1746735842055891700,7.4078916015625,-0.01600654742717743,-0.004569499872624874,0.013918653503526002
1746735842065857500,7.417857421875,-0.04907938046753406,0.0035341654755175114,-0.00451702076671645
1746735842075823900,7.427823974609375,-0.035757542079687114,0.0044023266121745105,0.0004281622841954231
1746735842085789700,7.437789794921875,-0.011369535276293754,0.010552227544039488,-0.0022257862906903026
1746735842095755800,7.447755859375,0.002834346643090248,0.01183349952623248,-0.003840966402366757
1746735842105721600,7.4577216796875,-0.0338239436686039,0.0016334464207291603,0.0023149624114856123
1746735842115687700,7.467687744140625,-0.04146247572302818,-0.004748948092758655,-0.0077088208116590975
1746735842125653800,7.47765380859375,-0.02305997307002544,-0.0005335223548114299,-0.01058384652500972
1746735842135619600,7.48761962890625,-0.0003179799079895019,0.016260668318718672,-0.009028178048226981
1746735842145585700,7.497585693359375,-0.031880408385396,-0.0004373685039579868,-0.004799600567761808
1746735842155552500,7.507552490234375,-0.023197920235991477,-0.005550619864463806,0.0071733622280880805
1746735842165518800,7.517518798828125,-0.013626374292373657,0.004364917211234569,0.003878101808670908
1746735842175484700,7.527484619140625,-0.009872574716806411,0.006209522164613008,0.0031467553268186748
1746735842185450800,7.53745068359375,-0.02064531314373016,0.006955225965380668,-0.0057073995950631794
1746735842195416600,7.54741650390625,-0.037999183526635165,-0.010726707328110933,-0.0032083675872534513
1746735842205382700,7.557382568359375,-0.015547113221883773,-0.006744505824148654,0.0029696999931707975
1746735842215348700,7.5673486328125,-0.009565700724720955,0.01109480998814106,0.0025379392460919913
1746735842225314600,7.577314453125,-0.021997896796464918,0.00668999915793538,-0.0023506547793745993
1746735842235280600,7.58728076171875,-0.02993336597084999,0.00014028525352478027,0.0010854023502208292
1746735842245246700,7.597246826171875,-0.004037292692065239,-0.0008256371691823005,-0.008743424556404351
1746735842255212800,7.607212890625,-0.0013484919995069504,0.000109013332426548,-0.029886238893494007
1746735842265178600,7.6171787109375,-0.025752865415811538,0.012929331938922404,-0.020588285726867616
1746735842275144700,7.627144775390625,-0.03384031028151512,0.0025017536878585815,-0.012165416628029196
1746735842285110800,7.63711083984375,-0.02022796451449394,0.003878594999015331,-0.0009079816903918981
1746735842295076600,7.64707666015625,-0.014528291568160056,0.00032236382216215134,-0.0015575499066151678
1746735842305042700,7.657042724609375,-0.04714519753456115,-0.0021164076320827007,0.002740896205976605
1746735842315008800,7.6670087890625,-0.027532734569907187,0.0019930735133588313,-0.0018598390551283954
1746735842324974800,7.676974853515625,-0.006134557232260703,0.010056552981585264,-0.009955741221923381
1746735842334940700,7.686940673828125,-0.030967969715595244,-0.00989741689711809,-0.008555573834106326
1746735842344906800,7.69690673828125,-0.02842003879845142,0.002179828257113695,-0.021352968222741037
1746735842354872600,7.70687255859375,-0.018986440020799637,0.012157324653118848,0.0005074745981022715
1746735842364838700,7.716838623046875,-0.008517068454623222,0.002771072148531675,0.007672178595699369
1746735842374804700,7.7268046875,-0.01390460671186447,-0.009638473699986935,-0.0020852270425297317
1746735842384769800,7.736769775390625,-0.0353051221370697,0.0046023792289197445,-0.017718374580051748
1746735842394735900,7.74673583984375,-0.034551673421263696,-0.0029117957934737203,-0.021528343055956065
1746735842404702000,7.756701904296875,-0.01210953998863697,-0.014259557629376649,-0.0011438180065713821
1746735842414667800,7.766667724609375,-0.007917348995804787,-0.0017075345702469349,-0.00039564825408160685
1746735842424633900,7.7766337890625,-0.015994856989383698,0.018921558091044424,0.0025574841967783866
1746735842434600000,7.786599853515625,-0.005089432093501091,0.004984510414302349,0.0011148293741047382
1746735842444565800,7.796565673828125,-0.0033048867642879484,-0.007044950075447559,-0.0014482443132437764
1746735842454531800,7.80653173828125,-0.012121230426430702,0.0022859189800918103,-0.009217818868812172
1746735842464498000,7.816497802734375,-0.038300212299823756,0.0059686991460621355,-0.01608533001812175
1746735842474464000,7.826464111328125,-0.006141571494936942,0.013692863657325506,-0.0037551695487461983
1746735842484429800,7.836429931640625,0.008212532550096512,0.02664879134222865,-0.010376122058462351
1746735842494396000,7.84639599609375,-0.034144261664152145,0.016240502313524485,0.0031345168997533616
1746735842504362800,7.85636279296875,-0.05149520943760871,-0.012689824094623327,0.023929723375570026
1746735842514328800,7.866328857421875,-0.021412790384888646,-0.028146920945495365,-0.0004351765468716621
1746735842524295000,7.876294921875,-0.019908815562725064,0.00440583374351263,-0.013538148019649088
1746735842534260700,7.8862607421875,-0.02051028858721256,0.000988134254515171,0.003520228281710297
1746735842544226800,7.896226806640625,-0.029776714104413984,0.00867576614767313,-0.0004445836960338056
1746735842554193000,7.90619287109375,-0.022597616255283354,-0.007897767512500285,-0.0006629391544498502
1746735842564159000,7.916158935546875,-0.004044891476631164,-0.0005459434449672699,0.009498316310625523
1746735842574124800,7.926124755859375,-0.019147768062353132,0.009255757992714643,0.0067548080224543805
1746735842584091000,7.9360908203125,-0.027979893815517423,0.013180530221015214,-0.01409525217944756
1746735842594057000,7.946056884765625,-0.012567220628261565,-0.009265840995311737,-0.021708923787251113
1746735842604023000,7.95602294921875,-0.010161913052201271,-0.018781272837519646,-0.002539765876997262
1746735842613988900,7.96598876953125,-0.009086392775177955,0.0051107671424746514,0.0021505838963203133
1746735842623954700,7.97595458984375,-0.03226560831069946,0.00007058101817965507,-0.007797540274728089
1746735842633921000,7.985921142578125,0.0035001170754432676,0.0037922318898141382,-0.0024061295599676668
1746735842643886800,7.995886962890625,-0.008772504520416259,-0.00232318225055933,0.008976027735881506
1746735842653853000,8.00585302734375,-0.024782559078931808,-0.0053261634588241576,0.003005301029514521
1746735842663818800,8.01581884765625,-0.015062544575333594,0.006838321587443351,-0.0052174789199605585
1746735842673785000,8.02578515625,-0.017909750699996948,-0.004045329868048429,0.0019164463468827307
1746735842683751000,8.0357509765625,-0.023157588225603102,-0.01848375119566917,0.009883260507602245
1746735842693716700,8.045716796875,-0.023755554118752478,-0.0018779227010905742,0.01002182872807607
1746735842703682800,8.055682861328124,-0.0291354935914278,0.0031488194197416305,-0.012382913569919765
1746735842713649000,8.06564892578125,-0.010420856249332427,0.02327288516834378,0.0001990845023654401
1746735842723615000,8.075614990234374,-0.021339140626788138,0.009171294579654932,0.0015382424179464578
1746735842733580800,8.085580810546874,-0.023744448202848434,0.011654635827988386,0.0017929112987592815
1746735842743547000,8.095546875,-0.026737784799933433,-0.0030041502520442008,0.0014966865648515521
1746735842753513000,8.105512939453124,-0.01567278542816639,-0.012968202644586563,-0.0006114464292302727
1746735842763478800,8.115478759765624,-0.004897124391794205,-0.0035699674412608146,0.0018996961414813995
1746735842773444900,8.12544482421875,-0.013413023802638053,0.010090601381659507,0.0019261092243716119
1746735842783410700,8.13541064453125,-0.026128712990880012,0.000793196204304695,-0.007685732197016477
1746735842793377000,8.145376953125,-0.010270634123682976,0.001872954265028238,-0.0037120610593818124
1746735842803342800,8.1553427734375,-0.010856325057148933,0.010309358698874711,-0.002382273760344833
1746735842813309000,8.165308837890626,-0.03329728944599628,0.003375613912940025,0.0007251542030833661
1746735842823274800,8.175274658203126,-0.04091477871239185,0.015094839409738778,0.0027860870545729994
1746735842833240800,8.18524072265625,0.004741641569137573,-0.00612359744682908,-0.010123425939027219
1746735842843208000,8.1952080078125,-0.018901099824905395,-0.0029848610296845436,0.0009622874272055923
1746735842853174000,8.205174072265624,-0.028614684587717053,-0.00562733836248517,0.012925806541275233
1746735842863139800,8.215139892578126,-0.017986907589435577,-0.00969502619281411,-0.002617543820943683
1746735842873105700,8.225105712890626,-0.03145078479647636,-0.0005919745437800884,-0.00039504546588286756
1746735842883072000,8.235072021484376,-0.03128828771114349,0.01427563198134303,-0.0014284253679215906
1746735842893037800,8.245037841796876,-0.03142565035521984,0.008496317927539349,0.002746924087963998
1746735842903004000,8.25500390625,-0.02648994751870632,-0.0034589082822203635,-0.0009792750946246086
1746735842912969700,8.2649697265625,-0.022158055794239042,0.0003359539560973644,0.003251165549363941
1746735842922936000,8.27493603515625,-0.004354688078165054,0.002161269687116146,-0.004118943093530833
1746735842932902000,8.28490185546875,-0.023507716837525366,-0.0015858078867197036,0.00473426198028028
1746735842942867700,8.29486767578125,-0.028138883769512176,0.0016468904241919516,-0.009784220579918474
1746735842952833800,8.304833740234375,-0.006289455533027648,-0.001954056677222252,-0.006108600807096809
1746735842962799900,8.3147998046875,-0.020203414595127103,-0.01078691308274865,0.004876885321363806
1746735842972766000,8.324765869140625,-0.017807459369301795,0.006557166558504105,-0.0032053536462597547
1746735842982731800,8.334731689453125,-0.01990998460650444,-0.00280789702758193,0.004845357671938836
1746735842992697900,8.34469775390625,-0.01302840839922428,-0.011762772377580404,0.016904647044371814
1746735843002664000,8.354663818359375,-0.025748189240694046,-0.012052841365337371,0.004272982877772301
1746735843012629800,8.364629638671875,-0.028734511575102803,0.0028708792611956595,-0.006395893315877765
1746735843022595800,8.374595947265625,-0.03022445787191391,0.004317717068642378,-0.0007316935417242348
1746735843032561700,8.384561767578125,0.001339139649271965,0.015911562620103358,0.000056241965573281045
1746735843042528000,8.394528076171875,-0.006005377894639968,-0.004051321217417717,-0.0006737345430999994
1746735843052493800,8.404493896484375,-0.024565116935968398,-0.0020727146208286283,-0.009611987551860511
1746735843062460000,8.4144599609375,-0.028155834904313087,-0.0001334171213209629,0.005185914737917482
1746735843072425700,8.42442578125,-0.01229950960278511,0.001407674840837717,0.00038706308882683515
1746735843082392000,8.43439208984375,-0.025311551389098165,0.0007613397613167762,-0.003509944349713623
1746735843092358000,8.44435791015625,-0.02561550277173519,0.006188625507056713,0.0028773820672184226
1746735843102323700,8.45432373046875,-0.026225159102678298,0.0002813011594116688,-0.0029304274287074803
1746735843112289800,8.464289794921875,-0.022342764711380005,-0.0011496084265410899,0.00006787760443985461
1746735843122256000,8.474255859375,-0.03146305975615978,-0.006744798085093498,0.009045457976590841
1746735843132222000,8.484221923828125,-0.015743512576818466,-0.0027623043201863763,0.0002120170491747558
1746735843142187800,8.494187744140625,-0.024725860455632208,0.0011583762548863887,0.0011264284803532063
1746735843152153900,8.50415380859375,-0.014698971959948539,-0.010964753867685794,-0.010321980718430131
1746735843162120000,8.514119873046875,-0.017391279783844946,0.01013692474141717,0.0035027474239468573
1746735843172085800,8.524085693359375,-0.03490297107696533,0.010771423252671957,0.003924059842247515
1746735843182051800,8.5340517578125,-0.03160919022858143,0.006724924340844154,-0.00119976771119982
1746735843192018700,8.544018798828125,-0.01125379994213581,0.0017513737119734286,0.0025355646259151397
1746735843201984800,8.55398486328125,-0.015897826355695723,-0.005833382328599691,-0.0024616591394878923
1746735843211950800,8.563950927734375,-0.02232464453279972,0.0023329729922115803,0.0010257993837818502
1746735843221917000,8.5739169921875,-0.022773557344079015,-0.012176760005950927,0.004111910564545542
1746735843231882800,8.5838828125,-0.01604220326244831,-0.009308949484676123,-0.0025120741524733603
1746735843241848800,8.593848876953125,-0.015894319224357602,-0.008989800532907247,-0.000761723353806883
1746735843251815000,8.60381494140625,-0.03190612734854221,0.0035813656181097027,-0.009876392375398427
1746735843261781000,8.613781005859375,-0.038792379730939866,0.005548720168322324,-0.0009096987234428524
1746735843271746800,8.623746826171875,-0.028920389536023137,-0.0008418576516211032,-0.0038186997716315087
1746735843281713000,8.633712890625,-0.011101824250817299,-0.0027272330068051813,-0.010098273231461643
1746735843291679000,8.643678955078125,-0.03699380587637424,0.0032901275865733623,0.003991078930161893
1746735843301644800,8.653644775390624,-0.03938976110219955,-0.0005951894141733646,0.013613076419383287
1746735843311611000,8.66361083984375,-0.017543839997053147,-0.002538286305963993,0.008278327795304357
1746735843321577000,8.673576904296874,-0.007372574594616889,-0.0013210194706916808,0.004042078465037047
1746735843331543000,8.68354296875,-0.026376550272107124,0.007803513357788324,0.002103602949436754
1746735843341508900,8.6935087890625,-0.023984102177619933,0.0015339315690100193,-0.0004310483610257506
1746735843351474700,8.703474609375,-0.009157704445719719,-0.010084317771345377,0.0009170235133729875
1746735843361441000,8.71344091796875,-0.030252514922618864,-0.008914689470082521,-0.012126637253910302
1746735843371406800,8.72340673828125,-0.03488894255161285,-0.004292290366441011,-0.0046729967797175045
1746735843381373200,8.733373291015624,-0.010801379999518393,-0.0005189093075692653,-0.013184000819735229
1746735843391339000,8.743339111328124,0.0022159224838018414,-0.002751636795699596,0.0022021679530851543
1746735843401305000,8.75330517578125,-0.03144669314324856,-0.010879413671791552,-0.00046306920079514384
1746735843411271200,8.763271240234374,-0.03174363026320934,-0.0028207565091550348,0.003600709639396518
1746735843421237000,8.773237060546874,-0.018870704686641693,-0.00015606734454631804,-0.00796011042529717
1746735843431203000,8.783203125,-0.012591770547628401,0.006175327634066343,-0.006150412388518452
1746735843441169000,8.7931689453125,-0.014241291320323942,0.02431041152253747,-0.007529244727361947
1746735843451135200,8.80313525390625,-0.04103577474355698,0.004188829991966485,0.00991833182098344
1746735843461101000,8.81310107421875,-0.025640052691102026,-0.014387860184162854,0.012905476139299571
1746735843471067100,8.823067138671876,-0.03103577425479889,-0.01387435770407319,-0.0005597527746111154
1746735843481033000,8.833032958984376,-0.020861586242914197,-0.002787292630970478,-0.0019450879194773732
1746735843490999000,8.8429990234375,-0.021759411865472793,0.020243162083625792,-0.0009390892147086561
1746735843500965000,8.852965087890626,-0.019520693027973175,0.02581424021422863,0.004221344022080302
1746735843510931000,8.862930908203126,0.0033791210442781446,0.009016104017943144,0.0027468144901096818
1746735843520897000,8.87289697265625,-0.028341128343343732,-0.012553630494326352,0.004066317857149988
1746735843530864000,8.882864013671876,-0.035061376509070395,-0.009660685531795025,-0.0010163009030744433
1746735843540830200,8.892830322265626,0.0034071780949831007,-0.00018617022186517715,-0.003919511531293392
1746735843550796000,8.902796142578126,-0.01814239041209221,0.014626783506572245,0.0007065591004677117
1746735843560762000,8.91276220703125,-0.02922317187488079,0.0028550971701741218,-0.00477916056793183
1746735843570728000,8.92272802734375,-0.015450667110085487,0.0004119418017566204,-0.00338644583420828
1746735843580694000,8.932694091796876,-0.012894552886486053,0.0021123159788548943,-0.0032403336280956863
1746735843590660000,8.94266015625,-0.01617372068762779,0.004861614686995744,0.0021289017874747515
1746735843600626000,8.9526259765625,-0.02589607327878475,0.014556056357920169,0.0037714082974940537
1746735843610592000,8.962592041015625,-0.030382863304018973,0.007661036147177219,-0.00928489275565371
1746735843620558000,8.97255810546875,-0.009892448461055754,-0.0025917700588703155,-0.00417123953634873
1746735843630524200,8.982524169921875,-0.004962006321549415,-0.01091200076714158,-0.0004455152777954936
1746735843640490000,8.992489990234375,-0.019617723661661146,-0.015309358943253755,-0.0009517842995002866
1746735843650456000,9.0024560546875,-0.035173020190000535,-0.007883738987147807,-0.012757464237045496
1746735843660422100,9.012422119140625,-0.008841478103399277,0.007568097166717052,-0.021594028703309596
1746735843670388000,9.022387939453125,-0.01153963114619255,0.011188625751435756,-0.017402330900821834
1746735843680354000,9.03235400390625,-0.009596680384874344,0.002092734495550394,-0.002224726844765246
1746735843690320100,9.042320068359375,-0.0455137969404459,0.0046608314178884025,-0.0005274762065149843
1746735843700286200,9.0522861328125,-0.025012276181578634,-0.00537350973188877,0.005161602280568331
1746735843710252000,9.062251953125,-0.011986790391802787,0.0035405952163040637,0.0007588555432856082
1746735843720218000,9.072218017578125,-0.03772095110714435,0.009634820438176393,-0.0012427118037827312
1746735843730184200,9.08218408203125,-0.030239070919156074,0.001995557731389999,0.0031861009565182026
1746735843740150000,9.09214990234375,-0.013926234021782875,0.0024161212310194967,-0.007235632075648754
1746735843750116000,9.1021162109375,-0.010779168167710304,-0.012590163112431763,0.00359552200762555
1746735843760082000,9.11208203125,-0.04055295966267586,-0.010534399626404047,-0.0053155142006464295
1746735843770048300,9.12204833984375,-0.02169336089193821,0.00708674339056015,-0.0029394875179976224
1746735843780014000,9.13201416015625,-0.0014957915157079696,0.006663257281482219,0.004557919032685458
1746735843789980200,9.141980224609375,-0.004193944558501243,-0.005413695611804724,0.01422161850547418
1746735843799946000,9.151946044921875,-0.031873978644609446,0.00579334257915616,0.0020553798935376106
1746735843809912000,9.161912109375,-0.03471884668171406,-0.0217263863787055,0.002619845375884324
1746735843819878100,9.171878173828125,-0.02903787843585014,-0.005374824906140566,-0.013086586593557149
1746735843829844000,9.181843994140625,-0.018861352336406706,0.00867576614767313,-0.007364117293525487
1746735843839810000,9.19181005859375,-0.03172843269407749,0.014492781863361595,-0.0031308819042518733
1746735843849776000,9.201776123046875,-0.03022562691569328,-0.0029077041402459144,0.011815087086707353
1746735843859742200,9.2117421875,-0.02124970877766609,-0.006781330703198909,-0.0016457944456487893
1746735843869708000,9.2217080078125,-0.021700959676504133,-0.011706804406642913,-0.018532449175603687
1746735843879673900,9.231673828125,-0.024399697241187093,0.011074790113419294,-0.019845175741985438
1746735843889640200,9.24164013671875,-0.029331892946362494,0.0008510638713836669,-0.014732545435987413
1746735843899607300,9.251607177734375,-0.012272621595859528,0.00996200656592846,-0.011649685658235102
1746735843909573000,9.261572998046875,-0.022289573219418525,0.0033044483728706833,0.004410582983866334
1746735843919539000,9.2715390625,-0.027519875088334082,0.0011509236007928847,0.022701588086411355
1746735843929505000,9.281505126953125,-0.015991934379935263,0.011129881301522255,0.007779237433057278
1746735843939471000,9.29147119140625,-0.007462590965628624,0.006787906574457884,-0.003263805835228413
1746735843949437200,9.301437255859375,-0.02197743853032589,0.006032704292982817,-0.008001958539336919
1746735843959403000,9.311403076171874,-0.04141863658130169,-0.0007929039433598518,-0.02281253764759749
1746735843969369000,9.321369140625,-0.03917524156868458,-0.0015209259569644927,-0.009254296687990427
1746735843979335200,9.331335205078124,-0.014326631516218184,-0.00562909192815423,-0.0026839053217321634
1746735843989301000,9.341301025390624,-0.006234510475397109,-0.005571516522020101,0.0052727527711540455
1746735843999267000,9.35126708984375,-0.024938041901588437,-0.005725391909480094,0.013950765674840658
1746735844009233000,9.36123291015625,-0.03121522247493267,0.00005479892715811729,-0.0019307306005619466
1746735844019199200,9.37119921875,-0.009653379008173943,0.014014350696653128,-0.02153791460189968
1746735844029165000,9.3811650390625,-0.014735796838998793,-0.005938596268743276,0.00021543284896761178
1746735844039131100,9.391131103515624,-0.026558921101689337,0.004545534475147724,-0.005143153308425098
1746735844049097000,9.401096923828124,-0.028656185641884803,0.009055266984552144,0.001875511548295617
1746735844059063000,9.41106298828125,-0.010109306082129477,-0.00703793581277132,0.0049997445160523055
1746735844069029000,9.421029052734376,-0.010709025540947914,0.009424830949306488,0.002774707144033164
1746735844078995000,9.430994873046876,-0.030307459980249404,-0.0027301556162536143,-0.0031680538431741296
1746735844088961000,9.4409609375,-0.03180734314918518,-0.004054536087810993,0.0006039024435915052
1746735844098927000,9.450927001953126,-0.014903554621338843,-0.01270443714186549,-0.0032071802771650253
1746735844108893200,9.46089306640625,-0.019383914905786514,-0.010069704724103212,0.0033267880688421427
1746735844118859000,9.47085888671875,-0.024475100564956664,-0.012146072606742381,-0.012930701912101357
1746735844128825000,9.4808251953125,-0.0154980133831501,0.0023868951365351677,-0.012384831532370298
1746735844138791200,9.490791259765626,-0.006359598159790039,0.010999825181066989,-0.034055633532628415
1746735844148757000,9.500757080078126,-0.005011690682172775,-0.009205196849256754,-0.008059899271652102
1746735844158723000,9.51072314453125,-0.04136836769878864,-0.026454876205325124,0.003764686295762658
1746735844168689000,9.52068896484375,-0.012774725899100304,-0.0011138064607977866,0.009157960174046456
1746735844178655200,9.5306552734375,-0.0189139593064785,-0.003481266244500875,-0.00037948257056996226
1746735844188621000,9.54062109375,-0.03342997591495514,0.01433583773598075,-0.007401892020646482
1746735844198587100,9.550587158203125,-0.005599719703197479,0.0031280688926577566,-0.002592920836340636
1746735844208553000,9.560552978515625,-0.035679216146469114,-0.016022183387726544,-0.008036573194991797
1746735844218519000,9.57051904296875,-0.025797873601317405,0.0032476036190986633,-0.01629597709411755
1746735844228485000,9.580485107421875,-0.0014086977541446686,0.002207154655456543,0.009767872233316302
1746735844238451000,9.590450927734375,-0.03133797207176685,0.006403875692933798,0.02374397327881306
1746735844248418000,9.60041796875,-0.014563362881541251,-0.00913110869973898,0.004496124109160155
1746735844258384000,9.6103837890625,-0.01785831277370453,-0.01313581429645419,-0.010128540505561978
1746735844268350200,9.62035009765625,-0.018153496327996253,-0.0018085107266902923,0.005371025513857603
1746735844278316000,9.63031591796875,-0.023242343899607658,-0.004806669629365205,0.006388184933457523
1746735844288282000,9.6402822265625,-0.030295185020565985,0.0061091305300593375,-0.003287643368542194
1746735844298248000,9.650248046875,-0.013384966751933097,-0.002119184111058712,-0.010535130278766154
1746735844308214300,9.66021435546875,-0.022213000851869582,-0.00046352585852146145,-0.007951580058969556
1746735844318180000,9.67018017578125,-0.024895371803641316,0.004098521360009908,0.006064305007643997
1746735844328146000,9.68014599609375,-0.017107786667346952,-0.0076303487479686734,0.012997209543362259
1746735844338112000,9.690112060546875,-0.013368600139021873,-0.005375701688975096,-0.0008914689470082521
1746735844348078000,9.700078125,-0.02488251232206821,0.0051915772937238215,-0.007195537527278065
1746735844358044200,9.710044189453125,-0.04702595506906509,0.00036810266003012656,-0.0015672675830312073
1746735844368010000,9.720010009765625,-0.006021159985661506,0.002125759982317686,-0.0015289448666386306
1746735844377976000,9.72997607421875,-0.008413608080148696,0.0013699731789529324,0.00038644203431904313
1746735844387943200,9.739943115234375,-0.023372107759118077,0.005229132825136184,-0.0080578534450382
1746735844397909200,9.7499091796875,-0.025616087293624877,0.013160071954876184,0.004198456336837262
1746735844407875300,9.759875244140625,-0.016339140382409096,-0.004047375694662333,0.008112250513397156
1746735844417841200,9.769841064453125,-0.012896890974044799,-0.018568799130618572,-0.0032472565592266615
1746735844427807200,9.77980712890625,-0.014534721308946608,-0.0024744272895157334,-0.007719871928635985
1746735844437773300,9.789773193359375,-0.022462591698765754,-0.0035430794343352316,-0.007583532197866588
1746735844447739100,9.7997392578125,-0.026198271095752713,-0.0038784488685429095,0.004963193631637841
1746735844457705200,9.809705322265625,-0.008088613909482956,-0.0057090252965688705,0.0034015520717948673
1746735844467671000,9.819671142578125,-0.029627076500654218,0.00004895370826125145,-0.0003184913646429777
1746735844477637400,9.829637451171875,-0.026778116810321807,0.00824263542741537,0.0017255816835910081
1746735844487603200,9.839603271484375,-0.007765373304486275,-0.003940408188849687,0.0017193346058949827
1746735844497569300,9.8495693359375,-0.0170534261316061,0.001976560769975185,-0.0018823979468084871
1746735844507535000,9.85953515625,-0.02109773308634758,-0.00024871406406164166,0.0055332668708637355
1746735844517501400,9.86950146484375,-0.026644261297583578,0.0034039632245898245,-0.00977919734492898
1746735844527467300,9.87946728515625,0.0031289456754922864,0.003134060242027044,0.0011905066925100981
1746735844537433000,9.88943310546875,-0.0076338558793067925,-0.0005449205316603184,-0.0019470241482369601
1746735844547399200,9.899399169921875,-0.016150924333930016,0.007448270179331302,0.0056768583263270556
1746735844557365200,9.909365234375,-0.021531448328495024,0.003649024026840925,-0.005183046927396208
1746735844567331300,9.919331298828125,-0.007018938851356506,-0.009501695577800274,0.001235460079088807
1746735844577297200,9.929297119140625,-0.02332709957361221,-0.007574965298920869,-0.0008435198857448994
1746735844587263200,9.93926318359375,-0.02525952894091606,0.0031029344514012336,0.011414141603000461
1746735844597229300,9.949229248046874,-0.004156535157561302,0.0032259763091802597,0.012593962504714727
1746735844607196400,9.959196533203125,-0.013735679885745047,-0.011868863100558518,-0.0005801745081320405
1746735844617162200,9.969162353515625,-0.03154372377693653,-0.013670797955989836,0.0007007321478798985
1746735844627128000,9.979128173828125,-0.010737667113542557,0.008584872993826865,-0.010110347261745482
1746735844637094100,9.98909423828125,-0.01582826825082302,-0.009206219762563705,-0.0007947853731922805
1746735844647060200,9.999060302734375,-0.013282090899348259,0.0130744394980371,-0.0021368293656036257
1746735844657026300,10.0090263671875,-0.03226911544203758,-0.008601824128627776,-0.012767181913461535
1746735844666992000,10.0189921875,-0.018657938718795775,-0.008254618126153945,0.0032227614387869835
1746735844676958200,10.028958251953124,-0.03512742748260498,0.004233984307944774,0.0035411797381937503
1746735844686924300,10.03892431640625,-0.01149345391690731,0.009673837274312973,0.00152246032692492
1746735844696890400,10.048890380859374,-0.013574936366081237,-0.00628784809783101,-0.008936261981073767
1746735844706856200,10.058856201171874,-0.031236265262961384,-0.01090221002548933,-0.004125208437535911
1746735844716822300,10.068822265625,-0.025258359897136685,-0.0032223230473697184,0.0059564972516149275
1746735844726788400,10.078788330078124,-0.001765256106853485,0.0006688391722738743,-0.006312982539087533
1746735844736754200,10.088754150390624,-0.012685878571867941,0.010676438445597887,0.005624580149818211
1746735844746720300,10.09872021484375,-0.020299276185035704,0.004872428341954946,0.012095401865430176
1746735844756686300,10.108686279296874,-0.02449789691865444,-0.012562106061726808,0.0017239011831581591
1746735844766652400,10.11865234375,-0.017776479709148404,0.00472892821803689,-0.0016771394319832324
1746735844776618200,10.1286181640625,-0.020617256093025206,-0.0018830372676253318,-0.0014397322132252157
1746735844786584000,10.138583984375,-0.008652093011140822,0.011935936987400054,0.0006120674837380647
1746735844796550400,10.14855029296875,-0.03050678194463253,-0.004166325899213552,0.0005852160094305872
1746735844806516200,10.15851611328125,-0.007621580919623374,-0.008132160790264607,-0.0006191365453414618
1746735844816482300,10.168482421875,-0.025575170761346817,0.00008212532550096511,-0.001575852748285979
1746735844826448100,10.1784482421875,-0.026180735439062117,0.008520721716433763,0.0001964541538618505
1746735844836414500,10.18841455078125,-0.031112931144237518,0.014157266298681496,0.0029034115576185284
1746735844846380300,10.19838037109375,-0.016449615019559858,0.0010106383472681046,0.004175915711466222
1746735844856346000,10.20834619140625,-0.022000234884023664,0.004702770863473415,-0.0018023001816123722
1746735844866312200,10.218312255859376,-0.02650163795650005,-0.0041810850769281385,-0.011067045198380946
1746735844876278300,10.2282783203125,-0.020066636472940443,-0.0029946517713367936,-0.0011342829932458698
1746735844886244400,10.238244384765625,-0.016027590215206146,0.0006051262862980365,-0.003094221421983093
1746735844896210200,10.248210205078125,-0.03233750450313091,-0.011654635827988386,-0.000058908846694976086
1746735844906176300,10.25817626953125,-0.0152671272367239,-0.004857084642350674,0.0032114545934833582
1746735844916142300,10.268142333984375,-0.03232230693399906,-0.011915624851733446,0.00123217214345932
1746735844926108200,10.278108154296875,-0.0076256725728511806,-0.0041834231644868845,-0.0018811923704110086
1746735844936074200,10.28807421875,-0.012713351100683211,0.003592325403541326,-0.0021223807151429354
1746735844946040000,10.2980400390625,-0.024686697489023208,0.010941811383515595,-0.0015505721765570342
1746735844956006400,10.30800634765625,-0.035308044746518136,0.013021540267020463,0.0011168752007186412
1746735844965973200,10.31797314453125,0.004648118066787719,0.0037330490484833714,-0.008716280821152032
1746735844975939300,10.327939208984375,-0.017196633994579314,-0.011537439189106225,-0.00026599399242550133
1746735844985905200,10.3379052734375,-0.027217677271366116,0.008929156386852264,0.0007663629963062703
1746735844995871200,10.347871337890625,-0.017934885141253472,-0.004278261841088533,-0.0026890564208850265
1746735845005837300,10.35783740234375,-0.012537994533777236,-0.005854717377573251,-0.0016147599865682421
1746735845015803400,10.367803466796875,-0.011174889487028121,-0.0046188919723033905,-0.01155245409514755
1746735845025769200,10.377769287109375,-0.017903320959210395,0.0055097033321857445,-0.008976064268499612
1746735845035735000,10.387735107421875,-0.0331657720208168,-0.0027229952231049535,0.0043187765145674345
1746735845045701400,10.397701416015625,-0.018803484669327734,-0.014071195450425147,0.004905125035159289
1746735845055667200,10.407667236328125,-0.012068038934469222,0.004183715425431728,0.0010934212598949671
1746735845065633300,10.41763330078125,-0.01564998907446861,-0.004571253438293933,-0.00007496493235230446
1746735845075599000,10.42759912109375,-0.027023031482100484,0.010690759231895207,0.0032411738783121105
1746735845085565400,10.4375654296875,-0.012957681250572204,0.0018766075268387794,0.0028682854453101754
1746735845095531300,10.44753125,-0.013845570001006125,-0.001793751548975706,-0.00607256137933582
1746735845105497000,10.4574970703125,-0.03809562963843345,0.002904050878435373,-0.011868972698412835
1746735845115463200,10.467463134765625,-0.017005495336651803,0.0031217852823436257,-0.009459427338652312
1746735845125429200,10.47742919921875,-0.0156722009062767,0.012954320249706506,-0.008461063951067625
1746735845135395300,10.487395263671875,-0.04172083439826965,-0.004610562535375356,-0.003408401937689632
1746735845145361200,10.497361083984375,-0.013888240098953246,-0.004453472277522087,0.005359609070699662
1746735845155327200,10.5073271484375,-0.031388240954279896,-0.010187193623930215,-0.012641327044088393
1746735845165293300,10.517293212890625,-0.026300562426447866,-0.011231880371272563,-0.011622030466329305
1746735845175259400,10.52725927734375,-0.027196049961447713,-0.008710983591526746,-0.0012447210977785288
1746735845185225200,10.53722509765625,-0.02106850699186325,0.008995061229914426,-0.00556428306363523
1746735845195191000,10.54719091796875,-0.023915128594636917,-0.002051964093744755,-0.0034550723573192953
1746735845205157400,10.557157470703125,-0.030493337941169738,-0.0034406419731676575,-0.0021114939949475227
1746735845215123200,10.567123291015625,0.0016787468671798705,-0.006737637691944837,-0.01167303000120446
1746735845225089300,10.57708935546875,-0.031235096219182013,0.003542494912445545,-0.013306019764207302
1746735845235055000,10.58705517578125,-0.04903963297903537,-0.004711100300401449,0.004365209472179413
1746735845245021400,10.597021484375,-0.0036982699960470197,-0.011308744999766349,0.005295585657469928
1746735845254987300,10.6069873046875,-0.029584406402707097,-0.006374211207032203,-0.011351469896640628
1746735845264953000,10.616953125,-0.029585575446486472,-0.0062087915122509,-0.010341671799588947
1746735845274919200,10.626919189453124,-0.020160744497179982,0.002936345712840557,0.009276855579670519
1746735845284885200,10.63688525390625,-0.009095160603523254,0.005689151552319526,0.0016066132127307354
1746735845294851300,10.646851318359374,-0.028253450059890745,-0.011329349396377801,-0.013078001428302377
1746735845304817200,10.656817138671874,-0.03782733409106731,-0.010597381860017775,0.0003311133841983974
1746735845314783200,10.666783203125,-0.01746785215139389,0.0026467151165008545,0.003526110033225268
1746735845324749300,10.676749267578124,-0.028999299991130826,-0.0062581836119294165,0.002001220287196338
1746735845334715100,10.686715087890626,-0.005657002848386764,0.0036339725881814953,-0.01510505027649924
1746735845344682200,10.69668212890625,-0.0325993703097105,0.008635288006812333,-0.0012160612588748335
1746735845354648300,10.7066484375,-0.023465046739578246,-0.00189443544447422,0.0000061740124598145485
1746735845364614100,10.7166142578125,-0.00610942279100418,-0.02103314341753721,0.00047598348129540677
1746735845374580200,10.726580322265624,-0.011199439406394958,0.0015887304961681365,-0.007822144993022084
1746735845384545000,10.736544921875,-0.04141746753752231,-0.0025235271282494066,-0.010032003062218428
1746735845394511000,10.746510986328126,-0.036032267367839814,-0.012079583241790532,-0.005868380576744675
1746735845404477200,10.756477294921876,-0.00732289023399353,0.00034720600247383117,0.0052127296796068544
1746735845414443000,10.766443115234376,-0.023493688312172887,0.0035609073519706725,0.0031481070336885747
1746735845424409000,10.7764091796875,-0.044893034693598746,0.005520370856672525,-0.0003304740633815527
1746735845434375200,10.786375244140626,-0.0073357497155666345,-0.00509030887633562,-0.00363811904033646
1746735845444341200,10.79634130859375,-0.010641221001744269,-0.01516162103563547,0.002487560765724629
1746735845454307000,10.80630712890625,-0.038483752173185344,-0.00476531470566988,0.0025267602649517358
1746735845464273000,10.81627294921875,-0.00497486580312252,0.020899287904798985,-0.001668097609002143
1746735845474239200,10.8262392578125,-0.014551087921857834,-0.010829144789278506,-0.0024359584426507353
1746735845484205000,10.836205078125,-0.019635259318351743,-0.015933482190966606,0.004685801462363451
1746735845494171100,10.846171142578125,0.004897124391794205,-0.012885200536251067,-0.0033319026353769003
1746735845504137000,10.856136962890625,-0.026835399955511093,0.001856149260699749,-0.012829433494713157
1746735845514103300,10.866103271484375,-0.025797873601317405,-0.0016559505134820937,-0.006248520734440535
1746735845524069000,10.876069091796875,-0.006342647024989128,0.0005688859291374683,-0.002062229759432375
1746735845534035000,10.886034912109375,-0.019061843344569205,-0.006603928309679031,0.00294683057423681
1746735845544001000,10.8960009765625,-0.05961538752913475,-0.008821165967732667,-0.000441514956112951
1746735845553967000,10.905967041015625,-0.03193827605247497,0.014571546187996864,-0.009012852614931762
1746735845563933200,10.91593310546875,-0.0012666589349508285,0.008172785061597824,0.0029273769550956785
1746735845573899000,10.92589892578125,-0.01983282771706581,0.01275046824067831,-0.014766794765461236
1746735845583865000,10.935864990234375,-0.03195756527483463,0.010687690491974353,-0.006091302612423896
1746735845593831200,10.9458310546875,-0.031818449065089224,-0.002258300320804119,-0.003506126691121608
1746735845603797000,10.955796875,-0.020442484048008917,-0.018158026372641325,0.0033255459598265586
1746735845613763000,10.96576318359375,-0.03241466139256954,-0.0012431319288909435,0.004399878926761448
1746735845623729000,10.97572900390625,-0.020143208840489386,0.011774316684901713,0.012424012765288352
1746735845633695200,10.9856953125,-0.008618775263428687,-0.01158303189650178,0.0029701931835152207
1746735845643661000,10.9956611328125,-0.007879355072975158,-0.007173398760706186,0.004721585161797702
1746735845653627100,11.005627197265625,-0.028534020566940307,-0.009676175361871719,-0.013415672417450696
1746735845663593000,11.015593017578125,-0.046780455875396726,0.0052251873023808,-0.009131309629138558
1746735845673559300,11.025559326171875,-0.011017068576812743,-0.009445727606862783,-0.010433807062450796
1746735845683525000,11.035525146484375,0.0006482347756624221,-0.012988660910725593,-0.0023798078086227177
1746735845693492200,11.0454921875,-0.01595335593521595,0.011036796190589665,0.00381681834179908
1746735845703458000,11.0554580078125,-0.03674655311703682,0.006499883413314819,0.0006414397086948156
1746735845713424000,11.065423828125,-0.006077274087071418,0.0043066111527383325,0.004664338549226522
1746735845723390200,11.07539013671875,-0.021786884394288063,-0.012013824529200792,-0.022907759916689245
1746735845733356000,11.08535595703125,-0.019530629900097844,-0.0016251169838011263,-0.005574603528250009
1746735845743322000,11.095322021484375,-0.013996376648545264,0.01095730121359229,-0.020203359796199947
1746735845753288000,11.105287841796875,-0.0014344167172908782,0.0041254093669354916,-0.0019068930672481656
1746735845763254300,11.115254150390625,-0.021805004572868346,-0.008292027527093886,0.0031725838878192006
1746735845773220000,11.12522021484375,-0.028686580780148505,-0.008758475995063781,-0.002797576562967151
1746735845783186000,11.13518603515625,-0.019553426253795622,0.000032733225822448726,0.004663699228409678
1746735845793152000,11.145152099609374,-0.008632803788781165,0.013829641779512167,-0.00031768764704465867
1746735845803118000,11.1551181640625,-0.017474866414070128,-0.009255027340352535,-0.010407941968832164
1746735845813084200,11.165084228515624,-0.027642040163278578,0.0019176701895892618,-0.0010911014386452735
1746735845823050000,11.175050048828124,-0.02195288861095905,0.00040390462577342983,0.002325776066444814
1746735845833016000,11.18501611328125,-0.004905307698249817,-0.009829466227442026,0.0025879889328964054
1746735845842982100,11.194982177734374,-0.0165828860104084,-0.02235679323673248,0.0024422785855829714
1746735845852948200,11.2049482421875,-0.02570610366463661,0.014122194985300303,-0.000579772649332881
1746735845862914000,11.2149140625,-0.048748541077971455,0.015158552295714616,0.00404162180731073
1746735845872879900,11.2248798828125,-0.02015957545340061,-0.003001666034013033,-0.0024333828930743037
1746735845882846200,11.23484619140625,-0.001450198808312416,-0.007838438540697098,0.0018398374467156827
1746735845892812000,11.24481201171875,-0.02584288178682327,0.002341156298667192,-0.003612655805516988
1746735845902778000,11.254778076171876,-0.020158990931510926,0.005352613074332475,0.004289386023301631
1746735845912744000,11.264743896484376,-0.005949848315119743,0.0010784428864717482,-0.000034377193637192245
1746735845922710300,11.274710205078126,-0.022412322816252706,-0.00906988003179431,-0.003531809121649712
1746735845932676000,11.284676025390626,-0.015681553256511688,0.01444704302549362,0.0028809987964108583
1746735845942642000,11.294641845703126,-0.029146599507331845,0.001118628766387701,-0.006141534962318837
1746735845952608000,11.30460791015625,-0.010897241589426994,0.0004243628919124603,-0.00006095467330887914
1746735845962574000,11.314573974609376,-0.028557985964417457,-0.003746054660528898,-0.004774648789595813
1746735845972540200,11.3245400390625,-0.02526829676926136,-0.00028758476972579955,0.001963354228530079
1746735845982506000,11.334506103515626,-0.02318213814496994,0.014284984331578016,0.004554064841475337
1746735845992472000,11.34447216796875,-0.007028875723481178,-0.0028643033899366853,0.003494618916418403
1746735846002438100,11.354438232421876,-0.013774258330464362,-0.004879004213213921,0.002395498568098992
1746735846012404000,11.364404052734375,-0.02544774498939514,-0.005756809961050748,-0.013218944268953054
1746735846022370000,11.3743701171875,-0.04025836063027382,-0.004142068240791559,-0.00032811770951375363
1746735846032336000,11.3843359375,0.0013338789522647856,-0.006190232942253351,-0.000732862585503608
1746735846042302200,11.39430224609375,-0.01347498312294483,0.0031911972567439076,-0.0030649222622625527
1746735846052269000,11.40426904296875,-0.02455284197628498,-0.003071078008413315,-0.001195292465481907
1746735846062234000,11.414234130859375,-0.02154723041951656,0.0011591069072484968,0.0035560302474536
1746735846072201000,11.424200927734375,-0.005384031125903129,-0.0056014732688665385,-0.0019110577857121825
1746735846082167000,11.4341669921875,-0.003141805157065391,-0.0021364275068044662,0.003130918436869979
1746735846092133000,11.444133056640625,-0.03876432268023491,0.006160276195406913,-0.0006147526311688125
1746735846102099200,11.45409912109375,-0.004946224230527877,0.005868453641980886,-0.0003618738486431539
1746735846112065000,11.46406494140625,0.005073065480589866,-0.0015580430969595908,0.004376370187010615
1746735846122030800,11.47403076171875,-0.020659926190972327,-0.01012464978173375,-0.003094221421983093
1746735846131997200,11.4839970703125,-0.029488544812798497,-0.002948766802996397,0.0021855638781562445
1746735846141963000,11.493962890625,-0.02679799055457115,0.009650310268253087,0.0042328700630925595
1746735846151929000,11.50392919921875,-0.02051788737177849,0.010729045415669679,0.00003627688977867365
1746735846161895000,11.51389501953125,-0.006156769064068794,0.00612359744682908,-0.002499744393862784
1746735846171861200,11.523861328125,-0.02202127767205238,0.00449906498491764,0.0016817973407916723
1746735846181827000,11.5338271484375,-0.03264905467033386,0.007217384032905102,0.0041046040409244595
1746735846191793000,11.54379296875,-0.007661912930011749,-0.0063825406439602375,-0.0038119412372820075
1746735846201759000,11.553759033203125,-0.014991232904791832,-0.009990794268995523,-0.005202354416064918
1746735846211725000,11.56372509765625,-0.033544542205333705,0.0057046413823962205,-0.008789163394272327
1746735846221691100,11.573691162109375,-0.03129530197381973,0.003126753718405962,-0.0020622114931233225
1746735846231657000,11.583656982421875,-0.007059855383634567,-0.013886486533284186,0.004058792137820274
1746735846241623000,11.593623046875,-0.02008475665152073,0.005627046101540327,-0.0006447093780152499
1746735846251589000,11.603589111328125,-0.01515256094634533,0.006869155117124319,0.0042807095265015955
1746735846261555000,11.613554931640625,-0.023083353945612905,-0.007202040333300829,-0.004068856874108314
1746735846271521000,11.62352099609375,-0.0046843584239482875,-0.0002687339387834072,-0.003756411657761782
1746735846281487000,11.633487060546875,-0.016809680503606796,0.005749065046012402,0.0005745302186347544
1746735846291453200,11.643453125,-0.028183891955018043,-0.001428279237449169,-0.007446845407225191
1746735846301419000,11.6534189453125,-0.021904373294115067,-0.006774900962412357,-0.0008625716460868715
1746735846311385000,11.663385009765625,-0.008737433207035064,0.001915185971558094,-0.008967698298953473
1746735846321351200,11.67335107421875,-0.018610007923841477,-0.009313479529321192,0.003160327194444835
1746735846331317200,11.683317138671875,-0.026240941193699834,-0.007824117754399776,0.0021097952282056213
1746735846341283000,11.693282958984375,-0.009483867660164833,-0.0018225392520427703,-0.004150014085229486
1746735846351249000,11.703248779296874,-0.022792262044548987,0.0015475217029452322,0.0010936404556035994
1746735846361215200,11.71321533203125,-0.031019407641887663,-0.007605360437184572,-0.0042697314747609195
