time,seconds_elapsed,z,y,x
1746576251609436400,0.0284365234375,0.12514204492866993,-0.017246610616147517,-0.05174722057045437
1746576251619514400,0.038514404296875,0.18552841683030127,0.02112988179028034,-0.048734128960128874
1746576251629592300,0.04859228515625,0.2966466125816107,0.07052548860013484,-0.02611811853162944
1746576251639671600,0.058671630859375,0.30020167471468445,0.07764028904139995,-0.00463634543060325
1746576251649749500,0.06874951171875,0.2742009720176458,0.05430032998621463,0.02169819233068265
1746576251659827500,0.078827392578125,0.19402210440933704,0.022175006929039953,0.053028720881510526
1746576251669906400,0.088906494140625,0.07175356909036636,0.01225771628767252,0.0695958978661336
1746576251679984600,0.098984619140625,-0.04066401882171631,-0.017450024233758448,0.032257708132034164
1746576251690063400,0.1090634765625,-0.16251403646767137,-0.019612170703709124,-0.02113486849265173
1746576251700141300,0.119141357421875,-0.24549685558080672,-0.04190495879352092,-0.062164889348857104
1746576251710219300,0.12921923828125,-0.30998014140725133,-0.02788900066167116,-0.013988960527069865
1746576251720298500,0.139298583984375,-0.2948544684678316,0.01353255852907896,0.012555630655167623
1746576251730376400,0.14937646484375,-0.24127368492782114,0.05411269845962524,0.03632276561385952
1746576251740454400,0.159454345703125,-0.14572422970831395,0.05605418791621923,0.036889852311555296
1746576251750533600,0.16953369140625,-0.07119242807626724,0.05661123727709055,0.043875948339235034
1746576251760611600,0.179611572265625,-0.008775427129864692,0.018839140504598617,0.00036959136421792205
1746576251770689500,0.189689453125,-0.014141922599077223,-0.012213584885001181,-0.030603145858040078
1746576251780768500,0.1997685546875,0.05807575687170028,-0.029614509280025958,-0.04677278402559459
1746576251790846500,0.209846435546875,0.16524901438951492,-0.021692191848158834,-0.04834947702409699
1746576251800925400,0.219925537109375,0.21460721179842948,-0.029743980878591536,-0.041508050164114685
1746576251811003400,0.23000341796875,0.2546861242085695,-0.00044803602844476696,-0.04184332826677709
1746576251821081300,0.240081298828125,0.3287771963357925,0.01630494585186243,-0.01018803387414664
1746576251831160600,0.25016064453125,0.33241409153342244,0.041054479444026945,0.04890539387380704
1746576251841238500,0.260238525390625,0.24669921710789203,0.01205021101683378,0.05156936151920818
1746576251851316500,0.27031640625,0.13218144204616547,-0.0024351181924343107,0.03792410899642855
1746576251861395700,0.280395751953125,0.019407880303263663,-0.01656505809277296,0.006670034082140773
1746576251871473700,0.2904736328125,-0.09930734644830226,0.011492284873127936,0.021829344429681076
1746576251881552400,0.300552490234375,-0.15666881757080553,0.0019356442376971244,0.016231168229598553
1746576251891630300,0.31063037109375,-0.22839023795723915,-0.006355798767507076,0.0160888828152325
1746576251901708500,0.32070849609375,-0.27570553136169906,0.016374503956735134,0.001668070209538564
1746576251911787500,0.33078759765625,-0.2596598209679127,0.06658931819498538,0.008211025579599664
1746576251921865500,0.340865478515625,-0.21703180859684942,0.04471037160307169,0.02521392710036598
1746576251931943400,0.350943359375,-0.13487141178250311,0.039055999103188514,0.002342937263799831
1746576251942022700,0.361022705078125,-0.06140227094590663,0.046125206837058064,0.012685275783669204
1746576251952100600,0.3711005859375,0.006292962664365768,0.0383484353557229,-0.005864115393580869
1746576251962178600,0.381178466796875,0.052716860187053675,0.006954349182546138,-0.057587087438767774
1746576251972257300,0.39125732421875,0.11851122861206531,-0.00043342298120260233,-0.020951246420899405
1746576251982335500,0.40133544921875,0.1635585770845413,-0.015339315690100191,0.027175399899063632
1746576251992414500,0.41141455078125,0.1907815150529146,-0.029105390714108944,0.015085066934395581
1746576252002492400,0.421492431640625,0.1874620152413845,-0.008974456833302974,0.001478876913525164
1746576252012570400,0.4315703125,0.10619827500581741,-0.01429156020283699,0.0024116368521470573
1746576252022649600,0.441649658203125,0.07795242373049259,-0.009035539370775222,0.04670002018348313
1746576252032727600,0.4517275390625,0.058444005662202834,0.00703968937844038,0.045793371933652086
1746576252042805500,0.461805419921875,0.006913724911212921,-0.00277238732278347,0.024899225994851438
1746576252052884500,0.471884521484375,-0.05067220261693001,0.014603694891929626,-0.011807588766841216
1746576252062962400,0.48196240234375,-0.08829027787148952,0.02403349427729845,-0.040101023777248335
1746576252073041400,0.49204150390625,-0.10516659387052059,0.02559855163693428,-0.02573492790032178
1746576252083119400,0.502119384765625,-0.08697744170725345,0.01460048002153635,0.00618860724074766
1746576252093197600,0.512197509765625,-0.04072305553257465,0.011061492240428924,0.0242971136495471
1746576252103276500,0.522276611328125,0.032599954831600185,0.022084698297083375,0.03258253790591843
1746576252113354500,0.5323544921875,0.06590075140893459,0.014721768313646315,0.013143970203446223
1746576252123432400,0.542432373046875,0.1649707819700241,0.004109773406386375,-0.026027024448383597
1746576252133511400,0.552511474609375,0.16017244177758694,-0.010304244132339954,-0.012119075001962482
1746576252143589400,0.56258935546875,0.14333879587650297,0.0088099139213562,0.014433407225785776
1746576252153667300,0.572667236328125,0.08787117567658424,0.0007426350608468055,-0.0020645587138365955
1746576252163746600,0.58274658203125,0.09620762686729431,-0.018954291316866875,-0.008148207742767408
1746576252173824500,0.592824462890625,0.10633856025934219,-0.02501899818331003,0.024036307288892566
1746576252183903500,0.602903564453125,0.03217559193968773,-0.0018134791627526282,0.02194896135451272
1746576252193981400,0.6129814453125,-0.03623801907300949,0.004762099835276604,-0.010771277122199534
1746576252204059600,0.6230595703125,-0.08290624674558639,-0.020372341421246526,-0.01386646665856242
1746576252214138600,0.633138671875,-0.0969528922766447,-0.0021349662020802495,0.008108688583131879
1746576252224216600,0.643216552734375,-0.07166530628502368,0.016597206796705722,0.011371654168143867
1746576252234294500,0.65329443359375,-0.07604103715121746,0.02716390125751495,0.004025985846761614
1746576252244373500,0.66337353515625,-0.1063204400807619,0.022627719132602215,0.0007259944532997906
1746576252254451500,0.673451416015625,-0.13202537470161915,0.015339315690100191,0.009295688144303857
1746576252264530700,0.68353076171875,-0.143172791659832,0.03068447659909725,0.019912340960372237
1746576252274608600,0.693608642578125,-0.0890010564893484,0.07056494382768869,0.07591993152219802
1746576252284686600,0.7036865234375,-0.04377484431862831,0.05905103164464235,0.058431949898228044
1746576252294765600,0.713765625,0.01572539239823818,0.03261602918356657,0.04282826591720804
1746576252304843800,0.72384375,0.07883329821825028,0.02816957116872072,-0.0007125687161460519
1746576252314921700,0.733921630859375,0.13640052104592323,-0.013361293615400791,-0.036827838192321355
1746576252325000400,0.74400048828125,0.07067103455066681,-0.027231705796718596,-0.08500042427955194
1746576252335078400,0.754078369140625,0.07461188113093375,-0.044428047530353065,-0.06736011990439146
1746576252345156600,0.764156494140625,0.11599077022373676,-0.025601181985437867,-0.00806656647445634
1746576252355235600,0.774235595703125,0.12186930686831474,0.016367489694058893,0.04039771430203691
1746576252365313500,0.7843134765625,0.14751520477831362,0.02556640293300152,0.0425042398609221
1746576252375392800,0.794392822265625,0.13778583792448043,0.028483167162537574,0.04313053679941222
1746576252385470700,0.804470703125,0.11136720207631587,0.014831658428907393,0.01551819765465334
1746576252395548700,0.814548583984375,0.05692775588035583,0.0003603577449917793,-0.03473481143582612
1746576252405627400,0.82462744140625,-0.05313128620684147,-0.012741115890443324,-0.04857283745119348
1746576252415705600,0.83470556640625,-0.11152736107409,-0.023875381106138228,-0.03591530819097533
1746576252425783600,0.844783447265625,-0.12698095079362393,0.00777209530621767,0.00935052360408008
1746576252435862500,0.854862548828125,-0.0984475147485733,0.03733808926939964,0.0699699188102968
1746576252445940500,0.8649404296875,-0.0726841279387474,0.05972147825211286,0.05951481323149055
1746576252456019700,0.875019775390625,-0.02140752968788147,0.0622013123691082,0.0444016161811538
1746576252466097700,0.88509765625,0.024498481440544128,0.04790156885981559,0.026084599854517727
1746576252476175600,0.895175537109375,0.07924947780370711,0.01996317609846592,0.012284293767344205
1746576252486254600,0.905254638671875,0.12615560588538646,-0.007520166371762752,-0.006706986825354397
1746576252496332500,0.91533251953125,0.12151976277828216,-0.019452596227824685,-0.03235973460124805
1746576252506410500,0.925410400390625,0.10593874728679656,-0.02041618056297302,-0.03381813498232514
1746576252516489500,0.935489501953125,0.11378478461205958,-0.004023556427657604,0.00347812443934381
1746576252526567400,0.9455673828125,0.10809037236273288,0.01928162357509136,0.024066136171575634
1746576252536645600,0.955645751953125,-0.001980360162258148,0.01713584371805191,0.027134565565176308
1746576252546724600,0.965724609375,-0.14013853853046893,0.012304478038847445,-0.017844667840842158
1746576252556802600,0.975802490234375,-0.1610012938171625,0.004483575154840946,-0.035611265476793046
1746576252566881500,0.985881591796875,-0.1627045906037092,0.013408639888465404,0.006912683731596917
1746576252576959500,0.99595947265625,-0.1584872651696205,0.05132862069904804,0.027832320304680615
1746576252587037400,1.006037353515625,-0.16363982562720775,0.0449494410559535,-0.010234667761158198
1746576252597116400,1.016116455078125,-0.11936346152722835,0.0234735223069787,-0.010481262933369725
1746576252607194600,1.026194580078125,0.015953940457105634,0.015493044947087763,0.02799803226040676
1746576252617272600,1.0362724609375,0.13462065189182756,0.032762451916933055,0.03156348792333156
1746576252627351600,1.0463515625,0.181030520889163,0.021612404610216615,0.0018727807350922374
1746576252637429500,1.056429443359375,0.21782266671359538,-0.0016857611298561096,-0.015798786428011954
1746576252647507700,1.0665078125,0.23894845685064792,-0.004231061698496342,-0.028098661356978118
1746576252657586700,1.076586669921875,0.16950550279021262,-0.013110533724725246,-0.01652996851308271
1746576252667664600,1.08666455078125,0.06338730728328228,-0.019282208096981047,-0.02377783901579678
1746576252677743600,1.09674365234375,-0.06563947012424469,-0.018128654147684574,-0.033779373874515295
1746576252687821600,1.106821533203125,-0.1349286949276924,0.00805968007594347,-0.015497922051604836
1746576252697899500,1.1168994140625,-0.1356914959937334,0.020624854877591133,0.03558561957888305
1746576252707978500,1.126978515625,-0.1261854165017605,0.0299982479006052,0.03725684072673321
1746576252718056700,1.137056640625,-0.08392799100875854,0.03926058176457882,0.03860051042065024
1746576252728134700,1.147134765625,-0.03888999488651752,0.028572599011659622,0.019661909863259643
1746576252738213600,1.157213623046875,0.021619126611948012,0.016723463524878024,0.018686032302118835
1746576252748291600,1.16729150390625,0.07971475722789764,0.019288053315877914,0.013176931758131831
1746576252758370600,1.17737060546875,0.10902502286434174,0.004467793063819408,-0.03219508209144696
1746576252768448500,1.187448486328125,0.1360626673936844,-0.01971300072968006,-0.05259657654194161
1746576252778526500,1.1975263671875,0.16911621121168136,-0.01383621765077114,-0.007061334954667836
1746576252788605700,1.207605712890625,0.16098551172614098,0.008304887008666991,0.022662626049201936
1746576252798683600,1.21768359375,0.10055237807333468,0.011760580420494078,0.012927961965743452
1746576252808761600,1.22776171875,0.023400164809823036,-0.000891103620827198,0.0037233131057582795
1746576252818840600,1.237840576171875,0.01259703124463558,0.004589958138763904,-0.002584536600485444
1746576252828918500,1.24791845703125,-0.018224807998538015,0.018985563237965106,0.039511633916199204
1746576252838996700,1.257996826171875,-0.06029927814006805,0.020716917075216768,0.022394293969217688
1746576252849075500,1.268075439453125,-0.08624620482325554,0.0033411271214485168,-0.007611278721317649
1746576252859153400,1.2781533203125,-0.03459609708487987,-0.0033048867642879484,-0.006865611453168094
1746576252869232600,1.288232666015625,-0.039137247645854946,0.027599077804386613,-0.02920348079372197
1746576252879310600,1.298310546875,-0.01533376273214817,0.025006430962681767,-0.0061385575539432465
1746576252889388500,1.308388427734375,-0.010161913052201271,0.017474281892180442,-0.006289218071009964
1746576252899467500,1.318467529296875,0.015953940457105634,0.03420388289690018,0.015178773099835962
1746576252909545700,1.328545654296875,0.023373276802897452,0.041055940748751164,0.06168660431262105
1746576252919623700,1.338623779296875,0.04306348117887974,0.04598492158353328,0.054182621890678996
1746576252929702400,1.348702392578125,0.04304536100029945,0.03214139740914106,0.013935842100344598
1746576252939780400,1.3587802734375,0.034354689544439314,-0.009120879566669463,-0.026028230024781076
1746576252949858600,1.368858642578125,-0.00044423663616180415,-0.024983050087094307,-0.06038354062372818
1746576252959937500,1.3789375,-0.0344686713129282,-0.028961890590190886,-0.05114756504371762
1746576252970015500,1.389015380859375,-0.015777414846420288,-0.0013084522500634193,-0.0013935367176309227
1746576252980094700,1.3990947265625,-0.01828033757805824,0.023995500354468822,0.041745183388236906
1746576252990172700,1.409172607421875,-0.022082652470469474,0.035141163747012615,0.028806097240280357
1746576253000250600,1.419250732421875,-0.011970423778891563,0.008125731049478054,0.027230883812811225
1746576253010329600,1.42932958984375,0.0288175136834383,0.015237901142239569,0.031268797559384255
1746576253020407600,1.439407470703125,0.0862257465571165,0.025191724401712415,0.03706193920914083
1746576253030485500,1.449485595703125,0.11506839468181132,0.017779110057651995,0.012233330765087157
1746576253040564500,1.459564453125,0.12758593094944953,0.008612930044531822,-0.0336795302292332
1746576253050642400,1.469642333984375,0.11831599830090998,-0.010972060391306876,-0.02239140789238736
1746576253060720600,1.479720703125,0.11427578299939632,0.0009039631024003028,0.012281791283003985
1746576253070799600,1.489799560546875,0.08443301792144775,-0.0029307927548885343,0.036569388185534624
1746576253080877600,1.499877685546875,0.03777648068666458,0.005183832378685474,0.02903652672898024
1746576253090956800,1.509956787109375,-0.0323947876483202,-0.0031371289819478987,0.025224256698135286
1746576253101034800,1.52003466796875,-0.1212304244428873,-0.022531273020803926,-0.03074314798377454
1746576253111112700,1.53011279296875,-0.15503566341102124,-0.009729074592888355,-0.06170129042509943
1746576253121191400,1.54019140625,-0.10407938315570354,0.01656067417860031,0.007741955896280705
1746576253131269600,1.55026953125,-0.03930617447197437,0.054578562405705446,0.0508368551267311
1746576253141347600,1.56034765625,-0.010709025540947914,0.04582739293426275,0.03766651750616729
1746576253151426600,1.570426513671875,0.046754736912250516,0.011377718582749366,-0.010356997232884168
1746576253161504500,1.58050439453125,0.05840542721748352,-0.0336430341437459,-0.02062147561041638
1746576253171583700,1.590583740234375,0.07860007398426533,-0.020476094056665894,0.0010153145223855973
1746576253181661700,1.60066162109375,0.06028641865849495,0.002073591403663158,0.013889902333077042
1746576253191739600,1.61073974609375,0.05774257939457893,0.023779227255284786,0.02212623588386923
1746576253201818400,1.620818359375,0.0895154357522726,0.02327741521298885,0.0368318385140039
1746576253211896600,1.630896484375,0.09962591087818146,0.022867373107373714,0.04105917388545349
1746576253221974800,1.640974853515625,0.046371875074505804,-0.0007473112359642982,-0.022373707838915288
1746576253232053800,1.6510537109375,0.003468552893400192,-0.00992225907742977,-0.05372106879353523
1746576253242131700,1.661131591796875,0.00438449869453907,-0.02968757451623678,-0.059986157070286567
1746576253252210000,1.6712099609375,0.02027589530944824,-0.003685702775418758,-0.007659520043525845
1746576253262289000,1.681288818359375,0.004956745624542236,0.02158902373462915,0.008484079500474036
1746576253272366800,1.691366943359375,0.013449264159798621,0.0058306058496236796,0.016879403005260973
1746576253282444800,1.70144482421875,0.02359656416475773,-0.00006429740786552428,0.028423162337299433
1746576253292523800,1.711523681640625,0.00834463449716568,0.02643207985162735,0.03448858158979565
1746576253302601700,1.721601806640625,-0.02492109076678753,0.02789280005395412,-0.007054594686627388
1746576253312680700,1.7316806640625,-0.012968787166476248,0.022400924639403817,-0.010927746325545013
1746576253322759000,1.741759033203125,-0.024936872857809066,0.01895283001214266,-0.003932042219303548
1746576253332836900,1.7518369140625,-0.021795067700743673,0.01699818881303072,0.007366254451684653
1746576253342915800,1.761915771484375,0.016015899777412412,0.0012283727511763572,-0.00575492853121832
1746576253352993800,1.771993896484375,0.03180558958351612,0.002712473829090595,-0.01856541986344382
1746576253363072000,1.782072021484375,-0.001471241596341133,0.014634966813027858,0.012861381269246339
1746576253373150700,1.792150634765625,-0.05889116490781307,0.0037400633111596107,-0.0211856305655092
1746576253383228700,1.802228759765625,-0.025105215162038803,-0.0016126958936452864,0.009541863191407172
1746576253393306600,1.812306640625,0.013961305335164069,0.029170272643864154,0.04570157459750771
1746576253403385900,1.8223857421875,0.053984688165783876,0.020634499488770962,0.030738736670138312
1746576253413463800,1.8324638671875,0.07208850013315678,0.012988953171670436,-0.0003238433931954205
1746576253423542800,1.842542724609375,0.08340016774237155,0.0006771686092019081,-0.04002362029263749
1746576253433621000,1.85262109375,0.12586743659377098,-0.014675591084361075,-0.016310288747260347
1746576253443699000,1.862698974609375,0.07778934212327003,0.0006982113972306251,-0.0008540504129137843
1746576253453777700,1.872777587890625,0.025520810225605962,0.015029226827621459,0.030053284289781
1746576253463855600,1.882855712890625,0.0007633855879306793,0.010537760627269745,0.03703890539342537
1746576253473933800,1.892933837890625,-0.01251169104874134,0.02737403687685728,0.013080412581097333
1746576253484012800,1.9030126953125,0.007639116576313972,0.01581920816153288,0.016124931376148014
1746576253494090800,1.9130908203125,0.022092004820704458,0.007882862204313277,0.01205797419818118
1746576253504170000,1.923169921875,0.008628712135553359,0.0053445758983492846,0.015679123837407678
1746576253514248000,1.933248046875,0.016830723291635513,0.02396715104281902,0.006656215619342401
1746576253524326000,1.943325927734375,-0.00037643209695816036,-0.004464578193426132,-0.023235512300021945
1746576253534404900,1.95340478515625,-0.010865092885494232,-0.014921382538974284,-0.04647844072151929
1746576253544482800,1.96348291015625,0.01414776781797409,0.013891454969346522,-0.00483282698392868
1746576253554561000,1.97356103515625,0.054558688661456106,0.02644201672375202,0.015773688519373535
1746576253564639700,1.9836396484375,0.05297697242796421,0.014953238981962203,0.008352178482804447
1746576253574717700,1.9937177734375,0.030979660153388974,0.0116790396168828,0.023366682665329427
1746576253584795600,2.003795654296875,0.020259528696537018,0.013542495401203631,0.031803817751538004
1746576253594875000,2.013875,0.005571078130602836,0.011217559584975242,0.03431565444199368
1746576253604952800,2.023952880859375,-0.015348375779390334,0.015814824247360228,0.01757025307994336
1746576253615031800,2.03403173828125,-0.018759061005711553,-0.010128887565433979,-0.015317213456146419
1746576253625110000,2.044110107421875,0.0043570261657238,-0.012523089225590228,-0.02084613294545561
1746576253635188000,2.05418798828125,0.015212766700983047,0.0006169628545641899,-0.001516505510173738
1746576253645266700,2.0642666015625,0.023633389043807983,0.030160160464048385,0.03707951139844954
1746576253655344600,2.0743447265625,0.028912790751457213,0.028731881226599216,0.041041336834663524
1746576253665422800,2.0844228515625,0.000751110628247261,-0.0018815759629011153,0.003975041110813617
1746576253675501800,2.094501708984375,-0.015489245554804802,-0.010407119984924792,-0.02004628780465573
1746576253685579800,2.104579833984375,-0.03218026811480522,-0.003231529267132282,-0.008776705771498382
1746576253695657700,2.11465771484375,-0.0042693478822708126,0.010941957513988017,-0.008612171992706134
1746576253705737000,2.124737060546875,0.035683892321586606,0.03126636814028024,-0.004716561926808208
1746576253715815000,2.13481494140625,0.08654957168400287,0.019461948578059673,0.02236200826796703
1746576253725893600,2.1448935546875,0.06549217060804367,0.014608078806102275,0.04126411273987032
1746576253735971800,2.154971923828125,0.0740390496790409,0.01624181748777628,-0.0013044884609989822
1746576253746049800,2.1650498046875,0.055907765182852745,-0.005673077200353145,-0.0233165599132888
1746576253756128800,2.175128662109375,-0.0018014964640140532,0.0048699441239237785,-0.031907524721184743
1746576253766206700,2.185206787109375,-0.04392798905372619,-0.016380933697521687,-0.055407980700861656
1746576253776285000,2.195284912109375,-0.06793254949748516,0.0004661562070250511,-0.025749906273745
1746576253786364000,2.205364013671875,-0.011430910074710846,0.025085925939679145,0.01060864303954877
1746576253796441900,2.21544189453125,0.05802548798918724,0.02501461426913738,0.04910208548968657
1746576253806519800,2.225519775390625,0.06693126350045203,0.026348493221402168,0.02798751999954693
1746576253816598800,2.235598876953125,0.05597673876583576,0.0030626024410128593,0.01250760852866806
1746576253826676700,2.2456767578125,0.03996376159787178,0.0030702012255787847,-0.0064797904733568425
1746576253836755700,2.255755615234375,0.037812721043825145,0.005727729997038841,-0.0008897245144937187
1746576253846834000,2.265833984375,0.03221475490629673,-0.020620470963418482,0.004488105199486017
1746576253856912000,2.275911865234375,0.0004693710774183273,0.006223696820437908,0.01229920820868574
1746576253866990800,2.285990966796875,-0.029618893194198605,0.031383564779162404,0.02372621842641383
1746576253877068800,2.29606884765625,-0.028646833291649815,0.028674890342354774,-0.006699579837033525
1746576253887146800,2.306146728515625,-0.015216858354210853,0.0010410334855318068,-0.006240456158993765
1746576253897226000,2.31622607421875,-0.031016485032439232,-0.008244973514974116,-0.015346987539902329
1746576253907304000,2.326303955078125,-0.06528232724964618,0.002461129416525364,-0.02158565360060893
1746576253917382000,2.3363818359375,-0.015521394258737563,0.011644260564446448,-0.008019046671455726
1746576253927460900,2.3464609375,0.03878945712149143,0.020259528696537018,0.016965957910707218
1746576253937538800,2.356538818359375,0.05550853673219681,0.010856325057148933,0.01524539032895118
1746576253947617800,2.36661767578125,0.07046528284549712,-0.0006982113972306251,0.003500692464178428
1746576253957695700,2.37669580078125,0.11762509342730045,-0.011541092450916767,-0.0024351821245159953
1746576253967774000,2.38677392578125,0.1517559110879898,-0.008718143984675407,-0.004347902144351974
1746576253977853000,2.39685302734375,0.15903145504891872,-0.008259294301271439,0.003157687712786719
1746576253987931000,2.406930908203125,0.16695815639495848,0.004694003035128116,0.023851397442352026
1746576253998008800,2.4170087890625,0.11784604270160197,0.005157821154594421,-0.0029551052122376857
1746576254008087800,2.427087890625,0.04616378528177738,0.02338087558746338,0.0123828222383745
1746576254018165800,2.437165771484375,-0.04260229340791702,0.016786299628019332,0.011859693413414061
1746576254028244700,2.44724462890625,-0.10905191087126731,-0.007990706492960452,0.00893557699448429
1746576254038323000,2.457322998046875,-0.10882219376862048,0.000839081172645092,0.001806044774968177
1746576254048401000,2.46740087890625,-0.08962240325808525,0.02962210806459188,0.037467451270110905
1746576254058479900,2.47747998046875,-0.03712123164832592,0.06391337698400021,0.024806232215464113
1746576254068557800,2.487557861328125,-0.021691022804379463,0.02838701331168413,0.013272108361450954
1746576254078636000,2.497635986328125,0.026935353198647496,0.005930559092760085,0.02114097857302986
1746576254088714800,2.50771484375,0.015625439155101777,-0.015169804342091083,-0.005428810982545837
1746576254098792700,2.517792724609375,0.07863339173197746,-0.007727379381656646,-0.021149655069829895
1746576254108870700,2.52787060546875,0.08812252008914948,0.014443828155100345,-0.006035334641486406
1746576254118950000,2.537949951171875,0.08473696930408477,0.0029857378125190733,-0.005243170483643189
1746576254129027800,2.54802783203125,0.09555646948218345,-0.000647065731883049,-0.0034128497839439657
1746576254139106800,2.55810693359375,0.07908464263081551,0.0066118193551898,-0.014393394875805824
1746576254149185000,2.56818505859375,0.05751052420437336,0.007602291697263717,-0.0007359404585789888
1746576254159263000,2.578262939453125,0.02439034489095211,0.008639525790512562,0.00649121604966931
1746576254169341700,2.588341796875,0.041354339173436165,0.016968378196656704,0.02974046461409889
1746576254179419600,2.598419677734375,0.009305003961920738,0.020539806942641733,0.03920799306081608
1746576254189497600,2.60849755859375,-0.04561959540247917,0.030652035634219643,0.023958922070590777
1746576254199576800,2.618576904296875,-0.09198211812674999,0.016710311782360075,-0.026419759226171298
1746576254209654800,2.62865478515625,-0.09066811291873454,-0.014796002593636512,-0.026405063980538396
1746576254219732700,2.638732666015625,-0.027840777605772016,-0.0162561382740736,-0.007297591395955532
1746576254229812500,2.6488125,-0.015561726269125938,0.013489596170186996,-0.0000128320821095258
1746576254239890400,2.658890380859375,0.03536240528225899,0.02639204010218382,-0.02170279544056393
1746576254249969400,2.668969482421875,0.07845102090239524,0.012779109813272953,-0.019977359887445343
1746576254260047400,2.67904736328125,0.11896774020791052,0.019753625001013277,0.013366536046098916
1746576254270125300,2.689125244140625,0.13051029396355152,0.0389148370668292,0.04721790657774545
1746576254280204500,2.69920458984375,0.12052139939069748,0.024696926622092722,0.035253200153587384
1746576254290282500,2.709282470703125,0.10200140783786774,0.009732873985171317,0.01644152304464951
1746576254300360400,2.7193603515625,0.05756430021822452,-0.00488338812738657,-0.006718805127311498
1746576254310439400,2.729439453125,0.005884381863474846,0.005290799884498119,0.005856945867277682
1746576254320517600,2.739517578125,-0.03848082956373691,0.000538052399456501,0.029173423582175746
1746576254330595600,2.749595703125,-0.05927110413610935,0.0159685535043478,0.025939108702912925
1746576254340674300,2.75967431640625,-0.12306406961083412,0.02116436858177185,0.007668890660069883
1746576254350752300,2.769752197265625,-0.14903613073527813,0.006645429363846779,-0.04099028250086121
1746576254360831500,2.77983154296875,-0.1300795013308525,0.007140227143466472,-0.029857697785599154
1746576254370909400,2.789909423828125,-0.053013797307014464,0.025782968293130395,0.00878477034694515
1746576254380987400,2.7999873046875,0.007193710896372794,0.0458142411917448,0.04887856066580862
1746576254391066600,2.810066650390625,0.09551906008124351,0.016066460920870305,0.04512087949956767
1746576254401144600,2.82014453125,0.15632278061211108,-0.0017044658303260803,0.021176068152720107
1746576254411222500,2.830222412109375,0.17939093698859213,-0.02627688928991556,-0.011891988247819243
1746576254421301200,2.84030126953125,0.14401216509342193,-0.02044189952611923,-0.014966125862998886
1746576254431379500,2.85037939453125,0.09639350482821464,0.0034422494083642956,-0.026321906608575953
1746576254441458400,2.86045849609375,0.0759171185106039,0.013609715418517588,0.00797746341889724
1746576254451536400,2.870536376953125,0.054932782670855516,0.009840718273818492,0.023397717124409974
1746576254461614300,2.8806142578125,-0.04902852706313133,-0.0032131168276071545,-0.007335567052476108
1746576254471693600,2.890693603515625,-0.11533259857594966,0.004002513639628887,0.002579979156376794
1746576254481771500,2.900771484375,-0.12059504914879798,0.007775017915666103,-0.0001774754587560892
1746576254491849500,2.910849365234375,-0.08449147011041641,0.027260931891202926,0.01251291489144787
1746576254501928400,2.920928466796875,-0.06611293285489082,0.02817190925627947,-0.00409876795518212
1746576254512006400,2.93100634765625,-0.009106851041316985,0.02918517795205116,0.004621787182288244
1746576254522085400,2.94108544921875,0.041220483660697936,0.012591770547628401,0.016424215716822073
1746576254532163300,2.951163330078125,0.09379296694099902,0.017106325362622736,0.000996180563652888
1746576254542241300,2.9612412109375,0.148465637370944,-0.014260288281738757,0.014833658589748664
1746576254552320500,2.971320556640625,0.17986907589435577,-0.012980185343325137,0.0032815424213185904
1746576254562398500,2.9813984375,0.16774024668335913,-0.03969838865995407,-0.023224844775535165
1746576254572476400,2.991476318359375,0.15425123503506183,-0.04573533073663711,-0.04126678875414654
1746576254582555600,3.0015556640625,0.11175532461106777,-0.011120528951287269,-0.006211659322772175
1746576254592633600,3.011633544921875,0.02120528511404991,0.009001344840228557,-0.005972087546391412
1746576254602712300,3.02171240234375,-0.053534021788835526,0.011400514936447143,-0.008814096906129271
1746576254612790300,3.031790283203125,-0.10770458791553973,0.03878068929314613,0.03004468085821718
1746576254622868500,3.041868408203125,-0.12749416101276873,0.05724252091795206,0.016092800938524304
1746576254632947500,3.051947509765625,-0.11953589548468589,0.04235270256102085,0.03310761209279298
1746576254643025400,3.062025390625,-0.1056628529548645,0.027008126173913478,0.04952062142901122
1746576254653103400,3.072103271484375,-0.06391162341833115,0.03535042258352041,0.030779698868189004
1746576254663182600,3.0821826171875,-0.018355156379938124,0.02948240733295679,-0.02095731996865943
1746576254673260500,3.092260498046875,0.06482230852246285,0.0045054947257041926,-0.0035037064051721242
1746576254683339300,3.10233935546875,0.13032733861207962,0.006224281342327594,0.04401014177869074
1746576254693417500,3.11241748046875,0.14089958603084088,0.011579378634691238,0.02239806596203707
1746576254703495400,3.122495361328125,0.15428805991411207,0.011169628790020942,-0.014687692514108492
1746576254713574400,3.132574462890625,0.13002630983889102,0.017382219694554803,0.0028583303068764505
1746576254723652400,3.14265234375,0.08027706728577613,0.025335516786575314,0.00443979081204161
1746576254733730600,3.15273046875,-0.004993570503592491,0.0022597616255283356,0.0021227369081694633
1746576254743809500,3.1628095703125,-0.043349312382936475,-0.0013876549661159514,-0.001270449194079265
1746576254753887500,3.172887451171875,-0.04029167837798595,0.00746843618452549,0.0010880235655698924
1746576254763966500,3.182966552734375,-0.05246142412126064,0.03825315828770399,0.018499241025745867
1746576254774044400,3.19304443359375,-0.07502046193182468,0.014092530499398707,-0.0015892784854397177
1746576254784122400,3.203122314453125,-0.06597557021081447,0.0033171617239713667,-0.008247202004678546
1746576254794201300,3.213201416015625,-0.013107903376221657,0.025048516538739202,-0.007575257559865713
1746576254804279600,3.223279541015625,0.03601473171114921,0.008785656262934207,0.023168328815326093
1746576254814357500,3.233357421875,0.06490881776213646,0.006939736135303974,0.0018604692427907138
1746576254824436500,3.2434365234375,0.09791852243840694,-0.004627952061593533,0.0042508897769730535
1746576254834514400,3.253514404296875,0.14632102655768395,0.004082008616626262,0.01744471787097864
1746576254844593400,3.263593505859375,0.13069149574935435,-0.00666150371581316,0.020564000668982042
1746576254854671400,3.27367138671875,0.08126023310422897,-0.03045271366983652,0.0028206743107642976
1746576254864749300,3.283749267578125,0.0351350262671709,-0.010881167237460613,0.0025008769050240513
1746576254874828300,3.293828369140625,-0.01200023439526558,0.025511165614426134,0.03456212175004184
1746576254884906500,3.303906494140625,-0.05690028335154056,0.026577918063104153,0.004410738247493282
1746576254894984400,3.313984375,-0.06220657306611538,0.018617898969352245,-0.019396381661714986
1746576254905063400,3.3240634765625,-0.07776362316012382,0.017245441572368143,0.01757132165902294
1746576254915141400,3.334141357421875,-0.05373042114377021,0.038600656551122665,0.020023107858467847
1746576254925220600,3.344220703125,-0.047911505731940265,0.04340747231096029,0.029141265745088456
1746576254935298600,3.354298583984375,-0.038512978267669674,0.02084843450039625,0.03649001193954609
1746576254945376500,3.36437646484375,-0.03710544955730438,0.012754559893906116,0.00821549169216305
1746576254955455500,3.37445556640625,-0.00984860931932926,0.014454934071004389,-0.013293416010960936
1746576254965533400,3.384533447265625,0.05388648848831653,0.00007394201904535293,-0.016288159113842994
1746576254975611400,3.394611328125,0.06912965032756328,-0.0012558452799916267,0.002695212167035788
1746576254985690400,3.4046904296875,0.08060323050022125,0.006015607027709484,0.022544753556884824
1746576254995768600,3.4147685546875,0.0888356367945671,0.019175825113058088,0.006669924484286457
1746576255005847600,3.42484765625,0.07992752319574356,0.007510521760582923,-0.0031068434415385125
1746576255015925500,3.434925537109375,0.03164776867330074,0.006500175674259662,0.021740944627020507
1746576255026003500,3.44500341796875,0.01184065991938114,-0.0034396190598607063,-0.00842068627490662
1746576255036082400,3.45508251953125,0.022689970713853834,-0.0007759528085589408,-0.03524528170861303
1746576255046160400,3.465160400390625,0.03993687359094619,0.003329436683654785,0.022698802474280817
1746576255056238300,3.47523828125,0.01944236709475517,0.02711947759389877,0.05365511828470044
1746576255066317600,3.485317626953125,0.017090251010656355,0.03437631685435772,0.02659029348748736
1746576255076395500,3.4953955078125,0.015055530312657356,0.01735766977518797,0.00840205463967286
1746576255086474500,3.505474609375,-0.008755553385615348,0.019338029937446117,0.014256571087846531
1746576255096552400,3.515552490234375,-0.020679215413331984,0.002170037515461445,0.005477298899926245
1746576255106630700,3.525630615234375,-0.0033154081583023068,0.005283493360877037,0.0194083095615264
1746576255116709400,3.53570947265625,0.015896657311916352,0.02581073308289051,0.035814003240969026
1746576255126787300,3.545787353515625,0.037840193572640415,0.015442776064574717,0.036951053580036385
1746576255136865300,3.555865234375,0.02486906831860542,0.014155951124429703,0.031142568230675533
1746576255146944500,3.565944580078125,0.051067923936247824,0.0017263854011893272,0.01645296688727103
1746576255157022500,3.5760224609375,0.08424187926352024,-0.01028349360525608,-0.0017961901012342422
1746576255167100400,3.586100341796875,0.08008768219351768,-0.017801029628515243,-0.0055140233142767095
1746576255177179400,3.596179443359375,0.09899112010598182,-0.02338555176258087,0.011446993559831753
1746576255187257600,3.606257568359375,0.08895838639140129,-0.0008650923967361449,-0.004060426972480491
1746576255197336300,3.61633642578125,0.07335808167755603,-0.00656476534307003,-0.017196579195652158
1746576255207414300,3.626414306640625,0.035444822868704796,0.0031646015107631683,-0.03292990830517374
1746576255217492200,3.6364921875,-0.046420974913239474,-0.006518880374729633,-0.03955959211061708
1746576255227571200,3.6465712890625,-0.06300678353309631,0.009739595986902713,0.005679917933093383
1746576255237649200,3.656649169921875,-0.06336977162659167,0.021669980016350746,0.026620953487232327
1746576255247727000,3.66672705078125,-0.061783963739871973,0.004557224912941455,0.02271684958762489
1746576255257806300,3.676806396484375,-0.013873042529821395,0.013007657872140407,0.025936478354409334
1746576255267884300,3.68688427734375,0.015761048233509063,0.026593115632236004,0.01869942150665447
1746576255277963300,3.69696337890625,0.052071548020839686,0.023985855743288993,0.0015488916761241852
1746576255288041500,3.70704150390625,0.06829144593775271,0.007841068889200687,0.0035985176823101934
1746576255298119400,3.717119384765625,0.09344926806986331,0.005858370639383792,0.01863503276724368
1746576255308198100,3.7271982421875,0.07458557764589786,0.024886896236240862,0.011423503086389973
1746576255318276000,3.737276123046875,0.038439328509569166,0.014137830945849418,0.017613936958042902
1746576255328354300,3.747354248046875,-0.002403554010391235,0.014580314016342162,0.048032593094650654
1746576255338433300,3.757433349609375,-0.03408171782195568,0.019575638085603714,0.028576690664887428
1746576255348511200,3.76751123046875,-0.04605447968840599,0.009390928679704666,-0.0036790812383871523
1746576255358590200,3.777590087890625,-0.05559504597187042,0.02365384730994701,0.0014274298540782183
1746576255368668400,3.78766845703125,-0.048292029482126235,0.01828998218923807,-0.0002818308823741972
1746576255378746400,3.797746337890625,0.00597264466881752,0.025247546242177486,-0.0035305761457886543
1746576255388825000,3.8078251953125,0.025685060876607893,0.02844546550065279,0.012248236073274165
1746576255398903000,3.817903076171875,0.035622517523169514,0.03623977263867855,0.030278781875036655
1746576255408981200,3.827981201171875,0.04639174881875515,0.03175122904777527,0.016157965996069834
1746576255419060200,3.838060302734375,0.06684241617321968,0.004619184233248233,0.001866378393769264
1746576255429138200,3.84813818359375,0.07550093892514705,0.01664513759166002,0.013488299262244253
1746576255439217400,3.858217529296875,0.08325579083561897,0.007595277434587478,0.008296639770129696
1746576255449295400,3.86829541015625,0.07312778005301952,0.011419219636917114,-0.020793334179138763
1746576255459373300,3.878373291015625,0.05916472115218639,-0.009707739543914795,-0.01778633438288234
1746576255469452000,3.8884521484375,0.030851065337657926,-0.006770224787294864,0.01655526735112071
1746576255479530200,3.8985302734375,0.011436170771718025,-0.005629822580516338,0.011836897059716283
1746576255489608200,3.908608154296875,-0.026867548659443855,0.0018476736932992934,-0.004428118640556931
1746576255499687200,3.918687255859375,-0.025481647258996962,0.028405133490264415,0.022344920135848222
1746576255509765000,3.92876513671875,-0.020136194577813148,0.020862463025748727,0.04035268785022199
1746576255519844400,3.93884423828125,-0.02218085214793682,0.030648528502881526,0.026384185589291155
1746576255529922300,3.94892236328125,-0.013373860836029051,0.024722353324294087,0.009517970859166234
1746576255540000300,3.959000244140625,0.005031564426422119,0.010061083026230334,-0.01238808293538168
1746576255550079200,3.969079345703125,0.004852116206288337,0.016707389172911643,0.005652746798377484
1746576255560157200,3.9791572265625,0.005662263545393943,0.007902443687617779,0.011222555420501157
1746576255570235100,3.989235107421875,0.01325111123919487,0.0061892100289464,0.010318263524537906
1746576255580314000,3.999314208984375,0.015554127484560011,0.009053659549355506,0.019535863197641445
1746576255590392300,4.009392333984375,0.025792612904310223,0.008614099088311195,0.007809084582049399
1746576255600471300,4.01947119140625,0.05065758956968784,-0.0001277180328965187,0.014013620044291018
1746576255610549200,4.02954931640625,0.069874331215024,0.002446516369283199,0.008466306381765753
1746576255620627200,4.039627197265625,0.0690372958689928,0.015212766700983047,0.018671108727622777
1746576255630706400,4.04970654296875,0.028532851523160933,0.0073483169361948965,-0.026833271930506452
1746576255640784400,4.059784423828125,0.009731704941391944,0.014574468797445296,-0.03360096683399751
1746576255650862300,4.0698623046875,0.0044458734929561615,-0.0007496493235230445,-0.011520762048941105
1746576255660941000,4.079941162109375,0.038543373405933376,0.013363631702959537,0.024925401615723965
1746576255671019300,4.090019287109375,0.014922843843698502,0.021864333544671533,0.018359229766856878
1746576255681098200,4.10009814453125,0.00021510405540466307,0.028226854313910005,0.00019214330492541194
1746576255691176200,4.11017626953125,0.007867080113291739,0.028923019884526727,0.002282685843389481
1746576255701254100,4.120254150390625,0.018016718205809593,0.005931435875594616,0.028113493599928915
1746576255711333400,4.13033349609375,0.017772972577810287,0.021857319281995295,0.02925389580670744
1746576255721411300,4.140411376953125,-0.03270575329363346,-0.0009188684105873108,0.019611220855638385
1746576255731489300,4.1504892578125,-0.025657003825902937,0.004133446542918682,-0.008640895763691514
1746576255741568300,4.160568359375,-0.030702012255787847,0.018246143047511577,-0.00012523381486535072
1746576255751646200,4.170646240234375,-0.033275077614188193,0.015896072790026663,0.013826682637445627
1746576255761725200,4.18072509765625,-0.0037689971446990965,0.028245266753435132,0.029948618338908998
1746576255771803100,4.19080322265625,0.04376958362162113,0.0003454524368047714,0.011715261707734317
1746576255781881300,4.20088134765625,0.07298691027760505,0.0029550504133105276,0.012521774051338433
1746576255791960300,4.210960205078125,0.12251228094696998,0.009412555989623069,0.001982716516125947
1746576255802038300,4.221038330078125,0.1276046356499195,0.015109598587453364,0.0037704036504961546
1746576255812116200,4.2311162109375,0.061039867374300956,-0.011858487837016582,-0.01990189263159409
1746576255822195200,4.2411953125,0.001291208854317665,-0.014766484238207339,-0.03387549119275063
1746576255832273200,4.251273193359375,-0.030353637209534642,0.0049812955439090725,0.0026832842672243713
1746576255842351000,4.26135107421875,-0.036814942178130146,0.012668635176122187,0.03826121372999623
1746576255852430300,4.271430419921875,-0.04236906917393207,0.01808569178879261,0.02117165683908388
1746576255862508300,4.28150830078125,-0.024719430714845655,0.03290624430179596,0.005630498433951288
1746576255872587300,4.291587158203125,0.017069208222627637,0.04255465487390756,0.01758592557311058
1746576255882665200,4.301665283203125,0.024216157367825508,0.028569384141266346,0.02266286351121962
1746576255892743400,4.311743408203125,0.014801263290643692,0.011334756223857403,0.007601177452411502
1746576255902822100,4.321822265625,-0.008257540735602378,-0.0001771101325750351,-0.014184793626423924
1746576255912900000,4.331900146484375,0.02081657805740833,0.007801321400701999,0.018749251997750252
1746576255922978000,4.34197802734375,0.048693596020340915,0.011452245123684406,0.029438075000885872
1746576255933057300,4.352057373046875,0.05410685324072838,0.002422550971806049,0.0296039878860116
1746576255943135200,4.36213525390625,0.03498188153207302,0.013887655577063559,-0.0022816263974644244
1746576255953214200,4.372214111328125,0.025604981377720833,0.006901742212474346,-0.014350395984295754
1746576255963292400,4.38229248046875,0.01964461166858673,0.009691957452893257,0.010410718447808175
1746576255973370400,4.392370361328125,-0.02731646147072315,0.01352817461490631,0.006687533206213265
1746576255983449300,4.402449462890625,-0.01783084024488926,0.016548691479861734,0.03024654183955863
1746576255993527300,4.41252734375,-0.005564648389816284,0.027923487453162667,0.04441431126594543
1746576256003605200,4.422605224609375,0.018074585872888564,0.03795505212396383,0.017146913101337848
1746576256013684200,4.432684326171875,0.024321955829858778,0.006295300751924514,-0.0008051058378070593
1746576256023762200,4.44276220703125,0.04431143541336059,0.011347323444485663,-0.015249993438832462
1746576256033841200,4.452841064453125,0.051717912277579305,0.020466157184541225,-0.017106526292022316
1746576256043919400,4.46291943359375,0.06804243961274624,0.009523322887718677,0.0278609070783481
1746576256053997300,4.472997314453125,0.06196224291622638,0.021707973939180374,0.04109075633380562
1746576256064076300,4.483076171875,0.02309621342718601,-0.003643909460306167,0.004564038246218115
1746576256074154200,4.493154296875,0.014735212317109107,-0.024767361509799957,0.000013096943590790033
1746576256084232400,4.503232421875,0.013581950628757476,0.004629997888207435,0.00048064139010384676
1746576256094311200,4.513311279296875,0.02719020474255085,0.004362871384620666,0.002867408662475645
1746576256104389000,4.52338916015625,0.029935704058408737,-0.0009723521634936332,0.009330686392448842
1746576256114468400,4.53346826171875,-0.03680500530600547,0.004850947162508964,-0.02255713811442256
1746576256124546300,4.54354638671875,-0.02593698981106281,-0.003893500307202339,-0.0365702467020601
1746576256134624300,4.553624267578125,0.027832594299316404,0.019188684594631192,0.018217501474916933
1746576256144703200,4.563703125,0.03036123599410057,0.02461597034037113,0.03766686456603929
1746576256154781400,4.573781494140625,0.020136194577813148,0.011854396183788776,0.025638408723287282
1746576256164859400,4.583859375,0.003014379385113716,0.008543664200603962,-0.003075644585676491
1746576256174938000,4.593938232421875,0.018153496327996253,0.015823299814760685,-0.022477332610171288
1746576256185016000,4.60401611328125,0.05890986960828304,0.004191021949052811,-0.01551536637675017
1746576256195095300,4.61409521484375,0.07672025158703327,0.0028428222104907035,-0.017863208144530653
1746576256205173200,4.62417333984375,0.027449147939682006,-0.001257014323771,0.010499163916241377
1746576256215251200,4.634251220703125,0.014622399592399596,0.002855389431118965,0.046899077286384996
1746576256225329400,4.644329345703125,-0.03052197951376438,0.017416998746991156,0.02411530907554552
1746576256235407400,4.654407470703125,-0.04014847051501274,0.01644084719121456,-0.0035725064582191406
1746576256245485300,4.6644853515625,-0.02797521764039993,0.019903262604773042,-0.005860160737670958
1746576256255564300,4.674564208984375,-0.021985037314891813,0.023331191226840017,0.0297069550701417
1746576256265642500,4.684642578125,-0.003013210341334343,0.01710837118923664,0.01928956941952929
1746576256275721200,4.69472119140625,0.02118424232602119,0.012550269493460655,0.0017505334617570042
1746576256285799200,4.704799072265625,0.06607786154150963,0.0008729834422469138,-0.0017363770722411572
1746576256295877000,4.714877197265625,0.07159282557070255,0.014529168350994586,-0.004218238749541342
1746576256305956400,4.724956298828125,0.05501110860407352,-0.007682371196150779,-0.017678060835972426
1746576256316034300,4.735034423828125,0.03891045315265655,0.0007157470539212226,-0.00695226682331413
1746576256326112300,4.7451123046875,0.02952595421373844,0.01005903719961643,0.03195683462247252
1746576256336191500,4.75519140625,0.008567337337136268,0.007242518474161625,0.0385013426288031
1746576256346269400,4.76526953125,0.014676175606250763,0.015083879624307154,0.022863939041271805
1746576256356348200,4.77534814453125,-0.002864157259464264,0.02038666220754385,0.008848145306203514
1746576256366426000,4.785426025390625,0.02065758810341358,-0.0004734627306461334,0.005733794411644339
1746576256376504300,4.79550439453125,-0.01770166090726852,-0.0015747019708156585,-0.0007552205477841198
1746576256386583300,4.805583251953125,0.011547814452648162,0.014890695139765738,0.02375591944493353
1746576256396661200,4.8156611328125,-0.0010994856745004653,0.027757190975546835,-0.002332169274613261
1746576256406739200,4.8257392578125,0.02646247498989105,0.03232756763100624,0.01588430928699672
1746576256416818400,4.835818359375,0.0647065731883049,0.020623393572866914,0.01435772077422589
1746576256426896400,4.845896484375,0.06013268940150737,0.021836568754911422,0.01627924515502527
1746576256436975400,4.855975341796875,0.07360942609012126,0.030519056904315948,0.033243897024635226
1746576256447053300,4.86605322265625,0.04779401683211326,0.01678191571384668,0.03549558494156226
1746576256457131300,4.87613134765625,0.017138766327500343,-0.0062821490094065666,-0.007328351860400289
1746576256467210200,4.886210205078125,-0.020624854877591133,-0.012006664136052132,-0.034704507629107685
1746576256477288200,4.8962880859375,-0.02941781766414642,-0.007295125444233417,-0.014554229727014898
1746576256487366400,4.906366455078125,-0.0478664975464344,0.006683715547621249,-0.005326455719769
1746576256497445400,4.9164453125,-0.027476035946607587,0.010175357055664061,0.02139600364686921
1746576256507523300,4.9265234375,-0.0032476036190986633,0.03772182788997888,0.0449713788931258
1746576256517601300,4.936601318359375,0.030659926679730415,0.007607552394270896,0.031175913377851246
1746576256527680500,4.946680419921875,0.05435001434683799,0.01183978313654661,0.008628419874608516
1746576256537758500,4.956758544921875,0.05334288313090801,-0.004121463844180107,-0.039245438994374125
1746576256547837200,4.966837158203125,0.06786883661150932,-0.0013061141625046728,-0.007528915933798998
1746576256557915100,4.9769150390625,0.07649579518139361,0.00928659152239561,-0.00559736334932968
1746576256567993300,4.986993408203125,0.01437865396440029,0.013069032670557498,0.0018212971430271864
1746576256578072300,4.997072265625,-0.0029798925936222074,0.01740121665596962,-0.011742350644059478
1746576256588150300,5.007150390625,0.002097264540195465,-0.0017357377514243125,-0.02456856926837936
1746576256598228200,5.017228271484375,0.00960427916944027,0.015568740531802176,-0.006896518048085272
1746576256608307500,5.027307373046875,0.003234744137525558,0.029955285541713235,0.04097147733569145
1746576256618385400,5.037385498046875,0.00267827929854393,0.020298107141256332,0.021310425988957285
1746576256628464000,5.047464111328125,0.01648176372349262,0.00765402188450098,0.016293017952051014
1746576256638542300,5.057542236328125,0.03354103507399559,-0.0017743161961436271,-0.0013672514989040792
1746576256648620300,5.067620361328125,0.02692249371707439,0.013712299010157584,0.0005919928100891411
1746576256658699300,5.07769921875,0.0234931037902832,-0.0030690321817994116,-0.019398564485646783
1746576256668777200,5.087777099609375,0.03032850276827812,0.003016425211727619,0.003221775058098137
1746576256678855400,5.09785546875,0.03159048552811146,0.0003422375664114952,0.009600278847757727
1746576256688934400,5.107934326171875,-0.0007195464462041854,0.010492460180819034,0.007571275504492223
1746576256699012400,5.118012451171875,-0.0022270283997058867,-0.0005649404063820839,0.005596851892676204
1746576256709091300,5.12809130859375,0.011486439654231071,0.014940087239444256,-0.01760570798581466
1746576256719169300,5.138169189453125,0.018904606956243512,0.024479776740074156,0.02047065069656819
1746576256729247200,5.148247314453125,0.027127076378464697,0.03542874851673841,0.0277900337992236
1746576256739326200,5.158326171875,0.016438509103655814,0.027947160589694976,0.023082221434451638
1746576256749404400,5.168404296875,0.017904490002989767,0.0037631519258022306,0.007734484975878149
1746576256759482400,5.178482421875,0.030226795959472655,-0.006234218214452266,0.001352236592862755
1746576256769561300,5.188561279296875,0.02990121726691723,-0.008871580980718136,0.005538911160361021
1746576256779639300,5.198639404296875,0.031529110729694367,0.0001464227333664894,-0.002421564591117203
1746576256789718300,5.20871826171875,0.023352234014868734,0.00544452914148569,-0.006757730631902814
1746576256799796200,5.218796142578125,0.04026654393672943,-0.005649404063820839,-0.015102109400741755
1746576256809874200,5.228874267578125,0.04533960941731929,0.021448153959214684,0.006863163767755031
1746576256819953400,5.238953369140625,0.024779051947593687,0.007189619243144989,-0.010334584471676497
1746576256830031400,5.24903125,0.034276948133110996,0.01033054761737585,-0.018402740115020425
1746576256840109300,5.259109375,0.019220833298563954,-0.00010609072297811507,0.014861085452791302
1746576256850188300,5.269188232421875,-0.004393851044774055,0.02466273209154606,0.020133564229309557
1746576256860266200,5.279266357421875,-0.029801848545670508,0.024891572411358354,0.01011600981755182
1746576256870345500,5.289345458984375,-0.00454699577987194,0.02915565959662199,0.01565545070087537
1746576256880423400,5.29942333984375,0.004852700728178024,0.01964548845142126,0.03558505332330242
1746576256890501400,5.30950146484375,0.03171674225628376,0.01575344944894314,0.010076371926907449
1746576256900580400,5.319580322265625,0.046512160328030586,0.014750409886240958,-0.0050856692338362335
1746576256910658300,5.329658203125,0.046509237718582154,0.020302783316373824,-0.0032680618852376935
1746576256920736300,5.339736328125,0.05397475129365921,0.005076280350983143,-0.024487941780220717
1746576256930815200,5.349815185546875,0.05381868394911289,-0.016461013196408747,-0.02309033167567104
1746576256940893400,5.3598935546875,0.04827098669409752,-0.0411392351180315,-0.04186241655973717
1746576256950972400,5.369972412109375,0.027173838129639624,0.04085895687192678,0.038517307382915165
1746576256961050400,5.38005029296875,0.051881578406691546,0.06569120031148194,0.07880357893342152
1746576256971128300,5.39012841796875,0.06317337227165698,-0.04365063341706991,0.01231753844982013
1746576256981207300,5.400207275390625,0.006543138033151626,0.010231178896129131,0.009086429307796061
1746576256991285200,5.41028515625,0.028428222104907034,0.03980272581726312,0.02804999990966171
1746576257001363200,5.42036328125,0.02890811457633972,0.02030249105542898,0.0005310746693983673
1746576257011442400,5.4304423828125,0.015824176597595215,-0.02040799725651741,-0.01879373046029359
1746576257021520400,5.440520263671875,0.032305355799198146,0.010540683236718177,-0.002964713290799409
1746576257031599400,5.450599365234375,0.002686462604999542,0.013219547057151794,0.027386987689975648
1746576257041677300,5.46067724609375,-0.0584323152244091,0.0310068404212594,0.03356417848756536
1746576257051755500,5.470755615234375,-0.07582593309581279,0.025400983238220213,0.032313612170889974
1746576257061834200,5.480834228515625,-0.08263502858877181,0.037972587780654425,0.0254275607178919
1746576257071912200,5.490912109375,-0.06833820768892765,0.02045534352958202,0.015541505465004593
1746576257081990100,5.500990234375,-0.013850246176123618,0.024471885694563388,0.016793204292841254
1746576257092069400,5.5110693359375,0.006669394761323929,0.026237434062361717,0.012330781523883342
1746576257102147300,5.521147216796875,0.032145196801424025,0.017481588415801524,-0.030856435632519424
1746576257112226300,5.531226318359375,0.10371054984331131,-0.0033998715713620185,-0.024613394790794697
1746576257122304500,5.541304443359375,0.11108370895981788,-0.007960019093751906,0.01426085453731939
1746576257132382500,5.551382568359375,0.11198854884505272,0.01627221262603998,-0.012943634458910672
1746576257142461200,5.561461181640625,0.11254384464025496,0.008581073601543903,-0.014915044129732996
1746576257152539100,5.5715390625,0.10445347716510295,-0.010107552516460418,0.006101129886694252
1746576257162617300,5.581617431640625,0.04924830729365349,0.01800064385384321,0.005929481380525976
1746576257172696300,5.5916962890625,0.007850713500380515,0.01969254246354103,0.01733898334102705
1746576257182774300,5.601774169921875,-0.040462358769774436,0.010516717839241027,-0.0063492046299390495
1746576257192853200,5.611853271484375,-0.11377601678371428,0.009434475560486317,-0.02308068706449121
1746576257202931500,5.621931396484375,-0.11102116511762142,0.008852876280248164,-0.007159607697371393
1746576257213009400,5.632009521484375,-0.07245850248932838,0.05173574019521474,0.01760705969268456
1746576257223088400,5.64208837890625,-0.06675239980220794,0.03881926773786545,0.005495126817561685
1746576257233166800,5.652166748046875,-0.0025841712743043897,0.04424859931021929,-0.00520169682893902
1746576257243244800,5.662244873046875,0.055685062342882154,0.037545010018348694,0.03699879257874563
1746576257253324000,5.672323974609375,0.08707739495038985,0.02130553061813116,0.031818028939981015
1746576257263402000,5.682402099609375,0.10085866754353046,-0.000562017796933651,0.018765362882334737
1746576257273481000,5.69248095703125,0.11992284897565841,-0.018327683851122854,0.004796403963677585
1746576257283559000,5.702558837890625,0.15445464865267275,-0.005379939472675323,0.006032978287618607
1746576257293637000,5.71263720703125,0.11174188060760497,-0.012415537197887896,-0.01652739296350628
1746576257303715800,5.7227158203125,0.06991992392241954,-0.014806523987650871,-0.022345614255592224
1746576257313793800,5.732793701171875,0.012900398105382918,-0.003125438544154167,-0.02164462637938559
1746576257323871700,5.742871826171875,-0.05207447063028812,0.02371142271608114,-0.018431564350705594
1746576257333951000,5.752950927734375,-0.06738485248684883,0.01048223104774952,0.02107371288994327
1746576257344029000,5.76302880859375,-0.09052724314332007,0.03416004375517368,0.04058351919772103
1746576257354108000,5.77310791015625,-0.08759060516953468,0.03485124088972807,0.02322868070043623
1746576257364186000,5.78318603515625,-0.07744564325213432,0.04654781616330147,0.006337678588926792
1746576257374264000,5.79326416015625,-0.038215456625819204,0.010692366667091845,-0.009917436771839856
1746576257384342800,5.8033427734375,0.00003214870393276214,0.014055997881293296,-0.00001936228759586811
1746576257394420700,5.813420654296875,0.035728315985202784,0.0138575526997447,-0.011082772490475326
1746576257404499000,5.8234990234375,0.05305705192685127,0.021079028385877607,0.0103946806284599
1746576257414578000,5.833577880859375,0.09220423644483089,0.022562252680957316,0.04470803351551294
1746576257424656000,5.84365576171875,0.10044190343618392,0.01749094076603651,0.028968977918103336
1746576257434735000,5.853735107421875,0.04292085783779621,-0.006320435193181037,-0.015605912470724433
1746576257444813000,5.86381298828125,0.04863806644082069,-0.0062260349079966545,-0.018368107193056493
1746576257454891000,5.87389111328125,0.052989831909537315,0.009161796098947525,-0.009655041242297739
1746576257464970000,5.883969970703125,0.01276478902697563,-0.0021320435926318166,0.015376542427949606
1746576257475048200,5.894048095703125,-0.020364742636680602,0.0009518938973546027,-0.004300126613024622
1746576257485126100,5.904126220703125,-0.026972178077697754,0.0047153380841016765,0.00962826283322647
1746576257495204900,5.914204833984375,-0.03760696933865547,0.03405190720558166,0.010987495422456414
1746576257505282800,5.92428271484375,-0.0765273593634367,0.023591303467750548,-0.0018683511551469563
1746576257515362000,5.934362060546875,-0.031577041524648665,0.02838964366018772,-0.017005641467124223
1746576257525440000,5.94443994140625,0.007430442261695862,0.020549743814766406,-0.011104819925501943
1746576257535518000,5.95451806640625,0.06590192045271397,0.023773089775443075,0.012752806328237056
1746576257545597000,5.964596923828125,0.05532967303395271,-0.0001318096861243248,-0.000733666303101927
1746576257555675100,5.974675048828125,0.06379881069362163,0.005064005391299724,-0.01538196752173826
1746576257565753000,5.984753173828125,0.07348375388383865,-0.020593875217437742,0.018457502509560436
1746576257575831800,5.994831787109375,0.05479015932977199,-0.0009989479094743728,0.037153124623931943
1746576257585909800,6.00490966796875,0.0048953708261251444,0.00842559077888727,0.03451205379692837
1746576257595989000,6.014989013671875,-0.021668226450681685,0.019958499923348427,0.00634556963443756
1746576257606067000,6.02506689453125,-0.013871873486042022,0.0021221067205071447,0.00576046322286129
1746576257616145000,6.035144775390625,0.006913140389323234,0.009342705623805523,0.0070502107724547385
1746576257626224000,6.04522412109375,0.04644494031071662,0.026368074704706666,0.006712594582233578
1746576257636302000,6.055302001953125,0.01969078889787197,0.03768880240321159,-0.017066340412106366
1746576257646380000,6.065380126953125,0.028845570734143254,0.0020215689554810524,-0.03096930315615609
1746576257656458800,6.075458740234375,0.024416648375988004,-0.0052872927531599995,0.006793094206228852
1746576257666537000,6.085536865234375,0.025912439891695976,0.007713350856304168,-0.0018269231662154197
1746576257676616000,6.095615966796875,-0.009570961421728134,0.022837270230054853,0.0012936200071126222
1746576257686694000,6.10569384765625,0.025147300738096234,0.038980595779418946,0.022471998847927898
1746576257696771800,6.115771728515625,0.03320201237797737,0.02616056943386793,0.04056870522107929
1746576257706851000,6.12585107421875,0.0248263982206583,-0.009013912060856819,0.015592523266188799
1746576257716929000,6.135928955078125,0.012957681250572204,-0.01476034675836563,-0.03091541754445061
1746576257727007000,6.146007080078125,0.03490121751129627,-0.0148161685988307,-0.028278529702220112
1746576257737086000,6.1560859375,0.0478226584047079,-0.007604629784822464,-0.046006658491306
1746576257747164000,6.166163818359375,0.05605155756771564,-0.008677811974287032,0.01560035951277241
1746576257757241900,6.176241943359375,0.06644786389768123,-0.005570201347768307,0.0169582221288234
1746576257767320800,6.18632080078125,0.06129881057143211,0.009767360776662825,-0.0018715112266130744
1746576257777399000,6.19639892578125,0.08874269781410693,0.02427051790356636,0.008623688900563866
1746576257787478000,6.20647802734375,0.08821370550394057,0.037115678690373896,-0.0011600202227011322
1746576257797556000,6.216555908203125,0.07132628358900546,0.02210018812716007,0.023695202233642337
1746576257807634000,6.226634033203125,0.054336570343375204,0.0029629414588212967,0.039372389842290426
1746576257817713000,6.236712890625,0.050537178060412406,0.02240034011751413,0.021516323824599386
1746576257827790800,6.246790771484375,-0.006971592578291892,0.02622866623401642,-0.03649517217185348
1746576257837869800,6.256869873046875,-0.04279518563151359,-0.0106333299562335,-0.027863921019341795
1746576257847947800,6.26694775390625,-0.06028817222416401,0.001441138719022274,0.004160791207570583
1746576257858026000,6.27702587890625,-0.05647475141584873,0.01700637211948633,0.03166347769908607
1746576257868105000,6.28710498046875,-0.1135223342835903,0.022764497254788876,0.03183410329194739
1746576257878183000,6.297182861328125,-0.059738721647858616,0.03057867813706398,0.023862119765765962
1746576257888260900,6.3072607421875,-0.030221535262465474,0.027228783187270164,0.037800482616759834
1746576257898340000,6.317340087890625,0.0015033903002738952,0.02335895601660013,0.020702030033338814
1746576257908418000,6.32741796875,0.004117956712841988,0.02697188581675291,0.021793460265547036
1746576257918496000,6.33749609375,0.012965864557027817,0.018854045812785623,0.008352616874221713
1746576257928575000,6.347574951171875,0.031603345009684564,0.011961655950546263,0.005045775614865124
1746576257938653000,6.35765283203125,0.059901218733191486,0.009996201096475124,-0.008090148279443383
1746576257948732000,6.36773193359375,0.07401683784723281,0.0030228549525141714,0.006642488488089293
1746576257958809900,6.377809814453125,0.07584229970872401,-0.007654606406390666,-0.008749909096118062
1746576257968888000,6.38788818359375,0.07020809321403503,-0.006401683735847472,-0.012839059839583932
1746576257978967000,6.397967041015625,0.05402268208861351,0.009061258333921431,0.002508804483152926
1746576257989045000,6.408044921875,0.008995207360386849,0.01635989090949297,0.025113891658838837
1746576257999124000,6.4181240234375,-0.0222732066065073,0.02113251213878393,0.02599012650409713
1746576258009202000,6.428201904296875,-0.05618482855856418,0.035685353626310826,0.020508114896435288
1746576258019280000,6.43827978515625,-0.060199909418821335,0.018881518341600893,0.002702646554820239
1746576258029358800,6.44835888671875,-0.04446925632357597,0.006740121909976005,0.0015964754112064838
1746576258039437000,6.45843701171875,-0.057144028979539865,0.026424773328006267,0.015666410486306993
1746576258049515000,6.468514892578125,-0.01648176372349262,0.03013034984767437,-0.011184424500353634
1746576258059594000,6.478593994140625,-0.013853753307461738,0.018919804525375367,-0.026330975831020623
1746576258069672000,6.488671875,-0.001454290461540222,0.008648878140747546,-0.039058465054910625
1746576258079750100,6.498750244140625,0.04518821824789047,-0.0023290274694561957,0.00948262555114925
1746576258089828900,6.508828857421875,0.06487725358009339,0.02100362506210804,0.039420941691752524
1746576258099906800,6.51890673828125,0.08939619328677653,0.0247980489090085,0.02669140664124861
1746576258109986000,6.528986083984375,0.09807166717350482,0.002195171956717968,0.008667308846581727
1746576258120064000,6.53906396484375,0.07997486946880816,-0.0002618658065795898,-0.02673007641751319
1746576258130142000,6.549141845703125,0.051204702058434484,-0.01116319904923439,-0.03309539193203673
1746576258140221000,6.559220947265625,0.025548867276310918,-0.01691372539997101,-0.01969922793265432
1746576258150299000,6.569298828125,0.009618307694792747,-0.0002063362270593643,-0.03006866452200338
1746576258160377900,6.5793779296875,-0.01356090784072876,0.016053309178352355,0.006207293674908578
1746576258170455800,6.589455810546875,-0.0332920287489891,0.025574878500401972,0.05558269794695079
1746576258180533800,6.59953369140625,-0.06609890432953834,0.032975510145723815,0.039278190486505625
1746576258190613000,6.609613037109375,-0.061952306044101714,0.028566753792762755,0.033903456911910324
1746576258200691000,6.61969091796875,-0.024640520259737966,0.028907822315394877,0.011710530733689665
1746576258210769000,6.629768798828125,-0.01027472577691078,-0.0013368015617132186,-0.027833014424424617
1746576258220847900,6.639847900390625,0.02074877351820469,-0.0010039163455367087,-0.015627777242660523
1746576258230925600,6.649925537109375,0.042537996000051495,0.009128186090290546,0.00893823474245146
1746576258241004500,6.660004638671875,0.07654080336689949,0.024773498989641665,-0.0030343261945992707
1746576258251082800,6.670082763671875,0.11872107197046279,0.026005671133100986,-0.001691441951971501
1746576258261160700,6.68016064453125,0.12893909912407397,0.04671791203320026,0.009707228087261318
1746576258271239400,6.690239501953125,0.138379712164402,0.01270867492556572,0.002189071009494364
1746576258281317400,6.7003173828125,0.12156418644189834,-0.011890052019059657,0.023732976960763333
1746576258291395600,6.7103955078125,0.1036713868767023,-0.002757482014596462,0.015043054423574358
1746576258301474600,6.720474609375,0.03042787148952484,0.004558686217665672,0.033797073927987364
1746576258311552500,6.730552490234375,-0.050935821989178655,-0.009601941081881523,0.03686005996149033
1746576258321631700,6.7406318359375,-0.12071721422374247,0.015012567953765392,0.01839981750557199
1746576258331709700,6.750709716796875,-0.13360299928188324,0.04495937792807817,0.017032401609886436
1746576258341787600,6.76078759765625,-0.11577449712455272,0.026513328394293784,0.01389359212750569
1746576258351866400,6.770866455078125,-0.08314180906713009,0.030540391953289506,0.01794717836724594
1746576258361944600,6.780944580078125,-0.042057519006729126,0.030396307307481763,0.004938314918708056
1746576258372022500,6.7910224609375,0.04234218116700649,0.02398644026517868,0.010277776250522582
1746576258382101500,6.8011015625,0.07237257777154445,0.015886428178846834,0.023085618967935442
1746576258392179500,6.811179443359375,0.05801730468273163,0.014236322884261608,0.010427943577244877
1746576258402258700,6.8212587890625,0.0693991149187088,0.014953238981962203,-0.01860692091761157
1746576258412336600,6.831336669921875,0.07991758632361888,0.0076648355394601814,0.011067556655034422
1746576258422414600,6.84141455078125,0.055980830419063564,0.014678221432864666,0.02464046546081081
1746576258432493600,6.85149365234375,0.012712766578793526,0.03117547498643398,0.017313483573589472
1746576258442571500,6.861571533203125,-0.017679449075460433,0.0063785951212048525,0.013274875707272439
1746576258452649500,6.8716494140625,-0.02947276272177696,0.010684183360636234,0.001389846923202276
1746576258462728400,6.881728515625,-0.05897475153803825,0.016289748282730578,-0.00037573797721415753
1746576258472806700,6.891806640625,-0.04335866473317146,0.014853870260715484,-0.0020865970157086847
1746576258482885600,6.9018857421875,-0.010898410633206367,0.03570113571733236,-0.010500004166457801
1746576258492963600,6.911963623046875,0.035711364850401876,0.025838790133595465,-0.004757588056940585
1746576258503041500,6.92204150390625,0.04769698619842529,0.03134410955160856,0.006863620425481349
1746576258513120800,6.932120849609375,0.06520809296965599,0.01561871715337038,0.008206541200727224
1746576258523198700,6.94219873046875,0.07281506084203719,0.013718728750944136,0.033698837717901914
1746576258533276700,6.952276611328125,0.08574351599812507,-0.006297346578538417,0.03814003503574058
1746576258543355400,6.96235546875,0.07213000118732452,0.013607669591903685,0.02347204273594543
1746576258553433600,6.97243359375,0.045700259423255916,0.017827333113551138,-0.007793466887809335
1746576258563512600,6.9825126953125,0.02701718626320362,0.01626402931958437,-0.011885905566904694
1746576258573590500,6.992590576171875,0.024046646019816396,0.03041384296417236,0.024656028356123714
1746576258583668500,7.00266845703125,-0.021045126116275785,0.010296645347774028,0.005438756987825036
1746576258593747700,7.012747802734375,-0.036841245663166045,0.01269815353155136,-0.002259578962437808
1746576258603825700,7.02282568359375,-0.053415363845229144,0.013373568575084208,0.022835717593785373
1746576258613903600,7.032903564453125,-0.04980009595751762,0.03233925806879997,0.003218048731051385
1746576258623982600,7.042982666015625,-0.018611176967620848,0.0374707757383585,0.009857066620420664
1746576258634060500,7.053060546875,0.0090495678961277,0.021525310848653317,-0.007223667643219232
1746576258644139500,7.063139404296875,0.004655716851353645,0.027174714912474154,-0.007139076365996152
1746576258654217500,7.073217529296875,0.005211597168445587,0.032633564840257166,-0.012893767435196787
1746576258664295700,7.083295654296875,0.04139584022760391,0.019810031363368032,-0.013047423626948147
1746576258674374700,7.093374755859375,0.07179390110075473,0.01976619222164154,0.02720790479602292
1746576258684452600,7.10345263671875,0.0783960758447647,0.008657645969092846,0.01570478800162673
1746576258694530600,7.113530517578125,0.047528059372305864,-0.004878711952269077,0.03309252412151545
1746576258704609500,7.123609619140625,0.05698270093798637,0.007927285867929458,0.02500279596718028
1746576258714687500,7.1336875,0.06007891338765621,0.037949791426956654,0.012388192533235996
1746576258724766500,7.143766357421875,0.052829088389873505,0.02072042420655489,0.02323965875217691
1746576258734844700,7.1538447265625,0.018827450066804884,0.0007242226213216781,-0.018693046564795077
1746576258744922600,7.163922607421875,0.025431962898373604,0.007409107212722301,-0.007708108425606042
1746576258755001600,7.174001708984375,-0.05807341878414154,0.027319384080171583,-0.013653518027625978
1746576258765079600,7.18407958984375,-0.06402443614304065,0.012272329334914683,-0.03612390944035723
1746576258775157800,7.19415771484375,-0.06015431671142578,0.026971593555808065,-0.00922644056668505
1746576258785236500,7.204236572265625,-0.05635492442846298,0.005014321030676365,0.01733527528028935
1746576258795314400,7.214314453125,-0.022743746727705,0.011427987465262412,0.02250624817740172
1746576258805393400,7.224393310546875,0.018676643419265747,0.01762333497405052,0.014240304939635098
1746576258815471600,7.2344716796875,0.0602449176043272,-0.005503273591399192,0.01133426303351298
1746576258825549600,7.244549560546875,0.08145955506861209,0.013270108200609683,0.0116449364178814
1746576258835628500,7.254628662109375,0.08225859649181365,0.011070260068774223,0.021894600818771866
1746576258845706500,7.26470654296875,0.06849895120859145,-0.016181319472193718,-0.014672668474912642
1746576258855784700,7.27478466796875,0.0650549482345581,-0.004059504523873329,0.0017532003428786993
1746576258865863700,7.28486376953125,0.04759235678017139,0.022638532787561415,0.015063202162459492
1746576258875941600,7.294941650390625,0.01300970369875431,0.020714578987658022,0.006622468613367527
1746576258886020600,7.3050205078125,-0.013480828341841698,0.02235679323673248,0.003950436392519623
1746576258896098600,7.3150986328125,-0.01903378629386425,0.022533026586472986,0.01284903324432671
1746576258906176500,7.325176513671875,-0.01602174499630928,0.014719722487032412,0.006876297243963926
1746576258916255500,7.33525537109375,-0.006867547681927681,0.020065175168216227,-0.013523735901806503
1746576258926333700,7.345333740234375,-0.006546060642600059,0.04082417781949043,0.006875877118855714
1746576258936411600,7.35541162109375,0.019852116939425467,0.023491642485558985,0.003867489083111286
1746576258946490600,7.36549072265625,0.027523382219672203,-0.008608546130359173,0.015720971951447428
1746576258956568600,7.375568603515625,0.010695581537485122,0.008718728506565094,0.017067253727559
1746576258966647600,7.3856474609375,-0.005764554876089096,0.013180384090542792,0.01382642690911889
1746576258976725500,7.3957255859375,0.024228432327508924,0.017233166612684727,0.020246961475908754
1746576258986803500,7.405803466796875,0.027096681240200995,0.024822306567430494,0.028485085124988107
1746576258996882700,7.415882568359375,0.025694413226842877,0.01864683280289173,0.011961473287455737
1746576259006960600,7.425960693359375,0.029218495699763296,0.029403789138793945,0.00607789514157921
1746576259017039600,7.43603955078125,0.011083119550347327,0.035161914274096484,0.011470310503337532
1746576259027117600,7.44611767578125,-0.00025251345634460447,0.022075053685903546,0.019794651131145653
1746576259037195800,7.45619580078125,-0.018361586120724676,0.01234481004923582,-0.015652308895718305
1746576259047274500,7.4662744140625,0.015595044016838073,0.00741436790972948,-0.005534234985243529
1746576259057352400,7.4763525390625,0.03202361624836921,0.00597001432031393,0.015751549752801654
1746576259067430400,7.486430419921875,0.04660626835227012,0.01630582263469696,0.0018937961236573755
1746576259077509600,7.496509521484375,0.03462415413558483,0.02920388265252113,0.01327535063130781
1746576259087587600,7.506587646484375,0.011087211203575134,0.03288520151376724,0.019174108080007135
1746576259097666600,7.51666650390625,-0.012668342915177344,0.022786709086596964,-0.0049047962415963405
1746576259107744800,7.526744873046875,-0.035709611284732816,0.003905775266885757,-0.019635186253115534
1746576259117822700,7.53682275390625,-0.017574819657206534,-0.00020458266139030456,-0.015631028645671903
1746576259127901400,7.5469013671875,0.027355039915442466,-0.00372048182785511,0.022121541442442685
1746576259137979400,7.5569794921875,0.05964928979873657,0.020594459739327428,0.03902498291041702
1746576259148057300,7.567057373046875,0.040028059005737304,0.01840893239378929,0.021139635999314486
1746576259158136600,7.577136474609375,0.029853870993852612,0.013468261121213436,-0.015843009162228555
1746576259168214500,7.587214599609375,0.030585692399740218,0.03310147461295128,0.007009951827302575
1746576259178293500,7.59729345703125,0.05077215586006641,0.02670563609600067,0.026384002926200627
1746576259188371700,7.607371826171875,0.028625205981731412,0.0029249475359916684,-0.01632891124933958
1746576259198449700,7.61744970703125,0.013861352092027664,0.0032782910183072086,-0.020371866497211157
1746576259208528600,7.627528564453125,-0.0036959319084882733,0.01774491552710533,-0.011344565231818706
1746576259218606600,7.637606689453125,0.01399345403909683,-0.005513210463523864,-0.021091504274960607
1746576259228684800,7.647684814453125,0.028774843585491178,-0.020571955646574495,0.0073949873558245595
1746576259238763800,7.657763671875,0.020718962901830673,0.007354454416036605,0.03072875413224101
1746576259248841700,7.667841796875,0.028292613026499748,0.01660129844993353,0.022121029985789208
1746576259258921000,7.6779208984375,0.03615735505223274,0.014055413359403609,0.019057112370524553
1746576259268999000,7.6879990234375,0.013465630772709845,0.0012397709280252457,-0.003321618703380227
1746576259279076900,7.698076904296875,0.004023848688602448,-0.0009776128605008124,-0.00455097783524543
1746576259289155800,7.70815576171875,-0.010553542718291281,0.015917700099945066,0.0016901085114106535
1746576259299233800,7.71823388671875,0.012968202644586563,0.016780162148177624,0.009096731506101786
1746576259309311700,7.728311767578125,0.03775602242052555,0.01120586914718151,0.0043693924569524825
1746576259319390700,7.738390625,0.06023731881976127,0.014411094929277895,-0.017558233848586676
1746576259329468700,7.74846875,0.03956161053776741,0.018485504761338232,-0.025911818837188183
1746576259339548000,7.7585478515625,0.03684358375072479,0.009842764100432395,-0.0016830394498072564
1746576259349625900,7.7686259765625,0.011871055057644844,0.008161971406638623,0.014142324457876384
1746576259359703800,7.778703857421875,-0.0036661212921142577,0.00916764131784439,-0.005823737717419862
1746576259369783000,7.788782958984375,-0.014534721308946608,0.0210357737660408,-0.011654233969189225
1746576259379861000,7.798861083984375,-0.0026046295404434203,0.030095570795238016,0.0007483706818893551
1746576259389939700,7.808939697265625,0.0038350481182336804,0.03096650841087103,-0.01431572652971372
1746576259400017700,7.819017578125,0.026087211936712262,0.015929975059628485,0.011794391358550637
1746576259410095900,7.829095947265625,0.05461421824097633,0.0015337854385375975,0.047944019762054084
1746576259420174800,7.8391748046875,0.04765373157858848,0.0070823594763875005,0.03272297842307016
1746576259430252800,7.849252685546875,0.04262275167405605,-0.015636252810060976,-0.024509952682629225
1746576259440330800,7.859330810546875,0.015392799443006514,0.01262801090478897,0.0020463746031746267
1746576259450410000,7.869409912109375,0.01775485239923,0.029752748706936834,0.03325390696199611
1746576259460488000,7.879488037109375,-0.008713467809557915,0.034355858588218685,0.04237951750271022
1746576259470566700,7.889566650390625,-0.05254910240471363,-0.0009746902510523796,-0.011787906818836926
1746576259480644900,7.899644775390625,-0.034110943916440005,0.00239244809448719,-0.02697378551289439
1746576259490722800,7.909722900390625,-0.019081717088818548,0.02514496265053749,-0.007812427316606045
1746576259500801800,7.9198017578125,0.01996492966413498,0.020211597901582716,0.0026400661800056696
1746576259510879700,7.929879638671875,0.0480886158645153,0.025927052938938138,0.0014425086922012268
1746576259520957700,7.939957763671875,0.06430033047497272,0.05786269864290952,0.01810857947403565
1746576259531037000,7.950036865234375,0.06917465851306914,0.033165187498927114,-0.021028759503364563
1746576259541115000,7.960114990234375,0.0453437010705471,0.012137889300286768,-0.0024413287375122305
1746576259551193600,7.970193603515625,0.018760230049490928,-0.00009673837274312972,0.0018114150698296725
1746576259561271800,7.980271728515625,0.0195195239841938,0.013032207791507244,0.01537062414381653
1746576259571349800,7.990349853515625,0.0014513678520917891,0.015804010592401028,0.022962303115520624
1746576259581428700,8.0004287109375,0.013887071055173873,0.00919862097799778,-0.019106961127929388
1746576259591506700,8.010506591796876,-0.027334581649303434,0.008584580732882022,-0.01182538928501308
1746576259601585000,8.0205849609375,-0.032764205482602116,-0.011698036578297615,-0.01820491598797962
1746576259611664000,8.030663818359375,-0.013549217402935028,0.012862111921608447,-0.004331051474250853
1746576259621741800,8.040741943359375,0.023296119913458823,0.028819559510052203,0.026368074704706666
1746576259631820800,8.05082080078125,0.04861994626224041,0.03250760037302971,0.024676303959172217
1746576259641898800,8.060898681640625,0.03936930283606052,0.04009001832604408,-0.006166705936193466
1746576259651976700,8.070976806640624,0.03775602242052555,0.028807284550368784,-0.01398459487920627
1746576259662055700,8.0810556640625,0.0536000727623701,0.018818682238459585,0.012888287542480975
1746576259672134000,8.0911337890625,0.03385083167552948,0.015964461851119993,-0.01461560452543199
1746576259682212900,8.101212890625,0.02923836944401264,0.0009238368466496467,-0.010487820538319646
1746576259692290800,8.111290771484375,0.0038058220237493514,0.0032753684088587757,-0.01806970876837149
1746576259702368800,8.12136865234375,0.007107786178588866,0.011628186212480067,0.007689294127281755
1746576259712448000,8.131447998046875,-0.006025836160778999,0.006162906543910503,-0.01810302651608363
1746576259722526000,8.14152587890625,-0.022442717954516408,0.014455226331949234,0.0005682466083206236
1746576259732604000,8.15160400390625,0.0047451487004756925,0.03371493033617735,0.029143128908611832
1746576259742683000,8.161682861328124,0.005564648389816284,0.04152297373861074,0.0189392946771346
1746576259752760800,8.1717607421875,0.015437807628512382,0.02134206323623657,-0.0028812910573557016
1746576259762839800,8.18183984375,-0.0017085574835538863,0.020616087049245835,-0.02708321897042915
1746576259772917800,8.191917724609375,-0.006451368096470832,0.019610709398984908,-0.0038731151062995194
1746576259782996000,8.201995849609375,0.0342681803047657,0.013564122711122036,0.01932854972304776
1746576259793075000,8.212074951171875,0.05770166286230087,0.028797639939188956,0.03114886097414419
1746576259803153000,8.22215283203125,0.06476327181160449,0.03996317707598209,0.016191238078009335
1746576259813230800,8.23223095703125,0.05802081181406975,0.010200199235975742,0.006097367027029395
1746576259823309800,8.242309814453124,0.034117958179116246,0.006228665256500244,-0.011877156004868447
1746576259833387800,8.2523876953125,0.0024620061993598937,-0.0039335400566458695,-0.010554145506490021
1746576259843466800,8.262466796875,0.008632803788781165,0.018445172750949857,-0.027663283880706876
1746576259853544700,8.272544677734375,0.023783611169457434,0.005211304907500744,-0.0062413055423647164
1746576259863623000,8.282622802734375,0.03496317683160305,-0.006828092454373836,0.020605894448794425
1746576259873702000,8.292701904296875,0.017051088044047355,0.012379296840727328,0.009823840204253793
1746576259883779800,8.30277978515625,0.029030864173173902,0.025366496446728705,0.013885810679849236
1746576259893858800,8.31285888671875,0.03641863633692265,0.04995061034411192,0.006218527454975992
1746576259903936800,8.322936767578126,0.04025193088948727,0.03765899178683758,0.017211502770148216
1746576259914014700,8.3330146484375,0.027003742259740827,0.018828326849639414,0.005466412179730832
1746576259924093700,8.34309375,0.01256663610637188,0.022422551949322224,0.0187354061354883
1746576259934172000,8.353171875,-0.022546178328990935,0.01811608692705631,-0.016375380739569664
1746576259944249900,8.363249755859375,-0.04294657680094242,-0.015917407839000225,-0.03157369879009202
1746576259954328800,8.373328857421875,-0.017734394133090973,0.003836509422957897,-0.006661668112594634
1746576259964406800,8.38340673828125,0.014006898042559623,-0.0020198153898119925,0.027770671511627733
1746576259974485800,8.39348583984375,0.024722937846183776,0.014414309799671171,0.023720227077044544
1746576259984563700,8.403563720703126,0.052394204103946684,0.030742928788065907,0.0232868588947691
1746576259994641700,8.4136416015625,0.07363806766271591,0.021917817297577857,-0.00018894670084118842
1746576260004721000,8.423720947265625,0.0806008924126625,0.02698416077643633,0.023689704074617474
1746576260014798800,8.433798828125,0.06456161175966263,0.02927987049818039,-0.008674176978785544
1746576260024876800,8.443876708984375,0.042596448189020156,0.0046603930264711374,-0.022430479527451096
1746576260034955800,8.453955810546875,-0.009736381116509436,-0.017732056045532227,-0.026149737512599674
1746576260045034000,8.464033935546874,-0.004257657444477081,0.01080634843558073,0.011427585606463253
1746576260055113000,8.474113037109374,-0.02437982349693775,0.030557927609980103,0.021788510095793752
1746576260065191000,8.48419091796875,-0.04218260669112205,0.03160860570669174,0.01783896875241771
1746576260075268900,8.494268798828125,-0.027811551511287686,0.020686521936953067,0.006988835974037647
1746576260085347800,8.504347900390625,0.0031108254969120022,0.026343817046284673,0.002482957655843347
1746576260095425800,8.51442578125,-0.019209142860770224,0.010091478164494037,-0.0010771459785290061
1746576260105504800,8.5245048828125,-0.006643091276288032,-0.007107493917644024,-0.017123130366951227
1746576260115583000,8.5345830078125,0.02228898869752884,0.017190788775682447,0.004312182376999408
1746576260125661000,8.544660888671874,0.04924538468420505,0.03856237036734819,0.027131040167529135
1746576260135740000,8.554739990234374,0.06543371841907501,0.005734159737825394,0.004153904809057712
1746576260145817900,8.56481787109375,0.06389233419597148,-0.010047931283712386,-0.0017963818974792956
1746576260155895800,8.574895751953125,0.06396656847596169,0.0007075637474656105,-0.0005809964920394122
1746576260165974800,8.584974853515625,0.060902504730224606,0.017894553130865097,-0.005210482923593372
1746576260176052700,8.595052734375,0.06435059935748577,0.018774258574843404,-0.00243970303600654
1746576260186131700,8.605131591796875,0.033173370805382726,0.022616320955753326,0.007260949179995805
1746576260196210000,8.6152099609375,0.00817336958348751,0.014252397236227989,0.008238982165604829
1746576260206288000,8.625287841796874,-0.0027262100934982297,0.017792554061114785,-0.003322732948232442
1746576260216366800,8.635366943359376,-0.028909283620119092,0.012848960179090499,-0.0029748145597055554
1746576260226444800,8.64544482421875,-0.018716390907764432,0.013860475309193133,0.001665120200626552
1746576260236524300,8.655524169921875,0.0024596681118011473,0.004580605788528919,0.010994692348223178
1746576260246602500,8.6656025390625,-0.009923428121209143,0.028156711687147614,-0.009688578185718506
1746576260256680400,8.675680419921875,0.010238485419750212,0.03317892376333475,0.002519417208712548
1746576260266759400,8.685759521484375,0.018822189369797706,0.007785831570625305,0.0051323396534658965
1746576260276837400,8.69583740234375,0.06385024861991405,0.007977262489497662,0.015401311543025075
1746576260286915600,8.70591552734375,0.065394555452466,0.01433247673511505,0.026860808391403406
1746576260296994600,8.71599462890625,0.06500467935204506,-0.002542377959191799,0.004084931226074695
1746576260307072500,8.726072509765626,0.04976268655657768,0.028384090702235697,-0.016318554252106696
1746576260317151500,8.7361513671875,0.054552843442559236,0.01999269445389509,-0.021391491868533192
1746576260327229400,8.7462294921875,0.023629881912469862,0.03005406974107027,-0.010302088707871734
1746576260337307400,8.756307373046875,-0.023004443490505216,0.03383066567033529,-0.006719828040618449
1746576260347386400,8.766386474609375,-0.046177813807129854,0.03602788345366716,0.0060157714244909585
1746576260357464600,8.776464599609374,-0.03561316517293453,0.017909166178107262,0.023730638873204587
1746576260367542500,8.78654248046875,-0.01981061588525772,0.03750730835646391,0.031895405025128276
1746576260377621500,8.79662158203125,0.0016115268498659134,0.018616145403683185,0.0157866027998738
1746576260387699500,8.806699462890625,0.029456980630755424,0.021733692902326584,-0.002932984711974859
1746576260397778400,8.8167783203125,0.05249123473763465,0.03073766809105873,0.009582980653084813
1746576260407856400,8.8268564453125,0.08447159636616706,0.010782675299048423,0.021278807007987052
1746576260417934300,8.836934326171875,0.09120645757913588,-0.008816343662142753,0.02910184705015272
1746576260428013600,8.847013671875,0.0567506457477808,-0.016216975307464597,0.005489665191154926
1746576260438091500,8.857091552734374,0.025477555605769156,-0.01400748256444931,-0.005294928070344031
1746576260448170500,8.86717041015625,-0.030117490366101264,-0.004607201534509659,-0.016521456413064153
1746576260458248400,8.87724853515625,-0.01478255859017372,0.008400748598575591,0.007080441513936967
1746576260468326700,8.88732666015625,-0.012657821521162986,0.051150633783638474,0.02669821997452527
1746576260478405400,8.8974052734375,-0.04265840750932693,0.057604924489557736,0.022719032411556688
1746576260488483300,8.9074833984375,-0.05121931510567665,0.045860126160085196,-0.016136548748705536
1746576260498561300,8.917561279296875,-0.020080664998292922,0.004694003035128116,-0.02313112034378573
1746576260508640500,8.927640625,0.028647417813539505,-0.004010112424194813,-0.00038808600213378663
1746576260518718500,8.937718505859374,0.057584758484363556,0.013697393701970576,0.018138883280754088
1746576260528797400,8.94779736328125,0.08603811503052711,-0.011339140138030052,0.020180727839283645
1746576260538875400,8.95787548828125,0.06366437065899372,-0.00656301177740097,0.006790737852361053
1746576260548953600,8.96795361328125,0.06505553275644779,0.009492050966620445,0.0023469101860187948
1746576260559032300,8.9780322265625,0.05828676927387714,0.018974749583005903,-0.0004120331333018839
1746576260569110300,8.9881103515625,-0.0037578912287950512,0.03472498416155576,0.023294896070752292
1746576260579189500,8.998189453125,-0.026742460975050925,0.021144787098467347,0.014516327135730533
1746576260589267500,9.008267333984374,-0.043966567498445505,0.02865677016377449,-0.008602938373479991
1746576260599345400,9.018345458984374,-0.06470832675397396,0.004593465270102024,-0.01329378133714199
1746576260609424400,9.02842431640625,-0.05589549022316932,0.015856325301527977,0.012182532159611582
1746576260619502600,9.038502685546876,-0.01921498807966709,0.034842473061382766,0.006658124448638409
1746576260629580500,9.04858056640625,0.025986089649796484,0.03110328653305769,0.0016604805581271647
1746576260639659500,9.058659423828125,0.06170271519720554,0.033003859457373615,-0.0027914208168163895
1746576260649737500,9.068737548828125,0.07529869435131549,0.016588731229305265,-0.0009486242280341684
1746576260659816400,9.07881640625,0.0896463686555624,0.030848434989154336,0.01978529878091067
1746576260669894400,9.088894287109374,0.09074117815494537,0.025071897414326666,0.004803783552534878
1746576260679972400,9.098972412109376,0.06858487592637538,-0.0058890580385923385,-0.02800153939174488
1746576260690051600,9.109051513671876,0.036948213168978686,-0.009817921920120716,-0.01166243554195389
1746576260700129500,9.119129638671875,0.0008194996893405913,-0.014203589658439158,0.0028790077687241137
1746576260710208500,9.12920849609375,-0.048507133537530896,-0.015379647700488566,-0.011344820960145443
1746576260720286500,9.139286376953125,-0.04119827182888985,0.0271574715167284,0.005374660509359091
1746576260730364700,9.14936474609375,-0.015392799443006514,0.04992576816380024,0.020670210122969
1746576260740443400,9.159443359375,0.005791442883014679,0.025083295591175555,0.028680790360178798
1746576260750521300,9.169521240234374,0.014704232656955718,0.018351649248600006,0.01832772038374096
1746576260760599300,9.179599365234376,0.05340951862633228,0.014134031553566455,-0.0008738967576995491
1746576260770678500,9.189678466796876,0.05781213749945163,0.0020434885263442993,0.0010592997945845126
1746576260780756500,9.199756591796875,0.09050152418017386,-0.007818857057392596,-0.016095449553336947
1746576260790835500,9.20983544921875,0.06568623187541961,-0.013870996703207492,0.0004734992632642388
1746576260800913400,9.219913330078125,0.05135960035920143,0.017300678890943527,0.0015054909258149563
1746576260810991600,9.22999169921875,0.02390402267873287,0.019069442129135132,0.015026888740062713
1746576260821070300,9.2400703125,0.006235094997286797,0.035249008035659786,-0.0059588901381008325
1746576260831148300,9.250148193359376,-0.05130991599857807,0.023282091388106343,-0.005787387762404978
1746576260841227500,9.2602275390625,-0.06088204646408558,0.004703647646307945,-0.012609872459899633
1746576260851305500,9.270305419921876,-0.054935120758414266,0.025436639073491096,-0.001657430084515363
1746576260861383400,9.280383544921875,-0.01631049880981445,0.02721796953231096,0.023988303428702056
1746576260871462400,9.29046240234375,0.021570611295104025,0.01971826142668724,-0.005855959486588835
1746576260881540600,9.30054052734375,0.04393441879451274,0.009869652107357978,0.002018189688306302
1746576260891618600,9.31061865234375,0.07514204248487949,0.018387305083870886,0.006305986542720347
1746576260901697300,9.320697265625,0.09110942694544792,0.02192073990702629,0.0167786643108353
1746576260911775200,9.330775146484376,0.07621171754300594,0.019381284557282923,0.02342573764249682
1746576260921854500,9.3408544921875,0.05180734412670135,-0.0014034370571374892,0.016032704781740903
1746576260931932400,9.350932373046875,0.026101824983954428,0.008695055370032788,-0.016357205762062222
1746576260942010400,9.36101025390625,-0.008214286115765572,0.03900514569878578,-0.012938866952247916
1746576260952089600,9.371089599609375,-0.03527998769581318,0.01936053403019905,-0.026793971966579556
1746576260962167600,9.38116748046875,-0.03529576978683471,-0.00455050291121006,-0.0170925890982151
1746576260972246500,9.39124658203125,0.0009288052827119827,0.01473638136088848,0.018927421576250342
1746576260982324500,9.401324462890624,0.03626549160182476,0.03476882330328226,0.03671564652211964
1746576260992402400,9.41140234375,0.059170566371083255,0.0425508554816246,0.021206253228429704
1746576261002481400,9.4214814453125,0.08549684776067733,0.019525076942145822,0.010604944111965596
1746576261012559400,9.431559326171875,0.09059913933575153,0.015746435186266897,0.014561627582181245
1746576261022637300,9.44163720703125,0.06213000069856643,0.018496610677242276,0.00009584332359954714
1746576261032716500,9.451716552734375,0.02140051542520523,0.012713935622572899,0.008778441070858388
1746576261042794500,9.46179443359375,-0.022878186762332914,0.012835516175627708,0.0000014795710332691668
1746576261052873500,9.47187353515625,-0.04595452644526958,0.023970365913212298,-0.02179384385803714
1746576261062951700,9.48195166015625,-0.03844517372846603,-0.004067980091273784,-0.0021743483643978834
1746576261073029600,9.492029541015626,-0.0390390479683876,0.0014706570744514465,0.000442136010620743
1746576261083108400,9.5021083984375,-0.05607786105275154,0.008327975623309612,0.012800572726409882
1746576261093186300,9.512186279296875,-0.04480301832258701,0.020061375775933265,-0.0033447255843318995
1746576261103265500,9.522265625,-0.008147066098451615,0.033712007726728915,-0.009990867334231733
1746576261113343500,9.532343505859375,0.028088614886999128,0.020661679756641387,0.005500424047186971
1746576261123421400,9.54242138671875,0.07061433592736721,0.010431085382401943,-0.0006229907365515828
1746576261133500400,9.55250048828125,0.09341828840970992,0.009254735079407692,-0.019559600266255438
1746576261143578600,9.56257861328125,0.0996937154173851,0.0004208557605743408,-0.001884462039731443
1746576261153656600,9.572656494140626,0.06895604732632636,-0.004877835169434547,-0.010460658536758273
1746576261163735300,9.5827353515625,0.03282850289046764,0.01019289271235466,0.00864639392271638
1746576261173813200,9.592813232421875,0.007848959934711457,0.02483078213483095,0.02509803650258109
1746576261183892500,9.602892578125,0.014278116199374198,0.03861585412025451,0.016597243329323826
1746576261193970400,9.612970458984375,-0.016655366724729538,0.012500000610947607,0.010549012673646212
1746576261204048400,9.62304833984375,-0.04588146120905876,0.008096797215938568,0.013170903876144438
1746576261214127600,9.633127685546874,-0.018503624939918518,0.010056114590168,-0.027078177469130604
1746576261224205600,9.64320556640625,-0.0030775077491998672,0.008085691300034522,-0.0005404087533243
1746576261234284300,9.6532841796875,0.0016354922473430632,0.002104278802871704,-0.008857972580473869
1746576261244362200,9.6633623046875,0.008059387814998627,-0.0016229250267148017,-0.008512958535086363
1746576261254440200,9.673440185546875,0.05092997677028179,0.010495967312157153,0.005716879809461534
1746576261264519200,9.683519287109375,0.08282850533425808,0.03888122705817222,0.02052939514648169
1746576261274597000,9.69359716796875,0.06678630207180976,0.040003216825425625,0.025341782130580394
1746576261284675000,9.703675048828124,0.041427404409646984,0.03400543771535158,-0.0030933811717666682
1746576261294754300,9.71375439453125,0.024716508105397224,0.014443535894155502,-0.0019275522627867758
1746576261304832300,9.723832275390626,0.028208441874384878,0.0011748889982700348,0.01896278515057638
1746576261314911200,9.7339111328125,0.007059270861744881,0.006660334672033787,-0.019908541568089275
1746576261324989400,9.743989501953125,-0.01975099465250969,-0.005582184046506881,-0.02693893339522183
1746576261335067400,9.7540673828125,-0.0010129764348268508,0.021866379371285438,0.006355031582526862
1746576261345146000,9.76414599609375,0.01115793835222721,0.012790215729176997,0.027823662074189633
1746576261355224000,9.77422412109375,0.013400748842954635,0.027615152156352994,0.011788747069053352
1746576261365303300,9.78430322265625,-0.007466682618856429,0.0061895022898912425,-0.01780046337293461
1746576261375381200,9.79438134765625,0.03562017943561077,0.020261866784095764,-0.0015701719261705875
1746576261385459200,9.804459228515626,0.06944178501665592,0.019661270542442797,0.02806362657621503
1746576261395538200,9.8145380859375,0.05013736508786678,0.021027005937695502,0.01985376090724021
1746576261405616400,9.824616455078125,0.03811725694835186,0.00929535935074091,-0.025993396173417567
1746576261415694300,9.8346943359375,0.05552314977943897,0.024132862998545168,-0.019882950469106434
1746576261425773000,9.84477294921875,0.045267713224887846,0.016788345454633233,0.000510050147678703
1746576261435851000,9.85485107421875,0.03261339883506298,0.012761574156582354,0.028805549251008776
1746576261445930200,9.86493017578125,0.0017781155884265898,0.007094342175126075,0.01361303988676518
1746576261456008200,9.87500830078125,-0.023205519020557404,0.011105915904045104,-0.009214567465800792
1746576261466086100,9.885086181640625,-0.08456745795607566,-0.0035711364850401876,-0.033425445870310065
1746576261476165400,9.895165283203125,-0.08327040388286114,-0.018752046743035315,-0.018714966135658324
1746576261486243300,9.905243408203125,-0.04892155955731869,0.007894844903051852,0.04231379532273859
1746576261496322000,9.915322021484375,-0.00495265397131443,0.0450952792674303,0.037633455486781896
1746576261506400000,9.92539990234375,0.04025836063027382,0.03461304821968078,0.012955050902068613
1746576261516478200,9.935478271484374,0.07699614591896534,0.0009592004209756851,0.0071305825322866435
1746576261526557200,9.94555712890625,0.09751286424696445,0.008858136977255343,-0.0007648103600367903
1746576261536635100,9.95563525390625,0.07455459798574447,0.023644494959712027,-0.011745839509088545
1746576261546714400,9.96571435546875,0.05861351701021194,0.007782616700232029,-0.007957735805120318
1746576261556792300,9.975792236328125,0.04005085535943508,0.007637363010644912,-0.0013412950737401843
1746576261566870300,9.985870361328125,-0.0054500820994377135,0.0013473229557275771,0.0011737747534178197
1746576261576949000,9.995948974609375,-0.019679682981967924,0.012429273462295531,0.007422733879275619
1746576261587027200,10.006027099609375,-0.019662731847167013,0.03169862207770347,0.026423476420063523
1746576261597105200,10.016105224609374,-0.024445874470472334,0.018692717771232128,0.01907936073495075
1746576261607184100,10.02618408203125,0.013534019833803175,0.01637421169579029,-0.00017247049007564782
1746576261617262000,10.036261962890626,0.02155775181353092,0.003612929800152778,-0.01759005375895649
1746576261627341300,10.04634130859375,0.05399404051601887,0.006521510723233223,-0.008504172440432011
1746576261637419300,10.056419189453125,0.0666582917779684,0.016364274823665616,0.0062860397332347925
1746576261647497200,10.066497314453125,0.03880991538763046,0.014000760562717913,0.011560874863620847
1746576261657576200,10.076576171875,0.006903788039088248,0.022722703939676285,-0.014389960809703915
1746576261667654400,10.086654296875,0.001672317126393318,0.022997721488773822,0.016485015126504004
1746576261677733000,10.096733154296874,0.003212532305717468,0.03892418941706419,0.045596634651999916
1746576261687811000,10.10681103515625,0.0001958148330450058,0.03239128051698208,0.012843005362339318
1746576261697889000,10.116888916015625,-0.012852467310428618,0.020176526588201522,-0.02610730487667024
1746576261707968300,10.12696826171875,0.009666823011636733,0.012113339380919932,-0.029475210407190023
1746576261718046200,10.137046142578125,0.02786591204702854,-0.012589140199124813,-0.014890275014657527
1746576261728124200,10.147124267578125,0.021730185770988463,0.009131693221628665,-0.018094094290956854
1746576261738203400,10.157203369140625,0.027883447703719137,-0.000018704700469970702,-0.0024412008733488617
1746576261748281300,10.16728125,0.040675124737620354,-0.006887421426177025,0.0402609544461593
1746576261758360000,10.177360107421874,0.014112696504592894,0.035164544622600075,0.03637065074304119
1746576261768438000,10.18743798828125,0.023714053064584732,0.014777882415056228,0.009694533002469688
1746576261778516200,10.19751611328125,0.04220131139159202,0.03197276284396648,-0.021564656478352845
1746576261788595200,10.20759521484375,0.025989596781134605,0.037620121081173415,-0.0007494483941234648
1746576261798673200,10.217673095703125,0.03288987768888473,0.018448679882287978,0.010697883092425763
1746576261808752400,10.22775244140625,0.047404725253582,-0.005327040241658687,-0.013460406608320772
1746576261818830300,10.237830322265625,0.036248540467023846,-0.001267243456840515,-0.0162068557722494
1746576261828908300,10.247908203125,0.049508419534564016,-0.008932955779135226,-0.020247363334707915
1746576261838987000,10.257987060546874,0.05557751031517982,-0.010598258642852305,-0.02195274248048663
1746576261849065200,10.268065185546876,0.03933423152267933,0.009335691361129283,0.0195752179604955
1746576261859143200,10.27814306640625,0.017405308309197426,0.023126024043560026,-0.00007755874823778867
1746576261869222100,10.28822216796875,0.008225976553559302,0.014988310295343399,-0.01269086527423933
1746576261879300000,10.298300048828125,-0.020177111110091208,0.014022680133581161,0.002082742824498564
1746576261889379300,10.30837939453125,-0.006344400590658187,0.01584755747318268,-0.021699827165342866
1746576261899457300,10.318457275390625,0.026497546303272244,0.00870148511081934,-0.008614975871145725
1746576261909535200,10.32853515625,0.015202829828858375,0.016357552821934223,-0.0035660401848144826
1746576261919614200,10.3386142578125,0.012858312529325485,0.002201017175614834,-0.009149466340336948
1746576261929692200,10.348692138671876,0.02668868496119976,0.0041547815918922424,-0.018382281848881393
1746576261939771100,10.358771240234375,0.01507189692556858,0.02093874313235283,0.031028613861650227
1746576261949849000,10.36884912109375,0.010878536888957024,0.018403963957726956,0.04596987014487385
1746576261959927000,10.378927001953125,-0.021745383340120314,0.018571721740067004,0.02651181229064241
1746576261970006300,10.38900634765625,-0.0685363606095314,0.03555442072302103,0.01717049490632489
1746576261980084200,10.399084228515624,-0.08126607832312584,0.022873802848160266,0.002197400446422398
1746576261990162200,10.409162109375,-0.01526362010538578,0.026633447642624375,0.0004831986733712256
1746576262000241200,10.4192412109375,0.014749825364351273,0.03683510818332433,0.011379289485327898
1746576262010319400,10.4293193359375,0.03434475267231464,0.019672668719291686,-0.03345576794333756
1746576262020398000,10.439398193359375,0.06924363209605217,0.011980945172905922,-0.029526264740992337
1746576262030476000,10.44947607421875,0.09005553397834301,0.01673895335495472,0.005660747441742569
1746576262040554200,10.45955419921875,0.07592413277328014,0.015515256778895854,0.013746749269030988
1746576262050633200,10.46963330078125,0.05464344433546066,-0.0013467384338378906,0.010748590366356075
1746576262060711200,10.479711181640624,0.005968553015589714,0.02564472886621952,-0.004811144875083119
1746576262070790400,10.489790283203124,0.009766191732883452,0.01563391472250223,0.008970730506256222
1746576262080868400,10.499868408203126,-0.013240589845180511,0.005821253499388695,0.021496395281422883
1746576262090946300,10.5099462890625,-0.021997312274575232,0.021248247472941875,0.025712149812933054
1746576262101025000,10.52002490234375,-0.01464753403365612,0.019564532169699667,-0.006306954657100141
1746576262111103200,10.530103271484375,-0.004827566286921501,0.022224983550608157,-0.003300192322861403
1746576262121182200,10.54018212890625,-0.0015086509972810744,0.03325900326222181,0.009621486032567917
1746576262131260200,10.55026025390625,-0.0003647416591644287,0.020653496450185774,-0.013379066734109072
1746576262141338000,10.560338134765624,0.038459786775708195,0.007493570625782013,-0.011344948824308813
1746576262151417300,10.570417236328124,0.044271687924861906,0.008882394635677337,0.005672675341553986
1746576262161495300,10.580495361328126,0.05310732080936432,-0.013578443497419357,0.006563103108946234
1746576262171573200,10.5905732421875,0.0447422280460596,0.023803484913706777,-0.0019133958732709287
1746576262181652200,10.60065234375,0.049476270830631254,0.04652385076582431,0.014681034444458781
1746576262191730200,10.610730224609375,0.04697451714277267,0.04406272134929895,-0.012841215264052151
1746576262201809200,10.62080908203125,0.013501871129870413,0.037248657420277595,0.0032328809740021823
1746576262211887000,10.63088720703125,-0.021549568507075307,0.005323825371265411,0.0172812618044205
1746576262221965300,10.64096533203125,-0.04148468755483627,0.012755144415795802,0.039279596992302684
1746576262232043500,10.65104345703125,-0.0420236167371273,0.034496728363633156,-0.016480978272203354
1746576262242121700,10.661121826171875,-0.043728082567453384,0.015911270359158514,-0.02060898145502433
1746576262252200700,10.67120068359375,-0.011743629285693167,0.0049193362236022945,-0.0018987462934106588
1746576262262278700,10.681278564453125,0.0484592027425766,0.01620908426195383,-0.0015442337673157453
1746576262272356600,10.691356689453125,0.02668985400497913,0.016069091269373892,-0.00035009207930415865
1746576262282435600,10.701435546875,0.05756430021822452,0.020168051020801065,-0.003705704383831471
1746576262292513500,10.711513427734374,0.06635843204855918,0.019491466933488844,0.014431407064944505
1746576262302592500,10.721592529296874,0.062005497536063194,0.0310351897329092,0.019108897356688977
1746576262312670700,10.731670654296876,0.06671908205449581,0.017410861267149448,0.014201434233970939
1746576262322748700,10.741748779296875,0.05605564922094345,0.006860241158306598,0.005156505980342626
1746576262332827600,10.75182763671875,0.04551496598422527,0.011322481264173984,0.008560651868022977
1746576262342905600,10.761905517578125,0.006580547434091567,0.022592940080165862,-0.004619750488828868
1746576262352983800,10.77198388671875,-0.001149170035123825,0.01964022775441408,0.0041356019673869015
1746576262363062500,10.7820625,-0.015557050094008444,0.03139437843412161,-0.011518040368892252
1746576262373140500,10.792140380859376,-0.03933656961023807,0.02298515426814556,-0.0018813019682653246
1746576262383219700,10.8022197265625,-0.01970657098889351,0.008869535154104232,0.0023773966558277605
1746576262393297700,10.812297607421876,-0.0188093298882246,0.026400807930529117,0.01889065149612725
1746576262403375600,10.822375732421875,-0.047179099804162974,0.014032032483816147,0.004253145666141062
1746576262413454600,10.83245458984375,-0.009045476242899895,0.0070674541682004925,0.008068849763087927
1746576262423532800,10.84253271484375,0.043398996743559834,0.006337678588926792,0.006214947258401661
1746576262433611500,10.852611572265625,0.06563947012424469,0.026357845571637152,0.015477847377955913
1746576262443689500,10.862689453125,0.0656254415988922,0.025777415335178373,-0.00944030251307413
1746576262453767400,10.872767333984376,0.05742869113981723,0.013734803102910517,-0.013165131722483783
1746576262463846700,10.8828466796875,0.0621229864358902,0.03682867844253778,0.011809168802574276
1746576262473924600,10.892924560546875,0.047153380841016765,0.03087883012741804,0.025002558505162597
1746576262484003600,10.903003662109375,-0.022121230915188788,0.022344810537993906,0.0026799780652858314
1746576262494081800,10.913081787109375,-0.04487608355879783,0.0049985389396548265,-0.016978698661271482
1746576262504159700,10.92315966796875,-0.03198562232553959,0.019172025720775126,-0.002761263140570372
1746576262514238700,10.93323876953125,0.01862812810242176,0.024506372486054896,0.03661194868562743
1746576262524316700,10.943316650390624,0.06343991425335407,0.024097207163274285,0.03345713791651651
1746576262534394600,10.95339453125,0.05400631547570228,0.023833587791025637,0.006355670903343707
1746576262544473600,10.9634736328125,0.06291676716208458,0.012470774516463279,-0.005759093249682336
1746576262554551600,10.973551513671875,0.06170096163153648,-0.004391805218160152,-0.0008433737552724778
1746576262564630500,10.983630615234375,0.06416764400601387,-0.008427052083611488,0.004919117027893662
1746576262574708700,10.993708740234375,0.04154956948459148,0.0029769699841737745,-0.017480711632966994
1746576262584786700,11.00378662109375,0.03347732218801975,-0.00019873744249343872,0.016684099628869443
1746576262594865700,11.01386572265625,-0.008439911565184593,0.004169394639134407,0.03697380426796153
1746576262604943600,11.023943603515624,-0.050909518504142756,-0.0029237784922122954,0.003265924727078527
1746576262615022600,11.034022705078126,-0.09896715470850467,0.011786299383640288,-0.01430385342882946
1746576262625100500,11.0441005859375,-0.08681260653436183,0.05033522574752569,0.010823189972527325
1746576262635178500,11.054178466796875,-0.02983224368393421,0.035308044746518136,0.019932379101403056
1746576262645257700,11.0642578125,-0.016665888118743897,0.0347454424276948,0.017877565463446078
1746576262655335700,11.074335693359375,0.027052257576584814,0.029475685331225392,0.0032365890347398818
1746576262665414700,11.08441455078125,0.08670739259421825,0.014467501291632651,-0.0001508249138481915
1746576262675492600,11.09449267578125,0.11742518694102763,-0.005972060146927833,-0.008030837573949247
1746576262685570800,11.10457080078125,0.11676526172757148,0.0044619478449225425,0.0340160504409112
1746576262695649500,11.1146494140625,0.09759469731152057,0.010320318484306335,0.0323269648428075
1746576262705727500,11.1247275390625,0.051293549385666846,0.011028759014606475,0.0031824476947076618
1746576262715805400,11.134805419921875,-0.01087386071383953,-0.003669628423452377,-0.012128810944687575
1746576262725884700,11.144884765625,-0.052019525572657585,0.0010927636727690697,-0.016514022025279698
1746576262735962600,11.154962646484375,-0.06351297948956489,0.007622165441513061,-0.00300340133337304
1746576262746041600,11.16504150390625,-0.05040624515712261,0.020335808803141116,-0.00032435484984889623
1746576262756119800,11.175119873046874,-0.04522504312694072,0.04157616523057222,0.017076953137665985
1746576262766197800,11.18519775390625,-0.03677110303640366,0.022443010215461252,0.004739851470850408
1746576262776276500,11.1952763671875,0.001827215427160263,0.04941051211804151,0.010304189333412796
1746576262786354400,11.2053544921875,0.026612697115540502,0.06075315938740968,0.01409200077643618
1746576262796433700,11.21543359375,0.03977028485238552,0.025606150421500204,0.0017063107275404035
1746576262806511600,11.22551171875,0.04082476234138012,-0.011837737309932707,-0.0036093313372693955
1746576262816589600,11.235589599609375,0.0655430240124464,-0.02193506069332361,0.00466391842411831
1746576262826668500,11.24566845703125,0.05313596238195896,-0.012681786918640137,0.027759565595723686
1746576262836746800,11.255746826171874,0.06960194401443004,0.001383271051943302,0.019183624827023595
1746576262846825500,11.265825439453126,0.031216976040601727,-0.014922843843698502,-0.01730341883730143
1746576262856903700,11.275903564453126,0.03358545873761177,0.011749766765534877,-0.01489833045694977
1746576262866981600,11.285981689453125,0.05506196200847625,0.01337912153303623,0.020211579635273664
1746576262877060600,11.296060546875,0.029965514674782753,0.01118979479521513,0.028147998657729476
1746576262887138600,11.306138671875,0.02696048763990402,0.007910334733128547,-0.012454901093896478
1746576262897216500,11.316216552734375,0.033704116681218144,0.018794716840982436,0.0033409627246670424
1746576262907295700,11.326295654296874,0.024539982494711874,0.032764205482602116,0.017698427770566193
1746576262917373700,11.336373779296874,0.02208849768936634,0.0367538596406579,0.032912765374127774
1746576262927452700,11.34645263671875,-0.002209492743015289,0.023382336892187595,0.02903320226073265
1746576262937530600,11.356530517578125,-0.031385318344831464,0.005103460618853569,-0.0029605120397172865
1746576262947608800,11.36660888671875,-0.03648234922289848,0.032954759618639945,0.011145864321943371
1746576262957687600,11.3766875,-0.05606383252739906,0.035167759492993354,0.002333484448865056
1746576262967765500,11.386765625,-0.03793547064065933,-0.0010778583645820617,-0.006044887921120971
1746576262977844700,11.3968447265625,0.006458382359147072,0.024473346999287604,0.002880797867011279
1746576262987922700,11.406922607421874,0.028999884513020515,0.005581015002727508,0.01217900676196441
1746576262998000600,11.417000732421876,0.05899813241362571,0.002602291452884674,0.019769461890961973
1746576263008079600,11.42707958984375,0.08178045758605003,0.024971651910245418,0.030118056621681898
1746576263018157800,11.43715771484375,0.09651976155638695,0.020484569624066352,0.013368362677004187
1746576263028235800,11.44723583984375,0.10335223792493342,0.006503682805597781,0.009017620121594518
1746576263038314500,11.457314453125,0.03382861984372139,0.0035118075132369994,-0.0009269786518067121
1746576263048392400,11.467392333984375,-0.032598785787820814,-0.008506839321553706,-0.00022222791593521832
1746576263058471700,11.4774716796875,-0.07637655271589755,0.036841537924110886,0.0024488544568419457
1746576263068549600,11.487549560546874,-0.08912263704240321,0.028976795898377893,0.015907836293056605
1746576263078627600,11.497627685546876,-0.08666121536493301,0.02153174058943987,-0.01736227288506925
1746576263088706800,11.507706787109376,-0.07313479431569576,0.015003215603530407,-0.014867643057741223
1746576263098784800,11.51778466796875,-0.009994155269861221,0.03180500506162643,0.004405121357459575
1746576263108863500,11.527863525390625,0.05423486353456974,0.04493891966193914,0.020179997186921535
1746576263118941400,11.53794140625,0.08894318882226944,-0.0096443189188838,-0.007688928801100701
1746576263129019400,11.548019287109375,0.13375146784186362,-0.01860503948777914,0.0010198445670306683
1746576263139098600,11.5580986328125,0.13880115244686603,0.0060059624165296555,-0.005463836630154401
1746576263149176600,11.568176513671874,0.11849486199915409,0.008744447469711304,-0.014669837197009473
1746576263159255600,11.578255615234376,0.052958852249383924,0.0031689854249358175,-0.011069949541520326
1746576263169333800,11.588333740234376,-0.005156067588925361,-0.001544306832551956,0.00925553879700601
1746576263179411700,11.59841162109375,-0.05945289044380188,0.024570962154865265,0.013074001106619835
1746576263189490400,11.608490478515625,-0.12592530426084994,0.042891924004256725,0.014764365346357226
1746576263199568400,11.618568359375,-0.12217910346984863,0.04843319151848555,0.015030341072473674
1746576263209646600,11.628646484375,-0.09484919799566269,0.030462066020071506,0.018214268338214604
1746576263219725600,11.6387255859375,-0.03914893808364868,0.02025982095748186,0.02378547433298081
1746576263229803500,11.648803466796876,0.03996142351031303,0.008424713996052742,0.02503655210630968
1746576263239884000,11.658884033203124,0.0960644190043211,0.013559738796949385,-0.013480682211369275
1746576263249962000,11.6689619140625,0.15503917054235936,0.010252513945102692,-0.01196865194691345
1746576263260040000,11.6790400390625,0.17726795348525046,0.005460018971562385,0.010497392084263264
1746576263270119200,11.689119140625,0.15789572901725768,0.0024509002834558484,0.001066533252969384
1746576263280197000,11.699197021484375,0.0754290427327156,0.0015609657064080238,-0.014173906906228512
1746576263290276000,11.709276123046875,0.0198550395488739,-0.0007522796720266342,-0.014556914874445647
1746576263300354000,11.71935400390625,-0.03922784853875637,0.017267068882286546,-0.020100958867650478
1746576263310432300,11.729432373046874,-0.06291384455263614,0.020028642550110817,0.008142408189643175
1746576263320511000,11.739510986328124,-0.0805184748262167,0.010197861148416995,0.014150854824203998
1746576263330589200,11.749589111328126,-0.0877507641673088,0.01914046153873205,-0.015667579530086368
1746576263340667100,11.759667236328125,-0.054683191823959344,0.032031799554824825,-0.01360898476615548
1746576263350746000,11.76974609375,-0.013016717961430549,0.02294862165004015,0.014764748938847333
1746576263360824000,11.779823974609375,0.040028643527626986,0.008012333802878855,0.033253614701051266
1746576263370903000,11.789903076171875,0.06550444556772708,0.01677636275589466,0.0099450736974366
1746576263380981200,11.799981201171875,0.10121873302757739,0.010887889239192008,0.009492525890655815
1746576263391059200,11.81005908203125,0.1423755038022995,-0.007236965516209602,0.01126474146125838
1746576263401138200,11.82013818359375,0.13002572531700132,-0.003053542351722717,0.019197141895722598
1746576263411216100,11.830216064453126,0.0785877990245819,0.011070552329719065,-0.009334905909840017
1746576263421295000,11.840295166015625,0.010784428864717482,0.013920096541941165,-0.020043273863662035
1746576263431373000,11.850373046875,-0.05193769250810146,0.01483487329930067,-0.004374251295160502
1746576263441451000,11.860450927734375,-0.09305237770676612,0.0060576926037669175,-0.0030598624946549533
1746576263451530200,11.8705302734375,-0.10338204854130745,-0.002017477302253246,0.0011212408485822378
1746576263461608200,11.880608154296874,-0.10115385109782218,0.03364683353602886,0.00924324557101354
1746576263471687200,11.890687255859374,-0.07093874557614326,0.013199088791012763,-0.0002412248773500323
1746576263481765000,11.90076513671875,-0.0083960724234581,0.022524258758127687,0.012477277322486042
1746576263491843300,11.91084326171875,0.05511690706610679,0.023315116874873636,0.016381536485720424
1746576263501922000,11.920922119140625,0.07828852381706237,0.002720657135546207,-0.00500233833193779
1746576263512000000,11.931,0.09589198504686355,0.010310381612181663,0.0024460597115568816
1746576263522078000,11.941077880859375,0.10466565861105918,-0.003946984060108662,0.012266246654000133
1746576263532157200,11.9511572265625,0.04654313998818397,0.0004994739547371864,0.017251871313154695
1746576263542235100,11.961235107421874,0.032979894059896465,0.024752456201612948,0.00041877340134233236
1746576263552314000,11.971314208984374,0.028673136776685714,0.01972469116747379,-0.013864895755983889
1746576263562392300,11.981392333984376,0.001239186406135559,0.005609948836266994,0.007633654949907213
1746576263572470300,11.99147021484375,-0.015433715975284576,0.018752631264925,0.005071805105265229
1746576263582549000,12.001549072265625,-0.022926117557287216,0.012787000858783721,-0.0241864198166877
1746576263592627000,12.011626953125,0.04925532155632972,0.0018999884024262427,-0.012821030992548912
1746576263602706200,12.0217060546875,0.05724748935401439,0.007321721190214157,0.026533987589832393
1746576263612784000,12.0317841796875,0.04436579594910144,0.01782207241654396,0.01647460333034396
1746576263622862000,12.041862060546874,0.021975100442767143,0.010960369953513144,-0.02696087123239413
1746576263632941000,12.051941162109374,0.026860534396767614,0.008645955531299114,0.00009434548625722527
1746576263643019300,12.062019287109376,0.0013847323566675185,0.009311141441762446,0.021235296659823506
1746576263653098000,12.072097900390625,-0.013159925824403762,-0.0039461072772741315,0.006492741286475211
1746576263663176000,12.082176025390625,-0.019338906720280647,0.023080431336164473,0.010917900784965604
1746576263673254000,12.09225390625,-0.0040916532278060915,0.021618542090058326,0.005414079204294831
