time,seconds_elapsed,z,y,x
1746729245180081400,0.013081298828125,-0.09322013548910617,-0.002518175099696964,0.0024000834116712213
1746729245190099500,0.023099365234375,-0.12419628851115704,-0.012781639697076751,-0.0007491743994876742
1746729245200116500,0.033116455078125,-0.06868307560384274,0.0014222604886163024,-0.008863068880699574
1746729245210134500,0.043134521484375,-0.13632044154703615,-0.00902965761926025,-0.0037193858493119476
1746729245220151600,0.053151611328125,-0.06734042882323264,0.006098143345164135,-0.0016073986640200019
1746729245230168300,0.063168212890625,-0.1506879895955324,-0.010354302952298894,0.011901742456853388
1746729245240186400,0.073186279296875,-0.04968436062335968,0.007786096432106569,-0.0017830657581798732
1746729245250203400,0.083203369140625,-0.1566752473115921,-0.008038819951005279,-0.0032613216171972453
1746729245260221400,0.093221435546875,-0.044749242308735844,-0.006477927309833467,0.00675648852288723
1746729245270238500,0.103238525390625,-0.16475918504595755,-0.006770032991049811,0.009203571147751062
1746729245280255200,0.113255126953125,-0.046699791854619976,0.003522383706178516,0.001594904508627951
1746729245290273500,0.1232734375,-0.15353870285153387,-0.002883181620342657,0.006483644664566963
1746729245300290300,0.133290283203125,-0.059114452269673344,-0.00005299969571642577,-0.008956647181976586
1746729245310308400,0.143308349609375,-0.14634674552083016,-0.0012708510528784244,-0.007118782496638595
1746729245320325400,0.153325439453125,-0.0631464842647314,-0.004568869684962555,0.00654903805097565
1746729245330343400,0.163343505859375,-0.14289981993734835,-0.007930108012678102,0.008180109851527959
1746729245340360400,0.1733603515625,-0.06823182470500469,0.011011680015642195,0.005384542582556605
1746729245350377200,0.183377197265625,-0.12943126655519008,-0.00542292009787634,-0.010890976245421916
1746729245360395500,0.1933955078125,-0.07825520606935024,0.0026000081642530855,-0.004240815907530487
1746729245370412300,0.203412353515625,-0.12389175260663032,-0.010277146062860265,0.0033548451195470987
1746729245380430300,0.213430419921875,-0.0813935040950775,-0.0019236432726494968,0.0077201824558898804
1746729245390447400,0.223447265625,-0.1280798519462347,0.00470060630585067,0.0032779256921261547
1746729245400465400,0.23346533203125,-0.0851367822766304,0.003230268891807645,0.002123768954630941
1746729245410482400,0.243482421875,-0.11640753433108329,0.001389070605067536,-0.011953125584218651
1746729245420499200,0.253499267578125,-0.10159458060264587,-0.0004323452689684927,-0.0037967984670773144
1746729245430517500,0.263517578125,-0.11551087775230406,-0.004872063015773892,0.002135568990278989
1746729245440534300,0.2735341796875,-0.09770458742678165,-0.00855533637208864,0.006789587074890732
1746729245450552600,0.283552490234375,-0.0980026935905218,0.0018284666693303734,-0.0026363215866498646
1746729245460569300,0.2935693359375,-0.1081762970805168,-0.00003568323473446071,-0.007685001544654369
1746729245470586600,0.303586669921875,-0.1108691894263029,-0.0009201744516845792,-0.0021139964792877435
1746729245480604400,0.3136044921875,-0.10907295365929603,-0.0013869425800628959,0.0014876812744885682
1746729245490621400,0.323621337890625,-0.09994505982995033,-0.0032561522517353296,0.00631153950067237
1746729245500639500,0.333639404296875,-0.10787468378543853,-0.002558507110085338,0.0061797298145480455
1746729245510656300,0.34365625,-0.09246142607629299,0.00004398527219891548,-0.00745608815960586
1746729245520674600,0.353674560546875,-0.10487667101323604,0.002879281763359904,-0.001505819719377905
1746729245530691300,0.36369140625,-0.09394903428554534,-0.006681496191071346,-0.0052931745046749705
1746729245540708600,0.37370849609375,-0.11115502063035965,-0.0052359096257947385,0.0051202108242549
1746729245550726400,0.383726318359375,-0.10397066208422183,0.0013336688897106796,-0.00021753347450867295
1746729245560743400,0.393743408203125,-0.11638473797738551,-0.004169997427333146,-0.00870985108036548
1746729245570761500,0.403761474609375,-0.10441197611093521,0.002278694654861465,-0.00621635376419872
1746729245580778200,0.4137783203125,-0.10935118607878684,-0.0006700721481349319,0.003164729374926537
1746729245590796500,0.423796630859375,-0.09214578425586223,-0.0011443751289974898,0.0030442082677967844
1746729245600813300,0.433813232421875,-0.11578911017179488,0.002040173191251233,-0.0010866261929273605
1746729245610830300,0.443830322265625,-0.10232347939908504,0.0022570490786340087,0.002388228577096015
1746729245620848400,0.453848388671875,-0.11309680234789847,0.0027357816394418476,0.0034733021337538957
1746729245630865400,0.463865478515625,-0.09738602299690247,0.004865615008678287,-0.007782397504523396
1746729245640883500,0.473883544921875,-0.11025661048591136,0.004967276151711121,-0.0066849759229458865
1746729245650900500,0.483900390625,-0.10980652863085269,-0.003334587782807648,0.003729231389891356
1746729245660917500,0.49391748046875,-0.1101110645353794,-0.009364360333187506,0.004771141658257693
1746729245670935300,0.503935302734375,-0.105022216963768,-0.0013247731972020119,-0.0008192987599410116
1746729245680952300,0.513952392578125,-0.11115326706469059,0.0010340009565465152,-0.002467065966967493
1746729245690970400,0.523970458984375,-0.09738602299690247,-0.002706190218776464,0.008048775089439004
1746729245700987400,0.5339873046875,-0.10127601617276669,0.0008907474278006702,-0.00015089797908440233
1746729245711005400,0.54400537109375,-0.09977671752572059,-0.007837059434363618,-0.0012574527151882648
1746729245721022500,0.5540224609375,-0.10291852268278598,0.0018496190552134066,-0.0058081930884160094
1746729245731039500,0.56403955078125,-0.09529051202237605,0.0023833971383515743,0.00013999299257993697
1746729245741057300,0.574057373046875,-0.10786065526008605,-0.00926227906504646,-0.007515234468318522
1746729245751074300,0.58407421875,-0.10351824214160442,0.00057291365028359,0.0005844670907594263
1746729245761092400,0.59409228515625,-0.10307225193977355,-0.004325133190117776,0.006034421326033771
1746729245771109400,0.604109375,-0.11220073029100894,-0.0047188817480579015,0.004671772937010973
1746729245781126400,0.61412646484375,-0.10801029286384582,0.002574161336943507,0.005435395986959338
1746729245791144400,0.62414453125,-0.10696166059374809,-0.0031332199918106198,0.00017170330509543418
1746729245801161500,0.634161376953125,-0.10022387677133082,-0.0025185221595689653,-0.004292162502277643
1746729245811179500,0.644179443359375,-0.1068044242054224,0.0017065116569399833,-0.0013548121424391865
1746729245821196300,0.6541962890625,-0.10410919377207756,0.0011402560763061045,0.0009888466405682265
1746729245831214300,0.66421435546875,-0.11488134767711163,-0.00083147325492464,0.0013482180048711597
1746729245841231400,0.6742314453125,-0.09931786784231662,-0.007385388410417363,0.001097512913122773
1746729245851248400,0.684248291015625,-0.11069266381561756,-0.006975346304802224,0.00030787863908335566
1746729245861266400,0.694266357421875,-0.10889759709239005,0.0022331750127021223,-0.002643609843961894
1746729245871283500,0.704283447265625,-0.1042600004196167,0.0003070749214850366,0.0026921068944968283
1746729245881301500,0.714301513671875,-0.10366086548268795,0.00843618523813784,0.0014549663149751723
1746729245891318300,0.724318359375,-0.10994856745004654,-0.002044703235896304,-0.001204973609279841
1746729245901336300,0.73433642578125,-0.10262041651904583,-0.0063087630216963585,0.004353738230094314
1746729245911353300,0.744353271484375,-0.10770751052498817,0.004049174926104024,0.001019296577759087
1746729245921370600,0.75437060546875,-0.09693360305428504,0.00439206094648689,0.0014103782545775174
1746729245931388400,0.764388427734375,-0.09722937113046645,-0.0024983652875293044,0.007462262172065675
1746729245941405400,0.774405517578125,-0.10037117628753185,-0.0015359499961603432,0.0017511179836466907
1746729245951423500,0.784423583984375,-0.08825228394865989,-0.002266702822968364,-0.002721168592199683
1746729245961440300,0.794440185546875,-0.10201894349455833,-0.004712926931306719,-0.00522526036761701
1746729245971457500,0.80445751953125,-0.11339373946785926,-0.0003240534557495266,-0.001989949974510819
1746729245981475300,0.814475341796875,-0.1030704983741045,0.0015777798438910394,-0.00013907967712730167
1746729245991492600,0.82449267578125,-0.10172317541837692,0.0002834839833434671,0.0013292210434563457
1746729246001510100,0.83451025390625,-0.10247428604662417,0.0017515472419094293,-0.0029970811904408037
1746729246011527200,0.844527099609375,-0.11040624808967113,0.001584912837576121,-0.006800875653885305
1746729246021545000,0.854544921875,-0.09768588272631168,-0.00888140825498849,0.0019200996086932718
1746729246031562000,0.86456201171875,-0.10322130502164363,-0.008968127557216212,0.0014170637236908077
1746729246041579000,0.8745791015625,-0.10187339754402637,-0.002185929204337299,0.006798866359889507
1746729246051597000,0.88459716796875,-0.11369476824104785,-0.007175745981419459,0.0075993690878152845
1746729246061614000,0.894614013671875,-0.101422731167078,-0.0047282797640655185,0.002149524450395256
1746729246071632100,0.904632080078125,-0.10576046811044215,-0.003428047353075817,0.0010096337002702058
1746729246081649200,0.914649169921875,-0.1118973634302616,0.005788949531828984,0.000011069383285939693
1746729246091666000,0.924666015625,-0.10531213982105254,0.00024214732595719395,-0.0020345928338356316
1746729246101684000,0.93468408203125,-0.10231821870207786,-0.004353519034385681,-0.001140237809997052
1746729246111701000,0.944700927734375,-0.10845511402189731,0.002476409184047952,-0.00019323928346857427
1746729246121719000,0.954718994140625,-0.10456219823658466,-0.010942386772250757,0.00006656243018805981
1746729246131736000,0.964736083984375,-0.10441489872038363,-0.010111132713034748,0.008161587814148516
1746729246141754000,0.974754150390625,-0.10680968490242958,-0.008612793047213926,0.01307411070447415
1746729246151771100,0.984771240234375,-0.10426467659473418,-0.00589831905728206,-0.0039059396636672316
1746729246161788000,0.994787841796875,-0.10052139841318129,-0.0028113584931474178,0.0009354542192071676
1746729246171806200,1.00480615234375,-0.1027647934257984,-0.0019700762302614747,-0.0008242306633852422
1746729246181823000,1.014822998046875,-0.10560790789723395,-0.004640364018594846,-0.0035049759136512875
1746729246191841000,1.024841064453125,-0.10111761074066161,-0.0021406561573501675,-0.0034758411507122217
1746729246201858000,1.034858154296875,-0.09812778127491474,-0.003004387714061886,0.010399393336195498
1746729246211875000,1.044875,-0.10172025280892848,-0.00039460707446560263,0.016508158540073783
1746729246221893000,1.05489306640625,-0.10666121634244918,-0.007788681114837527,0.0007990414232015609
1746729246231910000,1.064909912109375,-0.10965747554898261,-0.009047412471659482,0.005185074487701058
1746729246241928200,1.07492822265625,-0.10157938303351402,-0.004223481180239469,-0.006485215567145496
1746729246251945000,1.084945068359375,-0.10127718521654605,-0.0021306370868347585,-0.0036713271901942786
1746729246261963000,1.094962890625,-0.09783435128629207,0.0026894765459932386,0.0023731771384365857
1746729246271980000,1.10497998046875,-0.11519348236620426,-0.004691774545423686,0.003267349499184638
1746729246281997000,1.1149970703125,-0.10711188271939753,-0.004611183589883148,-0.007925349639169871
1746729246292015000,1.12501513671875,-0.10726210484504699,-0.0043700226446148,0.0034662148058414457
1746729246302032000,1.135031982421875,-0.11339549303352832,0.0008270619412884116,-0.0009648629767820239
1746729246312050200,1.14505029296875,-0.11324760899543762,-0.01143560451613739,-0.0014987323914654551
1746729246322067000,1.15506689453125,-0.10591595093309879,-0.0050501686621923,-0.0019114048455841838
1746729246332084000,1.165083984375,-0.10277180768847465,-0.005455287997517735,-0.0002544314187951386
1746729246342102000,1.17510205078125,-0.10277473029792308,-0.006949526876956224,-0.00007406988320872187
1746729246352119000,1.185119140625,-0.11145429583787918,-0.00039318230235949156,0.004232157677039504
1746729246362137000,1.19513720703125,-0.10232581748664378,0.001946119965938851,-0.013590791522338986
1746729246372154000,1.205154052734375,-0.11414835722744464,0.0057145143224392085,-0.0010474266937002539
1746729246382172200,1.215172119140625,-0.10068272645473479,0.005098017258755862,0.00012596446722745895
1746729246392189000,1.22518896484375,-0.1005348424166441,-0.004675033473176882,-0.0002493899174965918
1746729246402206000,1.2352060546875,-0.10262567721605301,-0.005382314092852175,-0.001784307867195457
1746729246412224000,1.24522412109375,-0.10951076055467128,-0.0005022960994858295,0.0007362601189874113
1746729246422241000,1.255240966796875,-0.1008306104928255,-0.0040374753551557655,0.0022323986945673824
1746729246432259000,1.265259033203125,-0.10262743078172207,-0.003804671246279031,-0.0006915441944263875
1746729246442276000,1.275276123046875,-0.10711597437262535,-0.004755469165090471,-0.00011803688909858465
1746729246452293000,1.285293212890625,-0.10636486374437808,-0.0023388456105720252,-0.003934124578535557
1746729246462311000,1.295310791015625,-0.10546762264370918,-0.0031289091428741813,-0.004434201321471482
1746729246472328000,1.305327880859375,-0.10681494559943676,-0.0008739332903176546,0.004526354850642383
1746729246482346000,1.315345947265625,-0.11250292810797691,0.0014529022220522165,-0.0010444675516337156
1746729246492363000,1.325363037109375,-0.1090612632215023,-0.00465665756626986,-0.0020034305105917157
1746729246502381000,1.335381103515625,-0.1021808560580015,-0.00538245109017007,0.0025810660017654297
1746729246512398000,1.345398193359375,-0.10726736554205417,0.0019052216999698428,-0.0024609102208167314
1746729246522415000,1.3554150390625,-0.10637129348516464,-0.0017536844000685958,0.00199475401379168
1746729246532433200,1.36543310546875,-0.10113047022223472,-0.006514085468603298,0.001247205315809697
1746729246542450000,1.375449951171875,-0.10561726024746894,-0.0032685002766549586,0.006492997014801949
1746729246552468000,1.385468017578125,-0.11175298652350901,0.007343311967514455,-0.004087013585306704
1746729246562485000,1.395485107421875,-0.10187573563158511,-0.005727592999720946,-0.005406498686037957
1746729246572502000,1.405501953125,-0.11354805324673652,-0.002530541390925646,-0.0006106427116319537
1746729246582520000,1.41552001953125,-0.11010521931648254,-0.007443283476959914,-0.0039939467406831675
1746729246592537000,1.425537109375,-0.09948094944953918,0.0026293073239736257,0.004409048613905907
1746729246602555100,1.43555517578125,-0.09933364993333815,0.0014099763957783579,0.0013899565210565923
1746729246612572000,1.445572021484375,-0.10666530799567699,-0.005661377629404887,-0.006600329846795648
1746729246622590000,1.45558984375,-0.10382219352424144,-0.004356943967333063,-0.004542447468917817
1746729246632607000,1.46560693359375,-0.10502280148565768,-0.005227105264831334,-0.0018358188587240874
1746729246642624300,1.475624267578125,-0.10756897883713244,-0.005420463279308751,-0.006135744542349129
1746729246652642000,1.48564208984375,-0.1021814405798912,-0.003041176060494035,-0.004480597746465355
1746729246662658800,1.495658935546875,-0.09888999781906604,-0.0010809636371210216,0.0008984649433754384
1746729246672677000,1.505677001953125,-0.10233283174932002,-0.004338714190898463,-0.004385704270936548
1746729246682694000,1.51569384765625,-0.1003863738566637,-0.006000382059114053,0.0017104937123134732
1746729246692711200,1.525711181640625,-0.08721826472580432,0.002885620172601193,0.003829988350626081
1746729246702729000,1.53572900390625,-0.10517769978642463,-0.007056759244250133,-0.005378441635333001
1746729246712746200,1.545746337890625,-0.10667466034591197,-0.008424659197125584,-0.0029296054448001087
1746729246722764000,1.555763916015625,-0.1146077914327383,-0.0021670327076222747,0.004439443752169609
1746729246732781000,1.565781005859375,-0.09635025020837783,-0.003726308780442923,-0.0016034896738827227
1746729246742799000,1.575799072265625,-0.10607727897465229,-0.008616729436814784,0.0019206658642739057
1746729246752815900,1.58581591796875,-0.10876958679854869,0.004691217422997579,0.0073616696081124245
1746729246762833200,1.595833251953125,-0.09261106368005276,-0.001502741846302524,-0.006923570451792329
1746729246772851000,1.605850830078125,-0.10218728579878807,0.00042982451831921934,-0.008553747203201055
1746729246782868200,1.6158681640625,-0.10847791037559508,0.00009326777402311563,-0.002897109680995345
1746729246792886000,1.625885986328125,-0.09575929857790469,-0.004093488991865888,0.002761208341643214
1746729246802903000,1.635903076171875,-0.10743044714927673,-0.0034949111773632463,-0.0009522957561537622
1746729246812920000,1.645920166015625,-0.10114391422569752,-0.004872099548391997,-0.006715462392754852
1746729246822937900,1.655937744140625,-0.11745324399173258,-0.0013269834205973893,-0.013439546483382582
1746729246832955100,1.665955078125,-0.11356091272830962,0.0005649404063820839,0.0021707133688963947
1746729246842973000,1.675972900390625,-0.10428045868575572,0.0022054650218691677,0.0046847420164383945
1746729246852990200,1.685990234375,-0.10413374369144439,-0.006452728936495259,-0.005141984264645725
1746729246863008000,1.696008056640625,-0.10099018496870994,-0.003776285402011126,-0.0036019700147211548
1746729246873025000,1.70602490234375,-0.10008943673670291,-0.0034244123575743286,-0.005046579332463443
1746729246883042000,1.7160419921875,-0.10383505300581454,-0.0020258158723358063,-0.0004294226595200598
1746729246893060000,1.72606005859375,-0.10323357998132705,-0.00302716580145061,-0.0013954729463905096
1746729246903077000,1.7360771484375,-0.10877017132043838,-0.0038479806650429963,0.002243340213689953
1746729246913095000,1.746094970703125,-0.0960509750008583,-0.0016440500131342558,0.0074541884634643785
1746729246923112200,1.7561123046875,-0.10083996284306049,-0.004235262949578464,0.0041163492776453495
1746729246933129000,1.76612890625,-0.10981529645919799,0.001102143422467634,-0.004308693511970341
1746729246943147000,1.77614697265625,-0.11265724188685416,-0.0038840383591130373,-0.003235876648686826
1746729246953164000,1.7861640625,-0.0997849008321762,0.0009976692678406833,-0.00627407530080527
1746729246963182000,1.79618212890625,-0.09753741416633128,-0.0049416941858828065,0.0060726344445720315
1746729246973199000,1.80619921875,-0.10980419054329395,-0.002522495081787929,-0.0051303486257791514
1746729246983217000,1.816216796875,-0.10381868639290333,-0.0062754270076751705,-0.005300809821859002
1746729246993234200,1.826234130859375,-0.10112520952522754,-0.0028910087337717413,-0.0022618074521422384
1746729247003251200,1.836251220703125,-0.11339490851163864,0.00035300555559806526,-0.0042619134944863616
1746729247013269200,1.846269287109375,-0.09873159238696098,-0.010358458537608384,-0.0023339593729004263
1746729247023286000,1.8562861328125,-0.10277239221036434,-0.010275063703628256,-0.0024741167622618376
1746729247033304300,1.86630419921875,-0.10681026942431926,-0.0012888159678317605,-0.005068663300108164
1746729247043321000,1.876321044921875,-0.10157295329272746,0.0060581127288751304,-0.0005572502902708947
1746729247053338400,1.88633837890625,-0.10651157873868941,-0.004281860303971916,-0.0013479988091625273
1746729247063356200,1.896356201171875,-0.10501403365731239,-0.003264700884371996,0.004666110381204635
1746729247073373400,1.90637353515625,-0.095885555306077,0.0033420952358283102,-0.00083380220932886
1746729247083391200,1.91639111328125,-0.09797755914926529,0.0026513273595366624,-0.005994765169080346
1746729247093408000,1.926407958984375,-0.11129296779632568,0.0022082141013815997,-0.002971343960985541
1746729247103425300,1.93642529296875,-0.10066986697316169,-0.007460855666268616,-0.007406659527309238
1746729247113443000,1.946443115234375,-0.107252752494812,-0.00007686462849378585,0.0002129486309364438
1746729247123460400,1.95646044921875,-0.11024141291677951,-0.003487759917369112,0.003916808117553592
1746729247133478100,1.96647802734375,-0.09812368962168692,-0.003988402915885671,0.005641659148782491
1746729247143495400,1.976495361328125,-0.10844868428111076,-0.0015034816318191587,-0.005159556453954428
1746729247153513200,1.98651318359375,-0.11219196246266365,-0.004846828109817579,-0.006787522981967777
1746729247163530000,1.996530029296875,-0.10112228691577911,-0.0035585875307209787,-0.0074154273556545375
1746729247173547300,2.00654736328125,-0.1118973634302616,-0.007561758757475763,-0.002507105716411024
1746729247183565000,2.01656494140625,-0.10756021100878715,-0.002546679674973711,0.006417977283522486
1746729247193582300,2.026582275390625,-0.11085457637906074,-0.0010440017607528716,0.004386562787462025
1746729247203600100,2.03660009765625,-0.10442191298305988,-0.003580616699438542,-0.0024201763516291976
1746729247213617400,2.046617431640625,-0.10412614490687847,-0.004976710700336844,-0.004758793633338063
1746729247223634200,2.05663427734375,-0.10427169085741042,-0.0019372151402756571,-0.002338562482781708
1746729247233652200,2.06665234375,-0.10606441949307918,-0.006821918441914022,-0.003891436214279383
1746729247243669200,2.076669189453125,-0.10336918905973434,-0.01119412391046062,-0.0014430932140909135
1746729247253687000,2.08668701171875,-0.1050134491354227,-0.00022195392129942775,-0.0038913996816612776
1746729247263704300,2.096704345703125,-0.10875322018563746,-0.004147456801962107,-0.009474223048985004
1746729247273721300,2.106721435546875,-0.10665770921111106,-0.005986088672280311,-0.006479626076575368
1746729247283739400,2.116739501953125,-0.10755319674611091,-0.008117538609867915,0.002593012167885899
1746729247293756200,2.126756103515625,-0.1087514666199684,-0.0030788685892242937,0.001681943471264094
1746729247303774200,2.136774169921875,-0.10665303303599356,-0.0030751513953320682,-0.003917995427642018
1746729247313791200,2.146791259765625,-0.10769991174042225,0.0010819591509643942,0.00013148089256137608
1746729247323809000,2.15680908203125,-0.1054576857715845,-0.0022403262726962566,0.005340191984176635
1746729247333826300,2.166826416015625,-0.09393325219452381,-0.0015667195937596262,0.012053681615553796
1746729247343843300,2.17684326171875,-0.10485504370331764,-0.004145529706357047,0.0007379223531112074
1746729247353861400,2.186861328125,-0.10799626433849334,-0.0031589389549568293,-0.00717153559718281
1746729247363878100,2.196878173828125,-0.09362930081188678,0.006759959121607244,-0.004912029699981212
1746729247373896200,2.206896240234375,-0.10739420679211616,-0.00309585625664331,-0.0016967026489786803
1746729247383913200,2.216913330078125,-0.10171090045869349,-0.0012327292658854275,0.00196032202122733
1746729247393930200,2.22693017578125,-0.10350655170381069,-0.006943407663423567,0.003598554214928299
1746729247403948300,2.2369482421875,-0.10171031593680381,-0.0009637943977024406,-0.004460632670670747
1746729247413965300,2.24696533203125,-0.11487491793632507,0.00016899989135563373,-0.005615830587781965
1746729247423983000,2.256983154296875,-0.09691899000704288,0.005924531210772693,-0.005024385766964405
1746729247434000100,2.267000244140625,-0.10155658667981624,0.00043740503657609223,0.00904017901327461
1746729247444017200,2.27701708984375,-0.09781506206393241,-0.013624282799987121,-0.000051565790455788374
1746729247454035200,2.28703515625,-0.10529811129570006,-0.0034279377552215006,-0.003380637147929519
1746729247464052200,2.29705224609375,-0.10395195738375186,-0.0077880509271752085,0.0007792590104974806
1746729247474070300,2.3070703125,-0.09901099385023117,0.0023882468434050677,-0.004789170505292714
1746729247484087300,2.31708740234375,-0.10828384910821914,0.0009325772755313665,0.0023013905438594518
1746729247494105000,2.32710498046875,-0.0952624549716711,-0.005060279064252973,-0.004742262623645365
1746729247504122400,2.337122314453125,-0.1082815110206604,0.0004905143301468342,-0.003416840972471982
1746729247514139100,2.34713916015625,-0.10902911451756954,-0.0023204240378923713,-0.0009910751302726567
1746729247524157200,2.3571572265625,-0.1045388173609972,-0.0029379074822645634,0.00010736936461180447
1746729247534174200,2.36717431640625,-0.10752864682674407,-0.0016166231500916181,0.008157276965212077
1746729247544192300,2.377192138671875,-0.10887480073869228,-0.008743232760159298,0.0013255677816458047
1746729247554209300,2.387209228515625,-0.10738076278865337,-0.003887445025751367,0.001399802061636001
1746729247564226000,2.39722607421875,-0.11261457178890705,-0.0024395660386886445,0.0001679587117396295
1746729247574244400,2.407244384765625,-0.11321370672583579,-0.005825308619998395,-0.002950629966519773
1746729247584261000,2.41726123046875,-0.10872516313493251,-0.0019186109045054762,-0.0038022783597931264
1746729247594279200,2.427279052734375,-0.09540390926897525,0.0029348022097256034,0.004919591951929032
1746729247604296200,2.437296142578125,-0.10857377196550369,-0.0031548016359563913,0.004566577263176441
1746729247614313200,2.447313232421875,-0.1088736316949129,-0.00523605575626716,-0.0006181684309616685
1746729247624331300,2.457331298828125,-0.09555471591651439,-0.004985889520635828,-0.004188044540677219
1746729247634348000,2.46734814453125,-0.09704933838844298,-0.0033597770229913293,-0.006208974175341427
1746729247644366300,2.477366455078125,-0.1051268463820219,-0.004754674580646679,0.007280877723172307
1746729247654383000,2.487383056640625,-0.09584697686135768,-0.006138000431517139,-0.003097673754394054
1746729247664400100,2.497400146484375,-0.11065642345845698,-0.0037022155188024043,0.0009260105374269187
1746729247674418200,2.507418212890625,-0.0950923591017723,-0.0048420606031548226,-0.0020289485443383453
1746729247684435200,2.517435302734375,-0.092246906542778,-0.008451026614243164,0.0011138795260339975
1746729247694453200,2.527453369140625,-0.09419277991354465,-0.006955015902826562,0.0037144174132496114
1746729247704470300,2.53747021484375,-0.10706044479310511,-0.0058602794686798,0.005274999527167528
1746729247714488300,2.54748828125,-0.10242167907655239,-0.004346870097890496,-0.00400185605250299
1746729247724505000,2.557505126953125,-0.11125088222026824,-0.00932733452473767,0.006973583605978637
1746729247734522000,2.567522216796875,-0.10466565861105918,-0.0031746845133602615,-0.0014420520344749091
1746729247744540200,2.5775400390625,-0.11169511885643005,-0.003923840646538883,0.004176317570265382
1746729247754557200,2.58755712890625,-0.11528583682477474,-0.0054010370596311984,0.005179466730821878
1746729247764575200,2.5975751953125,-0.09777940622866153,0.0005014923818875104,0.005096355024632066
1746729247774592300,2.60759228515625,-0.09254618175029754,-0.00822267948477529,-0.002656304928753525
1746729247784609300,2.617609375,-0.0992839655727148,-0.00955524326278828,-0.004768785304389894
1746729247794627000,2.627626953125,-0.10062953496277331,-0.009124112703371793,-0.0014395130175165831
1746729247804644000,2.63764404296875,-0.10407061532735824,-0.006177884917333722,0.0017105302449315785
1746729247814662100,2.647662109375,-0.10705986027121543,-0.008029239271907136,0.004602233098447322
1746729247824679200,2.65767919921875,-0.11334639319479464,-0.002127988472022116,0.0016429083688184619
1746729247834696200,2.6676962890625,-0.11424246525168419,-0.0063786042543593794,0.0009335727893747389
1746729247844714200,2.67771435546875,-0.11797931369245052,-0.00737858421029523,-0.004040872888639569
1746729247854731300,2.687731201171875,-0.11244330687522887,-0.00828030055668205,0.0061150122815743085
1746729247864749300,2.697749267578125,-0.10137129324078559,-0.010786620821803808,0.0033239933235570786
1746729247874766000,2.70776611328125,-0.10466390504539012,-0.006096773371985182,0.003017119331471622
1746729247884784000,2.7177841796875,-0.1105032787233591,-0.006937096653645858,0.00034347967542707917
1746729247894801200,2.72780126953125,-0.11215221497416496,0.0020954835750628263,0.0028046821571886538
1746729247904818200,2.737818115234375,-0.10706395192444323,-0.008571401590900495,-0.005270268553122878
1746729247914836200,2.747836181640625,-0.11245441279113293,-0.008647161107696592,0.0029923867490142583
1746729247924853200,2.757853271484375,-0.10811258419454096,-0.004499037585454061,0.006501235120184719
1746729247934871300,2.767871337890625,-0.10452011266052723,-0.0022306177294347434,-0.006286112798471004
1746729247944888000,2.77788818359375,-0.09703647890686988,0.0009816953805740923,-0.004249254942312836
1746729247954905300,2.7879052734375,-0.10122691633403301,-0.01453226449037902,-0.0003425663599744439
1746729247964923100,2.797923095703125,-0.09613748424053191,-0.0066908942070789635,-0.005177311306353658
1746729247974940400,2.8079404296875,-0.10645838724672793,-0.0009765077488031237,-0.002604940067697316
1746729247984958200,2.817958251953125,-0.10825462301373481,-0.0033835414910688994,-0.0059262665101326994
1746729247994975200,2.827975341796875,-0.10975041452944279,-0.006166715069347992,0.0038599450974725184
1746729248004992000,2.837991943359375,-0.11079378610253333,-0.00192228243262507,0.0006956358476541936
1746729248015010000,2.848010009765625,-0.11123919178247452,-0.004947082747053354,0.003817950852960348
1746729248025027000,2.858027099609375,-0.09866787950098514,-0.006678847576258704,-0.0004708506484515965
1746729248035045000,2.868045166015625,-0.106900285795331,-0.005319039598293602,-0.0010294343792833388
1746729248045062100,2.878062255859375,-0.10465279912948608,-0.0029042335415259,-0.003810881791356951
1746729248055079000,2.888078857421875,-0.10674831010401248,-0.008463465970708057,0.0016796053837053477
1746729248065097200,2.89809716796875,-0.10959259361922741,-0.004137821323936805,-0.00015931874755769967
1746729248075114000,2.908114013671875,-0.10749883621037006,-0.001053226246824488,0.0004988711665384471
1746729248085132000,2.918132080078125,-0.10480769743025302,-0.0035232604890130456,0.005226849536504596
1746729248095149000,2.928149169921875,-0.10136544802188872,-0.0013072010078933089,-0.0001371617146767676
1746729248105167000,2.9381669921875,-0.11348492488265037,-0.0044677839306648814,-0.0017393910132348536
1746729248115184000,2.94818408203125,-0.10555471640527248,-0.01097300110622309,0.005308372073806822
1746729248125201000,2.958200927734375,-0.10091478164494037,0.0015650299601722509,0.005495419078506529
1746729248135219200,2.96821923828125,-0.10719722291529178,-0.0030974454255308956,0.011864935844112186
1746729248145236000,2.978236083984375,-0.10301263070702552,-0.00031274661044590176,0.0015774236508645117
1746729248155254000,2.98825390625,-0.1067559088885784,-0.00025268698628060516,0.0007633125226944685
1746729248165271000,2.99827099609375,-0.1016717374920845,-0.01022266679611057,0.0012326470674946903
1746729248175288300,3.008288330078125,-0.1028740990191698,-0.0004000230350997299,-0.0005677168853580951
1746729248185306000,3.01830615234375,-0.10392097772359847,-0.005153811699757352,0.005907890603225678
1746729248195323000,3.028322998046875,-0.1046691657423973,0.0011360091594513505,-0.0014377594518475234
1746729248205341200,3.038341064453125,-0.10287585258483886,-0.010037912213196977,0.002375259497668594
1746729248215358000,3.04835791015625,-0.09973638551533222,0.004958480923902243,-0.0008577310741879045
1746729248225375200,3.058375244140625,-0.09779051214456558,-0.00543834599587135,0.0006868497529998422
1746729248235393000,3.06839306640625,-0.10198211861550807,-0.0024690204620361326,0.006664791651442647
1746729248245410300,3.078410400390625,-0.09854162277281284,-0.0006228628723882138,0.000793141405377537
1746729248255428000,3.088427978515625,-0.101833065533638,0.007151442657224834,-0.003959204220864922
1746729248265445000,3.098445068359375,-0.1067687683701515,0.002794617420900613,0.00293819061005488
1746729248275463200,3.108463134765625,-0.1064689086407423,-0.010146770281996577,-0.00621575097599998
1746729248285480000,3.11847998046875,-0.10722118831276893,-0.004273119875090196,0.009501257186383009
1746729248295497200,3.128497314453125,-0.10617372508645057,-0.002520641051419079,0.008508191028423607
1746729248305515000,3.138514892578125,-0.10377893890440464,-0.006231259072385728,0.002408029256109148
1746729248315532300,3.1485322265625,-0.10348375535011291,0.00036744507290422914,-0.007929642221797257
1746729248325550000,3.158550048828125,-0.10079144752621651,-0.004764419656526297,0.010197459289617836
1746729248335567000,3.168567138671875,-0.10572598131895064,0.004530391704943031,0.011245543570443987
1746729248345584000,3.178584228515625,-0.11904138996601105,0.0020526308140251786,0.01169030992956832
1746729248355602000,3.188601806640625,-0.09958616338968276,-0.0010891378104221075,0.00444863170562312
1746729248365619200,3.198619140625,-0.10737199496030807,0.0032280130026396364,0.0014604827403090893
1746729248375637000,3.208636962890625,-0.09958967052102088,-0.0022053280245512724,-0.004789590630400926
1746729248385654000,3.218654052734375,-0.10601941130757331,0.0021564017157535997,-0.0009050225483253597
1746729248395671000,3.228671142578125,-0.09688625678122043,-0.004871314097102731,0.003417644690070301
1746729248405689000,3.238689208984375,-0.10226970338523388,-0.00003574716681614518,0.0024795418560504914
1746729248415706000,3.2487060546875,-0.09987374815940857,-0.006149626937229186,0.003224642868619412
1746729248425724000,3.258723876953125,-0.10121990207135677,0.0026412900227122007,-0.0013896459938026963
1746729248435741200,3.2687412109375,-0.09927402870059013,-0.002968777544563636,0.002034611100144684
1746729248445758200,3.27875830078125,-0.10570844566226005,-0.00385242851129733,0.000990728070400655
1746729248455776000,3.28877587890625,-0.10495967312157153,-0.013733652325440198,-0.003184292591921985
1746729248465793000,3.29879296875,-0.10585749874413013,-0.0012300349853001534,-0.0006698803518898784
1746729248475811000,3.30881103515625,-0.10346388160586356,-0.0017428433456458151,0.0009892119667492807
1746729248485828000,3.318828125,-0.10959726979434489,0.000006722001731395721,-0.0000842990162782371
1746729248495845000,3.32884521484375,-0.10885025081932544,-0.001656580701144412,0.007200871289521456
1746729248505863200,3.33886328125,-0.10271803167462348,-0.013623387750843539,0.0004982501120306551
1746729248515880200,3.348880126953125,-0.10720715978741645,-0.00942582646314986,0.0009310703050345181
1746729248525898000,3.35889794921875,-0.10840484513938427,-0.009464888965059072,-0.007473605549987405
1746729248535915300,3.368915283203125,-0.10511223333477973,-0.004005929439421743,0.00298699818784371
1746729248545932000,3.37893212890625,-0.11139759721457958,-0.004090009259991347,0.004472743233572691
1746729248555950000,3.3889501953125,-0.10226970338523388,-0.007364555684942752,0.004942169109918177
1746729248565967000,3.398967041015625,-0.10601005895733832,-0.0009372260511852801,0.007121157116815447
1746729248575985200,3.408985107421875,-0.09792670574486255,0.004251446899399161,0.0023749307041056452
1746729248586002200,3.419002197265625,-0.11273965947329997,-0.00226515931985341,-0.000017608721926808357
1746729248596020000,3.42902001953125,-0.11094342370629309,0.004215672333119437,-0.0055807044754736124
1746729248606037200,3.439037353515625,-0.10540683236718178,-0.0006451660357415676,0.002465074939280748
1746729248616054000,3.449053955078125,-0.10555588544905185,-0.007416011877544224,0.00403250691909343
1746729248626072000,3.459072021484375,-0.1045078377008438,-0.006567185629019513,-0.002631207020115107
1746729248636089000,3.469089111328125,-0.11558452751040459,-0.009006678602471948,0.0010073504116386175
1746729248646107100,3.479107177734375,-0.10735679739117622,-0.0033620603116229176,0.0017267872599884867
1746729248656124200,3.489124267578125,-0.09882862302064895,-0.0010522489992901682,0.008295114533323794
1746729248666141000,3.499140869140625,-0.10975275261700153,-0.008225830423086881,0.003618172230850905
1746729248676159200,3.5091591796875,-0.10466682765483856,-0.00910736249797046,-0.0021268376945517958
1746729248686176000,3.519176025390625,-0.10556523779928684,0.005515466352691873,-0.005160634166188538
1746729248696194000,3.529194091796875,-0.10766016425192355,-0.0025395649475976824,0.0015090711223892867
1746729248706211000,3.539211181640625,-0.10092822564840316,0.0036216245632618663,0.006683076226804405
1746729248716228000,3.54922802734375,-0.1007785880446434,0.000003945522755384445,0.000603043927066028
1746729248726246100,3.55924609375,-0.10018179119527339,-0.002559201229829341,-0.0013441811505705116
1746729248736263000,3.569262939453125,-0.10886369482278824,0.004478296191524714,0.003710234428476542
1746729248746281200,3.57928125,-0.10197802696228027,-0.0074549647815991184,-0.002829305141791701
1746729248756298000,3.589298095703125,-0.10691489884257316,-0.011086882410012185,-0.0008751388667151332
1746729248766315000,3.59931494140625,-0.09898819749653338,-0.0048942474481184035,0.0036349224362522362
1746729248776333000,3.6093330078125,-0.10617606317400932,-0.002616237779846415,0.013070366111118345
1746729248786350000,3.61935009765625,-0.10094283869564533,-0.0007575403690338134,0.0036560200232081115
1746729248796368100,3.6293681640625,-0.10827449675798416,-0.012380639414442703,-0.0008731843716464936
1746729248806385200,3.63938525390625,-0.10318506466448306,-0.0008013795107603073,-0.0040618243451230225
1746729248816402200,3.649402099609375,-0.10347849465310573,-0.0014975816139951347,0.004284289723075926
1746729248826420000,3.659419921875,-0.09794365687966346,-0.004813939620368183,0.008097400004137306
1746729248836437000,3.66943701171875,-0.10677052193582057,-0.006670161946304142,0.004241035103239118
1746729248846455000,3.679455078125,-0.11201134519875049,0.0008887564001139253,0.00017340207183733582
1746729248856472000,3.68947216796875,-0.10437982740700244,-0.004290208007209003,-0.0007008782783523202
1746729248866489000,3.699489013671875,-0.10048983423113822,0.0006495590830687434,0.0072224255342036485
1746729248876507100,3.709507080078125,-0.10647533838152885,-0.004662210524221882,0.0042673933872021735
1746729248886524200,3.719524169921875,-0.09959142408668994,-0.002541811703611165,0.0037107641514390706
1746729248896542000,3.7295419921875,-0.10123919129371642,0.0035489246532320975,-0.0025898338301107286
1746729248906559000,3.73955908203125,-0.09585223755836486,-0.005433158364100381,-0.0029095490374602376
1746729248916576300,3.749576171875,-0.10572598131895064,-0.0022363990162499246,-0.0010672091064043343
1746729248926594000,3.759593994140625,-0.10751929447650908,-0.004410427720239386,-0.0007009878762066364
1746729248936611000,3.769611083984375,-0.10706862809956073,-0.0011925707854330539,0.0028688151682727038
1746729248946629000,3.779629150390625,-0.10736731878519058,-0.0032232272296678272,0.0023857991579920054
1746729248956646100,3.789646240234375,-0.1115577562123537,-0.004408308828389272,0.0003381276468746364
1746729248966664200,3.799664306640625,-0.1145464166343212,-0.005323204316757619,-0.0035367044924758373
1746729248976681000,3.809680908203125,-0.1085556517869234,-0.004254269044147804,-0.000976955273374915
1746729248986698200,3.8196982421875,-0.10825403849184513,-0.0041951684012077745,0.0011151947002857924
1746729248996716000,3.829716064453125,-0.1007698202162981,-0.0064260875247418876,0.006365991367958485
1746729249006733000,3.839733154296875,-0.10196633652448654,-0.0015711126410868019,0.0009710552555508911
1746729249016751000,3.849751220703125,-0.10346388160586356,0.0002102908829692751,-0.0026891660187393423
1746729249026768000,3.859767822265625,-0.11394319004416466,-0.00997872937186621,0.0028661665534600615
1746729249036785200,3.86978515625,-0.10301555331647395,-0.007557858900493011,-0.0018000716919079423
1746729249046803000,3.879802978515625,-0.10032266097068786,-0.005429879561625421,0.00403230598969385
1746729249056820200,3.8898203125,-0.09927578226625919,-0.0025040552427992224,0.0028445575098507104
1746729249066838000,3.899838134765625,-0.10436346079409121,0.0026063191740307956,0.0062926704034209245
1746729249076855000,3.90985498046875,-0.11244330687522887,0.001627126277796924,0.00838810831271112
1746729249086872000,3.9198720703125,-0.10885141986310481,-0.0036727793617639688,0.004023501628730446
1746729249096889900,3.929889892578125,-0.10900339555442333,-0.009871597469272091,0.003964501450490206
1746729249106907100,3.9399072265625,-0.10661328554749488,-0.0037720202188473192,-0.0048161863763816655
1746729249116925000,3.949925048828125,-0.10676584576070308,-0.002177755031036213,0.0033259843512438237
1746729249126942200,3.959942138671875,-0.11275310347676276,0.003070182959269732,0.004851129825599492
1746729249136959000,3.969958984375,-0.10736381165385246,-0.00001530716698616743,0.001087521242070943
1746729249146977000,3.97997705078125,-0.1133481467604637,-0.00227845719284378,0.009190382872615008
1746729249156994000,3.989994140625,-0.11095277605652809,0.0003900130977388471,0.004381795280799269
1746729249167012000,4.00001220703125,-0.104660397914052,-0.005585188854346052,-0.00945246787490323
1746729249177029000,4.010029052734375,-0.10181377631127833,-0.010961338067892939,0.002602583713829517
1746729249187046100,4.020046142578125,-0.10899404320418835,-0.0047992991736624385,0.0044344935824163255
1746729249197064200,4.030064208984375,-0.1152788225620985,-0.008703567470051347,0.002711980638746172
1746729249207081000,4.0400810546875,-0.11213877097070217,-0.0010166296966373919,-0.0029017127908766266
1746729249217099000,4.05009912109375,-0.10765256546735763,-0.0033858156465459612,-0.0020234869179315863
1746729249227116000,4.060115966796875,-0.09448620990216731,-0.009369264837168156,-0.0024898988532833753
1746729249237133000,4.070133056640625,-0.09867723185122013,0.004090986507525667,-0.0032729572560638185
1746729249247151000,4.080151123046875,-0.10616203464865684,0.0070144818719476455,0.002178293887153268
1746729249257168100,4.090168212890625,-0.11409691930115222,-0.0013856365389656275,-0.00012061243867501616
1746729249267186200,4.100186279296875,-0.10467091930806637,-0.001960815211571753,0.0008074621916748583
1746729249277203200,4.110203125,-0.11724398515522479,-0.002786644176999107,0.004305259445868432
1746729249287220000,4.120219970703125,-0.10871581078469753,0.0005922120057977736,0.002646678583882749
1746729249297238000,4.130238037109375,-0.10317688135802745,-0.004036160180903971,0.0011083996333181858
1746729249307255000,4.140255126953125,-0.10392273128926753,-0.002755253524892032,-0.00017411445789039133
1746729249317273000,4.150273193359375,-0.10018179119527339,-0.0013556341263465583,-0.001185245995502919
1746729249327290000,4.1602900390625,-0.10990472830832004,-0.004278910295059904,-0.0033245595791377125
1746729249337307000,4.170306884765625,-0.1018242977052927,-0.010011152070434763,-0.008299863773677498
1746729249347325200,4.1803251953125,-0.10257073215842247,0.0034177908205427227,-0.0038865956423804163
1746729249357342000,4.190342041015625,-0.109453477409482,0.005142386123444885,0.007005677510984242
1746729249367360000,4.200360107421875,-0.1030225675791502,-0.005423148426739499,0.013631927250325679
1746729249377377000,4.210376953125,-0.10541676923930644,0.0024925200686324385,-0.0017939159457571803
1746729249387394000,4.22039404296875,-0.10990531283020973,-0.0030173111277166753,0.0033451639757491646
1746729249397412000,4.230412109375,-0.11379647504985332,-0.000595536474045366,-0.001619929352030158
1746729249407428900,4.240428955078125,-0.10885784960389136,-0.0006088982791174202,0.001691752479225397
1746729249417447200,4.250447265625,-0.10421791484355926,-0.005167858491418883,0.008302073997072876
1746729249427464000,4.2604638671875,-0.09957973364889622,-0.006793112472537904,0.0022991072552278635
1746729249437481200,4.270481201171875,-0.10302432114481926,-0.0008349255873356014,-0.0018182284031063318
1746729249447499000,4.2804990234375,-0.10497077903747558,-0.0006174651780631393,0.0006498970097862184
1746729249457516000,4.29051611328125,-0.11365092909932135,-0.006947462784033269,0.0058078460285440085
1746729249467534000,4.3005341796875,-0.10063128852844237,-0.009137949432479217,0.0037973281900398432
1746729249477551000,4.310551025390625,-0.11095511414408683,-0.007353221440175548,-0.0005152012468315661
1746729249487569200,4.320569091796875,-0.10975742879211901,0.0014398966100066899,-0.0005774893607012928
1746729249497586000,4.3305859375,-0.11649229000508785,-0.0033948574695270507,-0.0034021548599936064
1746729249507603000,4.34060302734375,-0.11185293976664543,-0.0070125547763425855,0.010965009596012532
1746729249517621000,4.35062109375,-0.10586509752869605,-0.010497437750035896,-0.003314220848213881
1746729249527638000,4.360637939453125,-0.10810966158509254,-0.0026567889859434217,0.0003842500772327184
1746729249537656000,4.370656005859375,-0.110803722974658,-0.013736830663215368,0.001532762525230646
1746729249547673000,4.380673095703125,-0.09943009604513645,-0.004997360762720927,-0.0003933101665228605
1746729249557690000,4.390690185546875,-0.10796119302511215,-0.0022831151016522197,-0.0046632060380652545
1746729249567708000,4.4007080078125,-0.10227379503846168,-0.00040080848638899625,0.00270447318572551
1746729249577725000,4.410724853515625,-0.10496434929668903,-0.007897192123765126,0.0022038301872089505
1746729249587743000,4.420742919921875,-0.09972995577454566,-0.007270429394394159,0.001965473120380193
1746729249597760000,4.430760009765625,-0.11110182913839817,-0.003973926865961402,0.002426423429325223
1746729249607777000,4.440777099609375,-0.11020809516906738,-0.004920678797317669,0.0012558635463006795
1746729249617795000,4.450795166015625,-0.1109568677097559,-0.003634657574770972,0.005831208637822419
1746729249627812000,4.46081201171875,-0.10497370164692402,-0.013216861909721047,-0.003994202469009906
1746729249637830100,4.470830078125,-0.10018646737039089,-0.007709478398784994,0.0054407114828936756
1746729249647847000,4.480846923828125,-0.10811784489154815,-0.005468229677481577,-0.003178082046844065
1746729249657864200,4.4908642578125,-0.09734627550840377,-0.0006185337571427225,0.0048310734182596205
1746729249667882000,4.500882080078125,-0.10961714353859424,-0.005262706301175058,0.0011282368449494241
1746729249677899000,4.51089892578125,-0.10109130725562572,-0.00661104303705506,0.011082096637040377
1746729249687917000,4.5209169921875,-0.10543079776465893,-0.004333353029191494,0.0034687538227997717
1746729249697934000,4.53093408203125,-0.10872224052548408,-0.006731573277339339,-0.0003878668064251542
1746729249707951000,4.540951171875,-0.10378595316708088,-0.0012473331799730657,0.007952493374422193
1746729249717969000,4.550968994140625,-0.10019698876440525,-0.00350188890742138,-0.006055665043462067
1746729249727986200,4.560986083984375,-0.10857611005306243,-0.009210768073517828,0.004435023305378854
1746729249738004000,4.57100390625,-0.10019523519873619,-0.0076758683901280165,-0.005614880739711225
1746729249748021200,4.581021240234375,-0.10109481438696384,-0.0025607082003261893,-0.005508205494843423
1746729249758038000,4.5910380859375,-0.10827975745499134,-0.0016665358395781366,-0.0018757855429314076
1746729249768056000,4.60105615234375,-0.10498948373794555,-0.004521806539688259,0.005825673946179449
1746729249778073000,4.611072998046875,-0.10184767858088016,-0.0039884577148128295,0.001426050747744739
1746729249788091000,4.6210908203125,-0.10065291583836078,-0.008427910600136965,0.002700308467261493
1746729249798108200,4.631108154296875,-0.10454583162367344,-0.005446657166490331,-0.006016794337797909
1746729249808125000,4.641125,-0.10379822812676429,-0.003316759865172207,0.005339570929668844
1746729249818143200,4.651143310546875,-0.10664192712008952,-0.006844705662457272,-0.0018123466515913606
1746729249828160000,4.661159912109375,-0.09796002349257468,-0.008077571925660595,-0.007116773202642798
1746729249838178000,4.671177978515625,-0.10948270350396633,-0.00281576067362912,-0.006229158446844667
1746729249848195000,4.681195068359375,-0.1097802251458168,-0.006837234742054716,0.003741469816956669
1746729249858212000,4.691212158203125,-0.1058896474480629,-0.00549306272463873,-0.003141512896120548
1746729249868230100,4.701230224609375,-0.09601356559991836,0.00550643366286531,0.0013064429560676217
1746729249878247000,4.711246826171875,-0.10589081649184226,-0.0024153814455028623,0.0012738010617904365
1746729249888265200,4.72126513671875,-0.10469254661798477,-0.012727233495563268,0.0024505897562019526
1746729249898282000,4.731281982421875,-0.10558920319676399,-0.005667633840255439,-0.002656122265662998
1746729249908299000,4.741299072265625,-0.1006517467945814,-0.004815190862538293,-0.0019650164626538753
1746729249918317000,4.751317138671875,-0.10454232449233532,-0.003801620772667229,-0.006319247883092611
1746729249928334000,4.761333984375,-0.10918401281833648,-0.0036831546253059057,-0.0026401940441690384
1746729249938352000,4.77135205078125,-0.1012491281658411,-0.00017830657581798732,0.0007836246583610773
1746729249948369200,4.781369140625,-0.09780395614802836,-0.006652653689077123,0.00009598945407196879
1746729249958386000,4.791385986328125,-0.10842588792741298,-0.00528972217226401,-0.005281630197353661
1746729249968404000,4.801404052734375,-0.11231646562516688,0.007410376721201464,-0.000045848435722291464
1746729249978421000,4.8114208984375,-0.10812661271989345,-0.005492980526247993,-0.006334536783769726
1746729249988439000,4.82143896484375,-0.10827917293310164,-0.011935151536110787,-0.001467953660711646
1746729249998456000,4.8314560546875,-0.10304127227962016,-0.0036145189690403637,0.003332834217138588
1746729250008473000,4.84147314453125,-0.10214695378839969,-0.0001515829656738788,0.004068601145781577
1746729250018491100,4.8514912109375,-0.1036450833916664,0.006014858109038323,0.00028884514505043627
1746729250028508000,4.8615078125,-0.10319733962416648,-0.0010845529668498783,-0.0021269655587151646
1746729250038526000,4.87152587890625,-0.11247428653538226,-0.010792813100572675,0.002708564838953316
1746729250048543000,4.88154296875,-0.10738485444188117,0.0004626582088414579,0.0075785637618042525
1746729250058560300,4.891560302734375,-0.10873042383193969,-0.008312887652032077,-0.008119136911910027
1746729250068578000,4.901578125,-0.10888006143569946,-0.0009802980079315602,-0.001232793197967112
1746729250078595000,4.911594970703125,-0.10633622217178344,-0.0051856955422088504,0.0016026311573572455
1746729250088613000,4.921613037109375,-0.10364391434788703,-0.00551554855108261,0.006470748650375753
1746729250098630000,4.9316298828125,-0.09870587342381477,-0.002730995866470039,0.0007564261241815984
1746729250108647200,4.941647216796875,-0.10259645112156868,-0.006420141841145232,0.010134513588622211
1746729250118665000,4.9516650390625,-0.11247370201349258,-0.009306775793898851,-0.0010088299826718867
1746729250128682200,4.96168212890625,-0.10828677171766757,-0.007892059290921315,0.00698204090707004
1746729250138700000,4.971699951171875,-0.10125205077528952,0.0033069143245927986,0.0026984818363562225
1746729250148717000,4.981717041015625,-0.1088823995232582,-0.003595184080908075,0.002137614816892892
1746729250158734000,4.991734130859375,-0.11696692177951336,-0.0069148300229106095,-0.003067570877075195
1746729250168751900,5.001751953125,-0.11098200215101242,-0.007434305586060509,-0.005004420691169798
1746729250178769200,5.01176904296875,-0.10783902795016764,-0.009991241793567314,-0.0009422127535566687
1746729250188787000,5.021786865234375,-0.09511983163058757,-0.008364334711479023,-0.00431570777464658
1746729250198804200,5.03180419921875,-0.10349895291924475,-0.002738749914662912,-0.0016989311386831104
1746729250208821000,5.041821044921875,-0.1021510454416275,0.0000931764424778521,0.0014861651708371936
1746729250218839000,5.051839111328125,-0.10424830998182297,-0.0035641678881365804,0.0015942651878111064
1746729250228856000,5.06185595703125,-0.10469839183688164,-0.00009809007961302995,-0.0002554908647201955
1746729250238873900,5.071873779296875,-0.10350479813814163,-0.002477103303791955,-0.01078278489690274
1746729250248891100,5.08189111328125,-0.1030570543706417,-0.0031284890177659687,-0.0035992118020541962
1746729250258908200,5.091908203125,-0.09752163207530974,-0.0032376758801285176,0.003549454376194626
1746729250268926200,5.10192626953125,-0.10799860242605208,0.004464505128189921,-0.003632821810711175
1746729250278943000,5.11194287109375,-0.10141396333873272,-0.007173919350514188,-0.004419460410065949
1746729250288961000,5.1219609375,-0.10455284588634967,-0.007146474221162498,-0.0007402056417427957
1746729250298978000,5.13197802734375,-0.09976385804414749,-0.0064464361930266015,-0.001335833447333425
1746729250308995000,5.1419951171875,-0.09482815520763396,-0.00521381652499549,-0.007918755501601845
1746729250319013000,5.15201318359375,-0.10694529398083687,-0.003285752805555239,0.0023299590512178836
1746729250329030100,5.162030029296875,-0.09691782096326351,-0.005152149465633556,0.0059353265994228415
1746729250339048200,5.172048095703125,-0.09617138651013374,-0.003532713303947821,-0.00228193692471832
1746729250349065000,5.18206494140625,-0.09841419700086117,-0.005603391231317072,0.0003374517934396863
1746729250359082000,5.19208203125,-0.10904197399914264,-0.0030227727541234342,-0.0010609072297811507
1746729250369100000,5.20210009765625,-0.10485270561575889,-0.008055113498680292,-0.0007667648551054298
1746729250379117000,5.212116943359375,-0.10485329013764857,-0.006314991833083331,-0.0049271359375678
1746729250389135000,5.222135009765625,-0.10305939245820045,-0.0008443236033432185,0.000868380332365632
1746729250399152000,5.232152099609375,-0.1105424416899681,-0.00529347589877434,0.0009936872124671936
1746729250409169000,5.2421689453125,-0.10351298144459724,0.0037325375918298956,0.0015493666001595557
1746729250419187000,5.25218701171875,-0.11084639307260513,0.004059659787500277,0.0019714644697494802
1746729250429204000,5.262203857421875,-0.10516016412973403,-0.0009351893577259034,-0.001954732530657202
1746729250439222000,5.272221923828125,-0.10441022254526615,-0.0005374222117941826,0.0015337489059194921
1746729250449239000,5.282239013671875,-0.1130868654757738,-0.0013627214542590081,0.002855754757300019
1746729250459255800,5.292255859375,-0.10515490343272685,0.0007359769911970943,0.00007768661240115762
1746729250469274000,5.302274169921875,-0.10590426049530506,-0.006960733257560059,-0.0027605507545173168
1746729250479291000,5.312290771484375,-0.1097971762806177,0.00011855747890658676,0.0014149630981497466
1746729250489309200,5.32230908203125,-0.10710545297861099,-0.006978853436140343,-0.0029613705562427637
1746729250499326000,5.332325927734375,-0.1011228714376688,-0.00768933065989986,-0.006798245305381715
1746729250509343200,5.34234326171875,-0.11250117454230785,-0.00036770080123096704,-0.0074934610279276965
1746729250519361000,5.352361083984375,-0.11564414874315261,-0.006703488827170804,0.004129647150635719
1746729250529378000,5.3623779296875,-0.0975362451225519,-0.004050809760764241,0.00678821710171178
1746729250539396000,5.37239599609375,-0.10367489400804042,-0.006887467091949656,-0.002117357480153441
1746729250549412900,5.382412841796875,-0.11265373475551604,-0.0021633794458117334,0.0041865467033348975
1746729250559430100,5.39243017578125,-0.10292904407680034,-0.006469862734386697,-0.00379615914626047
1746729250569448000,5.402447998046875,-0.10577508115768432,0.00014116203635931014,-0.0057729208456352345
1746729250579465200,5.41246533203125,-0.0991927801579237,0.004104631440388039,0.0004792531506158411
1746729250589483000,5.42248291015625,-0.11041033974289893,-0.004455554636754095,0.004564239175617694
1746729250599500000,5.4325,-0.1068172836869955,-0.001507217092020437,-0.0060791737832129
1746729250609517000,5.44251708984375,-0.10367489400804042,-0.005414910321356729,-0.011673651055712253
1746729250619534800,5.452534912109375,-0.11415186435878276,0.002392758621741086,-0.004743249004334211
1746729250629552000,5.46255224609375,-0.10772212357223034,-0.004848097618296742,0.0017055618088692426
1746729250639570000,5.47256982421875,-0.10667407582402229,-0.0014777718018274754,0.0024949586208909747
1746729250649587200,5.482587158203125,-0.10009119030237197,-0.009575080474419519,-0.008626045254431664
1746729250659604000,5.49260400390625,-0.09365794238448143,-0.001437384992511943,0.0033179654415696857
1746729250669622000,5.5026220703125,-0.09949790058434009,0.003831988511467352,-0.00581778290066868
1746729250679639000,5.51263916015625,-0.10368950705528258,-0.0034905363963451236,-0.0033246874433010814
1746729250689657000,5.522656982421875,-0.10922492935061454,0.0009349153630901128,0.005354567569401115
1746729250699674000,5.532674072265625,-0.1065296989172697,-0.0021593243252020326,0.0032815972202457485
1746729250709691100,5.542691162109375,-0.1096709195524454,0.005021481423825025,-0.0025742526684887704
1746729250719709200,5.552709228515625,-0.10937105982303619,-0.0020725319577381014,-0.002729370164964348
1746729250729726000,5.562725830078125,-0.10727847145795821,-0.007468719312315806,0.006586191723588854
1746729250739744000,5.572743896484375,-0.11326456013023853,-0.008474416622985153,-0.008080357537791133
1746729250749761000,5.582760986328125,-0.10563362686038016,-0.003119693789957091,0.009323434667754918
1746729250759778000,5.592778076171875,-0.10024433503746986,-0.001758269243640825,0.0023834793367423115
1746729250769796000,5.602796142578125,-0.10683131221234798,-0.0030203798676375297,-0.006368713048007339
1746729250779813000,5.612813232421875,-0.10952771168947219,0.0016618139986880123,0.0008008680541068315
1746729250789831200,5.6228310546875,-0.10369067609906196,0.002849927804712206,-0.0028311317726969717
1746729250799848200,5.63284814453125,-0.10294424164593219,-0.0024015447163954376,0.002842237688601017
1746729250809865000,5.642864990234375,-0.0960597428292036,-0.0036003625795245167,-0.003975990958884358
1746729250819883000,5.652883056640625,-0.10638532201051712,-0.0004137227668892592,-0.0057897623825818294
1746729250829900000,5.662900146484375,-0.1054927570849657,0.0011233597404323517,-0.009351053327042608
1746729250839918000,5.67291796875,-0.10863514676392078,0.00029297333089634773,-0.000331570041924715
1746729250849935000,5.68293505859375,-0.10474164645671843,-0.0027459833730477837,0.005145783656928688
1746729250859951900,5.692951904296875,-0.10608838489055633,0.004193944558501243,-0.009697017220500856
1746729250869970200,5.70297021484375,-0.09695581488609313,-0.0008434376873541622,-0.0055991351813077924
1746729250879987000,5.712987060546875,-0.1095271271675825,-0.002217694315779954,-0.001498805456701666
1746729250890005000,5.7230048828125,-0.11013035375773907,-0.0038291481004096564,0.005658244957402348
1746729250900022000,5.73302197265625,-0.10025368738770485,-0.008316075122961774,-0.002410769202467054
1746729250910039000,5.7430390625,-0.11132628554403781,-0.004884758100565522,-0.0005865677163004875
1746729250920057000,5.75305712890625,-0.10533902782797813,0.005176023531565443,-0.006565970919467508
1746729250930073900,5.763073974609375,-0.10354220753908157,0.007367359563382342,0.0016843363577499985
1746729250940092200,5.773092041015625,-0.1044429557710886,0.0009592004209756851,0.0005358604423701763
1746729250950109000,5.78310888671875,-0.10788228257000446,-0.0025351262344978746,0.00352653015833348
1746729250960126200,5.793126220703125,-0.10099778375327587,-0.006329751010797918,0.006921341962087899
1746729250970144000,5.80314404296875,-0.1044423712491989,0.006069803166668861,0.0038796909775584932
1746729250980161000,5.8131611328125,-0.10923252813518047,-0.004249967328365892,-0.008766257442720233
1746729250990179000,5.823178955078125,-0.09995441218018532,0.00022685842528007922,-0.00096895463000983
1746729251000196000,5.833196044921875,-0.1018979474633932,-0.0023309362987522036,0.0025501776731573045
1746729251010213000,5.843213134765625,-0.11356675794720648,-0.0044799675588030365,-0.003047843263298273
1746729251020231200,5.853231201171875,-0.1074316161930561,-0.002616530040791258,-0.008555025844834745
1746729251030248200,5.863248291015625,-0.10429039555788039,-0.007386210394324734,-0.0005183978509157895
1746729251040265200,5.87326513671875,-0.10384498987793922,-0.0038244627921376374,0.0010383300717920064
1746729251050283300,5.883283203125,-0.1014496191740036,0.007629873823933303,-0.0058078460285440085
1746729251060300000,5.893300048828125,-0.10534195043742656,-0.006608403555396944,-0.005687471051886678
1746729251070318300,5.903318359375,-0.1036930141866207,0.00013454049932770432,-0.0050217006195336575
1746729251080335000,5.913335205078125,-0.09980419005453586,0.007244673898629843,-0.00020418080259114503
1746729251090352400,5.923352294921875,-0.10235095192790031,0.0029427389210090037,-0.004492233385331929
1746729251100370200,5.9333701171875,-0.10534136591553687,0.0008012242471333593,-0.0035298180939629673
1746729251110387200,5.94338720703125,-0.10893266840577125,-0.002532961676875129,-0.007728639756981283
1746729251120405200,5.9534052734375,-0.10638824461996554,-0.0014005418471526353,-0.0007017002622596919
1746729251130422000,5.963422119140625,-0.11057926656901836,-0.0014114833662752062,0.0005044789234176278
1746729251140439300,5.973439208984375,-0.09621288756430149,-0.005986490531079471,-0.008525434424169361
1746729251150457000,5.98345703125,-0.10668342817425727,-0.0009707264619879424,0.0034973223301582035
1746729251160474400,5.993474365234375,-0.107732060444355,-0.006526716621313244,0.008160016911569982
1746729251170492200,6.0034921875,-0.10234393766522407,-0.009279412862937897,-0.001256502867117524
1746729251180509400,6.013509521484375,-0.10503449192345142,-0.004582414153125137,-0.006879877440538257
1746729251190526200,6.023526123046875,-0.11311375348269939,0.0008628639070317149,-0.004692833991348743
1746729251200544000,6.0335439453125,-0.09874971256554126,-0.005106903818110004,-0.002626914437487721
1746729251210561300,6.043561279296875,-0.10144202038943767,-0.0025308975839521733,-0.008097180808428674
1746729251220579000,6.0535791015625,-0.10353753136396407,0.00043372437530197203,0.0042803259340114886
1746729251230596400,6.063596435546875,-0.09471125082969666,-0.002862403693795204,0.0038758367863483724
1746729251240613000,6.073613037109375,-0.10548749638795853,0.006036658948892727,0.004026479037106037
1746729251250631400,6.08363134765625,-0.10054653285443782,-0.004275302699021995,-0.004294537122454494
1746729251260648200,6.093648193359375,-0.10039338811933994,0.00108692758702673,-0.002286613099835813
1746729251270666200,6.103666259765625,-0.10997194832563399,-0.0018809183757752179,0.0026574557062238454
1746729251280683300,6.113683349609375,-0.10398585965335369,-0.005637759291799739,-0.0039186712810769676
1746729251290700300,6.1237001953125,-0.11400924101769923,-0.0028143815672956405,0.0029852811547927557
1746729251300718300,6.13371826171875,-0.1083247656404972,0.002762934507848695,0.003009867606777698
1746729251310735000,6.143735107421875,-0.10937281338870525,-0.003306740794656798,-0.00012965426165610552
1746729251320753200,6.153753173828125,-0.10308569594323634,-0.004268799892999231,0.0034396555924788115
1746729251330770200,6.163770263671875,-0.10727321076095103,-0.001814173282496631,0.00179121253201738
1746729251340787200,6.173787109375,-0.10472761793136597,-0.0038578262056224045,-0.002603332632500678
1746729251350805200,6.18380517578125,-0.11191256099939345,-0.00721227859952487,-0.001613901470042765
1746729251360822300,6.193822265625,-0.10876958679854869,-0.0013650869412813334,0.0005068170109763741
1746729251370840300,6.20384033203125,-0.1077232926160097,-0.00351576216914691,0.0008134535410441458
1746729251380857300,6.213857421875,-0.10727437980473041,-0.006039070101687684,0.0011264102140441537
1746729251390874000,6.2238740234375,-0.10757482405602932,-0.003463018201757222,0.0012355148780159651
1746729251400892200,6.23389208984375,-0.09380933355391025,-0.0014358871551696211,-0.003404986137896776
1746729251410909200,6.2439091796875,-0.09515665650963782,-0.0002891008733771741,0.00641651597879827
1746729251420927200,6.25392724609375,-0.11012275497317313,-0.00222829790818505,0.004224942484963685
1746729251430944300,6.2639443359375,-0.11311492252647876,-0.004539899318804964,0.003928699484746903
1746729251440961000,6.2739609375,-0.09755378077924251,-0.004025565721653402,0.0040563261860981584
1746729251450979300,6.283979248046875,-0.09246727129518985,-0.0010663597230333834,0.0069733278776519
1746729251460996000,6.29399609375,-0.10204466245770454,-0.00017086305487900972,-0.005471362349484116
1746729251471014100,6.30401416015625,-0.097401805087924,-0.0038363724256400018,0.0020091295990161597
1746729251481031200,6.31403125,-0.10263678313195705,-0.0008202486080117524,0.007562233681511134
1746729251491048200,6.324048095703125,-0.10248773005008698,-0.006211969850026071,0.007853873571846633
1746729251501066200,6.334066162109375,-0.09769874220788478,-0.009136771255545318,-0.002420706074591726
1746729251511083000,6.3440830078125,-0.10293664286136626,-0.008000341970985755,-0.00779606070369482
1746729251521100300,6.354100341796875,-0.11281097114384174,-0.003954756374610588,-0.011229250022768974
1746729251531118000,6.3641181640625,-0.09784954885542392,-0.00841896010870114,0.002972513004764914
1746729251541135400,6.37413525390625,-0.10922434482872485,-0.01289130148347467,0.0013214943947270513
1746729251551153200,6.384153076171875,-0.10878069271445273,-0.01118055204283446,-0.0011734642261639237
1746729251561170200,6.394170166015625,-0.11372165624797344,0.0033693759683985263,0.0007251542030833661
1746729251571187200,6.404187255859375,-0.1110258412927389,-0.0037622386103495953,-0.005498688747826963
1746729251581205200,6.414205322265625,-0.10189677841961384,0.005260075952671468,0.000998746980074793
1746729251591222300,6.42422216796875,-0.11147183149456977,-0.0030163247470278293,-0.0039543636489659546
1746729251601240000,6.434239990234375,-0.10608487775921821,-0.007132993685081601,-0.002040766846295446
1746729251611257300,6.44425732421875,-0.10398702869713305,0.00006845299317501485,-0.004241162967402488
1746729251621274000,6.454274169921875,-0.11281447827517986,0.0012680837070569396,0.0008287607080303132
1746729251631292200,6.464292236328125,-0.1122153433382511,-0.004085077356547117,-0.004078629349451512
1746729251641309200,6.47430908203125,-0.10383505300581454,-0.001634350603027269,-0.0015535861175507307
1746729251651327200,6.4843271484375,-0.10114157613813876,-0.004470341213932261,-0.0007923011551611125
1746729251661344300,6.49434423828125,-0.10518179143965244,-0.0048087337222881615,-0.004097443647775798
1746729251671361300,6.504361328125,-0.1092225912630558,0.004270544325513765,0.0042947928507812315
1746729251681379300,6.51437939453125,-0.10473638575971125,-0.001129058828856796,0.0058933688875287766
1746729251691396400,6.524396240234375,-0.10802665947675705,0.00015477043660357595,0.0038457887079566713
1746729251701414100,6.5344140625,-0.11071721373498439,-0.0054904871750622985,0.0008474654085002839
1746729251711431200,6.54443115234375,-0.11415537149012088,-0.0041069329953286795,-0.002730977600160986
1746729251721448200,6.5544482421875,-0.1095142676860094,-0.005894063007272779,-0.006215769242309033
1746729251731466200,6.56446630859375,-0.10367781661748886,0.005482313001761213,-0.0035719767352566122
1746729251741483300,6.574483154296875,-0.11714461643397807,-0.0018393168569076806,-0.00009955138433724642
1746729251751501300,6.584501220703125,-0.10966215172410011,-0.003722947779577225,-0.0030289376334287224
1746729251761518300,6.594518310546875,-0.09873743760585785,-0.000011242913221940397,0.0010578202235512434
1746729251771535000,6.60453515625,-0.10607143375575542,-0.0009302117885090411,0.0005231470912694931
1746729251781553200,6.61455322265625,-0.10981062028408049,-0.0041893140491563825,-0.002536094348877668
1746729251791570200,6.624570068359375,-0.11145429583787918,0.003579173661023378,-0.000724350485485047
1746729251801588200,6.634588134765625,-0.10756196457445621,0.001493526493385434,0.0026350429450161753
1746729251811605200,6.644605224609375,-0.09933248088955879,-0.004796212167432532,-0.0021733985163271425
1746729251821622000,6.6546220703125,-0.11055471664965152,0.002469650649698451,-0.003986676749680191
1746729251831640300,6.664640380859375,-0.10112754761278629,0.002049845201894641,-0.008755516852997244
1746729251841657000,6.674656982421875,-0.10651567039191723,-0.0023820545646362004,-0.007283252343349159
1746729251851675400,6.68467529296875,-0.09992810869514941,-0.0007429638544097542,-0.00359464522479102
1746729251861692200,6.694692138671875,-0.10276888507902622,-0.0006321147579234093,0.0011129662105813622
1746729251871709200,6.704709228515625,-0.10022387677133082,-0.000028860768303275108,-0.0025787096478976307
1746729251881727200,6.714727294921875,-0.1044166522860527,-0.006495992689486593,-0.008482545130513608
1746729251891744300,6.724744140625,-0.10861293493211269,0.008331473621493205,-0.003942472281772643
1746729251901762300,6.73476220703125,-0.10143149899542331,0.0021126539055723696,0.000379372972715646
1746729251911779000,6.744779052734375,-0.09036123892664909,0.006458199696056544,-0.0002674187645316124
1746729251921796400,6.75479638671875,-0.10322948832809925,-0.002261515191197395,-0.0030987149340100583
1746729251931814100,6.764814208984375,-0.10667115321457385,-0.003044792789686471,-0.0034859789522364735
1746729251941831200,6.7748310546875,-0.10966332076787948,0.002109420768870041,0.0012063983813859521
1746729251951848200,6.78484814453125,-0.1069698439002037,-0.004222905791504308,0.0016228154288604854
1746729251961866200,6.7948662109375,-0.11295359448492526,-0.002770706822350621,0.004820442426390945
1746729251971883300,6.80488330078125,-0.1057715740263462,0.0003750895232427865,0.006907021175790578
1746729251981901000,6.814901123046875,-0.10636778635382652,-0.00210158452228643,0.005154807213600725
1746729251991918300,6.82491845703125,-0.1107078613847494,-0.0028566224069800227,-0.0018986184292472898
1746729252001935400,6.834935302734375,-0.10800912382006644,-0.004273768329061568,0.0000773395525291562
1746729252011953700,6.84495361328125,-0.10306932933032512,-0.003688397056004032,-0.0011944522152654827
1746729252021970400,6.854970458984375,-0.10351765761971474,-0.00630495449625887,0.004033036642055958
1746729252031988700,6.86498876953125,-0.09902443785369396,-0.0004775726501829922,0.00525050440672785
1746729252042005500,6.875005615234375,-0.1079980179041624,-0.0022610494003165514,-0.001661960129160434
1746729252052022800,6.885022705078125,-0.10410393307507038,-0.0008346059269271791,-0.0014044234378263354
1746729252062040600,6.89504052734375,-0.09706804308891295,-0.0013471676921006292,0.00677289166841656
1746729252072057600,6.9050576171875,-0.10559621745944023,-0.002719460692303255,0.010394114372879267
1746729252082075600,6.91507568359375,-0.10529811129570006,-0.00044570707404054696,0.003776614195574075
1746729252092092400,6.925092529296875,-0.11113222427666186,-0.006032302434183657,-0.002011906077992171
1746729252102109700,6.935109619140625,-0.09571662847995757,0.001281527710519731,0.005894775393325835
1746729252112127500,6.94512744140625,-0.09796177705824374,0.0012638367902021855,0.006298771350644529
1746729252122144800,6.955144775390625,-0.10619242978692055,0.008349228473892434,0.0028803777419030663
1746729252132162600,6.96516259765625,-0.1051443820387125,0.001111230911221355,0.0030933081065304575
1746729252142179600,6.9751796875,-0.10619067622125149,0.0014033183261286466,-0.0005871339718811214
1746729252152196600,6.985196533203125,-0.10035364063084125,0.0014766027580481022,-0.00553295634360984
1746729252162214400,6.99521435546875,-0.1018459250152111,0.000874125086562708,-0.002596738494932651
1746729252172231700,7.005231689453125,-0.1162064588010311,-0.007121723372396081,-0.0027249862507916986
1746729252182249500,7.01524951171875,-0.10393559077084064,-0.0010167392944917082,0.0011817753967829049
1746729252192266800,7.025266845703125,-0.11007014800310135,0.0009253164176829158,0.0037512605586089193
1746729252202283500,7.035283447265625,-0.1081195984572172,0.0005836177073884755,0.0035002084069885313
1746729252212301600,7.045301513671875,-0.11125906552672385,-0.0068469980842433865,0.0011707060134969651
1746729252222318600,7.055318603515625,-0.11545008747577666,-0.00963372445963323,0.007752148496732115
1746729252232335600,7.065335693359375,-0.10796879180967807,-0.004259776336327195,0.008322678393684326
1746729252242353700,7.075353759765625,-0.11050912394225597,0.000926795988716185,0.0051508068919181825
1746729252252370700,7.08537060546875,-0.09449906938374042,-0.0005427833735011518,-0.005511365566309541
1746729252262388700,7.095388671875,-0.10497603973448276,0.0026055154564324765,-0.0009625979544594884
1746729252272405500,7.105405517578125,-0.11185995402932167,0.002207392117474228,-0.0049452378498390315
1746729252282422500,7.115422607421875,-0.09345219067931175,0.007481989785842597,-0.00047932621585205197
1746729252292440600,7.125440673828125,-0.10213234074115753,0.0017020546775311232,0.005498816611990333
1746729252302457600,7.13545751953125,-0.11515315035581589,-0.00019812552114017307,-0.0004247282180935144
1746729252312475600,7.1454755859375,-0.11096329745054244,0.007814646673155947,0.006515793368499725
1746729252322492700,7.15549267578125,-0.10183365005552768,0.004965741781750694,-0.001494841667637229
1746729252332509400,7.165509521484375,-0.10407529150247573,0.0003341912572737783,0.009029566287714988
1746729252342527700,7.17552783203125,-0.10931319215595721,-0.00036452246345579625,0.009912048210669308
1746729252352544500,7.18554443359375,-0.09973463194966316,-0.00032983474256470795,-0.0038362902272492646
1746729252362562600,7.1955625,-0.10496902547180652,0.0051256907169707116,-0.0029865415301173924
1746729252372579600,7.20557958984375,-0.09748539171814918,-0.006226135372696444,-0.002692033829260617
1746729252382596600,7.2155966796875,-0.11110358270406723,-0.004584907504310831,-0.006482292957697063
1746729252392614700,7.22561474609375,-0.1075105266481638,0.002991172039462253,0.001496321238670498
1746729252402631400,7.23563134765625,-0.10930559337139129,-0.004946708287717774,-0.0008836327004246413
1746729252412649700,7.245649658203125,-0.10705810670554637,-0.00018724793409928678,0.0074719250495545566
1746729252422666500,7.25566650390625,-0.10915127959251403,0.0035613548765424637,0.004850234776455908
1746729252432683800,7.265683837890625,-0.10316752900779247,-0.007504676541686057,0.00320957316365093
1746729252442701600,7.27570166015625,-0.0968827496498823,0.0007623535414692014,0.01168592601539567
1746729252452718600,7.285718505859375,-0.11035188755393027,-0.002576846484374255,0.011436718760989605
1746729252462736600,7.295736572265625,-0.10855506726503372,-0.001583670728560537,0.0020436711894348263
1746729252472753400,7.30575341796875,-0.10526362450420856,-0.0070968994583934545,-0.002090999196190387
1746729252482770700,7.315770751953125,-0.10406944628357886,-0.007500575755303726,0.0036524763592518865
1746729252492788500,7.32578857421875,-0.10841010583639145,-0.00006895531667396425,0.0005060315596871077
1746729252502805500,7.335805419921875,-0.09763561384379864,-0.00011162541462108492,-0.0028505853918381033
1746729252512822500,7.345822509765625,-0.08491758656799793,0.0012641199179925023,0.005274378472659737
1746729252522840600,7.355840576171875,-0.09658990418314933,-0.004830635026842355,0.002134893136844039
1746729252532857600,7.365857666015625,-0.11813538103699683,0.000987202672753483,0.001983520233724266
1746729252542875600,7.375875732421875,-0.10810849254131316,-0.005302453789673745,0.005995970745477825
1746729252552892700,7.385892578125,-0.10541676923930644,-0.006677806396642699,0.007621051196660846
1746729252562909700,7.39590966796875,-0.10391805511415005,-0.0051825628702063115,0.006688227325957268
1746729252572927500,7.405927490234375,-0.10570903018414973,-0.00705626605390571,0.0016006583959795534
1746729252582944500,7.415944580078125,-0.10316343735456467,-0.005507931500207632,0.003121164227835834
1746729252592962600,7.425962646484375,-0.10226678077578544,-0.0037650698882527645,0.0012517536267638205
1746729252602979600,7.4359794921875,-0.09882453136742114,-0.003927101182704791,0.0015793964122422038
1746729252612996600,7.44599658203125,-0.10361293468773364,-0.006872671381616965,-0.0013911438311450183
1746729252623014700,7.4560146484375,-0.10121697946190833,0.0008244041933212428,0.0015529650630429386
1746729252633031700,7.46603173828125,-0.10106851090192794,-0.001327650140877813,-0.0005438793520443141
1746729252643049500,7.476049560546875,-0.1160328557997942,-0.00425397678320296,-0.006218819715920835
1746729252653066800,7.486066650390625,-0.11094634631574153,0.002785356402210891,0.0030061047471128402
1746729252663083500,7.49608349609375,-0.10899871937930583,0.001099138614628464,0.00907939677881077
1746729252673101600,7.5061015625,-0.10435761557519435,-0.0038796453117858616,0.013197737084142862
1746729252683118600,7.51611865234375,-0.10286474666893482,0.004433598533272743,0.007565284155122936
1746729252693135600,7.526135498046875,-0.11154372768700122,-0.0034539398461580274,-0.0028911183316260576
1746729252703153700,7.536153564453125,-0.1013666170656681,-0.004673900962015614,0.003824654588382691
1746729252713170400,7.54617041015625,-0.09837386499047279,0.005242604228062555,0.004444594851322472
1746729252723188700,7.556188720703125,-0.10436229175031185,0.00002005640733987093,-0.0012801212047226726
1746729252733205500,7.56620556640625,-0.10436462983787059,0.00338469226853922,0.010791936317738145
1746729252743222500,7.576222412109375,-0.10690730005800723,0.004504809739114717,-0.0005679908799938857
1746729252753240600,7.586240478515625,-0.10780278759300709,0.0026347324177622795,0.0005348557953722775
1746729252763257600,7.596257568359375,-0.11094809988141059,-0.005570731070730835,0.002363422929402441
1746729252773275600,7.606275634765625,-0.10616320369243622,-0.007294723585434258,0.006355269044544547
1746729252783292400,7.61629248046875,-0.09957856460511684,0.006680701606627554,0.002676434401329607
1746729252793309700,7.626309814453125,-0.09688450321555137,0.0033784908566158265,-0.0024540055559948083
1746729252803327500,7.636327392578125,-0.09853051685690879,0.0032828667287249117,-0.0021361535121686755
1746729252813344500,7.646344482421875,-0.09897650705873966,-0.005977074248762801,0.006224774532672017
1746729252823362600,7.656362548828125,-0.10286474666893482,-0.0077618022410664705,0.003466744528803974
1746729252833379600,7.666379638671875,-0.10660510224103927,-0.007726977522857487,-0.0009603511984460055
1746729252843396600,7.676396728515625,-0.10211655865013598,-0.003136590125830844,0.0027186113089323043
1746729252853414700,7.68641455078125,-0.0964256535321474,-0.006376019571628421,-0.0028156236763112246
1746729252863431700,7.696431640625,-0.10316109926700591,-0.0007640340419020503,0.0022430114201270044
1746729252873448700,7.70644873046875,-0.11094283918440341,-0.0048628567960113285,0.004055504202190786
1746729252883466500,7.716466552734375,-0.10106851090192794,0.0045988172986544664,0.012905640536081045
1746729252893483500,7.7264833984375,-0.10915361768007278,-0.003165149500034749,0.008294968402851372
1746729252903501600,7.73650146484375,-0.10750877308249474,-0.0006379143110476434,-0.0025237828565761447
1746729252913518600,7.7465185546875,-0.09314180955588817,-0.002333246986847371,0.009185469235479832
1746729252923535600,7.75653564453125,-0.09239245249330998,0.0021648042179178446,0.012532660771533847
1746729252933553700,7.7665537109375,-0.10361235016584396,0.00006211458393372595,0.004937310271710157
1746729252943570700,7.77657080078125,-0.11094517727196215,-0.005048625159077346,0.008804178300313652
1746729252953588500,7.78658837890625,-0.11722586497664451,0.0000838149590883404,-0.0025337197287008165
1746729252963605800,7.796605712890625,-0.10689677866399287,-0.0033477851910982278,0.00685505352653563
1746729252973622500,7.80662255859375,-0.10540040262639522,-0.0033411727872211484,0.005956679914705455
1746729252983640600,7.816640625,-0.10001403341293334,-0.0006513491813559084,0.005641366887837648
1746729252993657600,7.82665771484375,-0.10420388631820678,-0.0050385512896347785,0.004648063267860561
1746729253003675600,7.836675537109375,-0.11018705238103865,-0.007505754253920167,0.005446574968099594
1746729253013692200,7.846692138671875,-0.10001052628159522,-0.0006561532206367701,-0.006787742177676409
1746729253023709200,7.856709228515625,-0.10375497350692749,-0.0012910627238452434,0.0002208944753743708
1746729253033727200,7.866727294921875,-0.10928981128036976,-0.006206371226301416,0.002021167096681893
1746729253043744300,7.876744140625,-0.11093524039983749,-0.00024224779065698383,0.014525971746910362
1746729253053762300,7.88676220703125,-0.11303367398381232,0.003886339914053678,-0.0008364325578324496
1746729253063779000,7.896779052734375,-0.10884265203475951,-0.002937231628829613,-0.0035861696573905645
1746729253073796400,7.90679638671875,-0.11228373239934444,-0.001604530853498727,0.004366926505230367
1746729253083814100,7.916814208984375,-0.10704700078964233,-0.0016345149998087435,0.004612864090315997
1746729253093831400,7.92683154296875,-0.10734393790960312,0.0023602171921636907,0.013829714844748377
1746729253103848200,7.93684814453125,-0.10689560962021351,0.002344855226250365,0.004952434775605798
1746729253113866200,7.9468662109375,-0.09462474159002303,-0.0037903504599817095,0.001163271625712514
1746729253123883300,7.95688330078125,-0.11647007817327976,-0.002613324303552508,0.001756013354472816
1746729253133901000,7.966901123046875,-0.10659282728135586,-0.007300797133194282,-0.002181070366129279
1746729253143918300,7.97691845703125,-0.10434709418117999,-0.0010321377930231392,-0.0018477467585355043
1746729253153935000,7.98693505859375,-0.10210253012478351,-0.003936873658047989,0.0012627499448135495
1746729253163953400,7.996953369140625,-0.11003624573349952,-0.0020442557113245128,-0.0015804375918582081
1746729253173970200,8.00697021484375,-0.10704583174586295,-0.002725671237381175,0.0018638028441928325
1746729253183988200,8.01698828125,-0.11453005002140998,0.002236298551550135,0.004157832065504044
1746729253194005200,8.027005126953124,-0.10584931543767452,-0.002458362070703879,0.011233889665268362
1746729253204022300,8.037022216796874,-0.10420563988387584,-0.002879099100269377,-0.00028471695920452474
1746729253214040300,8.047040283203126,-0.10780278759300709,-0.004539022535970434,-0.003295954539161175
1746729253224057000,8.05705712890625,-0.11244096878767013,-0.0006156750797759741,0.0040755423432216045
1746729253234074000,8.06707421875,-0.11274199756085872,-0.003954153586411848,-0.0020187559438869357
1746729253244092200,8.077092041015625,-0.10331482852399348,0.0028259715403895825,0.0005561543117277324
1746729253254109200,8.087109130859375,-0.09732464819848537,-0.008106313962955027,-0.0016565350353717804
1746729253264127200,8.097127197265625,-0.1015150856256485,-0.003727340826904401,0.003434833286888897
1746729253274144300,8.107144287109374,-0.11378595365583896,0.0019092585542704909,0.004209196926560252
1746729253284161300,8.117161376953124,-0.10720131456851958,0.0014998557694721967,-0.0002358545824885368
1746729253294179300,8.127179443359376,-0.10645429559350013,-0.008663509454298763,0.0019720672579482197
1746729253304196000,8.137196044921875,-0.09942074369490146,0.001332463313313201,-0.002797339100949466
1746729253314214100,8.147214111328125,-0.10360825851261615,-0.007922363097639754,-0.0032973062460310756
1746729253324231200,8.157231201171875,-0.10525427215397358,0.00396351506980136,0.00011361644230782985
1746729253334248200,8.167248291015625,-0.09268529796004295,-0.003431015628296882,0.0009344130395911634
1746729253344266200,8.177266357421875,-0.112437461656332,-0.003087910412205383,-0.0004512326325289905
1746729253354283300,8.187283203125,-0.10600362921655178,0.004014898197166622,0.006741966807190329
1746729253364301300,8.19730126953125,-0.09986965650618075,-0.00350779805839993,0.0007519508784636855
1746729253374318000,8.207318115234376,-0.11019582020938395,0.003269413592107594,-0.004506846432574093
1746729253384335400,8.21733544921875,-0.117073889285326,-0.0036907260104082525,-0.0022356866301968693
1746729253394353200,8.227353271484375,-0.10135843375921248,-0.004541406289301812,-0.004976966428663581
1746729253404370400,8.237370361328125,-0.10495441242456435,-0.005127526481030508,0.009586359920259564
1746729253414388200,8.24738818359375,-0.10106266568303107,-0.006777001587953418,0.0003571794072166085
1746729253424405000,8.257405029296875,-0.10899228963851929,0.00207296121600084,-0.002446096244174987
1746729253434422300,8.26742236328125,-0.08969079231917858,-0.0035188126427587118,-0.0008776961499825119
1746729253444440000,8.277440185546874,-0.10929156484603882,0.004986017384799197,-0.0010383300717920064
1746729253454457300,8.287457275390626,-0.10614508351385593,-0.0036188389511313287,-0.0027208945975638926
1746729253464474000,8.29747412109375,-0.10719079317450522,-0.005150441565737128,0.0003369220704771578
1746729253474492400,8.307492431640625,-0.11033435189723968,-0.003959487348655239,0.005527038059476763
1746729253484509200,8.31750927734375,-0.09806289934515952,0.001605562899960205,0.0002085099178366363
1746729253494527000,8.32752685546875,-0.10344868403673171,-0.005945427868328988,-0.0003747698628343641
1746729253504544300,8.337544189453125,-0.10494622911810875,0.0011315247805789113,0.0058074624360539015
1746729253514561300,8.347561279296874,-0.09956044442653655,0.000928503888612613,0.005407229338400065
1746729253524579300,8.357579345703124,-0.0985123966783285,0.0001398285957984626,0.0033997985061258074
1746729253534596000,8.36759619140625,-0.10150339518785476,-0.008111958252452313,0.006442837730143219
1746729253544614400,8.377614501953126,-0.10345102212429046,-0.007718867281638085,-0.005869239093270152
1746729253554631200,8.387631103515625,-0.11213117218613623,-0.010544007704965769,0.007703888908214867
1746729253564648200,8.397648193359375,-0.1046475384324789,0.0012964512850157917,0.008084138663765042
1746729253574666200,8.407666259765625,-0.1071878705650568,0.00282419970841147,-0.000874152486026287
1746729253584683300,8.417683349609375,-0.09970949750840663,-0.002072723753983155,0.0022190277563408018
1746729253594701300,8.427701416015625,-0.1064426051557064,-0.003926671924442053,0.0020760573553852734
1746729253604718300,8.43771826171875,-0.1034492685586214,-0.009326594739221036,0.0016352913179434835
1746729253614735000,8.447735107421876,-0.10210428369045257,-0.0016351543206255881,-0.004009180842433124
1746729253624753200,8.457753173828126,-0.09761457105576991,0.005236384549830109,0.01254031435502693
1746729253634770200,8.467770263671875,-0.10883563777208327,-0.009689984691515564,0.0014281148406676948
1746729253644787200,8.477787109375,-0.10030512531399727,0.006305922610638663,-0.0034634200605563816
1746729253654805200,8.48780517578125,-0.1025514429360628,0.0004166271100286394,0.012078012339212
1746729253664822000,8.497822021484374,-0.09851005859076976,-0.006876744768535718,0.001967263218667358
1746729253674840300,8.50784033203125,-0.11332184327542781,-0.0009390800815541297,0.008462835783045738
1746729253684857000,8.517857177734374,-0.1067389577537775,-0.00656999864061363,0.0020177695631980893
1746729253694874400,8.527874267578126,-0.1098807629108429,-0.001054130429122597,0.004348714995104819
1746729253704892200,8.53789208984375,-0.10613690020740031,-0.001194178220629692,-0.0020388854164630175
1746729253714909400,8.547909423828125,-0.10718027178049087,-0.004396709722140803,-0.004593428737483919
1746729253724927200,8.55792724609375,-0.11869827561676502,-0.0037855372875463217,0.010257719843182711
1746729253734944000,8.567944091796875,-0.09969488446116447,0.0024917894162703306,0.0057583991299383335
1746729253744961300,8.577961181640624,-0.10089198529124259,0.0006048157590441406,0.007713076861668377
1746729253754979000,8.58797900390625,-0.10957388891875743,0.002251496120681986,0.0040978820391930635
1746729253764996400,8.597996337890624,-0.09655483286976814,-0.005087824658304453,0.010242978931777178
1746729253775014100,8.60801416015625,-0.11959785480499267,-0.0014774704077281057,0.012991802715882659
1746729253785031400,8.618031494140626,-0.09909925665557384,-0.004741659835446626,0.007259414810035377
1746729253795048200,8.628048095703125,-0.0953583165615797,-0.00668952423390001,-0.0015136559659615159
1746729253805066000,8.63806591796875,-0.10388882901966572,0.00018215163387358188,-0.00441737805083394
1746729253815083300,8.648083251953125,-0.11406243250966071,-0.002528504697466269,-0.0010617109473794698
1746729253825100300,8.658100341796874,-0.11062076762318611,-0.0066814505252987145,-0.00043057343699038025
1746729253835118300,8.668118408203124,-0.10283902770578861,-0.00677917527873069,0.0007424523977562784
1746729253845135000,8.678135009765626,-0.1122679503083229,0.0015890684228856116,0.0025981450007297098
1746729253855153400,8.6881533203125,-0.10463701703846454,-0.0002711724910419434,0.007401380563993007
1746729253865170200,8.698170166015625,-0.11406067894399166,-0.008972776332870126,-0.005320683566108346
1746729253875187200,8.708187255859375,-0.10537819079458713,-0.005468375807953998,0.005562986155692487
1746729253885205200,8.718205322265625,-0.10418284353017807,0.00217493288628757,0.007364281690306961
1746729253895222300,8.72822216796875,-0.10942425131499767,-0.0029782394926529377,0.0012398257269524036
1746729253905240300,8.738240234375,-0.10134265166819095,-0.003505825297022238,-0.009064162677060813
1746729253915257000,8.748257080078124,-0.111518008723855,-0.0012209018307738006,-0.0009736856040544808
1746729253925274000,8.758274169921876,-0.1001467198818922,-0.0033248975058551874,0.005191887820977717
1746729253935292200,8.768292236328126,-0.10433481922149658,0.0013523553238715975,0.0027540662148036062
1746729253945309200,8.77830908203125,-0.10508242271840572,-0.0019015410386957227,0.01567002721549943
1746729253955326200,8.788326171875,-0.10463643251657485,-0.005220401529408991,0.002133632761519402
1746729253965344300,8.79834423828125,-0.10119009145498276,0.0006942567413207143,0.0031979923237115144
1746729253975361000,8.808361083984375,-0.10852233403921127,0.0049118561700452115,0.0038928427200764417
1746729253985379300,8.81837939453125,-0.09879588979482651,0.0009748546478338539,0.006340783861465752
1746729253995396000,8.82839599609375,-0.0973012673228979,-0.004715027556847781,0.007531637613847851
1746729254005413400,8.838413330078126,-0.09909808761179446,0.00399892430990003,-0.0011667056918144225
1746729254015430700,8.8484306640625,-0.10299334148466587,0.004315488578937947,0.004160535479243844
1746729254025448000,8.858447998046875,-0.10539105027616023,0.0024223957081791012,-0.004105572155304253
1746729254035465700,8.8684658203125,-0.09865794262886046,-0.00412844157423824,0.0009637487319298088
1746729254045482800,8.878482666015625,-0.10778583645820618,-0.0044447318486403676,0.006801971632428467
1746729254055499800,8.888499755859375,-0.10329904643297194,-0.005317815755587071,0.008657664235401898
1746729254065517800,8.898517822265624,-0.10314765526354312,-0.00458152823713608,-0.0027903796372003853
1746729254075534800,8.908534912109374,-0.10688917987942695,0.0015158205235842614,0.0008333820842206477
1746729254085551600,8.918551513671876,-0.10733692364692687,0.00585289074666798,-0.0030242614583112296
1746729254095570000,8.92856982421875,-0.11182605175971984,0.002484893884602934,0.0103504578942433
1746729254105586700,8.938586669921875,-0.0932668972402811,0.0007769574555568396,0.009599986586812883
1746729254115605000,8.94860498046875,-0.10897767659127712,-0.0008271076070610434,0.008095646438468248
1746729254125621800,8.958621826171875,-0.10957622700631618,-0.003814178860140964,-0.005690028335154056
1746729254135638800,8.968638671875,-0.10792962884306907,0.0013798461189959198,-0.006879987038392574
1746729254145656800,8.97865673828125,-0.11256897908151149,-0.002262857764912769,0.009767762635461986
1746729254155673900,8.988673828125,-0.10792962884306907,0.0004383548846468329,0.005674301043059676
1746729254165692000,8.99869189453125,-0.09460954402089118,-0.0024855332054197787,0.0029739560431800783
1746729254175708700,9.008708740234376,-0.08951660479605197,0.0018071407535113393,0.006482128560915589
1746729254185725700,9.0187255859375,-0.10717267299592495,-0.000522032846417278,0.0015494761980138717
1746729254195743700,9.02874365234375,-0.10986498081982135,0.003389505440974608,-0.0005600633018650115
1746729254205760800,9.0387607421875,-0.10327683460116385,-0.002073198678018525,0.005272862369008362
1746729254215777800,9.04877783203125,-0.10192658903598785,-0.0029290391892194748,-0.003006123013421893
1746729254225795800,9.0587958984375,-0.1086556050300598,0.01135336959278211,0.0014925766453146934
1746729254235812900,9.068812744140626,-0.11493746177852153,-0.004017364148888737,0.004238386488426477
1746729254245830700,9.07883056640625,-0.10506079540848731,0.0015817344998009502,0.010355554194469005
1746729254255847700,9.08884765625,-0.09847615632116793,0.0024155001765117047,-0.0002698116510175168
1746729254265865000,9.098864990234375,-0.09548340424597263,-0.000672739029256627,0.006914546895120293
1746729254275882800,9.1088828125,-0.11075053148269652,-0.00371862779748626,0.0047663558852858836
1746729254285899800,9.118899658203125,-0.10296703799962997,-0.0028235695207491514,0.002547839585598558
1746729254295917800,9.128917724609375,-0.1043120228677988,-0.0037850166977383194,0.004612370899971574
1746729254305934800,9.138934814453124,-0.09518237547278403,0.001935863433405757,0.0002843516330234706
1746729254315951900,9.148951904296876,-0.09802548994421958,-0.0005853256072849035,0.009264233560115099
1746729254325969700,9.1589697265625,-0.10475918211340904,-0.0012425291406922042,0.0072302069818601005
1746729254335987000,9.168987060546876,-0.1020633671581745,-0.004057385632023215,-0.000374094009399414
1746729254346004700,9.179004638671875,-0.10281389326453208,-0.004835174204641953,0.0052766617612913244
1746729254356021800,9.189021728515625,-0.11089841552078723,-0.0018778861684724687,0.01078736974047497
1746729254366038800,9.199038818359375,-0.106861122828722,0.00010235526277683674,0.0023646285057999194
1746729254376056800,9.209056884765625,-0.10566519104242324,-0.004929784552380442,0.004897124391794205
1746729254386073900,9.219073974609374,-0.09863339270949363,0.007539062868477776,-0.00292131254049018
1746729254396090600,9.229090576171876,-0.10476853446364402,0.0025624434996861963,0.005153272843640297
1746729254406109000,9.23910888671875,-0.10581716673374175,0.0014034005245193838,0.001459331962838769
1746729254416125700,9.249125732421875,-0.0995318028539419,-0.003960729457670823,0.010160780541040002
1746729254426144000,9.25914404296875,-0.104621234947443,0.0027211137932725248,0.0025761706309393047
1746729254436160800,9.269160888671875,-0.10282441465854644,-0.0017459303518757223,-0.001465725171007216
1746729254446177800,9.279177734375,-0.10462006590366363,0.0011771083548199385,0.010003178826533258
1746729254456195800,9.28919580078125,-0.10970715990960597,-0.0022744386048521846,0.0016631291729398072
1746729254466212900,9.299212890625,-0.10417173761427402,-0.00740653166314587,0.008603723824769259
1746729254476230000,9.30922998046875,-0.10357260267734526,0.0021763211257755754,0.005425513913761824
1746729254486247700,9.31924755859375,-0.10955576874017715,0.0023680808382108808,0.0051707537014037365
1746729254496264700,9.3292646484375,-0.10970423730015753,0.0022455778365489095,0.004628755779191852
1746729254506282800,9.33928271484375,-0.09758534496128558,0.002872477563237771,-0.007774798719957471
1746729254516299800,9.3492998046875,-0.10013035326898097,-0.003404730409570038,0.0012947342519648373
1746729254526316800,9.35931689453125,-0.10926058518588543,-0.0036322920877486465,0.0019840499566867948
1746729254536334800,9.3693349609375,-0.11299977171421051,0.0025371537948027253,0.011368749825004488
1746729254546351900,9.379351806640624,-0.10177519786655902,0.006947325786715373,0.006621591830532998
1746729254556369700,9.38936962890625,-0.09863514627516269,0.004611265788273885,0.00593160027237609
1746729254566386700,9.39938671875,-0.102821492049098,-0.0029339984921272844,0.0027751455354504285
1746729254576404000,9.409404052734375,-0.10356909554600716,0.0009554375613108276,0.011381791969668119
1746729254586421800,9.419421875,-0.1061117657661438,-0.005427486675139516,0.00045941593898460266
1746729254596438800,9.429438720703125,-0.10281856943964958,0.003930489583034068,0.0054246371309272946
1746729254606455800,9.439455810546875,-0.1020639516800642,-0.004848106751451269,0.003469356610998511
1746729254616473900,9.449473876953125,-0.1071481230765581,-0.004145584505284205,0.006209650028776377
1746729254626491000,9.459490966796874,-0.1092395423978567,-0.0021205723505467173,0.01604490667618811
1746729254636508700,9.4695087890625,-0.10579495490193366,-0.0017514924429822712,0.008742292045243084
1746729254646526000,9.47952587890625,-0.10504618236124515,-0.0018562771248631178,0.0075130425112321965
1746729254656542700,9.489542724609375,-0.1019026236385107,0.00014565554838627575,-0.0008772760248742997
1746729254666560800,9.499560791015625,-0.10639058270752429,-0.006076561701018363,-0.005215140832401812
1746729254676577800,9.509577880859375,-0.1051917283117771,0.0007257752575911582,0.011669979527592658
1746729254686595800,9.519595947265625,-0.10010521882772445,0.0026104016941040755,0.013759444353822618
1746729254696612900,9.52961279296875,-0.09292202932536602,-0.0035966636519413437,0.0006689853027462959
1746729254706629600,9.539629638671874,-0.10848317107260226,0.0017985099224839358,0.009689929892588406
1746729254716648000,9.54964794921875,-0.10564297921061515,-0.0062190845774021,0.0003910086115822196
1746729254726664700,9.559664794921876,-0.10818389586508273,-0.004201936068711802,0.014710041343234479
1746729254736681700,9.569681640625,-0.0995019922375679,0.0009268325213342905,0.009178856831602751
1746729254746699800,9.57969970703125,-0.10638415296673774,-0.0012519271566998212,0.007763236146327107
1746729254756716800,9.589716796875,-0.09740998839437962,-0.0012734814013820141,0.00562753929188475
1746729254766734800,9.59973486328125,-0.10489069953858851,-0.0013721834023483097,0.001232117344532162
1746729254776751900,9.609751953125,-0.1017500634253025,-0.007126317349122837,0.011956011661048978
1746729254786769000,9.619768798828124,-0.10459434694051742,-0.0017789010397158563,0.012803970259893684
1746729254796786700,9.62978662109375,-0.10534136591553687,-0.0029006990107242015,0.009948032839503138
1746729254806803700,9.6398037109375,-0.10518939022421836,0.0003240534557495266,0.0006773512722924351
1746729254816821800,9.64982177734375,-0.09695698392987251,-0.006886900836369022,0.004118924827221781
1746729254826838800,9.6598388671875,-0.10997837806642055,0.0076058901601471,0.01219460618989542
1746729254836855800,9.669855712890625,-0.10698562599122524,-0.0009467519313562661,0.0029215317361988126
1746729254846873900,9.679873779296875,-0.1092313590914011,-0.005037756705190986,0.007622658631857484
1746729254856890600,9.689890625,-0.1036976903617382,0.00006878178673796356,0.012086159113049506
1746729254866908000,9.699907958984374,-0.0986088427901268,-0.0002025185684673488,-0.0028215967593714594
1746729254876925700,9.70992578125,-0.10923428170084952,0.005362011090340092,0.009805884422454983
1746729254886943000,9.71994287109375,-0.09546645311117172,-0.00017805084749124942,0.0156829780286178
1746729254896960800,9.729960693359375,-0.10504209070801734,-0.0007875610479619353,0.011375910218153148
1746729254906977800,9.739977783203125,-0.10339549254477023,0.0006457688239403068,0.011962295271363109
1746729254916994800,9.749994873046875,-0.1069867950350046,0.0017707542658783495,0.0034166400430724023
1746729254927012600,9.7600126953125,-0.10878361532390117,0.0006007515052799135,-0.0008203216732479632
1746729254937030000,9.77002978515625,-0.11147650766968727,-0.00569963641371578,0.0048934528636746105
1746729254947047700,9.780047607421874,-0.10608838489055633,-0.00011221906966529785,0.0074973700180649755
1746729254957065000,9.79006494140625,-0.11057400587201117,0.001606266152858734,0.0019286117087118327
1746729254967081700,9.800081787109375,-0.09426350706219673,-0.006397418552683666,0.01290209687212482
1746729254977099800,9.810099853515625,-0.09680559276044368,-0.00019357721018604932,0.00529931198451668
1746729254987116800,9.82011669921875,-0.10249240622520446,-0.0015685462246648966,0.005569598559569567
1746729254997133800,9.8301337890625,-0.11176993765830993,-0.0014884484594687819,0.0034323490688577293
1746729255007151900,9.84015185546875,-0.10862520989179611,0.001192315057106316,0.0022352847713977097
1746729255017169000,9.8501689453125,-0.09949673154056071,-0.001619956751493737,0.015515549039840697
1746729255027187000,9.86018701171875,-0.10234101505577564,-0.004474679462332278,0.001765511835180223
1746729255037204000,9.870203857421876,-0.10907353818118572,-0.004054682218283414,-0.006800948719121515
1746729255047221000,9.880220947265625,-0.10892506962120532,0.0012885328400414435,0.0021811799639835953
1746729255057238800,9.89023876953125,-0.10473638575971125,-0.0018202468302566557,0.007149579493701458
1746729255067256000,9.900256103515625,-0.10563479590415954,-0.002535308897588402,0.00288580283569172
1746729255077273900,9.91027392578125,-0.10353519327640533,-0.00037537265103310347,-0.0012278612945228814
1746729255087291000,9.920290771484375,-0.10577975733280182,-0.00141505442969501,0.009541443066298961
1746729255097308000,9.930307861328124,-0.10443184985518456,0.0026626798706129193,0.008436532298009843
1746729255107326000,9.940325927734374,-0.10563362686038016,0.0023553126881830392,0.014876209956686943
1746729255117343000,9.950343017578126,-0.10443652603030204,-0.003479110820032656,0.009194602390006183
1746729255127359700,9.96035986328125,-0.0980032781124115,0.000786903460836038,0.00394596114680171
1746729255137378000,9.9703779296875,-0.10593465563356876,-0.0019966993757057935,0.007383808374684304
1746729255147394800,9.980394775390625,-0.09531097028851508,-0.002002508061984554,-0.005202354416064918
1746729255157413000,9.9904130859375,-0.10354220753908157,-0.001718284293124452,0.00447442373400554
1746729255167430000,10.000429931640625,-0.10563888755738735,-0.0006151818894315511,0.005015691003855317
1746729255177447000,10.010447021484374,-0.1174573356449604,-0.005978818681277334,0.0027491160450503226
1746729255187465000,10.02046484375,-0.10818331134319305,-0.001441841971920803,-0.002899466034863144
1746729255197482000,10.03048193359375,-0.1084820020288229,-0.0028917485192883757,0.0005776172248646616
1746729255207499000,10.0404990234375,-0.10863222415447235,0.0011347213846631347,0.004305953565612435
1746729255217516800,10.050516845703125,-0.12164952663779258,-0.009454212307417765,0.005471563278883695
1746729255227533800,10.060533935546875,-0.10848083298504352,-0.005164068232290446,0.012670954997371881
1746729255237551900,10.0705517578125,-0.1010007063627243,0.000618131898343563,0.006883548968657851
1746729255247569000,10.08056884765625,-0.09696341367065905,0.004513431436987594,0.006286715586669742
1746729255257586000,10.0905859375,-0.10265139617919922,0.0013219327861443161,0.004328548989910632
1746729255267604000,10.10060400390625,-0.10669278052449226,-0.0027390695750713345,0.0023333017857745286
1746729255277621000,10.11062109375,-0.09486907173991203,-0.005336675719683989,-0.0010368139681406318
1746729255287638800,10.120638671875,-0.1044470474243164,0.002101767185376957,0.0037387664032168685
1746729255297655800,10.13065576171875,-0.10684475621581077,0.00017781338547356426,0.0017350618979893623
1746729255307673000,10.140673095703125,-0.10445230812132358,-0.0009093059977982193,0.0030783662657253444
1746729255317691000,10.15069091796875,-0.11148761358559131,-0.0011558098384644837,0.00642826121551916
1746729255327708000,10.1607080078125,-0.10026537782549858,-0.0013362353061325846,0.004755523964017629
1746729255337725000,10.170724853515624,-0.10220949763059616,-0.0011321549682412296,0.0013940481742843985
1746729255347743000,10.180742919921874,-0.09607377135455608,0.0013263623660895972,0.006242931243870407
1746729255357760000,10.190760009765626,-0.10864391459226608,-0.0017737134079448878,0.001452920488361269
1746729255367777800,10.20077783203125,-0.11028466753661632,-0.003356507353670895,0.0020783589103259147
1746729255377795000,10.210795166015625,-0.1116314059704542,-0.0028268300569150597,0.0060855669913813465
1746729255387811800,10.220811767578125,-0.11118249315917492,-0.002509379871888086,0.017026592923607677
1746729255397830000,10.230829833984375,-0.1020551838517189,0.0022719635199755428,0.010943290954548865
1746729255407847000,10.240846923828125,-0.11477613373696803,-0.002595459853298962,-0.002128737390693277
1746729255417865000,10.250864990234374,-0.11642273190021514,0.003357027943478897,-0.000430591703299433
1746729255427882000,10.260882080078124,-0.09891454773843288,0.006097650154819711,0.009944982365891336
1746729255437898800,10.270898681640626,-0.11118658481240272,-0.0061624955519568175,0.006503628006670623
1746729255447917000,10.2809169921875,-0.10969079329669475,-0.002120398820610717,-0.004065989063587039
1746729255457933800,10.290933837890625,-0.10161211625933647,0.004778804374905303,0.00021430033780634402
1746729255467950800,10.300950927734375,-0.09891980843544006,0.00003735460201278329,0.0016876060270704328
1746729255477969000,10.310968994140625,-0.1022124202400446,-0.002211511170165613,0.006816146288253367
1746729255487986000,10.32098583984375,-0.10415770908892154,-0.0028608967232983556,0.007317501672822982
1746729255498004000,10.33100390625,-0.11089257030189037,0.0057937170384917405,-0.0003718289870768785
1746729255508021000,10.34102099609375,-0.09667465985715389,-0.006112281468370929,0.002316715977154672
1746729255518038000,10.3510380859375,-0.09593056349158287,0.002268081929301843,0.007159461566898971
1746729255528055800,10.361055908203125,-0.10924772570431232,-0.0004135309706442058,0.010162168780528008
1746729255538072800,10.37107275390625,-0.11388532237708568,0.004226294191833585,0.012612064416985959
1746729255548089900,10.38108984375,-0.10087094250321388,0.0013162976298015563,0.00980566522674635
1746729255558108000,10.39110791015625,-0.10251812518835067,-0.007174175078840926,0.00587523044263944
1746729255568125000,10.401125,-0.10760521919429301,0.0032958266749978063,-0.0005323715773411095
1746729255578143000,10.41114306640625,-0.10071545968055724,-0.0026512177616823465,0.0002782689521089196
1746729255588160000,10.421159912109376,-0.10969313138425349,0.002293472098885104,0.0041987303314730525
1746729255598177000,10.431177001953126,-0.1059504377245903,-0.003483978791395202,0.0027428141684271395
1746729255608194800,10.44119482421875,-0.10325520729124546,0.001385344278020784,0.008453282503411173
1746729255618212000,10.451212158203125,-0.10639408983886241,-0.001884206311404705,0.0010525960591621696
1746729255628230000,10.46122998046875,-0.09771393977701663,-0.006932173883356154,-0.001717507974989712
1746729255638247000,10.471246826171875,-0.09666589202880858,-0.0017463322106748818,0.005919142649602144
1746729255648264000,10.481263916015624,-0.10280512543618678,-0.0018481212178710848,0.004421177443116903
1746729255658281700,10.49128173828125,-0.11447568948566914,-0.004372369865328073,0.005736936216801405
1746729255668299000,10.501299072265626,-0.1209077683597803,-0.005221853700978681,0.007069773989450186
1746729255678315800,10.511315673828125,-0.10878536888957023,0.007801111338147893,0.0009414638348855078
1746729255688334000,10.521333984375,-0.09920739320516586,0.00644105676501058,0.0015192089239135383
1746729255698350800,10.531350830078125,-0.10399696556925773,0.0022029716706834734,0.013791063334792852
1746729255708369000,10.541368896484375,-0.09696458271443843,-0.0005747859469614923,-0.00011953472644090652
1746729255718386000,10.551385986328125,-0.09995850383341312,-0.00019458185718394816,0.000711253541894257
1746729255728403000,10.56140283203125,-0.1011573582291603,-0.0016616222024429588,-0.002997702244948596
1746729255738421000,10.5714208984375,-0.10205401480793952,0.002369003286818042,0.005111205533891916
1746729255748437800,10.581437744140626,-0.09696575175821781,-0.002801165892696008,0.009299980726931244
1746729255758455000,10.591455078125,-0.10235036740601063,-0.00028257980104535817,0.009605722207855433
1746729255768472800,10.601472900390625,-0.10369710583984851,-0.0015734415954910218,0.013578845356218516
1746729255778489900,10.61148974609375,-0.10459610050618648,-0.0007348627463448792,0.004830434097442776
1746729255788508000,10.6215078125,-0.1039981346130371,0.006098316875100135,0.005152797919604927
1746729255798525000,10.63152490234375,-0.10459902311563492,0.0022485826443880796,0.011499043407477438
1746729255808542000,10.6415419921875,-0.09741349552571774,-0.004186537570180371,0.012076861561741679
1746729255818560000,10.65156005859375,-0.1050438442736864,0.0016847564828582108,0.006177976248878985
1746729255828577000,10.661576904296876,-0.11357435673177242,-0.0008027494839392601,0.004959430771972984
1746729255838594000,10.671593994140625,-0.10459785407185554,0.002798343747947365,0.004676284715346992
1746729255848611800,10.68161181640625,-0.09816109902262687,-0.0022710776039864865,0.013225173080340028
1746729255858628900,10.69162890625,-0.11357377220988273,-0.0003016954934690148,0.011149042659718543
1746729255868647000,10.70164697265625,-0.10982990950644016,-0.003566442043613642,0.0040932058640755714
1746729255878664000,10.711663818359375,-0.11326923630535601,0.003053871145285666,0.002348371490743011
1746729255888681000,10.721680908203124,-0.1039940429598093,0.0036665596835315224,0.012269169263448565
1746729255898698800,10.73169873046875,-0.09755787243247031,0.004686769576743245,0.005297448820993304
1746729255908716000,10.741716064453126,-0.09621288756430149,0.0023564999982714652,0.006608531419560313
1746729255918733800,10.75173388671875,-0.1001028807401657,0.000021736907772719858,0.014816862718574702
1746729255928751000,10.761751220703125,-0.09980360553264617,0.010366851906618103,0.007935249978676439
1746729255938768000,10.771767822265625,-0.11491758803427218,0.005403932269616052,0.01112708655623719
1746729255948786000,10.781785888671875,-0.10683832647502421,-0.0003765599611215293,0.0015401969130150973
1746729255958803000,10.791802978515625,-0.10339432350099086,0.003604819558933377,0.004144662056677044
1746729255968820000,10.801820068359374,-0.1020505076766014,-0.005257527802558616,0.012692892834544181
1746729255978838000,10.811838134765624,-0.10220131432414055,0.0022485917775426057,0.005534910838678479
1746729255988854800,10.821854736328126,-0.10369827488362789,-0.0010677936282940208,0.0005600998344831168
1746729255998873000,10.831873046875,-0.10414894126057624,0.00412972021587193,0.005986764525715262
1746729256008889900,10.841889892578125,-0.10848960081338882,0.0026282113454304634,0.010273008743859826
1746729256018907000,10.851906982421875,-0.10294950234293937,0.0013193755028769374,0.0003453976378776133
1746729256028925000,10.861925048828125,-0.09965572149455547,0.005117954935086891,0.001356894501671195
1746729256038942000,10.87194189453125,-0.1026473045259714,-0.0056124787200707935,0.006880516761355102
1746729256048959000,10.881958984375,-0.11252572446167468,0.0020825418950989843,0.011951116290222852
1746729256058976800,10.891976806640624,-0.10384908153116702,0.0019800131023861465,0.007237002048827708
1746729256068993800,10.901993896484376,-0.09831424375772475,-0.00035292335720732806,0.01110264623472467
1746729256079011800,10.91201171875,-0.09861468800902366,0.005990536518534645,0.013316723821312187
1746729256089028900,10.92202880859375,-0.09965864410400391,0.005219122887775302,0.009201269592810422
1746729256099046000,10.9320458984375,-0.09711714292764663,-0.009915390945225953,-0.002826108537707478
1746729256109064000,10.94206396484375,-0.09711772744953631,0.0004543835708405822,-0.0013994002028368414
1746729256119081000,10.9520810546875,-0.10834113225340843,0.002339576262934133,0.010659487310796975
1746729256129099000,10.96209912109375,-0.10490180545449257,-0.003062310180068016,0.007799549568723887
1746729256139115800,10.97211572265625,-0.11013386088907719,0.0047220235532149666,0.006132986329682171
1746729256149133000,10.982133056640626,-0.10355214441120623,0.0019266480804886667,-0.002234627184271812
1746729256159150800,10.99215087890625,-0.09756430217325687,0.006570363966794684,0.011846833931840956
1746729256169168000,11.00216796875,-0.10848667820394038,0.002967179242521524,0.011593334094807504
1746729256179185000,11.012184814453125,-0.10878946054279803,-0.000983111019525677,0.00504656106615439
1746729256189203000,11.022202880859375,-0.10878887602090835,-0.00220888995481655,0.008503679250087588
1746729256199220000,11.032219970703125,-0.10429565625488757,0.000210857138549909,-0.0009549626372754573
1746729256209237800,11.04223779296875,-0.10968085642457008,0.0037606859740801153,-0.006523008560575545
1746729256219255000,11.052255126953124,-0.10698796407878398,-0.009554001153772695,0.009109536188747734
1746729256229271800,11.062271728515626,-0.11102408772706984,0.0009869926101993768,0.014193634520005435
1746729256239290000,11.0722900390625,-0.11281856992840766,-0.007626595021458342,0.004834836277924478
1746729256249307000,11.082306884765625,-0.09650456398725508,0.008242973354132845,0.003572104599419981
1746729256259324000,11.092323974609375,-0.09635726447105407,0.0013114570579025894,0.009141885822080075
1746729256269342000,11.102342041015625,-0.10818448038697243,-0.0003864694337826222,-0.0013787044746801256
1746729256279359000,11.11235888671875,-0.10055413163900374,-0.0017401673313695936,0.004548091758415103
1746729256289377000,11.122376953125,-0.10339432350099086,-0.000775514417141676,0.006867310219909995
1746729256299393800,11.132393798828126,-0.10504150618612766,-0.0016883823452051728,-0.0013456424552947281
1746729256309410800,11.142410888671876,-0.10025602547526359,0.008434203343605623,-0.005304481349978595
1746729256319428900,11.152428955078125,-0.09382102399170399,0.0004126267883460969,0.0005970708440057933
1746729256329446000,11.16244580078125,-0.1102811604052782,-0.0000896875774487853,0.0033446159864775836
1746729256339463000,11.172462890625,-0.1019026236385107,-0.004237546238210052,0.007353650698438286
1746729256349481000,11.18248095703125,-0.10728665476441383,-0.0044124918131623414,0.007465148248896002
1746729256359498000,11.192498046875,-0.10174772533774375,0.003955733622144907,0.005328373682219535
1746729256369515800,11.202515869140624,-0.10084756162762641,0.0036957492453977463,0.004405541482567787
1746729256379532800,11.21253271484375,-0.1090741227030754,-0.006845527646364644,0.0021953363534994424
1746729256389550000,11.222550048828126,-0.10323708711266517,-0.0004284910777583718,0.00793344161408022
1746729256399568000,11.23256787109375,-0.1128127247095108,0.004115618625283241,0.006591178425960242
1746729256409585000,11.2425849609375,-0.09799743289351463,0.0035857769317459314,0.0119848541630432
1746729256419603000,11.25260302734375,-0.09096388099491595,0.003512419434590265,0.004635441248305142
1746729256429620000,11.262619873046875,-0.0960509750008583,0.004011235802201554,0.008945084608346223
1746729256439637000,11.272636962890624,-0.10023965886235237,0.005129864568589255,0.013362663588579743
1746729256449654800,11.28265478515625,-0.102185532233119,0.0018472353018820285,0.011415438510943203
1746729256459672000,11.292672119140626,-0.10442892724573612,0.004999890646524727,0.00966748059876263
1746729256469688800,11.302688720703125,-0.10293255120813846,0.0029344734161626546,0.008557710992265492
1746729256479707000,11.312706787109375,-0.10801906069219112,0.0037541831680573522,0.00662761971252039
1746729256489724000,11.322723876953125,-0.1099672721505165,-0.000057182680489495396,0.005043948983959853
1746729256499742000,11.332741943359375,-0.10877017132043838,0.005056726267142221,0.010130239272303878
1746729256509759000,11.342759033203125,-0.10084054736495017,0.002752942836796865,0.00900912628788501
1746729256519775700,11.352775634765624,-0.11460837595462799,-0.0042183118147775525,0.005239215827733278
1746729256529794000,11.3627939453125,-0.10593056398034095,-0.00022315036454237996,0.002179846523422748
1746729256539810800,11.372810791015626,-0.1042816277295351,-0.0036747338568326082,0.0017596848825924098
1746729256549827800,11.382827880859375,-0.09844225405156612,-0.0006328180108219384,0.002531272043287754
1746729256559846000,11.392845947265625,-0.09844050048589706,-0.000980161010613665,0.004682166466861963
1746729256569863000,11.40286279296875,-0.10143091447353363,-0.001375425672205165,-0.0025293358145281673
1746729256579881000,11.412880859375,-0.1029267059892416,-0.0014258589514996856,0.005092537366040051
1746729256589898000,11.42289794921875,-0.10277882195115089,0.007226033130241558,0.00500261232657358
1746729256599915000,11.4329150390625,-0.10756780979335308,-0.0007019925232045352,0.0028937121475115417
1746729256609932800,11.442932861328124,-0.10442366654872894,-0.008048318431712687,0.007513590500503778
1746729256619949800,11.45294970703125,-0.09484802895188331,0.008969899389194324,0.008706051688082516
1746729256629966800,11.462966796875,-0.10981295837163925,-0.0038402722826227542,0.0018064283674582837
1746729256639985000,11.47298486328125,-0.09874152925908565,0.011511574095487594,0.00791278241854161
1746729256650002000,11.483001953125,-0.11176233887374401,0.001195858721062541,0.014798614675831049
1746729256660020000,11.49302001953125,-0.09844459213912486,-0.0030881570073775944,0.00868427824769169
1746729256670037000,11.503037109375,-0.10831892042160034,-0.0002801229824777692,0.004248706953041255
1746729256680054000,11.513053955078124,-0.10517653074264526,0.005902821702463552,0.00039067981801927087
1746729256690071800,11.52307177734375,-0.10458148745894431,-0.0008073708601295948,0.0030936734327115115
1746729256700089000,11.533089111328126,-0.10009352838993071,0.004200949688022956,0.006376914620772004
1746729256710105900,11.54310595703125,-0.09859481426477432,0.0006883841229602695,0.018482801347598433
1746729256720124000,11.5531240234375,-0.11250877332687377,-0.0020871998039074242,0.010003927745204418
1746729256730141000,11.563140869140625,-0.11745032138228416,-0.004524473420809954,0.010738799624703824
1746729256740159000,11.573158935546875,-0.09665127898156642,-0.000909068535780534,0.011924758006259799
1746729256750176000,11.583176025390625,-0.10099310757815837,0.0006516323091462254,0.009444193236902355
1746729256760192800,11.59319287109375,-0.1096709195524454,-0.0020215232897084203,0.012578436142019927
1746729256770211000,11.603211181640624,-0.11446049191653727,0.0011341733953915535,0.005962159807421267
1746729256780227800,11.613227783203126,-0.10128946017622947,-0.004601657709712163,-0.0009864172214642166
1746729256790246000,11.623245849609376,-0.10607903254032135,0.013346433972986415,0.004057842289749532
1746729256800263000,11.633262939453125,-0.11715163069665431,-0.004302820893609896,0.0157575959010981
1746729256810280000,11.643280029296875,-0.10473521671593189,0.006194881717907264,0.008734236602950841
1746729256820298000,11.653298095703125,-0.10264029026329517,-0.00548900760402903,0.01037179294321686
1746729256830314800,11.663314697265625,-0.10294014999270439,-0.007415226426254957,-0.0004246734191663563
1746729256840332000,11.67333203125,-0.10922434482872485,0.0029368023705668746,-0.0008250343809835612
1746729256850349800,11.683349853515624,-0.11042261470258236,-0.0017700966787524521,0.00036161812031641603
1746729256860366800,11.693366943359376,-0.10697744268476962,0.004357080964650958,0.011879969016462565
1746729256870385000,11.703385009765626,-0.11041793852746486,-0.0023626922770403325,0.0022105339226312936
1746729256880402000,11.71340185546875,-0.10518179143965244,0.004650428754882887,0.005746927887853234
1746729256890419000,11.7234189453125,-0.11221242072880268,0.0005318327212240546,0.004544895154330879
1746729256900437000,11.73343701171875,-0.10323065737187861,0.00018252609320916233,0.0016644808798097074
1746729256910454000,11.7434541015625,-0.09469839134812355,0.002329109667846933,-0.0030397878210060296
1746729256920471000,11.753470947265624,-0.10561726024746894,0.00405559553373605,0.01246544075421989
1746729256930488800,11.76348876953125,-0.10172668254971504,-0.002414678192604333,0.005462357059121132
1746729256940505900,11.773505859375,-0.10576455976366995,0.0034536019194405525,0.010458704041689634
1746729256950524000,11.78352392578125,-0.10277063864469528,-0.003414174091350287,0.0036313057070598005
