time,seconds_elapsed,z,y,x
1746739308815227400,0.028227294921875,-0.004479775762557983,0.028137130203843116,0.05247358948308974
1746739308825308400,0.038308349609375,-0.011756488767266272,0.014713000485301017,0.04604341030512005
1746739308835389400,0.048389404296875,-0.03304536051154137,0.02530395260453224,0.03837070198645815
1746739308845470500,0.058470458984375,-0.04557224912941456,0.050128597259521485,0.058579797403700645
1746739308855550200,0.06855029296875,-0.08716156610250472,0.04573065456151962,0.057491874302830544
1746739308865631200,0.07863134765625,-0.12734978410601616,0.07482756970822811,0.07680409394558518
1746739308875712500,0.08871240234375,-0.16959668820500373,0.05121113179922104,0.03816580879781395
1746739308885792300,0.098792236328125,-0.15904197644293308,0.01940145056247711,0.02229751906385645
1746739308895873300,0.108873291015625,-0.13982348123192787,0.04036240552663803,0.0172157588201575
1746739308905954300,0.118954345703125,-0.10888766022026539,0.03820902688503265,0.0331741927892901
1746739308916034600,0.12903466796875,-0.03833411456942558,0.03285480637550354,0.04743398788068443
1746739308926115300,0.139115234375,0.04981237091720104,0.043563831916451454,0.07349862265940756
1746739308936196400,0.1491962890625,0.10930442432761192,0.043483167895674704,0.08824746164306997
1746739308946276400,0.1592763671875,0.1677507680773735,0.0388081618219614,0.06979794151056558
1746739308956357000,0.169357177734375,0.1728875464439392,0.050503275790810584,0.08185074634328485
1746739308966438400,0.1794384765625,0.11277531530857085,0.05437281070053577,0.0655555729667656
1746739308976518400,0.189518310546875,0.06763268976807595,0.04196341098248958,0.07377714733984321
1746739308986599400,0.199599365234375,0.018250526961684225,0.045132688668370245,0.0641429114235565
1746739308996680200,0.20968017578125,-0.03954407488107681,0.037215924194455144,0.030002284754905847
1746739309006761200,0.21976123046875,-0.08174012557566165,0.021124036571383474,0.01770852903947234
1746739309016841500,0.229841552734375,-0.09328326385319233,0.036702713975310323,0.030898101083468642
1746739309026922500,0.239922607421875,-0.09040624711215496,0.009909984117746353,0.043427126859501
1746739309037003300,0.250003173828125,-0.12114216163754463,0.0030231472134590147,0.03895650251777842
1746739309047083300,0.260083251953125,-0.12177695240974426,0.03957563906311989,0.049382016675919294
1746739309057164500,0.27016455078125,-0.11734510744214058,0.03881868321597576,0.08991407968103884
1746739309067245300,0.280245361328125,-0.0730938777834177,0.049368718802928924,0.05660137347020208
1746739309077325300,0.2903251953125,-0.037350948750972744,0.043917467659711835,0.050378553432598706
1746739309087406300,0.30040625,-0.003304302242398262,0.06312134982347488,0.048474272447545076
1746739309097487400,0.3104873046875,0.019663316369056702,0.05350596473813057,0.05615467088231817
1746739309107567400,0.3205673828125,0.04131517620682716,0.023701193583011627,0.031018768321070818
1746739309117648400,0.3306484375,0.017973463585972786,0.00953881271779537,0.01661298888772726
1746739309127729400,0.3407294921875,-0.07542787368893623,0.0077174425095319745,0.038359376874845474
1746739309137809200,0.35080908203125,-0.13637246399521827,0.04900105453431606,0.0625837906143628
1746739309147890400,0.360890380859375,-0.1787736818730831,0.035060207465291024,0.06349219242986291
1746739309157971500,0.370971435546875,-0.19704583614468574,0.025258944419026375,0.043643856616411354
1746739309168051200,0.38105126953125,-0.1808791297197342,0.06272445946037769,0.047490850900765505
1746739309178132200,0.39113232421875,-0.13666647850573063,0.06982581589818,0.03579679637784138
1746739309188213200,0.401213134765625,-0.05341653288900852,0.0784574506431818,0.03564308538716286
1746739309198294500,0.41129443359375,-0.002647299638390541,0.05974164425730705,0.025562877535354345
1746739309208374300,0.421374267578125,0.09589549217820167,0.03230126414597034,0.055441298448573796
1746739309218455300,0.431455322265625,0.13239596157968042,0.04955225867629051,0.09616749578630551
1746739309228536300,0.441536376953125,0.0961772317290306,0.05316518847644329,0.10785057225748897
1746739309238616600,0.451616455078125,0.04663607896864414,0.005787935751676559,0.07232075625276192
1746739309248697300,0.461697265625,0.009760931035876273,0.020710195073485375,0.06388860786892474
1746739309258778400,0.4717783203125,0.01628477984666824,0.04087620026767254,0.03834722977932542
1746739309268858400,0.4818583984375,0.003454524368047714,0.023794717085361478,0.012924144307151436
1746739309278939100,0.491939208984375,-0.02594575763940811,0.04613631275296211,0.0021370485613122583
1746739309289020400,0.5020205078125,-0.024226094239950178,0.04064005342423915,0.034233236855547876
1746739309299100400,0.512100341796875,-0.03799626091718673,0.0251923089236021,0.07178601005524396
1746739309309181400,0.522181396484375,-0.03629354865252971,0.035381694504618644,0.11647004164066165
1746739309319262200,0.53226220703125,-0.05319266100525856,0.05640577783286571,0.0861703996406868
1746739309329342500,0.542342529296875,-0.027381927922368047,0.06800327664613723,0.07635125387785956
1746739309339423500,0.552423583984375,-0.005171849679946899,0.06671206779181957,0.06916128757484256
1746739309349504500,0.56250439453125,-0.05159808529019355,0.05446165802776813,0.06955026862611993
1746739309359584300,0.572584228515625,0.028597733452916142,0.03060731970965862,0.03170682365046814
1746739309369665300,0.582665283203125,0.026979776862263678,0.03161503544747829,0.02066893148133531
1746739309379746600,0.59274658203125,0.0015372925698757171,0.018601240095496175,0.0519828285577707
1746739309389826300,0.602826416015625,-0.02739478740394115,0.02964227406978607,0.06605247137192637
1746739309399907300,0.6129072265625,-0.04082710042893886,0.04589139808118343,0.060626793061383064
1746739309409988400,0.62298828125,0.020931728869676588,0.0235673380702734,0.07328379259863868
1746739309420068400,0.633068359375,0.10219663814902305,0.031221652215719223,0.08311355108702555
1746739309430149400,0.6431494140625,0.10586100587546825,0.04640869995355606,0.04124412026461213
1746739309440230400,0.65323046875,0.11945990763902664,0.027145196557044983,0.04877840649327263
1746739309450310400,0.663310302734375,0.12006196518540381,0.03837386205792427,0.08881864912714808
1746739309460391200,0.67339111328125,0.04247779024541378,0.04613455918729305,0.10803310748385264
1746739309470472400,0.683472412109375,-0.02988718874156475,0.04017009782493114,0.08445855422150343
1746739309480552400,0.693552490234375,-0.17102935135662556,0.04300502898991108,0.02841172762783244
1746739309490633200,0.70363330078125,-0.24514380435943603,0.04871288524270057,0.0028557912899181245
1746739309500714200,0.71371435546875,-0.2964852845400572,-0.0038204350709915157,-0.0029455153999850153
1746739309510794500,0.72379443359375,-0.3032067017495632,0.017128244933485984,0.02123606384480372
1746739309520875500,0.73387548828125,-0.22953590086102485,0.040725393620133395,0.04955116269774735
1746739309530956300,0.743956298828125,-0.133195003002882,0.03664484630823135,0.05814522364502772
1746739309541036300,0.754036376953125,-0.017232289829850197,0.07232873862981797,0.053879711687657976
1746739309551117300,0.764117431640625,0.12259645209908485,0.03977788363695144,0.044120041027106344
1746739309561198600,0.774198486328125,0.16167700112164018,0.0021159692406654356,0.01108178610978648
1746739309571278300,0.7842783203125,0.19466215587854385,0.012521043398976325,0.024887919149547813
1746739309581359400,0.794359375,0.16752222001850603,0.027384266009926793,0.07555677903192118
1746739309591440400,0.8044404296875,0.10785364099740981,0.026505729609727857,0.0919801453653723
1746739309601520400,0.814520263671875,0.023290859216451642,0.01592763697206974,0.10640654746163636
1746739309611601400,0.824601318359375,-0.07623334485292434,0.030709611040353774,0.057410735358018425
1746739309621682400,0.834682373046875,-0.07674655507206916,0.055904258051514624,0.01857553939865902
1746739309631762200,0.84476220703125,-0.11466098292469977,0.052044075492024416,0.027280750836525113
1746739309641843200,0.85484326171875,-0.03539280042052269,0.06768412769436837,0.07962291422598064
1746739309651924500,0.864924560546875,0.027825580036640166,0.10141513238251208,0.11772793274726719
1746739309662004500,0.87500439453125,0.041942368194460865,0.08983750731348991,0.10060854697367176
1746739309672085200,0.885085205078125,0.07481178761720657,0.07041618300676346,0.05727985725365579
1746739309682166300,0.895166259765625,0.05633095903098583,0.018999884024262427,-0.004363967363163829
1746739309692246500,0.90524658203125,0.01225157880783081,-0.018646248281002045,-0.045223362626507876
1746739309702327300,0.915327392578125,-0.05145838455855846,-0.012768296158313751,-0.047746889754757285
1746739309712408300,0.925408203125,-0.0865092396736145,0.035085341906547544,0.03633895869683474
1746739309722488300,0.93548828125,0.11785481052994727,0.02428863808214664,0.11368238368351012
1746739309732569300,0.9455693359375,-0.13797639206051826,0.0501975708425045,0.1731509100878611
1746739309742650400,0.955650390625,-0.16823124507069587,0.028747955578565597,0.05997366291489452
1746739309752730400,0.96573046875,-0.04036883526742458,0.024357027143239972,-0.03721786042321473
1746739309762811400,0.975811279296875,0.03606909224689007,-0.005298106408119201,0.037005898172967136
1746739309772892400,0.985892333984375,-0.07958499336838722,-0.033930326652526856,0.053074185724742706
1746739309782972400,0.995972412109375,-0.27285774071514607,0.03117547498643398,-0.03374737130105495
1746739309793053400,1.006053466796875,-0.2649047358840704,0.03521452124416828,-0.028572745142132042
1746739309803134500,1.016134521484375,-0.20681845761835574,0.060814826446771615,0.07551482132002711
1746739309813214200,1.026214111328125,-0.12683540484309197,0.06719546739459037,0.08459445556085557
1746739309823295200,1.036295166015625,-0.024055998370051384,0.08184884664714336,0.06860237505044788
1746739309833376300,1.046376220703125,0.058199675512313837,0.09133505239486694,0.07955898214429616
1746739309843456300,1.056456298828125,0.15227262843847275,0.08511632401049136,0.10232629241067916
1746739309853537300,1.066537353515625,0.2437584874808788,0.07926993606984614,0.09308971404246985
1746739309863618300,1.076618408203125,0.2532756728887558,0.05218319170176983,0.08861154571510851
1746739309873698300,1.0866982421875,0.2564332601368427,0.02276595855951309,0.09901979821119457
1746739309883779300,1.096779296875,0.20826514929533005,-0.008766074779629707,0.05971004354264587
1746739309893860400,1.1068603515625,0.08085749752223491,0.001954056677222252,0.02976480447091162
1746739309903940000,1.116940185546875,-0.027820319339632988,0.02331716270148754,0.05402885610107332
1746739309914021400,1.127021484375,-0.1112485441327095,0.015984920117259025,0.07159121813550591
1746739309924102400,1.137102294921875,-0.1634802511513233,0.04566518810987472,0.05200147845931351
1746739309934182100,1.14718212890625,-0.1754845771998167,0.05602525408267975,0.05694686243962496
1746739309944263200,1.15726318359375,-0.16071663165688513,0.04742985969483852,0.047732313240133224
1746739309954344200,1.16734423828125,-0.15523440085351467,0.04007949693202972,0.03063965107668191
1746739309964424400,1.177424560546875,-0.12128361593484878,0.03288812412321567,-0.0016255919078364967
1746739309974505200,1.187505126953125,-0.08576865043938159,0.005240823262929916,-0.004490114493481814
1746739309984585200,1.197585205078125,-0.02507131289243698,0.027685879305005073,0.019175057928077874
1746739309994666200,1.207666259765625,-0.004029109385609626,0.032065117302536965,0.04650708229411393
1746739310004747300,1.217747314453125,0.004406126004457473,0.05851707089841365,0.08428670478593557
1746739310014827300,1.2278271484375,-0.00940378816127777,0.07543138082027435,0.09484349890723824
1746739310024908300,1.237908203125,0.01189560497701168,0.07059504670500755,0.11513134038280695
1746739310034989300,1.2479892578125,0.01099368770122528,0.0838204389810562,0.1188635126484558
1746739310045069300,1.2580693359375,0.032038813817501066,0.04027531176507473,0.06323810807093977
1746739310055150300,1.268150390625,0.004026186776161194,0.004341828596591949,0.028743681262247262
1746739310065231400,1.2782314453125,-0.005615501794219017,-0.0041799160331487655,-0.01847101957825944
1746739310075311000,1.28831103515625,-0.016691022560000417,-0.007552022814750671,-0.024950335127580908
1746739310085392100,1.29839208984375,-0.03193769153058529,0.014615969851613043,0.007068239619489759
1746739310095473400,1.308473388671875,-0.05589432117938995,0.04097966064214706,0.05170826766639947
1746739310105553400,1.318553466796875,-0.04991700033545494,0.062197805237770076,0.07617063661394641
1746739310115634200,1.32863427734375,-0.07402385210990906,0.05405833792388439,0.0509452656709589
1746739310125715200,1.338715087890625,-0.10266425566077232,0.05527063632309436,0.058878780350275335
1746739310135795500,1.34879541015625,-0.13347031281292437,0.05183014048039913,0.09354978756858036
1746739310145876200,1.358876220703125,-0.11441548373103141,0.048726329246163366,0.07128686489406973
1746739310155956200,1.368956298828125,-0.0907704042494297,0.030066052439808845,0.0478310426405631
1746739310166037200,1.379037353515625,-0.0375315660148859,0.040372926920652384,0.04657658560005948
1746739310176118300,1.3891181640625,0.04633797280490398,0.01975567082762718,0.044079672484099865
1746739310186198300,1.3991982421875,0.1174006370216608,0.04952127901613712,0.014569792622327804
1746739310196279300,1.409279296875,0.13752514116168021,0.018760230049490928,0.02028647150238976
1746739310206360300,1.4193603515625,0.13241525080204009,0.004078209224343299,0.008417023879941553
1746739310216440300,1.4294404296875,0.10948270350396633,0.006693360158801079,0.02972936783134937
1746739310226521300,1.439521240234375,0.05467617756128311,0.03302314867973327,0.07847650240352377
1746739310236602400,1.449602294921875,0.02668517782986164,0.04185001373589039,0.07327149937264621
1746739310246682000,1.45968212890625,-0.018996961414813995,0.04213526041805744,0.061344659007154405
1746739310256763100,1.46976318359375,-0.06814356189966202,0.07169745498895645,0.08937405452020465
1746739310266844200,1.47984423828125,-0.12437807481884956,0.06544190172553062,0.07842818801607936
1746739310276924400,1.48992431640625,-0.13600304616093634,0.03256780612766742,0.06791048379614949
1746739310287005200,1.500005126953125,-0.13441197757720946,0.040782092243432995,0.06089295145059004
1746739310297086200,1.510086181640625,-0.15295651904940605,-0.003413607835769653,0.01324314712844789
1746739310307166500,1.52016650390625,-0.12175240249037741,-0.009142506876587866,-0.0023459055390208958
1746739310317247500,1.53024755859375,-0.07814473143219948,0.03285129924416542,0.018836564955022186
1746739310327327200,1.5403271484375,-0.04662380400896072,0.05902326685488224,0.04791775280963629
1746739310337408300,1.550408203125,0.01615735407471657,0.07184241641759873,0.07033135426752268
1746739310347489300,1.5604892578125,0.04466273306906223,0.08402911329567432,0.08984002806413918
1746739310357569300,1.5705693359375,0.07150573180913924,0.08419453299045562,0.09301180823436006
1746739310367650300,1.580650390625,0.07869827366173267,0.03839198223650455,0.0749956562841311
1746739310377731300,1.5907314453125,0.06283493409752845,0.023487843093276024,0.035132213255576784
1746739310387811000,1.60081103515625,0.0015156652599573135,0.003561491873860359,-0.003924881826154887
1746739310397892400,1.610892333984375,-0.03637947337031364,-0.012601122897863387,-0.018564049890264868
1746739310407973400,1.620973388671875,-0.019267010527849196,0.008068740165233611,-0.001340874948631972
1746739310418053400,1.631053466796875,-0.0649941579580307,0.007882862204313277,0.027222937968373297
1746739310428134100,1.641134033203125,-0.07192717209160328,0.01587444548010826,0.044903172495122996
1746739310438214400,1.65121435546875,-0.033923312389850614,0.06097498544454574,0.07672364912051707
1746739310448295400,1.66129541015625,-0.016692776125669478,0.06642097589075564,0.10208393502216785
1746739310458376200,1.671376220703125,-0.018445172750949857,0.0624713614821434,0.08366334872320294
1746739310468456200,1.681456298828125,-0.008461538875102996,0.049938043123483655,0.06422057976964861
1746739310478537200,1.691537109375,-0.025830022305250167,0.03900748378634453,0.05985637494446709
1746739310488618500,1.701618408203125,-0.03893617211580276,0.023469138392806052,0.06885830430658534
1746739310498698200,1.7116982421875,-0.03747428286969662,0.01857669017612934,0.04338823788752779
1746739310508779300,1.721779296875,-0.07763561286628246,0.01270867492556572,0.04037358450777828
1746739310518860300,1.7318603515625,-0.08356032674014569,0.009370470413565635,0.020018395150732247
1746739310528940300,1.741940185546875,-0.07509002003669739,0.00327039997279644,0.018624602704774586
1746739310539021300,1.752021240234375,-0.05834755955040455,0.020018705677986144,0.02087893923651427
1746739310549101300,1.762101318359375,-0.043055297872424125,0.027600539109110832,0.044789409922342746
1746739310559182000,1.77218212890625,-0.023083353945612905,0.052253334328532214,0.07712322463104501
1746739310569263000,1.78226318359375,-0.014043722921609878,0.06647358286082744,0.08402787118665873
1746739310579343400,1.79234326171875,0.005475801062583923,0.06846563346087932,0.08924401666605844
1746739310589424400,1.80242431640625,0.023876550149917602,0.057578913265466686,0.0869605819039978
1746739310599505200,1.812505126953125,0.04767886601984501,0.04508358882963657,0.04807234058314934
1746739310609585400,1.82258544921875,0.04551671954989433,0.03436053476333618,0.00791358613613993
1746739310619666400,1.83266650390625,0.050260699206590646,0.014238953232765196,0.000006703735422343015
1746739310629746200,1.84274609375,0.014758008670806884,-0.004568623089790344,-0.008370389992929994
1746739310639827200,1.8528271484375,-0.04552373381257057,0.007001403194665908,0.029891280394792556
1746739310649908200,1.862908203125,-0.10631167225241661,0.03483633558154106,0.05941001941645518
1746739310659988200,1.87298828125,-0.1370814890474081,0.04031330568790435,0.0862243583176285
1746739310670069200,1.8830693359375,-0.14253507827818393,0.04701368010938167,0.08069520136630162
1746739310680150300,1.893150390625,-0.1179758065611124,0.06227788473665714,0.059995655550993975
1746739310690230300,1.903230224609375,-0.0654910015642643,0.05996025544404983,0.0675871701259166
1746739310700311300,1.913311279296875,-0.011737199544906615,0.0658873074054718,0.055426831531804055
1746739310710391300,1.923391357421875,0.0331049817442894,0.0545937599748373,0.04839791927570477
1746739310720472300,1.933472412109375,0.05676116714179515,0.035061961030960084,0.026687972575146702
1746739310730553300,1.94355322265625,0.0675163699120283,0.023430559948086738,0.014591091138683258
1746739310740633300,1.95363330078125,0.07660802338421344,0.01938099229633808,0.014104677594918756
1746739310750714400,1.96371435546875,0.06129588796198368,0.02439385202229023,0.0440798916798085
1746739310760795400,1.97379541015625,0.03732113813459873,0.04336158734261989,0.03499116081707179
1746739310770875100,1.983875244140625,0.014448212069272994,0.035595044994354244,0.03188214368475601
1746739310780956200,1.9939560546875,-0.06808627875447273,0.03535071484446525,0.05478261534413322
1746739310791036400,2.004036376953125,-0.09902852950692176,0.03576981703937054,0.07586394528495147
1746739310801117200,2.0141171875,-0.14519640644192694,0.029906477963924406,0.08559574155788868
1746739310811199000,2.024198974609375,-0.13156243336498735,0.04090951801538467,0.07156328894896433
1746739310821278700,2.03427880859375,-0.10727730241417884,0.03310089009106159,0.07038783369511366
1746739310831359700,2.04435986328125,-0.08734627501964569,0.02239829429090023,0.05132763431835919
1746739310841441000,2.05444091796875,-0.03817921626865864,0.01976151604652405,-0.010007708871178328
1746739310851521000,2.06452099609375,0.030065467917919156,0.021810265269875524,0.013411489432677625
1746739310861601800,2.074601806640625,0.0980032781124115,0.0253840321034193,0.022482593307178465
1746739310871682000,2.08468212890625,0.1367804602742195,0.0379670348227024,0.0468204408259131
1746739310881763000,2.09476318359375,0.16561434057056904,0.0356798006683588,0.05564710495267063
1746739310891843800,2.10484375,0.14489011697173118,0.04683598545491695,0.0725433494948782
1746739310901923800,2.114923828125,0.06142506729960441,0.016847089904546735,0.05440128787634894
1746739310912004900,2.1250048828125,-0.05278232663869858,0.0008580781340599059,0.03420519807115197
1746739310922086000,2.1350859375,-0.14836451508402823,0.012311784562468528,0.046981622736994175
1746739310932166000,2.145165771484375,-0.1786643762797117,0.01566226403415203,0.05292982708429917
1746739310942247000,2.155246826171875,-0.15433248357772827,0.028279169023036954,0.06103287137793377
1746739310952327000,2.165326904296875,-0.15223463451564312,0.03352700654864311,0.053437484345491976
1746739310962408000,2.175407958984375,-0.08642974469661713,0.024766776987910268,0.026144805609155445
1746739310972489000,2.185489013671875,0.0028910452663898465,0.057657239198684686,0.048398595129139715
1746739310982569000,2.19556884765625,0.05233049121797084,0.059165305674076074,0.1171079559517093
1746739310992649700,2.205649658203125,0.05819090768396854,0.0699345369696617,0.07159929184410721
1746739311002730800,2.215730712890625,0.04223170652985572,0.058277416923642154,0.03451879406496882
1746739311012811000,2.22581103515625,-0.00243862532377243,0.021740707165002822,0.028847214701957998
1746739311022892000,2.23589208984375,-0.03847439982295036,0.017069208222627637,0.02666566941179335
1746739311032971800,2.2459716796875,-0.047504093974828715,-0.0050970308780670165,0.02284549006912857
1746739311043052800,2.256052734375,-0.07589782928824425,0.046830724757909774,0.058120527595188466
1746739311053134000,2.266134033203125,-0.08174129461944103,0.05670505304038524,0.04950306750601157
1746739311063213800,2.2762138671875,-0.06603168431222438,0.051445525076985354,0.04844221507515758
1746739311073294800,2.286294921875,-0.05280512299239635,0.03875321676433086,0.0510694765725173
1746739311083375000,2.296375,-0.04739537290334701,0.020230887123942373,0.02814149585170671
1746739311093456000,2.306455810546875,-0.01170388179719448,0.013230652973055838,0.03989318057969212
1746739311103537000,2.316536865234375,0.045810734060406685,0.04061725707054138,0.04816865883078426
1746739311113617000,2.326616943359375,0.0705927086174488,0.03364800257980823,0.0466739450273104
1746739311123698000,2.336697998046875,0.09391337845027446,0.03993570454716682,0.024890439900197087
1746739311133778700,2.34677880859375,0.09711305127441883,0.036654783180356025,0.02346232505952939
1746739311143859000,2.35685888671875,0.07211480361819267,0.002648468682169914,0.03944090676754713
1746739311153940000,2.36693994140625,0.002949497455358505,0.024002806878089904,0.0404502847394906
1746739311164019700,2.377019775390625,-0.06558335602283477,0.061471244528889656,0.06898578487746417
1746739311174101000,2.38710107421875,-0.10721826570332049,0.05278641829192638,0.0807777833495289
1746739311184182000,2.39718212890625,-0.1526180808752775,0.041726679617166515,0.08765141371237113
1746739311194261800,2.40726171875,-0.1479869139432907,0.04368716603517532,0.06792582749575377
1746739311204342800,2.4173427734375,-0.10274141255021095,0.02758534153997898,0.050909810765087604
1746739311214423000,2.427423095703125,-0.03585281914770603,0.022648469659686088,0.04133325985278934
1746739311224504000,2.437504150390625,0.05195230555534362,0.019333646023273466,0.0025291896840557455
1746739311234584800,2.447584716796875,0.09619242929816245,0.0002758943319320679,0.0315188998629339
1746739311244664800,2.457664794921875,0.0826619165956974,0.01857376756668091,0.04585431747380644
1746739311254745900,2.467745849609375,0.0551297665476799,0.033870120897889135,0.0488815015415661
1746739311264825900,2.477825927734375,0.044184594163298604,0.03620937750041485,0.03188351365793496
1746739311274907000,2.487906982421875,-0.01741115352809429,0.025427871245145797,0.03708778603645042
1746739311284988000,2.49798779296875,-0.0793897630572319,0.03453706037402153,0.07081287244046107
1746739311295068000,2.50806787109375,-0.10924597213864326,0.03996083898842334,0.07837664049193263
1746739311305149000,2.51814892578125,-0.13350655317008495,0.04788169511556625,0.08491634445898234
1746739311315230000,2.52822998046875,-0.11911036354899406,0.04270166212916374,0.041726442155148834
1746739311325310000,2.53831005859375,-0.07990297327637672,0.024509587356448172,0.02096082709999755
1746739311335390700,2.548390625,-0.027854806131124496,0.03571428745985031,0.014309680381417274
1746739311345471000,2.558470947265625,0.010137363132834434,0.027983400946855544,0.04762867020256817
1746739311355552000,2.568552001953125,0.08162380571961403,0.049288639304041856,0.053445284059457476
1746739311365633000,2.578633056640625,0.11279051287770271,0.05915536880195141,0.04038509228248149
1746739311375712800,2.588712646484375,0.11856208201646803,0.04935352123379707,0.0755619849300012
1746739311385794000,2.5987939453125,0.09416647642850876,0.0499228455543518,0.05780463004643097
1746739311395873800,2.608873779296875,0.07576105116605758,0.00666238049864769,0.042666444685310126
1746739311405954800,2.618954833984375,0.015132687202095985,-0.004846855509281158,0.0245931557203643
1746739311416035800,2.629035888671875,-0.024192191970348356,0.022290742263197896,0.06937562444526701
1746739311426116000,2.6391162109375,-0.11457038203179835,0.02462123103737831,0.09289539704676716
1746739311436196900,2.64919677734375,-0.15589783319830894,0.020323241582512853,0.05437659182650968
1746739311446276900,2.65927685546875,-0.1986860045671463,0.03405366077125072,0.04939604520127177
1746739311456358000,2.66935791015625,-0.21028993312120436,0.03291267404258251,0.03462762473430484
1746739311466439000,2.67943896484375,-0.15889058527350425,0.045320320194959636,0.03671672423435375
1746739311476519000,2.689518798828125,-0.10699205573201179,0.02963175267577171,0.048884917341358955
1746739311486600000,2.699599853515625,-0.046703883507847786,0.03987725235819816,0.04288633451368659
1746739311496679700,2.7096796875,0.058494274544715875,0.04079553624689579,0.06050070072999224
1746739311506761000,2.719760986328125,0.1128647471576929,0.03318155411183834,0.03795158152524382
1746739311516842000,2.729842041015625,0.1437877086877823,0.014444120416045187,0.04398413968775421
1746739311526922000,2.739921875,0.12165244924724102,0.030787352451682088,0.059289242580998686
1746739311537002800,2.750002685546875,0.09238193109929561,0.024980127477645872,0.06420028590029105
1746739311547083000,2.7600830078125,0.039265842461585994,0.014022680133581161,0.04950692169722169
1746739311557164000,2.7701640625,-0.011890928801894187,0.012744915282726288,0.036604002841189504
1746739311567245000,2.7802451171875,-0.05618073690533638,0.016041034218668936,-0.001660827617999166
1746739311577324800,2.79032470703125,-0.07967500973939895,0.025269465813040733,0.01156264669559896
1746739311587405800,2.80040576171875,-0.0948708253055811,0.043188568863272665,0.05468045187760144
1746739311597485800,2.81048583984375,-0.07409516378045082,0.05799801546037197,0.0455506035531871
1746739311607566800,2.82056689453125,-0.08305997600257396,0.053606502503156656,0.06126764824818819
1746739311617647900,2.83064794921875,-0.035974984222650525,0.051236850762367246,0.06966357454117388
1746739311627728000,2.840727783203125,-0.014621230548620223,0.037194296884536744,0.06588416560031474
1746739311637809000,2.850808837890625,-0.014939794978499411,0.03180675862729549,0.054274592756759374
1746739311647889000,2.860888916015625,-0.022079729861021042,0.039836335825920104,0.06245287597738206
1746739311657970000,2.870969970703125,-0.03472001572549343,0.01414426068663597,0.05225293246973305
1746739311668051000,2.881051025390625,-0.0443371543765068,0.008721651116013526,0.03657954425336793
1746739311678131000,2.891130859375,-0.06701192752122878,0.02857435257732868,0.01687209648163989
1746739311688212000,2.9012119140625,-0.040783845809102055,0.028141806378960608,0.016464173267874867
1746739311698292000,2.9112919921875,-0.0038689503878355023,0.0362245750695467,0.03286863397145644
1746739311708372700,2.921372802734375,0.011975099954009055,0.025797873601317405,0.03961785250334069
1746739311718453800,2.931453857421875,0.052980479559302324,0.036082536250352855,0.043977289821859444
1746739311728534000,2.941533935546875,0.05707622444033622,0.041916649231314655,0.06976754637230187
1746739311738614800,2.95161474609375,0.06462649368941784,0.04058218575716018,0.05397692498443648
1746739311748694800,2.96169482421875,0.0027829087167978283,0.02601765383183956,0.0475795703638345
1746739311758776000,2.971776123046875,-0.05569909086823463,0.030772739404439923,0.015652491558808834
1746739311768857000,2.981857177734375,-0.12196458393633365,0.027772388544678686,0.026323450111690908
1746739311778936800,2.991936767578125,-0.11775661085247993,0.03257365134656429,0.06459432671917602
1746739311789017900,3.002017822265625,-0.1287584818601608,0.03561141160726547,0.056440008896030486
1746739311799098000,3.01209814453125,-0.0694295100569725,0.04552957903146743,0.04670344511643052
1746739311809179000,3.022178955078125,0.00493044213950634,0.027719781574606892,0.02212380646476522
1746739311819260200,3.03226025390625,0.02756137614250183,0.024320786786079407,0.03078019205853343
1746739311829340200,3.042340087890625,0.037814474609494206,0.0142214175760746,0.03730663468521088
1746739311839421000,3.0524208984375,0.05242810637354851,0.030219781696796417,0.05237138948393985
1746739311849501200,3.062501220703125,0.07670213140845299,0.03934183030724525,0.06215685217287391
1746739311859582200,3.072582275390625,0.07080430554151534,0.047888124856352805,0.05317918046917766
1746739311869663000,3.0826630859375,0.051118777340650554,0.03285246828794479,0.047247397533711044
1746739311879743000,3.092742919921875,0.014105097720026969,0.04038637092411518,0.027430114445649086
1746739311889824300,3.10282421875,-0.03782967217862606,0.02327624616920948,0.024130269182659685
1746739311899904000,3.112904052734375,-0.11184008028507232,0.015542437046766281,0.026691899831593036
1746739311909985000,3.122985107421875,-0.13041267880797386,0.02916004351079464,0.04415290211709216
1746739311920065300,3.133065185546875,-0.12797171539664268,0.02691431041061878,0.02396031944323331
1746739311930146300,3.143146240234375,-0.08927753534317016,0.01680383528470993,0.02495093791577965
1746739311940227000,3.15322705078125,-0.03380290088057518,0.029761516535282133,0.030737247965950516
1746739311950307000,3.16330712890625,-0.005051438170671462,0.0326648367613554,0.023055625688470898
1746739311960388000,3.17338818359375,0.022781156128644942,0.04222060061395168,0.03479589397329837
1746739311970468000,3.183468017578125,0.03143208009600639,0.03658873220682144,0.06686903018550946
1746739311980549000,3.193549072265625,0.033712299987673756,0.05443944619596004,0.08253357750829309
1746739311990630100,3.203630126953125,0.008988193097710609,0.029276947888731954,0.0660527636328712
1746739312000710000,3.2137099609375,0.024833412483334538,0.021182488760352135,0.06950052946656941
1746739312010791200,3.223791259765625,0.00928746830523014,0.03361117770075798,0.07605742203043774
1746739312020871200,3.23387109375,-0.0024228432327508924,0.04200725012421608,0.07147595772538334
1746739312030952200,3.2439521484375,-0.028293197548389434,0.026346155133843422,0.05093923778897151
1746739312041033000,3.254032958984375,-0.06720072809159755,0.04146948998570442,0.034712764000799506
1746739312051113200,3.26411328125,-0.06405424675941467,0.016332710641622544,0.017378328970726577
1746739312061194200,3.2741943359375,-0.039647535255551335,0.012996844217181206,0.031100455255154518
1746739312071274000,3.28427392578125,-0.042086745101213456,0.02587386144697666,0.02758300345242023
1746739312081355000,3.29435498046875,-0.0362462023794651,0.025817747345566747,0.026074644716084002
1746739312091435300,3.304435302734375,-0.024881927800178526,0.03595394143462181,0.05272918994566425
1746739312101516000,3.31451611328125,0.0183954883903265,0.046530865028500554,0.05809077177774161
1746739312111597000,3.32459716796875,0.032607553616166116,0.0519838697373867,0.04792230112059041
1746739312121677000,3.334677001953125,0.035850481060147286,0.032251579785346984,0.030028917033504694
1746739312131758300,3.34475830078125,-0.008358663022518158,0.030478724893927573,0.034076895516365766
1746739312141838000,3.354838134765625,-0.045074821001291274,0.013076923716068268,0.03316805530944839
1746739312151919000,3.364919189453125,-0.09044891721010208,0.017537410256266595,0.05858748751981183
1746739312162000100,3.375000244140625,-0.12207973474860191,0.025975568255782126,0.08312085761064664
1746739312172080000,3.385080078125,-0.08965805909335613,0.026578210324048994,0.07514796076901256
1746739312182161200,3.3951611328125,-0.049505496925115584,0.03294832987785339,0.04632200805079192
1746739312192241200,3.4052412109375,0.013087445110082625,0.03640168520212173,0.0326375286293216
1746739312202322000,3.415322021484375,0.07332768653929234,0.0276367794662714,0.01727492339517921
1746739312212402200,3.425402099609375,0.1051917283117771,0.012036474752426148,0.03412318234350532
1746739312222483200,3.435483154296875,0.106695118612051,0.017776479709148404,0.017206826595030724
1746739312232564200,3.445564208984375,0.06225567290484905,0.042271454018354415,0.02169781787134707
1746739312242644000,3.45564404296875,0.021190672066807744,0.036167876446247096,0.0391393117387779
1746739312252725200,3.465725341796875,-0.02907061166167259,0.007467851662635803,0.028660441691894082
1746739312262805200,3.47580517578125,-0.0808580820441246,0.023714053064584732,0.03493910183627158
1746739312272886000,3.485885986328125,-0.13259879067540167,0.013463877207040786,0.038532943343464285
1746739312282967000,3.495967041015625,-0.1153045415252447,0.032415245914459226,0.04851789239356294
1746739312293047300,3.50604736328125,-0.0922428148895502,0.048128947874903676,0.057370786940120155
1746739312303128000,3.516128173828125,-0.03929448403418064,0.04339373604655265,0.06231211579982191
1746739312313208000,3.5262080078125,0.004186345773935318,0.04444704449176788,0.046540582704916594
1746739312323289000,3.5362890625,0.03174889096021652,0.04384790955483913,0.046418143635336306
1746739312333369000,3.546369140625,0.04793430208563804,0.030330840855836868,0.05133976314757019
1746739312343450000,3.5564501953125,0.08045183933079242,0.027165070301294326,0.03962168842824176
1746739312353531100,3.56653125,0.04201835604012012,0.027655484166741368,0.018637535251583903
1746739312363611100,3.576611083984375,-0.01096796873807907,0.024118542212247848,0.029273166762758044
1746739312373692200,3.586692138671875,-0.03796528125703334,0.029575054052472113,0.02898534453101456
1746739312383772200,3.596772216796875,-0.05948211653828621,0.027853052565455436,0.039856246102787554
1746739312393853200,3.606853271484375,-0.0980640683889389,0.025599136158823966,0.03853579288767651
1746739312403934000,3.616933837890625,-0.1095621984809637,0.03404547746479511,0.035587939400132745
1746739312414014200,3.62701416015625,-0.09293430428504944,0.02748772638440132,0.020239271359797566
1746739312424095200,3.63709521484375,-0.04956979433298111,0.02378770282268524,0.01825151334237307
1746739312434175000,3.647175048828125,-0.020369418811798094,0.010032149192690848,0.00940541386278346
1746739312444256000,3.657256103515625,0.026824878561496734,0.009955576825141907,0.033244390214979644
1746739312454336300,3.667336181640625,0.04768471123874187,0.025211013624072073,0.03987628424381837
1746739312464417300,3.677417236328125,0.05727379283905029,0.036406361377239224,0.04015548477768898
1746739312474497000,3.6874970703125,0.05422726475000381,0.04144201745688915,0.05734722340144217
1746739312484578000,3.697578125,0.02747252881526947,0.037327567875385284,0.06492975095231085
1746739312494659000,3.7076591796875,0.020352467676997183,0.03226502378880977,0.0615900668692775
1746739312504739000,3.717739013671875,-0.018182137900590895,0.02011690535545349,0.04977686121240258
1746739312514820000,3.727820068359375,-0.07247136197090148,0.023792378997802732,0.03301332140546292
1746739312524900000,3.737900146484375,-0.08994915099442005,0.04127250610888004,0.03712006260454655
1746739312534981000,3.747981201171875,-0.08375497252941132,0.05836801781654358,0.06587236556466669
1746739312545062100,3.758062255859375,-0.09534487255811691,0.034405542948842044,0.08286582340365276
1746739312555142100,3.76814208984375,-0.07608838342428206,0.044622985580563546,0.026702293361444026
1746739312565223200,3.77822314453125,-0.03324059082269668,0.051017655053734776,0.058265817817393685
1746739312575303200,3.78830322265625,0.008837970972061156,0.03130406980216503,0.023908114331960675
1746739312585384200,3.79838427734375,0.03289163125455379,0.00980593922138214,0.034793154026940463
1746739312595464000,3.8084638671875,0.06899696385860443,0.021376550027728078,0.010363025114871562
1746739312605545000,3.818544921875,0.08819616984724998,0.01837619916796684,0.0024851678792387247
1746739312615626000,3.8286259765625,0.07313537883758545,0.01124678567945957,0.04156306828698143
1746739312625706200,3.838706298828125,0.032927287089824675,0.01834054333269596,0.03937967809960246
1746739312635787000,3.848787109375,-0.019075871869921684,0.016683423775434494,0.05387269742498174
1746739312645867000,3.858866943359375,-0.07565934435725212,0.04524433234930038,0.05446366732176393
1746739312655948300,3.8689482421875,-0.10730594398677348,0.04142448180019855,0.06846196193275973
1746739312666028000,3.879028076171875,-0.11782090826034546,0.051719665843248365,0.0577957343539223
1746739312676109000,3.889109130859375,-0.09340425988435745,0.02973988922536373,0.05430522535704076
1746739312686190000,3.899190185546875,-0.04159983836710453,0.03678513156175613,0.037156522157415744
1746739312696270000,3.90927001953125,0.013752631020545959,0.028648586857318876,0.029101901849079875
1746739312706351000,3.91935107421875,0.026061492973566053,0.013057634493708609,0.014264891391620039
1746739312716431000,3.92943115234375,0.04241290831565857,0.01637596526145935,0.06018889483446255
1746739312726512000,3.93951220703125,0.03520809150338173,0.027553777357935905,0.06431919957222416
1746739312736592100,3.949592041015625,0.02038520090281963,0.017941314882040024,0.059989024880807845
1746739312746673200,3.959673095703125,0.0061801499396562576,0.019997662889957427,0.04027810651035979
1746739312756753200,3.969753173828125,0.0029296237111091613,0.03431611109972,0.04303056528996676
1746739312766834000,3.979833984375,-0.045214521732926366,0.007585340562462807,0.023936719371937212
1746739312776915200,3.989915283203125,-0.030253683966398236,0.035172435668110846,0.051354650189448146
1746739312786995200,3.9999951171875,-0.03302899389863014,0.041591655060648915,0.053719680554047224
1746739312797076200,4.010076171875,-0.0372048182785511,0.026955226942896843,0.04662712847720831
1746739312807156000,4.020156005859375,-0.038406595283746715,0.021283611047267913,0.04619639064343646
1746739312817237200,4.0302373046875,-0.027993922340869903,0.02270984445810318,0.019379384861141442
1746739312827317000,4.04031689453125,-0.006034019467234611,0.023662030616402624,0.05878688254943117
1746739312837398000,4.05039794921875,0.003980009546875953,0.006556582036614417,0.05736355348173529
1746739312847479000,4.06047900390625,0.03885317000746727,0.020310966622829437,0.05428445656364783
1746739312857559000,4.07055908203125,0.02392623451054096,0.0376928940564394,0.03203895994797349
1746739312867640000,4.08064013671875,0.03875497032999992,0.033462709140777584,0.040778091921750456
1746739312877720000,4.090719970703125,0.03190846543610096,0.024722937846183776,0.018478819292224943
1746739312887800800,4.10080078125,-0.006835398977994918,0.01329728846848011,0.03473208975577727
1746739312897881000,4.110881103515625,-0.05332943912744522,0.018084522745013237,0.03576868452820927
1746739312907962000,4.120962158203125,-0.08886135575771331,0.02586392457485199,0.0311010032444261
1746739312918041900,4.131041748046875,-0.10055296259522438,0.03140694565474987,0.03721115668779239
1746739312928123000,4.141122802734375,-0.09553718025982379,0.03361994552910328,0.06493296582270414
1746739312938204200,4.1512041015625,-0.08331658111214638,0.02724281171262264,0.043369405322894454
1746739312948284000,4.161283935546875,-0.04989011232852936,0.024486791002750394,0.023381478375662117
1746739312958365000,4.171364990234375,-0.019548165556788445,0.02362871286869049,0.0024453838581219313
1746739312968445200,4.181445068359375,0.014429507368803024,0.0483674328058958,0.013147340337466448
1746739312978526200,4.191526123046875,0.033148236364126206,0.025268881291151044,0.03534046744508668
1746739312988606000,4.20160595703125,0.026547815185785292,0.026016484788060186,0.062078361842874435
1746739312998687000,4.21168701171875,0.02299041496515274,0.041114685198664666,0.055605622164811935
1746739313008768000,4.22176806640625,0.015120996764302253,0.044833413460850714,0.06809605122981592
1746739313018848000,4.231847900390625,0.029214988568425176,0.03637538171708583,0.04088257520953193
1746739313028929000,4.241928955078125,0.017903320959210395,0.03556406533420086,0.047884544659778476
1746739313039009000,4.252009033203125,-0.0207569568246603,0.02601940739750862,0.027278010890167206
1746739313049089800,4.26208984375,-0.06180325296223163,0.01741115352809429,0.03215025656903162
1746739313059170000,4.272170166015625,-0.08289221822023392,0.01002864206135273,0.01704809236936271
1746739313069251000,4.2822509765625,-0.107575408577919,0.029489713856577872,0.05422266164012253
1746739313079330800,4.292330810546875,-0.08051204508543014,0.02335281853675842,0.06130485671972855
1746739313089412000,4.302412109375,-0.049369303324818606,0.04714110588133335,0.04801175123602151
1746739313099493000,4.3124931640625,0.02301613392829895,0.051558337801694866,0.06392879374884068
1746739313109573000,4.322572998046875,0.05796235962510109,0.04724398173391819,0.055154809657391154
1746739313119654000,4.33265380859375,0.08649871827960014,0.029871406650543213,0.04309842462809756
1746739313129734100,4.342734130859375,0.10674889462590217,0.00935761093199253,0.02091552665354684
1746739313139815200,4.352815185546875,0.06425882942080498,0.01033142440021038,-0.010789981822669506
1746739313149895000,4.36289501953125,0.028121932634711265,0.013407763105630873,0.0017796864910051226
1746739313159976000,4.372975830078125,-0.017722119173407554,0.017155132940411568,0.04568255936978385
1746739313170056200,4.38305615234375,-0.07594342199563979,0.045750528305768964,0.07167056698203086
1746739313180137000,4.393136962890625,-0.11831366021335124,0.042537411478161806,0.0861744182286784
1746739313190218000,4.403218017578125,-0.10230886635184287,0.04849895023107528,0.08274524749759585
1746739313200298000,4.413298095703125,-0.10689736318588257,0.0389127912402153,0.04659572869194671
1746739313210379000,4.42337890625,-0.09888356807827949,0.023977087914943695,0.028092651741299778
1746739313220459000,4.433458984375,-0.0697691172748804,0.00896422770023346,0.021305439286585896
1746739313230540000,4.4435400390625,-0.03173135530352592,0.012286650121212005,0.007471212663501501
1746739313240620000,4.4536201171875,0.03686345749497413,-0.0004582651615142822,0.010095715948194264
1746739313250701000,4.463701171875,0.09440905301272869,0.029701310780644415,0.00986621804125607
1746739313260781000,4.473781005859375,0.10219079293012619,0.027276713982224463,0.028723570055980235
1746739313270862000,4.483862060546875,0.05260346294045448,0.05894377187788486,0.0454398731877096
1746739313280942800,4.49394287109375,0.034122049832344056,0.02553016257584095,0.05473715050090104
1746739313291023000,4.504023193359375,-0.011409867286682128,0.02825754171311855,0.05012467000307515
1746739313301104000,4.514104248046875,-0.056340311381220816,0.022985738790035248,0.04094133792575449
1746739313311184000,4.524183837890625,-0.09145838651359081,0.022915596163272857,0.04220712007787079
1746739313321265000,4.534264892578125,-0.10254384415149688,0.03016074498593807,0.06483343270467594
1746739313331345200,4.54434521484375,-0.09054127166867255,0.024725860455632208,0.05707395941801369
1746739313341426200,4.55442626953125,-0.0629027386367321,0.029529461345076558,0.05031937059126794
1746739313351506000,4.564505859375,-0.02151157458424568,0.024084639942646025,0.04902299237148836
1746739313361587000,4.5745869140625,0.010050269371271132,0.028072832795977592,0.0073510203499346964
1746739313371668200,4.584668212890625,0.05098316826224327,0.03664601535201072,0.02714417364373803
1746739313381748000,4.594748046875,0.035144963139295576,0.0358802916765213,0.02348289292352274
1746739313391829000,4.6048291015625,0.015389292311668395,0.027084406280517576,0.056477582693751895
1746739313401909000,4.614908935546875,0.008448679393529892,0.04937982471883297,0.082384177366551
1746739313411990000,4.624989990234375,0.007461421921849251,0.03058861500918865,0.03861324203805998
1746739313422070000,4.635070068359375,-0.010450666865706443,0.03198679136931896,0.036216336964163924
1746739313432151000,4.645151123046875,-0.07118307572603225,0.039325463694334026,0.042429621988441794
1746739313442231000,4.65523095703125,-0.10034837993383407,0.0489689058303833,0.06324981677504256
1746739313452312000,4.66531201171875,-0.10954875447750091,0.04125380140841007,0.05032886907197535
1746739313462392000,4.67539208984375,-0.08636310920119285,0.019714169773459432,0.02431833910066634
1746739313472472800,4.685472900390625,-0.010884382107853889,0.019804770666360855,0.02665306565854698
1746739313482553900,4.695553955078125,0.02149637701511383,0.013819851037859916,0.02845410546483472
1746739313492634000,4.705634033203125,0.046123453271389,0.0270224469602108,0.0451648008396849
1746739313502715100,4.715715087890625,0.07861059537827968,0.020949264526367185,0.03137830408215522
1746739313512795000,4.725794921875,0.07840192106366158,0.03419043889343738,0.04095452620089054
1746739313522876000,4.7358759765625,0.07078735440671444,0.01822597704231739,0.01907044677613303
1746739313532956200,4.7459560546875,0.03242167565524578,0.03256955969333648,0.04062461839308962
1746739313543037000,4.756036865234375,-0.04282908790111541,0.04268938716948032,0.05193047731602564
1746739313553117000,4.766116943359375,-0.12644728230834007,0.03980243355631828,0.046035099134501066
1746739313563198200,4.7761982421875,-0.15766776548027991,0.022090835776925086,0.028002744968142358
1746739313573278000,4.78627783203125,-0.15526479599177836,0.01837503012418747,0.016934183666110037
1746739313583359000,4.79635888671875,-0.11875497424006462,0.02945931871831417,0.02404138532280922
1746739313593440000,4.80643994140625,-0.044369303080439564,0.05746317793130874,0.06844194205803797
1746739313603520000,4.81652001953125,0.016665888118743897,0.04292319592535496,0.0772969920290634
1746739313613601000,4.82660107421875,0.07294833183288574,0.04012508963942527,0.05085391585938632
1746739313623681000,4.836680908203125,0.11103402459919452,0.02708382175862789,0.040465537107549604
1746739313633762000,4.846761962890625,0.12045417937338351,0.0033498949497938156,0.029818562218453734
1746739313643842000,4.856842041015625,0.1160579902410507,0.007257423782348633,0.026810850036144255
1746739313653923000,4.866923095703125,0.054719432181119916,-0.004434767577052116,0.03381102938810363
1746739313664003000,4.877003173828125,0.011870470535755157,0.02490530867576599,0.014928944790922105
1746739313674083800,4.887083740234375,-0.06180442200601101,0.0395095880895853,0.05154622723879292
1746739313684164000,4.8971640625,-0.12620353668034076,0.04620411729216575,0.07481102043222636
1746739313694245000,4.9072451171875,-0.16044073732495306,0.059570963865518564,0.0828249068713747
1746739313704326000,4.917325927734375,-0.1508195070207119,0.059497898629307745,0.07714614884890615
1746739313714406000,4.927406005859375,-0.1388192726254463,0.030773908448219298,0.032546416279766704
1746739313724487200,4.937487060546875,-0.07200140637159347,0.025175357788801193,0.02348539540786296
1746739313734567000,4.94756689453125,-0.04006546840667724,0.023369185149669645,0.013748466302081942
1746739313744648000,4.95764794921875,0.027622166419029235,0.004875497081875801,0.015291421427763997
1746739313754728200,4.967728271484375,0.07500467984080314,0.0218985280752182,0.03421950059114024
1746739313764809200,4.977809326171875,0.1045253733575344,0.02069382846057415,0.020106438760366288
1746739313774889000,4.987888916015625,0.11109890652894973,0.021598083823919294,0.02833287197165191
1746739313784970000,4.997969970703125,0.09198211812674999,0.019696634116768835,0.049006114301923656
1746739313795050000,5.008050048828125,0.05992284604310989,0.034386838248372076,0.06822999807409942
1746739313805131000,5.018131103515625,-0.001197100830078125,0.04624211121499538,0.06038768707588315
1746739313815210200,5.028210205078125,-0.04166004412174225,0.01941197195649147,0.039049331900384274
1746739313825291500,5.03829150390625,-0.07199965280592441,0.028908699098229407,0.050872145635820924
1746739313835372500,5.04837255859375,-0.10553659622669219,0.012042319971323013,0.04573914839522913
1746739313845452300,5.058452392578125,-0.09764730428159236,0.01082242278754711,0.041450365160126235
1746739313855533300,5.068533203125,-0.09615385085344313,0.02027940244078636,0.04351022029938176
1746739313865613600,5.078613525390625,-0.07731471034884452,0.022243395990133284,0.033053763013705606
1746739313875694600,5.088694580078125,-0.012870002967119216,0.020244915649294853,0.03093890801789239
1746739313885774300,5.0987744140625,0.0245867442458868,0.037837270963191984,0.03669126099953428
1746739313895855400,5.10885546875,0.055472296375036236,0.03949439052045345,0.02656051027057692
1746739313905935400,5.118935302734375,0.056284197279810905,0.03116904524564743,0.014805647204816341
1746739313916016400,5.129016357421875,0.038108489120006556,0.04274491674900055,0.05296730955047533
1746739313926096400,5.139096435546875,0.024513094487786293,0.020999533408880233,0.07028603555476293
1746739313936177400,5.149177490234375,-0.020905425384640693,0.01981938371360302,0.037696273323614145
1746739313946257400,5.15925732421875,-0.0748936206817627,0.026401684713363648,0.03177868331028148
1746739313956338400,5.16933837890625,-0.08225508936047554,0.030418519139289855,0.03555843931101262
1746739313966419500,5.17941943359375,-0.09380348833501338,0.035542438024282454,0.03817265866370871
1746739313976499200,5.189499267578125,-0.06977963866889476,0.03842997615933418,0.04245979793099686
1746739313986580500,5.19958056640625,-0.06226093360185623,0.029853870993852612,0.025731256372202187
1746739313996660500,5.209660400390625,-0.020865677896142003,0.026941198417544363,0.049834491417463864
1746739314006741200,5.2197412109375,0.018735095608234404,0.028704700958728787,0.03817304225619882
1746739314016821500,5.229821533203125,0.044728199520707126,0.009283961173892021,0.023042565277498213
1746739314026902500,5.239902587890625,0.04859773443043232,0.021769348737597463,0.04976579182911664
1746739314036982300,5.249982177734375,0.03830488847494125,0.03572948502898216,0.06125224974965676
1746739314047063300,5.260063232421875,0.0034919337689876553,0.02194996600151062,0.0233746102434583
1746739314057143600,5.2701435546875,-0.027692309045791626,0.04462707723379135,0.0450524082400836
1746739314067224600,5.280224609375,-0.06021919864118099,0.03463818266093731,0.057794729706924404
1746739314077304300,5.29030419921875,-0.06164484753012657,0.01640636039972305,0.01355018551731482
1746739314087385300,5.30038525390625,-0.09168342744112014,0.043021980124711985,0.025017354215495287
1746739314097465600,5.310465576171875,-0.10087503415644168,0.00879646991789341,0.032153562770970166
1746739314107546400,5.32054638671875,-0.04160743715167045,0.010417349117994308,0.04808846973404288
1746739314117627400,5.33062744140625,0.017706337082386017,0.02029284644424915,0.0460920534861274
1746739314127707400,5.340707275390625,0.07444061621725559,0.03180968123674392,0.03593640577793121
1746739314137788400,5.350788330078125,0.10800386312305926,0.024432430467009544,0.019803638155199588
1746739314147868400,5.360868408203125,0.10632336269021034,0.011975099954009055,-0.004061312888469547
1746739314157949400,5.370949462890625,0.06368424440324306,0.021931845822930333,0.015741612880676985
1746739314168029200,5.381029296875,0.014886018964648246,0.02381225274205208,0.0318307788236998
1746739314178110500,5.3911103515625,-0.038116087904572486,0.024164719441533086,0.04319185679890215
1746739314188190500,5.4011904296875,-0.06901800664663314,0.037378421279788014,0.052707946228235956
1746739314198271500,5.411271484375,-0.09549392563998699,0.03398644075393677,0.04841634998153895
1746739314208351500,5.4213515625,-0.10150222614407539,0.036973932132124895,0.06585464724488556
1746739314218432500,5.4314326171875,-0.11603811649680137,0.05485387221574783,0.06538982447842136
1746739314228512300,5.44151220703125,-0.0838163473278284,0.04988952780663967,0.05353126357616857
1746739314238593300,5.45159326171875,-0.04026479037106037,0.03013853315412998,0.028590043336804954
1746739314248673500,5.461673583984375,-0.016522680255770684,0.017525135296583175,0.03922355595612898
1746739314258754600,5.471754638671875,0.021826047360897063,0.018328268373012543,0.02983607960883528
1746739314268834300,5.481834228515625,0.05326689528524875,0.02251461414694786,0.02920960000725463
1746739314278915300,5.491915283203125,0.0756383015692234,0.01953822868466377,0.04170583775853738
1746739314288995600,5.50199560546875,0.054365796437859534,0.030312136155366896,0.04382301257560029
1746739314299076400,5.512076416015625,0.04770926115810871,0.0350654681622982,0.04630487425290048
1746739314309157400,5.522157470703125,0.03730827865302563,0.04614449605941772,0.05060441634403541
1746739314319237400,5.5322373046875,-0.01523614757657051,0.02879880898296833,0.0509101212923415
1746739314329318400,5.542318359375,-0.10319850866794586,0.026862287962436674,0.029869543487019836
1746739314339398400,5.5523984375,-0.1153355211853981,0.01741758326888084,0.038320433103945103
1746739314349479400,5.5624794921875,-0.12840075446367263,0.019748656564950944,0.03927411709958687
1746739314359559400,5.572559326171875,-0.10208499446809291,0.01676759492754936,0.03969721961617469
1746739314369640400,5.582640380859375,-0.08893734360337256,0.019318448454141615,0.036129170137364414
1746739314379720400,5.592720458984375,-0.027416414713859555,0.045508536243438716,0.04043859430169686
1746739314389801500,5.602801513671875,0.025279402685165403,0.024884265887737272,0.03973583459351211
1746739314399881500,5.612881591796875,0.033091537740826606,0.015538345393538475,0.021832458835374564
1746739314409962500,5.62296240234375,0.04770809211432934,0.005564063867926597,0.011195731345657258
1746739314420042500,5.63304248046875,0.026586978152394292,0.004725274956226349,0.00840478545287624
1746739314430123300,5.643123291015625,-0.001121112984418869,0.02199263609945774,0.0366127706695348
1746739314440203500,5.65320361328125,-0.024403204372525213,0.028247020319104192,0.040655561520624904
1746739314450284500,5.663284423828125,-0.022604045996069907,0.03650105392336845,0.06949150590989739
1746739314460364300,5.6733642578125,-0.0378583137512207,0.05595394241213798,0.07301374348560348
1746739314470445300,5.6834453125,-0.03301964154839516,0.032867081335186954,0.051606962716393166
1746739314480525600,5.693525634765625,-0.008995791882276534,0.0374573317348957,0.033614885761495676
1746739314490606300,5.7036064453125,0.016098901885747908,0.02467266896367073,0.02544303228165954
1746739314500686300,5.713686279296875,-0.0002659574598073959,0.014133739292621612,0.0013578991486690938
1746739314510767400,5.723767333984375,-0.029152444726228712,0.014493804776668548,0.00986311276871711
1746739314520847400,5.733847412109375,-0.0076888009369373315,0.010137363132834434,0.030505740765016526
1746739314530928400,5.743928466796875,0.014923428365588187,0.025464111602306366,0.033807960648182776
1746739314541009400,5.754009521484375,0.02171148107051849,0.01732405976653099,0.020255528374854476
1746739314551089400,5.76408935546875,0.01789922930598259,0.025020459488034247,0.008549345022719352
1746739314561170400,5.77417041015625,-0.014577975928783416,0.02948679124712944,0.03220370378931984
1746739314571250400,5.78425048828125,-0.07002572238445282,0.0327039997279644,0.06152363230325281
1746739314581331500,5.79433154296875,-0.10761223345696926,0.0532996285110712,0.060152526613138614
1746739314591411500,5.804411376953125,-0.1226245091497898,0.0337538010418415,0.044553007350582624
1746739314601492500,5.814492431640625,-0.12330313906371593,0.03154547734260559,0.0315347732855007
1746739314611572500,5.824572509765625,-0.08133797451555728,0.038725159713625903,0.047663120461441576
1746739314621653200,5.8346533203125,-0.03008008096516132,0.015811901637911796,0.039903592375852164
1746739314631733500,5.8447333984375,-0.005578092393279075,0.025967384949326513,0.037882023420371114
1746739314641814500,5.854814453125,0.05688333221673965,0.034140754532814024,0.045609640264045445
1746739314651894300,5.864894287109375,0.08361994797289371,0.009476268875598907,0.02857833463270217
1746739314661975300,5.874975341796875,0.07849953621923923,0.018567922347784042,0.009630966246966272
1746739314672055600,5.8850556640625,0.08564882345199584,0.04311784171462059,0.0017537483321502804
1746739314682136300,5.89513623046875,0.05505962392091751,0.007738485297560691,0.026835564352292566
1746739314692216300,5.90521630859375,0.01938099229633808,0.01695464193224907,0.03565287612881511
1746739314702297300,5.91529736328125,-0.03624269524812698,0.005490414109826087,0.01737827417179942
1746739314712377300,5.92537744140625,-0.06552490383386611,0.01268120239675045,0.053248007921688253
1746739314722458400,5.935458251953125,-0.09377601580619811,0.0491693968385458,0.04867134765591472
1746739314732538400,5.945538330078125,-0.08691665143072605,0.047670682713389395,0.05765115651777014
1746739314742619400,5.955619384765625,-0.0705190588593483,0.04020166200697422,0.03919409239962697
1746739314752699400,5.965699462890625,-0.06542904224395751,0.024105098208785057,0.03486589046958834
1746739314762780400,5.975780517578125,-0.0320201091170311,0.021716157245635984,0.047003231780603526
1746739314772860400,5.9858603515625,-0.014845102432370185,0.022379005068540573,0.05006777045037597
1746739314782941400,5.99594140625,-0.031556583258509636,0.011427987465262412,0.03965148077830672
1746739314793021400,6.006021484375,-0.014961422288417816,0.005782090532779693,0.005265208785515278
1746739314803102500,6.0161025390625,0.014008651608228683,0.012854805397987366,0.01467069571353495
1746739314813182700,6.0261826171875,0.04205985709428787,0.006812602624297142,0.0036133499252609907
1746739314823263500,6.036263427734375,0.04972995333075523,0.023441665863990782,0.010077668834850192
1746739314833343500,6.046343505859375,0.019426000481843946,0.053071664974093435,0.04351296024573967
1746739314843424500,6.056424560546875,0.018666122025251388,0.027883447703719137,0.034120716391783205
1746739314853504500,6.06650439453125,-0.005278232663869857,0.032170331242680546,0.04761542712850496
1746739314863585500,6.07658544921875,-0.00600011719763279,0.0335667540371418,0.030554566609114407
1746739314873665500,6.08666552734375,-0.041056233009696005,0.02810907315313816,0.03159580102404579
1746739314883746300,6.096746337890625,-0.059717094337940216,0.02283785475194454,0.02570487982193008
1746739314893826600,6.10682666015625,-0.038757308417558665,0.02308919916450977,0.04278327599801123
1746739314903907600,6.116907470703125,-0.03585983341038227,0.020285832181572913,0.010243289459031074
1746739314913987300,6.1269873046875,-0.028262802410125732,0.027322306689620015,0.030337087933532892
1746739314924068400,6.137068359375,-0.00013268646895885466,0.02622866623401642,0.04701265719607472
1746739314934148600,6.147148681640625,-0.022326982620358465,0.02654255448877811,0.031032851645350454
1746739314944229400,6.1572294921875,-0.02051204215288162,0.024402035328745842,0.02320352799287066
1746739314954309400,6.167309326171875,-0.021361936980485916,0.0211795661509037,0.024819767550472167
1746739314964390400,6.177390380859375,-0.026442601245641708,0.019510171633958816,0.011476338385324924
1746739314974470400,6.187470458984375,-0.02529869190752506,0.040789106506109236,0.019106577535439283
1746739314984551400,6.197551513671875,-0.020713117682933806,0.03634440205693245,0.04841508960621431
1746739314994631400,6.20763134765625,-0.019676760372519492,0.03650982175171375,0.05652971473978832
1746739315004712700,6.217712646484375,-0.025768647506833074,0.0301028773188591,0.051000320326443756
1746739315014792400,6.22779248046875,0.0117465518951416,0.01445931798517704,0.04838637496838346
1746739315024873500,6.23787353515625,0.05464227529168129,0.027678865042328832,0.013910013539344072
1746739315034953500,6.247953369140625,0.04667348836958408,0.004584989702701568,0.010342913908604532
1746739315045034500,6.258034423828125,0.05788111108243465,0.008742693904042243,-0.008379194353893398
1746739315055114500,6.268114501953125,0.028002105647325515,0.01480827755331993,0.004608845502324402
1746739315065195500,6.278195556640625,-0.008323007187247275,0.021160276928544042,0.018773582721408454
1746739315075275500,6.288275634765625,-0.021592238605022428,0.03868541222512722,0.029661471960600466
1746739315085356500,6.2983564453125,-0.030300445717573163,0.02689034501314163,0.050047348716855046
1746739315095436500,6.3084365234375,-0.0581838934212923,0.018808745366334916,0.04763783988971263
1746739315105517300,6.318517333984375,-0.06129296535253524,0.017492402070760724,0.030197350669279692
1746739315115597600,6.32859765625,-0.07546352952420711,0.029882512566447257,0.0132209352966398
1746739315125678600,6.3386787109375,-0.027400048100948333,0.015339607951045036,0.01854866965804249
1746739315135758300,6.34875830078125,-0.007191372808814048,0.0267260943621397,0.033033012486621736
1746739315145839400,6.35883935546875,0.029254736056923865,0.032983401191234586,0.03786366577977315
1746739315155919600,6.368919677734375,0.043562662872672075,0.018500702330470083,0.023468663468770683
1746739315166000400,6.37900048828125,0.046398763081431385,0.01914659901857376,0.022332371181529014
1746739315176080400,6.389080322265625,0.04441080413460731,0.01836275516450405,0.0010744425647892057
1746739315186161400,6.399161376953125,0.034195115068554875,0.000969137293100357,0.01158250217353925
1746739315196241400,6.409241455078125,-0.002966448590159416,0.019794249272346496,0.040116906332969667
1746739315206322400,6.419322509765625,-0.04171732726693153,0.029365795215964316,0.04684058856479823
1746739315216402400,6.42940234375,-0.04915010761618614,0.030175358033180236,0.0387261278280057
1746739315226483500,6.4394833984375,-0.02511924368739128,0.023898177459836006,0.030194884717557578
1746739315236563500,6.4495634765625,-0.03898176482319832,0.015184709650278091,0.023154008029028773
1746739315246644500,6.45964453125,-0.03615852409601211,0.018355740901827813,0.004362743520457298
1746739315256724500,6.469724365234375,-0.03124970926642418,0.015548866787552833,0.010811755263060331
1746739315266805500,6.479805419921875,0.004302081108093261,0.009327215793728827,0.020688750426657496
1746739315276885500,6.489885498046875,0.032791678011417386,0.02833294503688812,0.03674852587841451
1746739315286966500,6.499966552734375,0.04500000219941139,0.02720481778979301,0.03315174349546432
1746739315297046500,6.510046630859375,0.06756196261942386,0.021180735194683074,0.021589772653300313
1746739315307127600,6.52012744140625,0.06547112782001495,0.006909633257985114,0.04277005119025707
1746739315317207600,6.53020751953125,0.01983107415139675,0.0068611179411411285,0.031529658718965944
1746739315327288300,6.540288330078125,-0.025060206976532936,0.05183657022118568,0.0379653360559605
1746739315337368600,6.55036865234375,-0.04320961165130138,0.028227731096744535,0.03671849606633186
1746739315347449600,6.56044970703125,-0.09202595726847648,0.022178514060378074,0.01999992791227996
1746739315357529300,6.570529296875,-0.09804068751335143,-0.006990297278761863,0.019625158049445597
1746739315367610400,6.5806103515625,-0.06340308937430382,-0.013830372431874275,0.00884717719182372
1746739315377690600,6.590690673828125,-0.027558453533053397,0.03349076619148254,0.02460002385256812
1746739315387771400,6.600771484375,0.03845569512248039,0.02839315079152584,0.005619611713755876
1746739315397851400,6.610851318359375,0.09906944603919983,0.01866787559092045,0.033737617092020805
1746739315407932400,6.620932373046875,0.1286678809672594,0.04174304623007774,0.03264520047912374
1746739315418012400,6.631012451171875,0.11529986535012722,0.019702479335665702,0.036118904471676795
1746739315428093400,6.641093505859375,0.05375380201935768,0.01277531042098999,0.0523865139878355
1746739315438173400,6.65117333984375,-0.006833060890436172,0.02475625559389591,0.04537736587813124
1746739315448254500,6.66125439453125,-0.058522331595420835,0.04316986416280269,0.04739133604904636
1746739315458334500,6.67133447265625,-0.09743629187941551,0.020607319220900533,0.044220925852004433
1746739315468415500,6.68141552734375,-0.11007599322199821,0.005178863942623138,0.007151040798425674
1746739315478495500,6.69149560546875,-0.08993862960040569,0.023216624936461448,-0.003606627923529595
1746739315488576500,6.701576416015625,-0.052853638309240336,0.016820201897621154,0.013011018873006104
1746739315498656500,6.711656494140625,-0.0008335282146930694,0.025320319217443463,0.023113639486022294
1746739315508737500,6.721737548828125,0.052366147053241725,0.021484686577320097,0.056162178335338826
1746739315518817500,6.731817626953125,0.0820779792279005,0.02399462357163429,0.03400516372071579
1746739315528897500,6.7418974609375,0.07479659004807472,0.02363864974081516,0.003073525693826377
1746739315538978600,6.751978515625,0.06933306394517422,0.022712182545661926,0.010539696856029332
1746739315549058600,6.76205859375,0.04854278937280178,0.019789573097229004,0.02278301929216832
1746739315559139600,6.7721396484375,0.019402619606256485,0.021781623697280882,0.016571652230340985
1746739315569219600,6.782219482421875,-0.009284545695781707,0.02342296116352081,0.040049138326384126
1746739315579300400,6.79230029296875,-0.05673369461297988,0.025926468417048452,0.05241276267394423
1746739315589380600,6.802380615234375,-0.09463234037458897,0.03571078032851219,0.05033880594410002
1746739315599461600,6.812461669921875,-0.12258242357373236,0.02319032145142555,0.03668908730875701
1746739315609541400,6.822541259765625,-0.1185159047871828,0.002374327915906906,0.028755463031586256
1746739315619622400,6.832622314453125,-0.08093465441167354,0.010984919872879981,0.02771322396965697
1746739315629702700,6.84270263671875,-0.049909986072778696,-0.0000637128859758377,0.01964736988125369
1746739315639783400,6.852783447265625,-0.03381459131836891,0.009986556485295296,0.006235094997286797
1746739315649863400,6.862863525390625,0.030350130078196525,0.03310439722239971,0.018774587368406353
1746739315659944400,6.8729443359375,0.07909457950294017,0.020550620597600936,0.041102355440054084
1746739315670024400,6.8830244140625,0.0843611217290163,0.027596447455883025,0.027595114015322178
1746739315680105500,6.89310546875,0.055769233494997024,0.008704115459322929,0.02347323004603386
1746739315690185500,6.903185546875,0.005667524242401123,0.02059972043633461,0.02786611297642812
1746739315700266500,6.9132666015625,-0.04267243603467941,0.01690437304973602,0.027008601097948847
1746739315710346500,6.923346435546875,-0.07561667425930499,0.02539806062877178,0.025787662734556942
1746739315720427500,6.933427490234375,-0.104582071980834,0.014120879811048507,-0.0027888635335490105
1746739315730507300,6.94350732421875,-0.10570727661848067,0.005761632266640663,0.0401752123914659
1746739315740588500,6.953588623046875,-0.08962064969241619,0.029219080221652982,0.028723387392889706
1746739315750668500,6.96366845703125,-0.05737666869163513,0.009288637349009513,0.021266696445085106
1746739315760749600,6.97374951171875,-0.011242109504342079,0.011691606837511062,0.000794127786066383
1746739315770829300,6.983829345703125,0.02241349186003208,0.019012743505835532,0.010428272370807826
1746739315780910600,6.99391064453125,0.039941549766063685,0.009604863691329955,0.032575751972105355
1746739315790990600,7.003990478515625,0.05778115783929824,0.03437456328868866,0.04028789725201204
1746739315801071400,7.0140712890625,0.06763444333374499,0.055147886726260184,0.06040208092741668
1746739315811151600,7.024151611328125,0.08340425939559937,0.03469780389368534,0.05079334477856755
1746739315821233200,7.034233154296875,0.01072656119763851,0.027757190975546835,0.025706560322362928
1746739315831313000,7.04431298828125,0.02054828251004219,-0.007867080113291739,0.033575284403469415
1746739315841393000,7.054392822265625,-0.05678162540793419,0.011575871503353118,-0.023551884772814807
1746739315851474000,7.064473876953125,-0.05761281553506851,-0.0027227029621601103,0.015984189464896915
1746739315861554000,7.074553955078125,-0.07608078463971614,0.005075988090038299,0.005901040737330913
1746739315871635000,7.084635009765625,-0.054770870107412335,0.02127718130648136,0.018757654499914497
1746739315881715000,7.09471484375,-0.012335749959945679,0.03419102341532707,0.046383181919809426
1746739315891796000,7.1047958984375,0.01973521256148815,0.04478489814400673,0.031699772855173794
1746739315901876000,7.1148759765625,0.028650340422987936,0.03772387371659278,0.01704699639081955
1746739315911957000,7.12495703125,0.033815175840258595,0.026342063480615616,0.0323259601958096
1746739315922037000,7.135037109375,0.005493921241164207,0.017456161713600156,0.037780389676801855
1746739315932118000,7.145117919921875,-0.064005146920681,0.022313538616895674,0.02299647937975824
1746739315942198000,7.155197998046875,-0.07695172225534916,0.018175708159804342,0.026787542225793003
1746739315952279000,7.165279052734375,-0.059300330230593674,0.01723871957063675,0.02771543419305235
1746739315962359000,7.175359130859375,-0.010666939964890479,0.013724573969841003,0.037478922512196
1746739315972440000,7.185440185546875,-0.011463058778643608,0.020174188500642776,0.035440859079640355
1746739315982519800,7.195519775390625,0.016537293303012846,0.029730536875128746,0.027092516521736977
1746739315992600800,7.205600830078125,0.055232642400264736,0.014888357052206992,0.029417105278093367
1746739316002681000,7.21568115234375,0.06743044519424438,0.00041851767301559446,0.019471136531513184
1746739316012762000,7.22576220703125,0.06715630442798137,-0.00511339749097824,-0.009951613036077469
1746739316022841900,7.235841796875,0.035704935109615324,-0.004001636856794357,-0.004694678888563067
1746739316032922000,7.245922119140625,-0.009363456150889396,0.021038696375489233,0.014247574930638074
1746739316043003100,7.256003173828125,-0.03758709559440612,0.041436172237992286,0.03465175452856347
1746739316053083000,7.266082763671875,-0.10364742147922515,0.0377712199896574,0.05243782404996455
1746739316063164000,7.276163818359375,-0.11469663875997066,0.038570261412858964,0.051524892189819364
1746739316073244200,7.286244140625,-0.09659399583637714,0.043238253223896024,0.05434860784104094
1746739316083325000,7.296324951171875,-0.07505962489843368,0.014382745617628097,0.007459905818197876
1746739316093405000,7.306405029296875,-0.032227029865980146,0.018702946904301642,-0.011802318936679511
1746739316103486000,7.31648583984375,0.012326397609710693,0.01893967826962471,-0.0014821283165365458
1746739316113566000,7.32656591796875,0.02985270195007324,0.027259178325533866,0.027130510444566606
1746739316123647000,7.33664697265625,0.039085225197672845,0.031816110977530475,0.0645790378184989
1746739316133727000,7.34672705078125,0.055638885113596916,0.011304068824648857,0.03317649434423074
1746739316143808000,7.35680810546875,0.06778408093750476,0.021009470281004906,0.029522885473817585
1746739316153888000,7.366887939453125,0.0372527490735054,0.027639702075719832,0.03825063753705472
1746739316163969000,7.376968994140625,-0.005059621477127075,0.02941781766414642,0.05636431331131607
1746739316174049000,7.387049072265625,-0.022238135293126106,0.007811550533771514,0.03674785002497956
1746739316184129000,7.39712890625,-0.037657822743058206,0.0005500350981950759,0.013341072811279445
1746739316194210000,7.4072099609375,-0.07369651985168457,0.004874912559986114,-0.00399098759861663
1746739316204289800,7.417289794921875,-0.0692810414969921,0.004002221378684044,0.010844926880300044
1746739316214371000,7.42737109375,-0.06778291189372539,0.02335983279943466,0.018637352588493375
1746739316224451000,7.437451171875,-0.03666179744303226,0.03747136026024818,0.04029690254237502
1746739316234531800,7.44753173828125,0.004864975687861442,0.045454760229587554,0.05071037920285016
1746739316244612000,7.457612060546875,0.0450040938526392,0.04154313974380493,0.025071367691364137
1746739316254693000,7.467693115234375,0.0076578212767839425,0.023581366595625874,0.0051115708600729705
1746739316264772900,7.47777294921875,0.02236731463074684,-0.00018120178580284117,0.012197528799343854
1746739316274854000,7.48785400390625,0.023952537995576857,-0.001235094752907753,0.034261257373634724
1746739316284934100,7.49793408203125,-0.010640051957964896,0.022643208962678907,0.033718638396915045
1746739316295015200,7.50801513671875,-0.04224807314276695,0.01731704550385475,0.043989747444633395
1746739316305095000,7.518094970703125,-0.034544659158587454,0.011557751324772833,0.04160690742870792
1746739316315175200,7.528175048828125,-0.02138181072473526,0.03205868756175041,0.047011908277403563
1746739316325256000,7.538255859375,-0.03228606657683849,0.02031914992928505,0.029459300452005118
1746739316335336000,7.5483359375,-0.0696954675167799,0.02396715104281902,0.007947123079560697
1746739316345417000,7.5584169921875,-0.0700876817047596,0.024406711503863334,0.045091388543602076
1746739316355497000,7.5684970703125,-0.02500292383134365,0.01495382350385189,0.05409401202546432
1746739316365578000,7.578577880859375,-0.0021025252372026443,0.03249181828200817,0.03981006887350231
1746739316375658000,7.588657958984375,-0.0030967969715595244,0.013367431095242499,0.00592741728760302
1746739316385739000,7.598739013671875,0.03906242884397507,0.008752630776166915,0.01661622202442959
1746739316395819000,7.608819091796875,0.053903439623117444,0.013557985231280326,0.023040903043374417
1746739316405900000,7.618900146484375,0.047103696480393406,0.008303717964887618,0.011514460172317921
1746739316415980000,7.62897998046875,0.0008627543091773986,-0.00509644635617733,-0.005929353516362607
1746739316426060000,7.63906005859375,-0.030598551881313323,-0.014591419932246207,0.0022994177824817597
1746739316436141000,7.64914111328125,-0.05972410860061645,0.06270692380368709,0.048948831156734374
1746739316446220800,7.659220703125,-0.05428571693897247,0.03879705590605736,0.06057950158724561
1746739316456301800,7.6693017578125,-0.06833762316703795,0.029231939703226087,0.05737148105986416
1746739316466382000,7.679382080078125,-0.028678981995582577,0.04287526513040066,0.057143133930396287
1746739316476463000,7.689463134765625,0.01526186653971672,0.014843348866701125,0.03292474807286635
1746739316486542800,7.69954296875,0.020066051951050757,0.012518120789527892,-0.003125913468189537
1746739316496623900,7.709623779296875,0.024499065962433814,0.011640753433108329,-0.00926951252343133
1746739316506704100,7.7197041015625,0.036812019568681714,0.015952771413326263,0.00909371756510809
1746739316516785000,7.729784912109375,0.033661446583271026,0.012618074032664298,0.020906722292583436
1746739316526865000,7.739864990234375,0.06020867724716663,0.029342998862266538,0.02999508782913908
1746739316536945000,7.74994482421875,0.046181905460357664,0.039698973181843754,0.05026073573920876
1746739316547026000,7.76002587890625,0.020574585995078085,0.030059038177132603,0.03838372586481273
1746739316557106000,7.77010595703125,-0.024150106394290924,0.033199674290418625,0.06399875371251255
1746739316567187000,7.78018701171875,-0.05154080214500427,0.01759060174822807,0.03145060213338584
1746739316577267000,7.790266845703125,-0.06049450845122337,0.004409633135795593,0.019092439412232487
1746739316587348000,7.800347900390625,-0.08332125728726386,0.015343115082383155,0.024335217170231044
1746739316597428000,7.810427978515625,-0.08596797240376472,0.025197569620609282,0.031276834735367444
1746739316607509000,7.820509033203125,-0.05977671557068824,0.04439443752169609,0.06308710049400106
1746739316617589000,7.830589111328125,-0.005703764599561691,0.04319967477917671,0.05106624343581497
1746739316627669000,7.8406689453125,0.019512509721517562,0.023766660034656523,0.01882167791314423
1746739316637750000,7.85075,0.02420680501759052,0.007241057169437408,-0.009780713448580353
1746739316647830000,7.860830078125,0.025832360392808913,0.00819733498096466,-0.018266857041977346
1746739316657911000,7.8709111328125,0.03134206372499466,0.0018336451679468154,0.016107578382547942
1746739316667991000,7.880990966796875,0.0021878654330968854,0.015163082340359686,0.038104086939524856
1746739316678072000,7.891072021484375,-0.0051531449794769285,0.029570962399244307,0.036966844804212445
1746739316688152000,7.901152099609375,-0.015824176597595215,0.04759820199906826,0.02987286795526743
1746739316698232800,7.91123291015625,-0.024572131198644636,0.034980712488293646,0.0429811914565973
1746739316708313000,7.92131298828125,-0.0078045362710952755,0.023309563916921613,0.05172779435077682
1746739316718393000,7.93139306640625,-0.0075157824575901025,0.022753683599829672,0.0285120461971499
1746739316728473900,7.941473876953125,0.01972293760180473,0.021475334227085113,0.012372702703159301
1746739316738554000,7.95155419921875,0.01909165396094322,0.016929507490992545,-0.008764430811814963
1746739316748635100,7.96163525390625,-0.014770868152379988,0.002208323699235916,0.007686736844014376
1746739316758715000,7.97171484375,-0.026278350594639777,0.01104161849617958,-0.008877627129014581
1746739316768796000,7.9817958984375,-0.06287585062980651,0.0055932899624109265,0.00604521671468392
1746739316778876200,7.991876220703125,-0.06724748984277248,0.009015665626525879,0.019608663572371003
1746739316788957000,8.00195703125,-0.0320505042552948,0.0372089099317789,0.04298186731003224
1746739316799037000,8.012036865234375,0.011848843225836753,0.049452305433154105,0.04593445177162066
1746739316809117200,8.0221171875,0.04451251094341278,0.06161152978241443,0.05707710122317075
1746739316819197700,8.03219775390625,0.018335867157578466,0.028451018458604812,0.05125577465854585
1746739316829277700,8.042277587890625,-0.01830605654120445,0.030694413471221923,0.044024252502433955
1746739316839358500,8.0523583984375,-0.061251464298367496,-0.017985154023766516,-0.0031900282129645346
1746739316849438700,8.062438720703126,-0.07461772634983062,-0.018173370072245596,-0.005773030443489551
1746739316859519700,8.072519775390624,-0.03804652979969978,0.006983283016085624,0.007591678971704095
1746739316869599500,8.082599609375,-0.015405658924579619,0.010013444492220878,0.01563119304245338
1746739316879679700,8.0926796875,0.015407997012138366,0.020600304958224295,0.04862127970280125
1746739316889760800,8.1027607421875,0.049152445703744885,0.053311318948864934,0.05370464738169685
1746739316899840500,8.112840576171875,0.03298807736635208,0.018964812710881233,0.027554727206006643
1746739316909921500,8.122921630859375,0.027028292179107665,0.025333763220906257,0.012151351570058613
1746739316920001800,8.133001708984375,0.02627425894141197,0.008103811478614806,0.00801114649279043
1746739316930082600,8.14308251953125,-0.004371054691076279,-0.007997428494691849,0.011368530629295855
1746739316940162600,8.15316259765625,-0.021553660160303113,0.003841477859020233,0.019030169564671812
1746739316950243600,8.16324365234375,-0.025400398716330527,0.014443535894155502,0.019280125737749038
1746739316960323600,8.173323486328124,-0.050128597259521485,0.0071282444447278975,0.032050887847784905
1746739316970403600,8.183403564453124,-0.053068742364645004,0.01482873581945896,0.04424154851492494
1746739316980484600,8.193484619140625,-0.030700258690118786,0.00934065979719162,0.038580691475328055
1746739316990564600,8.203564697265625,-0.02230535531044006,0.024108605340123174,0.03588052913853899
1746739317000645600,8.213645751953125,-0.005841711765527725,0.04231237055063247,0.039043103088997305
1746739317010725600,8.2237255859375,-0.004001636856794357,0.03383212697505951,0.03360642846040428
1746739317020806700,8.233806640625,0.005676292070746421,0.012428688940405845,0.020833620523754506
1746739317030886700,8.24388671875,-0.02029109287858009,0.015762217277288437,0.01937620652336627
1746739317040966700,8.253966552734376,-0.0009217910200357436,0.009089315384626389,0.022526140187960116
1746739317051047700,8.264047607421874,-0.009627075523138046,0.03126899848878383,0.01671135296197608
1746739317061127700,8.274127685546874,0.006861702463030815,0.03619885610640049,0.037793212625756856
1746739317071208700,8.284208740234375,0.0048608840346336364,0.0383943203240633,0.039257860084529965
1746739317081288700,8.294288818359375,-0.002537409523129463,0.02970890956521034,0.02204319724291563
1746739317091369700,8.30436962890625,0.014326631516218184,0.020393968731164933,0.016580620988085864
1746739317101449700,8.31444970703125,-0.006386486166715622,0.019890110862255096,0.030101690008770672
1746739317111530500,8.324530517578125,-0.025156068566441533,0.017435703447461127,0.026548399707674978
1746739317121610800,8.33461083984375,-0.03631400691866875,0.004750993919372558,0.017610128432605416
1746739317131690800,8.344690673828126,-0.024696049839258192,0.014705986222624779,0.012561704202927649
1746739317141771500,8.354771484375,-0.03186813342571258,0.018377368211746216,-0.0025933592277579006
1746739317151851800,8.364851806640624,0.003361585387587547,0.023523498928546903,0.030642573686130343
1746739317161932800,8.374932861328125,0.008417115211486815,0.029702479824423787,0.028748941959254443
1746739317172012500,8.385012451171875,0.02910860558450222,0.0333925665140152,0.04617193205561489
1746739317182093600,8.395093505859375,0.02510053898692131,0.031602175965905185,0.026722642029728738
1746739317192173800,8.405173828125,0.019386837515234946,0.015692074650526047,0.02795287794442847
1746739317202253600,8.415253662109375,0.03232581406533718,-0.004825812721252441,0.009207644534669816
1746739317212334600,8.42533447265625,0.02180617361664772,0.0025888474494218825,0.003066036507114768
1746739317222414800,8.435414794921876,0.028664368948340416,0.0021247370690107344,0.013921996238082646
1746739317232495600,8.44549560546875,0.05340075079798698,-0.003907528832554817,0.032652780997380615
1746739317242575600,8.45557568359375,0.03377425930798054,0.02590484110713005,0.02651067977948114
1746739317252656600,8.46565673828125,-0.004483867415785789,0.03259352509081363,0.019463537746947257
1746739317262736600,8.475736572265625,-0.035164252361655234,0.012343348744511604,0.027385087993834167
1746739317272816600,8.485816650390625,-0.04231295507252216,0.0003723404437303543,0.007121778171323239
1746739317282897700,8.495897705078125,-0.039590836632251734,0.012481880432367323,0.01678953276472166
1746739317292977700,8.505977783203125,-0.041539632612466806,-0.007996843972802162,0.0217884918294847
1746739317303058700,8.51605859375,-0.023807576566934583,0.017187866166234016,-0.009033785805106163
1746739317313138700,8.526138671875,-0.01407587162554264,0.017930208966135976,0.007521609410177916
1746739317323219500,8.536219482421876,0.03170329825282096,0.016758827099204062,0.03510059427460655
1746739317333299700,8.5462998046875,0.016236849051713943,-0.0029109190106391906,0.007249551003146916
1746739317343379700,8.556379638671874,-0.009314356312155722,0.011597498813271523,0.025287512926384804
1746739317353460500,8.56646044921875,-0.018593056789040566,0.02013210292458534,0.02418417306067422
1746739317363540700,8.576540771484375,-0.0231663560539484,0.008083353212475776,0.025373072317987678
1746739317373621800,8.586621826171875,-0.012813304343819618,0.014612462720274924,0.027236491569690404
1746739317383701500,8.596701416015625,-0.004364624950289726,0.024846856486797332,0.012195044581312686
1746739317393782500,8.606782470703125,0.0003612345278263092,0.028501871863007545,0.013099172080494463
1746739317403862800,8.61686279296875,0.004423077139258384,0.027992168775200842,0.03936203284505754
1746739317413942500,8.626942626953126,0.01255436114668846,0.025683307310938833,0.03983476492334157
1746739317424023600,8.6370234375,0.02729424963891506,0.009627660045027733,0.03336467386009172
1746739317434103800,8.647103759765624,0.014679682737588882,0.014366963526606559,0.030276882178895174
1746739317444184600,8.6571845703125,-0.014253566280007362,-0.006782792007923126,-0.0012844685862772166
1746739317454264600,8.6672646484375,-0.005536591339111328,0.027336335214972494,0.003889171191956848
1746739317464345600,8.677345703125,-0.00012801029384136198,0.01223638123869896,0.017431721392087637
1746739317474425600,8.687425537109375,-0.00044774376749992365,0.017200141125917435,0.00614310586489737
1746739317484506600,8.697506591796875,-0.02487082188427448,0.003728665134310722,0.024485932486224916
1746739317494586600,8.707586669921875,-0.010450666865706443,-0.0031482348978519436,0.012849416836816816
1746739317504666600,8.71766650390625,-0.013253449326753616,-0.014119126245379447,-0.009434621690958737
1746739317514747600,8.72774755859375,-0.0006534954726696014,-0.005414426264166832,0.0006102408528327941
1746739317524827600,8.73782763671875,0.007146364623308182,0.02136778219938278,0.021774572901986537
1746739317534908400,8.747908447265624,0.038134792605042454,0.027746669581532477,0.027714009420946237
1746739317544988700,8.75798876953125,0.05559855310320854,0.012336334481835364,0.003750767368264496
1746739317555068700,8.768068603515625,0.08852817828059197,0.024007483053207396,0.01587565105650574
1746739317565149400,8.7781494140625,0.070109309014678,0.02838964366018772,0.020225608160626143
1746739317575229700,8.788229736328125,0.032609307181835176,0.012806874603033066,-0.01775401214901358
1746739317585310700,8.798310791015625,-0.004863806644082069,0.01918108581006527,-0.009992401704192161
1746739317595390500,8.808390380859375,-0.03231879980266094,0.021297055050730703,0.02359064588062465
1746739317605471500,8.818471435546876,-0.08126490927934646,0.01309504389464855,0.006101476946566254
1746739317615551700,8.8285517578125,-0.0750549487233162,0.0033820436537265776,-0.01684192053908482
1746739317625632800,8.8386328125,-0.06983925990164279,0.004184007686376571,0.005888455250393599
1746739317635712500,8.84871240234375,-0.05909983922243118,0.024427169770002363,0.023797822357900438
1746739317645792800,8.858792724609375,-0.016337386816740036,0.04287643417418003,0.0030247363823466002
1746739317655873500,8.86887353515625,-0.010874445235729217,0.032412323305010794,0.006524689061008393
1746739317665953500,8.87895361328125,0.025566987454891204,0.014651625686883926,0.004240852440148592
1746739317676034800,8.889034912109375,0.03814648304283619,0.001305237379670143,0.008695694690849631
1746739317686114600,8.899114501953125,0.042704000216722486,0.0054506666213274,0.012250190568342804
1746739317696194600,8.909194580078125,0.025913024413585662,0.017663666984438896,0.013603559672366827
1746739317706275600,8.919275634765626,0.02104980229139328,0.01569967343509197,0.023978439621813594
1746739317716355600,8.92935546875,0.0003121346890926361,0.01764262419641018,0.015199651491083203
1746739317726436600,8.9394365234375,0.014754501539468765,0.007026537635922431,0.010941829649824649
1746739317736516600,8.9495166015625,0.021834230667352676,0.019950316616892814,0.014440047029126435
1746739317746598000,8.959597900390625,-0.007901566904783249,0.0030967969715595244,-0.005631576146185398
1746739317756677600,8.969677734375,-0.019590251132845876,-0.008237666991353034,-0.001072451537102461
1746739317766757600,8.979757568359375,-0.04179974485337734,0.02624327928125858,0.031635329316835846
1746739317776838700,8.989838623046875,-0.041730771270394325,0.0011468319475650788,0.016786135231237856
1746739317786918700,8.999918701171875,-0.02950900307893753,0.024748656809329986,-0.006165701289195567
1746739317796999700,9.009999755859376,-0.03908756328523159,0.023709376889467237,0.025730032529495656
1746739317807079700,9.02007958984375,0.06371522406339646,0.02299158400893211,0.02393397942557931
1746739317817160700,9.03016064453125,-0.003215454915165901,0.004051321217417717,0.017422204645071177
1746739317827240700,9.04024072265625,0.009262918385863303,0.026171383088827133,0.014930917552299796
1746739317837320400,9.050320556640624,-0.0034931028127670287,0.01037760162949562,0.02449849970685318
1746739317847401700,9.060401611328125,-0.018031915774941443,0.01105681606531143,0.004023209367785603
1746739317857481700,9.070481689453125,0.0017523966252803802,0.008804068702459335,0.01593958313819021
1746739317867562500,9.0805625,-0.012432780593633652,-0.005147299760580063,0.013937851394340395
1746739317877642800,9.090642822265625,-0.015964461851119993,-0.010466448956727981,-0.0029189196540042755
1746739317887723800,9.100723876953126,-0.0005628945797681808,0.03728957395255565,0.030380232955515382
1746739317897803500,9.110803466796876,0.04078501485288143,0.028924481189250943,0.03481585904909298
1746739317907883500,9.120883544921876,0.017931962531805037,0.01922843208312988,0.0026616934899240732
1746739317917964800,9.13096484375,0.01235270109474659,0.0210053786277771,0.04868208824563771
1746739317928044500,9.14104443359375,0.015330840122699736,0.016194763475656508,0.021180936124082655
1746739317938125600,9.15112548828125,0.01632102020382881,0.007522796720266341,-0.005134239349607378
1746739317948205800,9.161205810546875,-0.010371756410598754,0.0055383449047803875,-0.008505670277774333
1746739317958285600,9.17128564453125,-0.04957622407376766,0.013467968860268593,-0.007322835435066372
1746739317968366600,9.18136669921875,-0.06132452953457832,0.014084639453887939,0.002279763233941048
1746739317978446800,9.19144677734375,-0.0633949060678482,0.03128711866736412,0.009044033204484731
1746739317988527600,9.201527587890626,-0.052390112450718875,0.018956044882535935,-0.0005564465726725756
1746739317998607600,9.211607666015626,-0.03293897752761841,0.012572481325268744,0.005375756487902254
1746739318008688600,9.221688720703124,0.024701310536265373,0.020883213552832604,0.021974424589332194
1746739318018768600,9.2317685546875,0.06967851638197899,0.02019406224489212,0.014594506938476115
1746739318028848600,9.2418486328125,0.07134440376758575,0.003159340813755989,0.013671619939897208
1746739318038929700,9.2519296875,0.04762450548410416,-0.00312660758793354,0.00953400867851451
1746739318049009700,9.262009765625,0.0391220500767231,0.002896305963397026,0.007041406411491334
1746739318059090700,9.272090576171875,0.020896657556295394,-0.007544424030184745,0.006507847524061799
1746739318069170700,9.282170654296875,-0.018129530930519104,0.02584112822115421,0.007794544600043445
1746739318079250700,9.292250732421875,-0.042079730838537215,0.01657762531340122,-0.01140279822507873
1746739318089331700,9.302331787109376,-0.07980009742379188,0.014610709154605864,0.014539123489428311
1746739318099411700,9.31241162109375,-0.06459960568249225,0.029846856731176374,0.026176461122743785
1746739318109492500,9.322492431640624,-0.039031449183821676,0.025407412979006765,0.04038268112968653
1746739318119572700,9.33257275390625,-0.04668400976359844,0.019769699352979658,0.032569906753208484
1746739318129652500,9.342652587890624,-0.059245969694852824,0.009606032735109328,0.007493698489945381
1746739318139733500,9.3527333984375,-0.030685645642876624,0.00393266327381134,0.005614679810311645
1746739318149813800,9.362813720703125,0.010044424152374267,-0.007876432463526725,0.004586725002061576
1746739318159894800,9.372894775390625,0.06843231571316719,-0.005806055930256843,0.014789426722377538
1746739318169974500,9.382974609375,0.10403788210153579,-0.0003109656453132629,-0.00874232857786119
1746739318180055600,9.3930556640625,0.12884323753416538,-0.004265256229043007,-0.03484957865560427
1746739318190135800,9.4031357421875,0.10987959386706352,0.005987257716059685,-0.015820797330420463
1746739318200215600,9.413215576171876,0.05460369684696197,0.0033159926801919937,0.008671455298736691
1746739318210296600,9.423296630859374,-0.0012128829210996627,0.007140519404411316,-0.003226560831069946
1746739318220376600,9.43337646484375,-0.06832827081680297,0.04115969338417053,0.028224461427424102
1746739318230457600,9.44345751953125,-0.09519172782301902,0.030052023914456365,0.020723803473729638
1746739318240537600,9.45353759765625,-0.137870593598485,0.017730887001752852,0.01594977573864162
1746739318250617600,9.46361767578125,-0.0744575673520565,0.030805472630262374,0.02026595843732357
1746739318260698600,9.47369873046875,-0.061726096072793,0.022711598023772237,0.02048645105389878
1746739318270778600,9.483778564453125,-0.03350362567305565,0.03026186727285385,0.017118234996125102
1746739318280859600,9.493859619140625,-0.003479658809304237,0.014057166925072669,0.012093392571434379
1746739318290939600,9.503939697265626,0.012668927437067032,-0.00438099156320095,0.012235888048354536
1746739318301019600,9.51401953125,0.05143792629241943,0.0003805237501859665,0.00691230013910681
1746739318311100700,9.5241005859375,0.05543430245220661,0.010017536145448685,-0.018867343685775993
1746739318321180700,9.5341806640625,0.026883915272355077,0.004657470417022705,-0.005676693929545581
1746739318331261700,9.54426171875,0.015731822139024732,0.010635375782847404,0.022389818723499773
1746739318341341400,9.554341552734375,0.010505611923336981,0.02577975342273712,0.039019082892592996
1746739318351421700,9.564421630859375,-0.016316344028711318,0.024200959798693654,0.04841782955257222
1746739318361502700,9.574502685546875,-0.006720248165726661,0.017760113096237182,0.020610862884856758
1746739318371582500,9.58458251953125,-0.010260697251558303,0.0019990648627281186,0.005434537470433861
1746739318381663500,9.59466357421875,-0.004215571868419647,-0.0004214402824640274,-0.012745353674143553
1746739318391743700,9.60474365234375,-0.01099018056988716,-0.008159341058135032,-0.020229407552909105
1746739318401823500,9.614823486328126,-0.013890578186511992,0.009390928679704666,0.002204177247080952
1746739318411904500,9.624904541015624,-0.029675591817498206,0.009129647395014762,0.015878354470245538
1746739318421984800,9.63498486328125,-0.017711597779393195,0.005513794985413551,0.014602872908022254
1746739318432065800,9.645065673828125,-0.008352233281731606,0.014092238238453864,0.011706274683680384
1746739318442145500,9.6551455078125,0.018685411247611045,0.015468202766776084,0.003511131659802049
1746739318452225800,9.665225830078125,0.008163432711362838,0.011188918012380599,0.008111008404381573
1746739318462306600,9.675306640625,-0.0009995324313640593,0.015137363377213477,0.023082130102906374
1746739318472386600,9.685386474609375,0.009039046502113342,0.013541034096479415,0.029350999505631623
1746739318482467600,9.695467529296875,-0.0018634557843208311,0.016256722795963286,0.025996483179647475
1746739318492547600,9.705547607421876,-0.01617196712195873,0.014877835658192633,0.019893471863120793
1746739318502627600,9.715627685546876,-0.013054711884260177,0.020752280649542806,0.015739530521444976
1746739318512708600,9.72570849609375,-0.02992459814250469,0.018739771783351896,0.03923289004005492
1746739318522788600,9.73578857421875,-0.053419455498456954,0.02236556106507778,0.03434953844528645
1746739318532869600,9.74586962890625,-0.03290858238935471,0.0006885667860507964,-0.005012220405135303
1746739318542949600,9.75594970703125,0.00957154594361782,-0.008522329151630401,-0.010704458963684736
1746739318553029600,9.766029541015625,0.027339257824420926,0.004302081108093261,0.008133512497134506
1746739318563110700,9.776110595703125,0.040435470762848855,0.017504092508554458,-0.008775719390809535
1746739318573190700,9.786190673828125,0.04182955546975135,0.014199790266156196,0.0008063114142045378
1746739318583271400,9.796271484375,0.054471010378003115,0.011668810483813285,0.02604782977439463
1746739318593351700,9.8063515625,0.03275777574181556,0.021204116070270538,0.017895082853827623
1746739318603431700,9.816431640625,0.019664485412836073,0.005098784443736076,0.008017046510614455
1746739318613512400,9.826512451171874,0.004167056551575661,-0.010578092637658118,0.007571019776165485
1746739318623592700,9.8365927734375,-0.0486854127138853,-0.0021346739411354063,-0.0044140901152044535
1746739318633673700,9.846673828125,-0.08683832549750804,0.00812894591987133,0.006622249417658895
1746739318643753500,9.85675341796875,-0.08496493284106255,0.006594575959444046,0.013759133826568721
1746739318653833700,9.866833740234375,-0.05909983922243118,0.007990998753905297,0.021080818484164772
1746739318663914800,9.876914794921875,-0.035198739153146745,0.029758009403944012,0.013579831736907362
1746739318673994500,9.886994384765625,0.004379237997531891,0.040192309656739235,0.051308272030763324
1746739318684075500,9.897075439453126,0.03178571583926677,0.03353694342076778,0.0321599194465205
1746739318694155800,9.90715576171875,0.07747486934661865,0.03395838370323181,0.011609718974027782
1746739318704235500,9.917235595703126,0.06936755073666573,0.009939794734120369,-0.017100717605743557
1746739318714316500,9.927316650390624,0.05208966819941997,-0.017466683107614515,-0.02511864089919254
1746739318724396800,9.937396728515624,0.008356909456849098,-0.010060206243395806,-0.03998082233052701
1746739318734477600,9.9474775390625,-0.015707272219657897,-0.015901333487033844,-0.021813991596922277
1746739318744557600,9.9575576171875,-0.042079146316647525,0.015372341176867484,0.004580605788528919
1746739318754637800,9.967637939453125,-0.0795727184087038,0.047722705161571496,0.03287822378370911
1746739318764718600,9.977718505859375,-0.04512041370868682,0.031280688926577566,0.0512885444169864
1746739318774798600,9.987798583984375,-0.05043313316404819,0.023739187505841253,0.021608678283169865
1746739318784878600,9.997878662109375,-0.01212473755776882,0.021527941197156904,0.004968618725426495
1746739318794959600,10.007959716796876,0.028654432076215743,-0.011862287229299544,0.0070933192618191235
1746739318805039600,10.01803955078125,0.06713000094294548,-0.00994797804057598,-0.004501439605094492
1746739318815120600,10.02812060546875,0.08648118262290955,-0.007840776628255844,0.008096687618084252
1746739318825200400,10.038200439453124,0.08586977272629738,0.006673486414551734,0.012417217698320746
1746739318835280100,10.048280029296874,0.09565291559398174,0.018505378505587578,0.0213989445226267
1746739318845361200,10.058361083984375,0.07050912198722362,0.01127776533961296,0.014347016717121004
1746739318855441400,10.06844140625,0.018599486529827118,-0.00528290883898735,-0.004618672776594758
1746739318865522400,10.0785224609375,-0.043354573079943656,0.003879471781849861,0.015457937101088464
1746739318875602200,10.088602294921875,-0.07645487864911556,0.027175007173418995,0.013584763640351593
1746739318885682400,10.098682373046875,-0.09280980112254619,0.019876082336902617,0.017637509629875422
1746739318895763200,10.10876318359375,-0.09620879591107367,0.019739304214715956,0.028582937742583452
1746739318905843200,10.11884326171875,-0.0722094961643219,0.00981470704972744,0.011356018207594751
1746739318915924200,10.12892431640625,-0.015397475618124008,0.017680618119239808,0.0159881349876523
1746739318926004200,10.139004150390624,0.012826163825392723,0.03861585412025451,0.02974683042280376
1746739318936084200,10.149084228515624,0.022583587729930875,0.021965748092532156,0.01123118625152856
1746739318946165200,10.159165283203125,0.038646249258518214,0.010253098466992377,-0.004546082464419305
1746739318956245200,10.169245361328125,0.041512744605541226,-0.0012695815443992614,0.017691139513254163
1746739318966325200,10.1793251953125,0.04450491215884685,0.006859364375472068,-0.0019954116009175777
1746739318976406300,10.18940625,0.017531565037369728,-0.0045972646623849865,-0.0006019479485228657
1746739318986486300,10.199486328125,-0.017511106771230696,0.01576689345240593,0.024896358184330163
1746739318996567300,10.2095673828125,-0.02914776855111122,0.026641338688135147,0.039488253040611744
1746739319006647300,10.219647216796876,-0.03874503345787525,0.03965221143066883,0.052600065406970674
1746739319016727300,10.229727294921876,-0.03496259230971336,0.02547872464954853,0.031837482559122145
1746739319026808300,10.239808349609374,-0.03594517360627651,0.01070785649716854,-0.004348404467850923
1746739319036888300,10.249888427734374,-0.005064297652244568,0.0020879121899604796,-0.018866357305087147
1746739319046969000,10.259968994140625,0.005393967998027801,-0.016506898164749144,-0.03349668447561562
1746739319057049300,10.27004931640625,0.011655366480350494,0.006649521017074584,-0.022179536973685025
1746739319067129300,10.28012939453125,-0.008407762861251831,-0.002203647524118423,0.011627857418917118
1746739319077210000,10.290210205078125,0.010685060143470763,0.012213584885001181,0.006548581393249333
1746739319087290400,10.300290283203125,0.0541407555103302,0.006357260072231292,0.02294200924616307
1746739319097370400,10.310370361328125,0.06524900950193405,0.02096212400794029,0.024289953256398437
1746739319107451100,10.320451171875,0.04643500343859196,0.03424070777595043,0.01919325117189437
1746739319117531400,10.330531494140626,0.021997896796464918,0.019934534525871277,0.013210925359278916
1746739319127612400,10.3406123046875,-0.01352116035223007,0.019542904859781263,0.024392427250184118
1746739319137692200,10.350692138671874,-0.03470598720014095,0.007903320470452307,0.012462445079535246
1746739319147772400,10.3607724609375,-0.06664835490584373,0.012043489015102386,-0.005106529358774424
1746739319157853400,10.370853515625,-0.09704232412576674,0.013203764966130255,0.012167955644987523
1746739319167933200,10.38093310546875,-0.0951361982434988,0.006830722802877426,0.00910769129153341
1746739319178013400,10.391013427734375,-0.05045592951774597,0.011997896307706831,0.02189597079195082
1746739319188094500,10.401094482421875,-0.004462240105867385,-0.001485270121693611,0.021170761789940297
1746739319198174200,10.41117431640625,0.03972586118876934,-0.00818856715261936,-0.017404906450398265
1746739319208255200,10.421255126953126,0.06409048711657524,0.010101707297563552,0.004525003143772482
1746739319218335500,10.43133544921875,0.08726151934564114,0.026397008538246152,0.04810622458644211
1746739319228415200,10.441415283203124,0.07680676082670689,0.026229250755906104,0.04397138980403542
1746739319238496300,10.451496337890624,0.038463293907046316,0.024784897166490554,0.03594630611743778
1746739319248576300,10.461576171875,-0.014921674799919127,0.008429390171170234,-0.001414323777332902
1746739319258657300,10.4716572265625,-0.04319499860405922,0.020621932268142698,-0.008001410550065337
1746739319268737300,10.4817373046875,-0.06962064871490001,0.011167875224351882,-0.014702844417467713
1746739319278817300,10.4918173828125,-0.07573124054968357,0.013798223727941513,0.0034897783445194362
1746739319288898300,10.501898193359375,-0.07025660853087902,0.024998247656226158,0.0037422918008640405
1746739319298978300,10.511978271484375,-0.03508125025331974,0.010671616140007972,0.012153379130363464
1746739319309058300,10.522058349609376,-0.03106090869605541,0.012473112604022025,0.04614617655985057
1746739319319139300,10.532139404296874,-0.012889292189478874,0.01689268261194229,0.03892586991749704
1746739319329219300,10.54221923828125,0.010935820034146308,0.017794015365839005,0.024144407305866478
1746739319339299300,10.55229931640625,0.029184593430161474,0.013850246176123618,0.013857735362835228
1746739319349380400,10.56238037109375,0.0605892009973526,0.012048749712109565,-0.00471340185534209
1746739319359460400,10.57246044921875,0.08137479939460754,0.007024199548363685,0.0056532765213400124
1746739319369541000,10.582541015625,0.07332593297362328,0.018618775752186775,0.011227496457099913
1746739319379621400,10.592621337890625,0.07507482246756553,0.01310731885433197,0.03511142619587481
1746739319389701400,10.602701416015625,0.010176526099443434,0.020389877077937126,0.030553835956752297
1746739319399782100,10.6127822265625,-0.04354629625976086,0.020173603978753087,-0.0094978231202811
1746739319409862400,10.6228623046875,-0.07627835303843021,-0.01612052919566631,-0.019662439586222172
1746739319419942400,10.6329423828125,-0.08482523210942745,0.017435703447461127,0.0008230068206787109
1746739319430023200,10.643023193359374,-0.050693245404958724,0.019528291812539098,0.03549381310958415
1746739319440103200,10.653103271484374,-0.04370937786698341,0.028707623568177222,0.03913253493811935
1746739319450184400,10.663184326171875,0.0009317278921604156,0.03901332900524139,0.03902859963960945
1746739319460264200,10.67326416015625,0.023674305576086043,0.008569090902805328,-0.016766462416388093
1746739319470344200,10.68334423828125,0.0348562093257904,0.0006447276443243027,-0.022162914632447062
1746739319480425500,10.693425537109375,0.042327568119764326,0.0012485387563705443,0.017388832098431884
1746739319490505200,10.703505126953125,0.027612814068794247,-0.0006342062503099441,0.0032867665857076642
1746739319500585200,10.713585205078125,0.02125146234333515,-0.0006961655706167221,0.004034150886908173
1746739319510666500,10.72366650390625,0.0038519992530345916,-0.006027005204558372,0.006845189719647169
1746739319520746200,10.733746337890626,-0.01402618726491928,0.020384616380929945,0.007152977027185261
1746739319530827300,10.7438271484375,-0.010769815817475319,0.0063613517254590985,-0.0038495150350034233
1746739319540907300,10.7539072265625,0.008978256225585938,0.005455342796444893,0.006039024435915053
1746739319550987300,10.7639873046875,-0.005906009173393249,0.0076005381315946575,0.003707330085337162
1746739319561068300,10.774068359375,0.01985679311454296,-0.0022989245921373365,0.009793773859553039
1746739319571148000,10.78414794921875,0.03237316033840179,0.004527706557512283,0.007666808300837874
1746739319581228300,10.794228271484375,0.04714695110023021,0.004931026661396026,0.004801335867121816
1746739319591309300,10.804309326171875,0.04222586131095886,0.012788169902563094,0.02632920399904251
1746739319601389000,10.81438916015625,0.0302682970136404,0.02427694764435291,0.012117431034147738
1746739319611469300,10.82446923828125,-0.009541150805354118,0.01751402938067913,0.010051584545522928
1746739319621550300,10.83455029296875,-0.03402151206731796,0.01373860249519348,0.012946538802050054
1746739319631630000,10.844630126953126,-0.05500467886328697,0.01945171944499016,0.02576652861498296
1746739319641711400,10.85471142578125,-0.07431494401097297,0.012654314389824867,0.03626348230782896
1746739319651791400,10.864791259765624,-0.06697744072973728,0.015637714114785192,0.027749446060508488
1746739319661871000,10.87487109375,-0.0533867222726345,0.018500117808580397,0.024375476115383207
1746739319671952100,10.8849521484375,-0.042382513177394866,0.020202830073237418,0.027469204347021877
1746739319682032400,10.895032470703125,-0.0002858312040567398,0.016570611050724982,0.013573292398266493
1746739319692112100,10.905112060546875,0.03698737613558769,0.013325930041074753,-0.0020817747101187704
1746739319702193200,10.915193115234375,0.09611702597439288,-0.009267594560980797,-0.022439795345067976
1746739319712273400,10.9252734375,0.1076671785145998,0.010890227326750756,-0.013869754594191907
1746739319722353200,10.935353271484376,0.12219547008275986,0.00647241088449955,0.014762319519743322
1746739319732434200,10.94543408203125,0.0736643711477518,0.013348726394772529,0.004752126430533826
1746739319742514400,10.955514404296874,0.037919104027748105,0.011450199297070503,0.011175839335098862
1746739319752595200,10.96559521484375,-0.03547463348507881,-0.002407645663619041,0.020540574127621947
1746739319762675200,10.97567529296875,-0.11040858617722987,-0.0006494038194417953,0.015444127771444618
1746739319772755500,10.98575537109375,-0.11876198850274085,0.020620763224363327,0.015445917869731783
1746739319782836200,10.995836181640625,-0.11505845780968665,0.006270750832557678,0.020177038044854996
1746739319792916200,11.005916259765625,-0.0884042596399784,0.039842765566706656,0.024931539095565676
1746739319802996200,11.015996337890625,-0.049095747080445284,0.03456920907795429,0.019011939788237214
1746739319813077200,11.0260771484375,-0.0029535891085863113,0.025669278785586357,0.0296343830242753
1746739319823157500,11.036157470703126,0.07693886277377605,0.009298574221134186,0.01813464549705386
1746739319833237500,11.046237548828126,0.10640402671098709,-0.0012678279787302017,-0.030250249900296327
1746739319843318500,11.056318603515624,0.12230711376368998,0.002274959194660187,-0.020866225885413585
1746739319853398500,11.0663984375,0.08933014231324195,0.005222118562459945,-0.01045362600777298
1746739319863479300,11.076479248046875,0.04404138630032539,-0.0026934768676757813,-0.0039621816292405125
1746739319873559600,11.0865595703125,0.006421557480096817,0.017598785054683683,0.022145050182193517
1746739319883639600,11.0966396484375,-0.07983107708394527,0.017162731724977492,0.03134929718337953
1746739319893720300,11.10672021484375,-0.0786269619911909,0.016838906598091126,0.01734890194684267
1746739319903800600,11.116800537109375,-0.09771920047402381,0.026114099943637847,0.02320124470423907
1746739319913880600,11.126880615234375,-0.0656172582924366,0.022443886998295783,0.022841325350664556
1746739319923961300,11.13696142578125,-0.07956453510224819,0.026348493221402168,0.018549911767058072
1746739319934041600,11.14704150390625,-0.028033085307478903,0.013440496331453323,0.0074079381689429276
1746739319944121600,11.15712158203125,0.014796587115526198,0.0028127193331718443,-0.004314721393957734
1746739319954202400,11.167202392578124,0.03456628646850586,-0.009682605102658271,0.005785195805318653
1746739319964282600,11.17728271484375,0.07864742025732993,0.0026624972075223923,0.009691920920275151
1746739319974362400,11.1873623046875,0.10118483075797557,0.0002782324194908142,-0.0028035131134092808
1746739319984443400,11.197443359375,0.09220891261994839,-0.010624854388833045,-0.01789451659824699
1746739319994523600,11.207523681640625,0.04305763595998287,0.013115502160787582,0.0011222454955801366
1746739320004604700,11.217604736328125,0.0006143325060606002,0.010823007309436798,0.028630064819939433
1746739320014684400,11.227684326171875,-0.04906184481084346,0.023471476480364798,0.02375416587926447
1746739320024764400,11.237764404296875,-0.0891933641910553,0.012118892338871956,0.017965901334024963
1746739320034845700,11.247845703125,-0.09087444914579391,0.03047054158747196,0.030855558849684894
1746739320044925400,11.257925537109376,-0.09554244095683097,0.023320669832825658,0.0379184099080041
1746739320055005400,11.26800537109375,-0.06994622740745544,0.013099720069766044,0.0335215266559273
1746739320065086500,11.27808642578125,-0.013489596170186996,0.02816168012320995,0.0075079644773155445
1746739320075166500,11.28816650390625,0.021338556104898453,0.029910569617152213,-0.004419716138392687
1746739320085246500,11.29824658203125,0.06999766533374786,-0.006366027900576591,-0.002897219278849661
1746739320095327500,11.308327392578125,0.09137830701470374,-0.006610358050465583,-0.013146664484031498
1746739320105407500,11.318407470703125,0.10336685097217559,-0.009804770177602767,-0.03417790820542723
1746739320115487500,11.328487548828125,0.09791033913195132,0.007353285372257232,0.002698445303738117
1746739320125568500,11.338568603515625,0.057120648103952405,0.010042086064815521,0.024677308606170116
1746739320135648500,11.3486484375,0.033435236611962314,0.028135376638174055,0.030599465196765957
1746739320145728500,11.358728515625,-0.00985737714767456,0.014309095859527587,0.025405695945955813
1746739320155809300,11.368809326171874,-0.08892039246857165,0.027171500042080878,0.04092939175963402
1746739320165889500,11.3788896484375,-0.11745499755740164,0.024081717333197594,0.05214907023645937
1746739320175970600,11.388970458984375,-0.15622867258787154,0.012097849550843238,0.02598915838971734
1746739320186050300,11.39905029296875,-0.13220774553120135,0.02253682597875595,0.013803886283747851
1746739320196130600,11.409130615234375,-0.06056465107798576,0.018738602739572525,0.006182634157687425
1746739320206211600,11.419211669921875,0.002131166809797287,0.015100538498163223,-0.006533091563172638
1746739320216291300,11.429291259765625,0.06890460940003394,0.008078092515468597,-0.016463607012294233
1746739320226371600,11.43937158203125,0.12731646635830401,0.012239888370037078,-0.0030846316097304224
1746739320236452600,11.44945263671875,0.13073182775974274,0.01194178220629692,0.006475150830857456
1746739320246532400,11.459532470703126,0.09396189376711844,0.01986205381155014,-0.007355185068398714
1746739320256612600,11.469612548828126,0.0592950695335865,0.002241056925058365,0.01139503504373133
1746739320266693600,11.479693603515624,0.032332243806123734,-0.0066582888454198835,-0.002678900353051722
1746739320276773400,11.4897734375,-0.005167173504829406,-0.005355389553308487,-0.014301168281398713
1746739320286853600,11.499853515625,-0.018967735320329665,-0.0007096095740795135,-0.010530417571030556
1746739320296934400,11.509934326171875,-0.02427402503490448,-0.002791676545143127,-0.007173508358560502
1746739320307014400,11.520014404296875,-0.023745617246627805,0.010518471404910088,0.0066806468077003954
1746739320317094700,11.5300947265625,-0.022041735938191413,0.027749007669091223,0.018686909084953365
1746739320327175400,11.540175537109375,-0.03631049978733063,0.03936871831417083,0.052164340870827434
1746739320337255400,11.55025537109375,-0.06267360605597495,0.024555764585733414,0.060571884536370635
1746739320347336400,11.56033642578125,-0.06985621103644371,0.032115386185050006,0.04172072480041533
1746739320357416400,11.57041650390625,-0.06792787332236766,0.0028261633366346356,-0.0019084274372085928
1746739320367496400,11.580496337890626,-0.09469488421678543,0.0017255086183547972,0.016455642901547253
1746739320377577500,11.590577392578124,-0.08310673775374888,0.017732056045532227,0.03997687680777162
1746739320387657500,11.600657470703124,-0.05437222617864609,0.0186830731600523,0.03629468116369098
1746739320397737500,11.610737548828125,-0.01054185228049755,0.04256313044130802,0.0406382998585701
1746739320407818500,11.620818603515625,0.04514613267183304,0.017408815440535543,0.0006534224074333906
1746739320417898500,11.6308984375,0.0730851099550724,0.005158405676484108,-0.008984722498990594
1746739320427978500,11.640978515625,0.1099672721505165,-0.00429039067029953,-0.01894440924366936
1746739320438059500,11.6510595703125,0.11348843201398849,-0.021919570863246918,-0.024162271756120023
1746739320448139500,11.661139404296875,0.07454875276684761,-0.001076104798913002,-0.010856325057148933
1746739320458219500,11.671219482421876,0.05412789602875709,0.009238952988386154,-0.010838679802604018
1746739320468300500,11.681300537109376,0.013904022189974784,0.008519991064071655,-0.004804514204896986
1746739320478380500,11.691380615234374,-0.005552373430132865,0.005886719951033592,0.02006864576693624
1746739320488460500,11.70146044921875,-0.02406885785162449,0.013799977293610571,0.02848097520545125
1746739320498541600,11.71154150390625,-0.0378758494079113,0.04005962318778038,0.032586291632428765
1746739320508621600,11.72162158203125,-0.045910687303543085,0.04327157097160816,0.03686627050656825
1746739320518701600,11.73170166015625,-0.06300152283608913,0.029301497808098792,0.03548647005334496
1746739320528782300,11.7417822265625,-0.06121814655065536,0.026064415583014488,0.014587291746400296
1746739320538862600,11.751862548828125,-0.039274610289931296,-0.0015676877081394194,0.02637673293519765
1746739320548942600,11.761942626953125,-0.006053893211483955,-0.0020890812337398526,-0.004352386523224413
1746739320559023400,11.7720234375,-0.06398001247942448,0.0027028292179107666,0.024737587426044046
1746739320569103400,11.782103271484376,0.045944005051255225,-0.008308394140005112,0.005264715595170855
1746739320579183600,11.79218359375,-0.022405308553576468,-0.01362929690182209,-0.005240384871512651
1746739320589264400,11.802264404296874,-0.005759878700971603,0.002747252881526947,0.004431808434985578
1746739320599344400,11.812344482421874,0.011938859596848487,0.09429214863479136,0.05394910539574921
1746739320609424600,11.822424560546875,0.004447627058625221,0.020094693523645398,0.02211038072761148
1746739320619505400,11.83250537109375,-0.01742985822856426,0.024766776987910268,0.019452121303789316
1746739320629585400,11.84258544921875,-0.004717091649770736,0.011901450195908546,-0.004607238067127764
1746739320639665400,11.85266552734375,0.0028489596903324126,-0.014973697248101233,-0.007393507784791291
1746739320649746400,11.862746337890625,0.002707505393028259,0.014746318233013152,-0.022557393842749296
1746739320659826400,11.872826416015625,0.007407061386108398,0.005680383723974228,-0.007344663674384355
1746739320669906400,11.882906494140625,0.030794951236248015,-0.010388123023509978,-0.009900339506566524
1746739320679987500,11.892987548828126,0.027424013498425482,0.013706453791260719,0.021469890866987407
1746739320690067500,11.9030673828125,0.05380582446753979,0.011817279043793677,0.030499950345046815
1746739320700147500,11.9131474609375,0.02953472204208374,0.030946926927566527,0.03304769859910011
1746739320710228500,11.923228515625,-0.009418401208519936,0.036000703185796734,0.03394636447187513
1746739320720308500,11.93330859375,-0.05019523275494575,0.023942601123452187,0.03470996925551444
1746739320730388500,11.943388427734375,-0.05721124899685383,0.026696868267655372,0.029543599468283353
1746739320740469500,11.953469482421875,-0.07223404608368873,0.027252164062857628,0.03401614177245647
1746739320750549500,11.963549560546875,-0.05652794290781021,0.03295008344352245,0.006455752010643482
1746739320760629500,11.97362939453125,-0.03127250562012195,-0.007408230429887771,-0.0013479440102353692
1746739320770710500,11.98371044921875,-0.0008276829957962036,-0.003987608331441879,0.008072356894426048
1746739320780790500,11.99379052734375,0.05348492195010185,0.0018178630769252776,-0.0019820041300728916
1746739320790870500,12.00387060546875,0.0765624306768179,0.01291910280585289,0.000401785733923316
1746739320800951600,12.01395166015625,0.10279401952028273,0.028583704927563666,0.017792480995878577
1746739320811031600,12.024031494140624,0.09527882158458233,0.01353518887758255,0.023864092527143655
1746739320821111300,12.034111328125,0.041027591437101364,0.01917348702549934,0.02010758953783661
1746739320831192300,12.0441923828125,-0.0032119477838277815,0.017766542837023735,0.00957958311960101
1746739320841272300,12.054272216796875,-0.07262158409655094,0.01852700581550598,0.02864887911826372
1746739320851352300,12.064352294921875,-0.11999591421186924,0.004805354455113411,0.010201916269026697
1746739320861433300,12.074433349609375,-0.1068564466536045,0.0148836808770895,0.03832034177239984
1746739320871513300,12.084513427734375,-0.08907003007233143,0.0009404957205057144,0.017106654156185685
1746739320881593300,12.09459326171875,-0.04768588028252124,0.005315642064809799,0.011258695312961935
1746739320891674400,12.10467431640625,0.021378888115286827,0.005863923597335815,0.02093355550058186
1746739320901754400,12.11475439453125,0.06466098048090935,0.012024784314632416,0.008323920502699911
1746739320911834000,12.124834228515626,0.09091536567807197,0.027094927674531935,0.005771642204001545
1746739320921915400,12.134915283203124,0.09867781637310981,0.01693359914422035,0.008445172262191773
1746739320931995400,12.144995361328125,0.11431962214112282,-0.0070113400667905805,0.0014844298714771866
1746739320942075100,12.1550751953125,0.095484573289752,-0.00048632221221923825,0.021183584738895297
1746739320952156400,12.165156494140625,0.04362579123675823,-0.004058920001983642,0.03611713263969868
1746739320962236200,12.175236083984375,-0.025657003825902937,0.0031377135038375852,0.021954605644010007
1746739320972316200,12.185316162109375,-0.0861345611423254,0.008437573477625847,0.028391287628002464
