time,seconds_elapsed,z,y,x
1746576276045559300,0.018559326171875,-0.0991442648410797,-0.07283400300452485,-0.0007253277330193668
1746576276055576300,0.028576416015625,-0.10093699347674846,-0.07776765088126994,-0.004171901690051891
1746576276065592600,0.038592529296875,-0.0946481224656105,-0.07530171742546371,0.006351163691584952
1746576276075608600,0.048608642578125,-0.0886573576182127,-0.07521687955306842,-0.002588856582576409
1746576276085624600,0.05862451171875,-0.1021112979531288,-0.07609674026067369,-0.0035813610515324397
1746576276095640300,0.068640380859375,-0.10524199719429016,-0.07116251699519344,-0.002023555416590534
1746576276105657300,0.0786572265625,-0.10088146389722824,-0.07459155986211262,0.0017722840692615135
1746576276115673300,0.08867333984375,-0.10280629447996616,-0.07108393533364869,0.00773960410899017
1746576276125689600,0.098689697265625,-0.0969528922766447,-0.07289651944725774,-0.002357216950901784
1746576276135705300,0.108705322265625,-0.08825520655810833,-0.06563951579001731,-0.005948387010395527
1746576276145722400,0.118722412109375,-0.0877946033090353,-0.05189083942538127,0.002657802766095847
1746576276155738400,0.12873828125,-0.09780512519180774,-0.05851191066610627,0.00803987026377581
1746576276165754400,0.13875439453125,-0.09734159933328627,-0.05324266502629034,-0.005038263595267199
1746576276175770600,0.1487705078125,-0.09224223036766052,-0.05337204529331065,0.0037872680203290656
1746576276185786400,0.158786376953125,-0.09507306987941265,-0.05504438068601303,0.0011288304999936371
1746576276195803400,0.168803466796875,-0.1019464627802372,-0.05044524372695013,0.009630870348843745
1746576276205819400,0.1788193359375,-0.09370295056998729,-0.04985929706515744,0.003168368937005289
1746576276215835400,0.18883544921875,-0.09608604631423949,-0.057091581839672285,-0.002617078030062839
1746576276225851600,0.1988515625,-0.09218786983191966,-0.04841748249270022,0.0023089116966119034
1746576276235868400,0.208868408203125,-0.09008709816038608,-0.04962604086513165,-0.0003146143405465409
1746576276245884400,0.218884521484375,-0.10159984129965305,-0.05559613738383632,0.0034276728937402364
1746576276255900400,0.228900390625,-0.09171674518883227,-0.04934352042959071,-0.004016957723512314
1746576276265916400,0.23891650390625,-0.10308218881189822,-0.04051689740202855,0.006735879559698514
1746576276275933400,0.248933349609375,-0.10726678102016449,-0.03725988206719048,0.009830973197938873
1746576276285949400,0.258949462890625,-0.10696049154996871,-0.04258323251442052,0.010340110030164941
1746576276295965400,0.26896533203125,-0.09573007248342037,-0.04589501937695313,-0.015848119162186047
1746576276305981400,0.2789814453125,-0.09976561160981655,-0.03941702813503798,0.004746422775532119
1746576276315997400,0.28899755859375,-0.09856266556084156,-0.037835791392158716,-0.001178884753375314
1746576276326014500,0.299014404296875,-0.09915537075698375,-0.0368777600149624,0.005246851144917309
1746576276336030500,0.309030517578125,-0.09765314950048923,-0.041493953140103255,0.004371146022621542
1746576276346046500,0.31904638671875,-0.104983053997159,-0.03629779556938447,0.0032554763983003794
1746576276356062500,0.3290625,-0.10677695167660713,-0.03836706699095666,0.006517994458740577
1746576276366078500,0.339078369140625,-0.0855249048113823,-0.03773605734473094,0.0015104091295273974
1746576276376095500,0.349095458984375,-0.0952455038368702,-0.03498181759999133,-0.004114207552908919
1746576276386111500,0.359111572265625,-0.10227496408224106,-0.03165644060352351,-0.00913707721622195
1746576276396127500,0.36912744140625,-0.0977811597943306,-0.036135892139095814,0.0003348351446678862
1746576276406143500,0.3791435546875,-0.09134498926699161,-0.03566136539594736,0.008011027761781588
1746576276416160300,0.38916015625,-0.09074351624250411,-0.029510911908233538,-0.005526398738659918
1746576276426176300,0.39917626953125,-0.09986907198429107,-0.03592244118466042,-0.004654264679783955
1746576276436192500,0.409192626953125,-0.10076397499740124,-0.028567575776670125,0.010625662673008627
1746576276446208500,0.41920849609375,-0.08864099100530147,-0.03020943383271806,0.013713102727755904
1746576276456224500,0.429224609375,-0.09462415706813335,-0.0319825079198461,0.002525509022781625
1746576276466241300,0.4392412109375,-0.10240297437608241,-0.02899664680974092,-0.0013824856006540358
1746576276476257300,0.44925732421875,-0.10135141949653625,-0.030577568458789027,0.004918509673117659
1746576276486273500,0.4592734375,-0.10254618223905562,-0.035668923081317916,0.008348762683011591
1746576276496289500,0.46928955078125,-0.08967442570626735,-0.02982098707098048,0.005886450522975065
1746576276506306000,0.47930615234375,-0.10179214900135994,-0.022067970924568362,0.0015984299062751233
1746576276516321800,0.48932177734375,-0.10747603985667228,-0.02436010044973809,-0.0009880018237745389
1746576276526337800,0.499337890625,-0.1088210247248411,-0.03373685447361786,-0.0022054147895192726
1746576276536353800,0.509353759765625,-0.10283318248689174,-0.024701675862446426,-0.0044984347972553225
1746576276546370000,0.5193701171875,-0.09953881711661815,-0.023083340245881115,0.005548163045896217
1746576276556387000,0.529386962890625,-0.09729249949455261,-0.02337652363933157,0.015549857734818942
1746576276566402800,0.53940283203125,-0.08861176491081714,-0.0250032526249066,0.006239885336835868
1746576276576418800,0.549418701171875,-0.09444646241366862,-0.022272535319649612,-0.011167477932129986
1746576276586434800,0.559434814453125,-0.09968202497959136,-0.03185084893077146,0.0014536100415280088
1746576276596452000,0.5694521484375,-0.09653671269118785,-0.02721141192736104,0.007341526435804553
1746576276606467800,0.5794677734375,-0.10326748225092887,-0.024478178438032044,0.004398458721232601
1746576276616483800,0.58948388671875,-0.09877660057246684,-0.025394873157842085,-0.0006925945071969181
1746576276626499800,0.599499755859375,-0.09129530490636825,-0.02806961335900705,-0.003544979130476713
1746576276636515800,0.609515869140625,-0.09518588260412215,-0.024850623913039452,-0.0032695871220435944
1746576276646533000,0.619533203125,-0.1007213048994541,-0.02071441459087655,0.00493846561575774
1746576276656548900,0.629548828125,-0.09832476515173912,-0.02415000136301387,0.0035723785940557718
1746576276666564900,0.63956494140625,-0.09144026633501053,-0.02521013227466028,-0.0010282607689267023
1746576276676580900,0.649580810546875,-0.09398352107703685,-0.01824531193044968,-0.0016949125506915152
1746576276686598000,0.659597900390625,-0.1055056165665388,-0.019177414281945675,0.0006875849719392136
1746576276696614100,0.6696142578125,-0.09248597599565982,-0.029386783205065874,-0.00424651499595493
1746576276706630000,0.6796298828125,-0.10206102907061576,-0.023681968292733654,0.0025535706400638446
1746576276716646000,0.68964599609375,-0.08739479033648967,-0.020620749524631537,0.006092078930558636
1746576276726662000,0.699661865234375,-0.09083645522296428,-0.024426521316030993,0.0034087581307161597
1746576276736679000,0.709678955078125,-0.09816811328530312,-0.020429209007904865,-0.009361940047238022
1746576276746695000,0.71969482421875,-0.09143325207233428,-0.02682188288681209,-0.009747299802745692
1746576276756711000,0.7297109375,-0.0978676690340042,-0.0266144461146323,0.010956502062571235
1746576276766727000,0.739726806640625,-0.10430150147378445,-0.01764126335638575,0.013930901063745841
1746576276776743000,0.749742919921875,-0.1098363392472267,-0.02631553166671656,0.0012604666561819612
1746576276786760000,0.759760009765625,-0.10804068800210952,-0.026684095551050266,0.0015837620601058006
1746576276796776000,0.76977587890625,-0.09621931730508804,-0.024226596563449127,-0.0005210281994193792
1746576276806792000,0.7797919921875,-0.09666647655069828,-0.02019141819665674,0.0012744540823390706
1746576276816808000,0.789807861328125,-0.0980114614188671,-0.013143582044378854,0.009801541607477702
1746576276826825000,0.799824951171875,-0.08753566011190414,-0.022426049947505817,0.006550271026836708
1746576276836841000,0.809841064453125,-0.09561667523682117,-0.012581893041008152,0.002941464845952578
1746576276846857000,0.81985693359375,-0.09950725293457507,-0.014881045962008647,-0.0027679257767973466
1746576276856873000,0.829873046875,-0.09711188223063945,-0.023134819271368904,-0.00011697744317352772
1746576276866889000,0.839888916015625,-0.10025251834392547,-0.01989026155930478,0.014364620872470549
1746576276876906000,0.849906005859375,-0.09725918174684046,-0.020789420622424223,0.00882533981935121
1746576276886922000,0.859921875,-0.09426584514975547,-0.014375014402321539,-0.004395440213661641
1746576276896937700,0.869937744140625,-0.08992577011883258,-0.01785035322953481,-0.01059832257493399
1746576276906953700,0.87995361328125,-0.09052432053387165,-0.019074474497279153,0.006839810291631147
1746576276916971000,0.889970947265625,-0.09396540089845656,-0.017038858750136568,0.011465853523928671
1746576276926987000,0.899987060546875,-0.0905219824463129,-0.021710535789025015,0.00633792061752174
1746576276937003000,0.9100029296875,-0.09515957911908626,-0.015884222522028722,0.009044014938175677
1746576276947018800,0.920018798828125,-0.0900730696350336,-0.013069089752773287,-0.000912119009392336
1746576276957034800,0.93003466796875,-0.10219313101768493,-0.013850883213651832,0.0016589964205166324
1746576276967052000,0.940052001953125,-0.10294131903648376,-0.010109561810456216,0.009184697483922354
1746576276977068000,0.950068115234375,-0.08797638961672782,-0.024541619612660725,0.004364743681298569
1746576276987084000,0.960083984375,-0.08707856399416923,-0.017766599919239522,-0.00019816662033554164
1746576276997099800,0.970099853515625,-0.10473521671593189,-0.012707505881786346,0.004718201328045689
1746576277007115800,0.98011572265625,-0.09680442371666431,-0.014539331268693785,-0.0054563976757926866
1746576277017133000,0.990133056640625,-0.09246610225141048,-0.014053965754411183,-0.0005255080117145553
1746576277027149000,1.000149169921875,-0.09710311440229415,-0.014969498280307744,0.0027238994054030624
1746576277037164800,1.010164794921875,-0.09740297413170337,-0.013804514188121538,0.009196383355138824
1746576277047180800,1.020180908203125,-0.09770341838300227,-0.01256570452461019,0.00861376116159372
1746576277057197800,1.03019775390625,-0.09336392787396908,-0.012007762397883925,-0.012254286788147873
1746576277067214000,1.040214111328125,-0.10174363368451594,-0.021324484197061972,-0.009466263504815288
1746576277077230000,1.05022998046875,-0.09156886115074157,-0.014302926413645035,0.0006101586544420569
1746576277087245800,1.060245849609375,-0.08513327514529227,-0.020511217885685617,0.0015816112022148444
1746576277097261800,1.07026171875,-0.09485855034589767,-0.021359450479166115,0.008761590400757267
1746576277107278800,1.08027880859375,-0.10503332287967204,-0.015781817026901988,0.002666556894709356
1746576277117295000,1.090295166015625,-0.09081775052249431,-0.006593701459898148,0.006888741167006082
1746576277127311000,1.10031103515625,-0.10099310757815837,-0.0050688048640033226,0.0005411759383045137
1746576277137326800,1.110326904296875,-0.09365969595015049,-0.00983377022651257,-0.005049533907952718
1746576277147342800,1.1203427734375,-0.10323533354699611,-0.01750308786155656,-0.004250332654546946
1746576277157359900,1.13035986328125,-0.09545300910770893,-0.011093277901469264,0.009148785920324734
1746576277167376000,1.1403759765625,-0.09784721076786518,-0.01769581797166029,0.005520567219494841
1746576277177392000,1.15039208984375,-0.0873719939827919,-0.012306044374848715,-0.010414924265467562
1746576277187408000,1.160407958984375,-0.09964286201298236,-0.012216110202227718,-0.0030708633792819453
1746576277197425000,1.1704248046875,-0.09829612357914447,-0.015604677211574743,-0.005428683118382469
1746576277207441000,1.18044091796875,-0.10458090293705463,-0.019411908024409785,0.005304202788765542
1746576277217457000,1.190456787109375,-0.08542553609013558,-0.021403367252706085,0.00979032609371934
1746576277227473000,1.200472900390625,-0.10383037683069705,-0.009619768999516963,-0.005776656305836513
1746576277237489000,1.210489013671875,-0.10338087949752807,-0.013134083563671446,0.0038840246593812478
1746576277247506000,1.220505859375,-0.08766834658086299,-0.011352684606192633,-0.004563284760969691
1746576277257522000,1.23052197265625,-0.0899117415934801,-0.01746752564111957,0.008857356092543341
1746576277267538000,1.240537841796875,-0.09903905090093612,-0.013692728943296241,0.007577938140719197
1746576277277554000,1.250553955078125,-0.09828969383835792,-0.011295780486916191,0.004395800973265432
1746576277287570000,1.26056982421875,-0.09813947171270847,-0.013440845674613955,-0.0009776767925824968
1746576277297587000,1.2705869140625,-0.09320026174485684,-0.01414458948019892,-0.0024787655379157514
1746576277307603000,1.28060302734375,-0.08856032698452472,-0.0133260419222177,-0.0008560916729504242
1746576277317619000,1.290618896484375,-0.09200082282721996,-0.02069421890293015,0.015109329159394837
1746576277327634700,1.300634765625,-0.09873334595263003,-0.01480485490366118,0.015316688299761154
1746576277337652000,1.31065185546875,-0.09798515793383121,-0.010865576942684129,-0.0016569871265208348
1746576277347668000,1.32066796875,-0.09963175609707832,-0.013260317458957433,-0.004225216479599476
1746576277357684000,1.33068408203125,-0.08152677508592605,-0.014776896034367382,0.009048681980138643
1746576277367700000,1.340699951171875,-0.0991840123295784,-0.007932425550639163,0.009591721081966533
1746576277377715700,1.3507158203125,-0.10546937620937824,-0.011377704883017576,0.002166397953382693
1746576277387733000,1.36073291015625,-0.09439619353115558,-0.006337192248448264,0.0012480912317987532
1746576277397749000,1.3707490234375,-0.09065525343716144,-0.007233595382189378,-0.0022927551462547852
1746576277407765000,1.380764892578125,-0.09529518819749355,-0.009795120999845676,0.0012980313207488507
1746576277417781000,1.390781005859375,-0.09409867188930511,-0.009830066732352134,-0.0025108594429213552
1746576277427796700,1.400796630859375,-0.09813830266892909,-0.014117178600176703,-0.0033328661831794303
1746576277437814000,1.41081396484375,-0.10562076737880706,-0.015881395810702813,0.002730488976393826
1746576277447830000,1.420830078125,-0.09379939668178558,-0.02040317266763886,0.0010269227617885916
1746576277457846000,1.430845947265625,-0.09559563244879245,-0.01344259010712849,-0.0017510449184104798
1746576277467862000,1.440862060546875,-0.10232757105231284,-0.006841917767038103,0.00443222856009379
1746576277477877800,1.450877685546875,-0.10008242247402667,-0.016406867289799263,0.005706212284974753
1746576277487895000,1.46089501953125,-0.08781272348761558,-0.01651165425496874,0.012404518046951852
1746576277497911000,1.4709111328125,-0.09334931482672691,-0.008310195654735434,-0.002932313425117172
1746576277507927300,1.48092724609375,-0.09948504110276699,-0.008005755648331251,-0.011094111301819793
1746576277517943000,1.490943115234375,-0.10157938303351402,-0.004634831610240507,-0.00034565793278161435
1746576277527960300,1.500960205078125,-0.08721417307257652,-0.0031848656973685135,0.001107760312501341
1746576277537976300,1.510976318359375,-0.09544365675747395,-0.013559704547619912,-0.004117057097121141
1746576277547992300,1.520992431640625,-0.10262626173794269,-0.01045011659314623,-0.005071750306338071
1746576277558008300,1.53100830078125,-0.09469488421678543,-0.009682184977550058,-0.002587819969537668
1746576277568024000,1.541024169921875,-0.10098024809658526,-0.007973830706684384,0.003718230505264364
1746576277578041300,1.551041259765625,-0.09499415942430496,-0.0067399095641332675,-0.012761642655241302
1746576277588057300,1.561057373046875,-0.09858487739264965,-0.0016456505984649991,0.00022199502049479632
1746576277598073300,1.5710732421875,-0.09813713362514973,-0.011099422231176867,0.003246662904182449
1746576277608089000,1.581089111328125,-0.09065583795905113,-0.01330331178389024,-0.002935062504629604
1746576277618105000,1.59110498046875,-0.09349836790859699,-0.0070654951065545896,-0.012593172486848197
1746576277628122400,1.601122314453125,-0.08496960901618003,-0.012408221541112287,0.002043534192116931
1746576277638138400,1.611138427734375,-0.08900865527391433,-0.012190446038008666,0.0003476854930864647
1746576277648154400,1.621154296875,-0.10367372496426105,-0.009742945571325254,0.007850745466421357
1746576277658170000,1.631170166015625,-0.10621697970628738,-0.006674662308197002,0.0025084300238173455
1746576277668186000,1.64118603515625,-0.08721358855068684,-0.007445082708401605,-0.0011269308038521558
1746576277678203100,1.651203125,-0.09544365675747395,-0.0082900479158503,0.004487475011823699
1746576277688219400,1.661219482421875,-0.09933481897711753,-0.014970315697637852,0.003243301903316751
1746576277698235400,1.6712353515625,-0.08916004644334316,-0.014916644715063739,-0.0027570710226427764
1746576277708251100,1.681251220703125,-0.09155424810349941,-0.014079990678234025,0.0033300212055444715
1746576277718268200,1.69126806640625,-0.09858780000209807,-0.006932783521420787,0.01200850446668919
1746576277728284200,1.7012841796875,-0.09604454526007175,-0.008462975063652265,0.004073542182380333
1746576277738300400,1.711300537109375,-0.09395020332932472,-0.012109371025278232,-0.006617810704559087
1746576277748316200,1.721316162109375,-0.10382511613368987,-0.01705108119418146,-0.008199252943415194
1746576277758332200,1.731332275390625,-0.0936503435999155,-0.014467533257673493,0.0015715373327722772
1746576277768349200,1.74134912109375,-0.1023299091398716,-0.008846186244557611,0.0013142244037240743
1746576277778365200,1.751365234375,-0.101432083517313,-0.010860163265338632,0.0010507054961752145
1746576277788381200,1.761381103515625,-0.09484802895188331,-0.013222510765795595,0.0031887587044853714
1746576277798397200,1.771397216796875,-0.09933774158656597,-0.00913949065230554,-0.0026011726414551955
1746576277808413200,1.7814130859375,-0.10262918434739113,-0.011450461875263135,0.004485319587355479
1746576277818430200,1.79143017578125,-0.09245382729172706,-0.011730568874720484,0.0012140473983017726
1746576277828446200,1.8014462890625,-0.09320026174485684,-0.008540848905721213,0.0033253632967360316
1746576277838462200,1.811462158203125,-0.10157938303351402,-0.007698783474834635,0.004190378061658702
1746576277848478200,1.821478271484375,-0.09484627538621425,-0.007664296683343127,-0.00010675287668127565
1746576277858494200,1.831494140625,-0.08736497972011566,-0.012558756477304268,-0.004659470577863976
1746576277868511200,1.84151123046875,-0.09679273327887057,-0.019224201149295548,-0.001145699436403811
1746576277878527200,1.85152734375,-0.09245265824794768,-0.014823134912445675,0.015166959364456124
1746576277888543200,1.861543212890625,-0.09020926323533057,-0.007485003726836294,0.0017298970991047099
1746576277898559000,1.87155908203125,-0.0861696324557066,-0.007911567708989604,-0.00762634842628613
1746576277908575200,1.8815751953125,-0.0957458545744419,-0.006349713803303893,-0.011318531174841336
1746576277918592300,1.89159228515625,-0.09993629200160503,-0.003676681502035353,0.0045180619463324545
1746576277928608300,1.901608154296875,-0.09080839817225933,-0.014956860277731902,0.005046145507623441
1746576277938624300,1.911624267578125,-0.10622107135951518,-0.010433633532514796,-0.00367187517946586
1746576277948640000,1.921639892578125,-0.09215513660609721,-0.010462658697599544,0.0023573128490243104
1746576277958656300,1.93165625,-0.09170739283859729,-0.012575899408350232,0.007606999838422052
1746576277968673300,1.94167333984375,-0.09724398417770862,-0.009572132748796138,0.0004021464935271069
1746576277978689300,1.951689208984375,-0.107418756711483,-0.00011836339937290177,-0.009894471454783341
1746576277988705300,1.961705322265625,-0.09499825107753276,-0.0030633308100863356,-0.007886323669878766
1746576277998721000,1.971720947265625,-0.0951490577250719,-0.014980766309704631,0.002238887800858356
1746576278008738300,1.98173828125,-0.08871464076340198,-0.009104385089594871,0.004636811221484094
1746576278018754300,1.99175439453125,-0.08422551265060901,-0.004240124071075115,0.009019930809689686
1746576278028770300,2.001770263671875,-0.09410159449875354,-0.010473015694832428,0.00005715984760317951
1746576278038786000,2.0117861328125,-0.10008768317103385,-0.006572473725490272,0.001144772421219386
1746576278048802000,2.021802001953125,-0.10891571727097034,-0.009191898976266384,0.004736421971325762
1746576278058819300,2.0318193359375,-0.08332710250616072,-0.00915788025894435,-0.004909445017250254
1746576278068835300,2.04183544921875,-0.09320259983241558,-0.007878485140006523,-0.009812049301760271
1746576278078851300,2.051851318359375,-0.10382628517746925,-0.011223635416023899,0.005282886006101034
1746576278088867000,2.0618671875,-0.105022216963768,-0.018697530943667516,-0.005814061140199191
1746576278098883000,2.071883056640625,-0.09664309567511081,-0.0030781036875327118,-0.006526273663318716
1746576278108900400,2.081900390625,-0.09484802895188331,-0.005954599838762078,-0.004081766588031314
1746576278118916400,2.091916259765625,-0.10158230564296244,-0.003715079566952772,0.006969236224424093
1746576278128932400,2.101932373046875,-0.10188041180670261,-0.008361752312036697,-0.0000010274798842146991
1746576278138948000,2.111947998046875,-0.10397592278122901,-0.010941930114524438,-0.0012336014821426942
1746576278148964000,2.121964111328125,-0.09484861347377299,-0.007011810424248688,0.005000621298886836
1746576278158981400,2.1319814453125,-0.09589607670009136,0.0007690161776961758,0.004500941848172806
1746576278168997400,2.141997314453125,-0.09394961880743503,-0.009300590364995878,-0.00237508140115533
1746576278179013400,2.152013427734375,-0.09514613511562346,-0.013289703383645973,-0.0004534382893471047
1746576278189029000,2.162029052734375,-0.09828794027268886,-0.012292369759234133,0.006457902868534438
1746576278199045000,2.172045166015625,-0.09798866506516933,-0.003357543966709636,0.002691586304688826
1746576278209062100,2.182062255859375,-0.11010931096971034,-0.007679316155961714,-0.0022123285874957217
1746576278219078400,2.192078369140625,-0.08811316773891449,-0.009544982163677922,-0.002784835812402889
1746576278229094100,2.20209423828125,-0.0923036051660776,-0.014588926581060513,-0.0080644384494517
1746576278239110100,2.212110107421875,-0.08990998802781104,-0.007048281393561046,0.0042505290173692626
1746576278249126100,2.222126220703125,-0.09035890083909034,-0.0045395682419533834,0.0016654626939212902
1746576278259143200,2.23214306640625,-0.1057715740263462,-0.005320884495507925,-0.00554650081177242
1746576278269159400,2.242159423828125,-0.0905091229647398,-0.0026630040975986046,-0.008588622153759934
1746576278279175200,2.252175048828125,-0.10547288334071636,0.0011194005179451778,-0.0050656447925372045
1746576278289191200,2.262191162109375,-0.09858896904587745,-0.010518115211883559,0.0019514400284504517
1746576278299207200,2.272207275390625,-0.09514788868129252,-0.005533958707319106,-0.0008933092776453122
1746576278309224200,2.28222412109375,-0.09514788868129252,-0.003351404203579295,0.0029345053822034967
1746576278319240200,2.292240234375,-0.09784078102707862,-0.008653988140705041,-0.0036381099071819334
1746576278329256200,2.302256103515625,-0.10038462029099464,-0.00452183622244047,-0.0036296526060905303
1746576278339272200,2.312272216796875,-0.0943997006624937,-0.01041956619125558,-0.007568288962962105
1746576278349288200,2.3222880859375,-0.09754150581955909,-0.01339652932556346,0.0020113078563706948
1746576278359305200,2.33230517578125,-0.09933657254278659,-0.012337097100238314,0.006057359243626706
1746576278369321200,2.3423212890625,-0.09903846637904644,-0.00450088933253428,0.00798568325797096
1746576278379337200,2.352337158203125,-0.09529811080694198,-0.0015556616269168442,-0.004674243455310352
1746576278389353200,2.362353271484375,-0.0963467430770397,-0.0064551012733834795,-0.0016689150263322517
1746576278399369200,2.372369140625,-0.09559913958013057,-0.008895847772294655,-0.0003186466282699257
1746576278409386200,2.38238623046875,-0.09260638750493526,-0.010913144694746005,0.0018222150250570847
1746576278419402200,2.39240234375,-0.09978899248540402,-0.01344880293549504,0.007036625205096788
1746576278429418200,2.402418212890625,-0.10861702658534049,-0.011959964033670258,0.006816717110411263
1746576278439434200,2.412434326171875,-0.09200725256800651,-0.0004798171229078434,-0.0008523470795946196
1746576278449450200,2.4224501953125,-0.09021101680099963,-0.006204455547139514,0.0032190077122766524
1746576278459467300,2.43246728515625,-0.09365326620936393,0.0002466933536226861,-0.009617572475853375
1746576278469483300,2.442483154296875,-0.09320376887619494,-0.005121169805480167,0.0015090391563484444
1746576278479499000,2.4524990234375,-0.10128361495733261,-0.0025120307699893598,0.002019906721357256
1746576278489515300,2.462515380859375,-0.09724164609014987,-0.006760993451357353,0.003522671400546096
1746576278499532300,2.4725322265625,-0.09020867871344089,-0.00551058696488617,0.0009678312520030886
1746576278509548000,2.482548095703125,-0.08542085991501808,-0.01269745027865283,-0.002958132852963172
1746576278519564000,2.49256396484375,-0.09828969383835792,-0.010071748267428484,0.008822686637961305
1746576278529580000,2.502580078125,-0.10547229881882667,-0.0068136301041813565,0.0027645647759316485
1746576278539596000,2.512595947265625,-0.09888824425339698,-0.005726453638693783,-0.015935363620799035
1746576278549612000,2.522612060546875,-0.09469897587001323,-0.013566668577946256,-0.01007788346398156
1746576278559629000,2.532629150390625,-0.1005348424166441,-0.0017547141632414422,0.001380188612290658
1746576278569644800,2.542644775390625,-0.08946224426031112,-0.004609715435293037,-0.0011819260938325895
1746576278579661000,2.5526611328125,-0.08661854526698588,-0.00786410270491615,-0.007908448736718855
1746576278589677000,2.562677001953125,-0.09290332462489605,-0.0048047904828214085,-0.0032483388380380347
1746576278599694000,2.572694091796875,-0.09529694176316261,-0.008042480062681715,-0.0005580905404873192
1746576278609710000,2.5827099609375,-0.0991886885046959,-0.009148486809513997,0.0010027427351800725
1746576278619725800,2.592725830078125,-0.09215572112798691,-0.008645156380278058,-0.006185903827007859
1746576278629742000,2.6027421875,-0.10292962859869002,-0.016656494669313543,-0.0027277855626540257
1746576278639758000,2.612758056640625,-0.09484978251755237,-0.013188188371085562,0.005558830570382997
1746576278649774000,2.622774169921875,-0.08662029883265494,-0.0071885575139313,-0.003855328287859447
1746576278659791000,2.632791015625,-0.10068564906418323,-0.011798245549760758,-0.002391534779034555
1746576278669806800,2.642806884765625,-0.0864700767070055,-0.012198775474936701,-0.001140653368528001
1746576278679823000,2.652822998046875,-0.10008651412725449,-0.007835634662257507,0.0030530628611100835
1746576278689839000,2.662839111328125,-0.09604629882574081,-0.010485991624125744,-0.008387464425317012
1746576278699856100,2.672856201171875,-0.09529694176316261,-0.004318459137447644,-0.010556022369745188
1746576278709872000,2.6828720703125,-0.09350012147426605,-0.006096282464929391,-0.011307548556523397
1746576278719888000,2.692887939453125,-0.10068389549851417,-0.006059055727079976,0.00897748447402846
1746576278729903900,2.70290380859375,-0.0997854853540659,-0.007609445240546483,0.0005332209607120603
1746576278739920100,2.712920166015625,-0.10816460664272308,-0.01017967932104366,-0.006147480645915493
1746576278749937200,2.722937255859375,-0.08751403280198573,-0.008594266443257219,-0.0086192821535049
1746576278759953000,2.732952880859375,-0.09858780000209807,-0.012223405309405643,-0.008238612272846512
1746576278769969000,2.742968994140625,-0.088861940279603,-0.011854800325876567,0.01110822202556301
1746576278779985000,2.75298486328125,-0.08377309270799159,-0.013644156544236466,0.005065498662064783
1746576278790001200,2.763001220703125,-0.09245265824794768,-0.0036334245989099144,0.0013167908201459795
1746576278800017200,2.77301708984375,-0.10143091447353363,-0.0005120160591905005,-0.003061867222073488
1746576278810034000,2.783033935546875,-0.10457447319626807,-0.007754495717445388,-0.0010685288472333922
1746576278820050000,2.7930498046875,-0.09484685990810393,-0.009332992513966746,0.0027684646329144014
1746576278830066000,2.80306591796875,-0.09739128369390963,-0.005647506650967989,0.0007966028709430247
1746576278840082000,2.81308203125,-0.09843757787644862,-0.007572232202428858,-0.006429430259298533
1746576278850099200,2.82309912109375,-0.09095628221035003,-0.015159504427073988,0.0012697505077579989
1746576278860115000,2.833114990234375,-0.10173018968105316,-0.006576492313481867,-0.0022578025638824327
1746576278870131000,2.843130859375,-0.09798808054327965,-0.006118167786463164,-0.008996536234370432
1746576278880147000,2.85314697265625,-0.10008359151780605,-0.003975639332435094,-0.0004258789955638349
1746576278890163000,2.863162841796875,-0.04471943169236183,-0.020077445561322384,0.011826562895369715
1746576278900179200,2.87317919921875,-0.13525193553268908,-0.00195760490775574,-0.005757522347103804
1746576278910196000,2.883196044921875,-0.08557458917200565,-0.0032116144236875696,-0.004581697200494818
1746576278920212000,2.8932119140625,-0.11161270126998424,-0.011096109179372433,-0.0039720134700881315
1746576278930228000,2.90322802734375,-0.0867746126115322,-0.005706050171481911,-0.000010434629046358167
1746576278940244000,2.913243896484375,-0.10458090293705463,-0.011918513211852404,-0.004062258169963025
1746576278950261000,2.923260986328125,-0.09201134422123432,-0.0066461349000339395,-0.013799118777085095
1746576278960277000,2.933277099609375,-0.08901917666792869,-0.004039728961035143,0.0015291823286563157
1746576278970293000,2.94329296875,-0.09530454054772854,-0.003925801991473418,0.0028440688860835507
1746576278980309000,2.95330908203125,-0.0927612858057022,-0.005203190099704079,-0.004307834995444864
1746576278990325000,2.963324951171875,-0.10368599992394446,-0.00949687327221036,-0.009725261500873602
1746576279000341000,2.973341064453125,-0.09216507347822189,-0.00021359480161918325,-0.006543475959869101
1746576279010358000,2.98335791015625,-0.09066811291873454,-0.006823706256912555,0.006224797365558333
1746576279020374000,2.9933740234375,-0.09336217430830002,-0.0054006717334501445,-0.007406038472801447
1746576279030390000,3.00339013671875,-0.09934709393680095,-0.011972207027312833,-0.014359702668758108
1746576279040406000,3.013406005859375,-0.09800035550296306,-0.007845304389612283,-0.0007389954987680539
1746576279050422000,3.023422119140625,-0.1081768816024065,-0.008401072825561276,-0.0006342382163507863
1746576279060439000,3.03343896484375,-0.08872457763552666,-0.0009154777269694023,-0.005632530560833402
1746576279070455000,3.043455078125,-0.08782675201296807,-0.007970741417165845,-0.005641417120187543
1746576279080471000,3.053470947265625,-0.09620645782351493,-0.0020752034054370596,-0.004229783056862652
1746576279090487000,3.063487060546875,-0.0997977603137493,-0.0016352981678093782,0.00433822100055404
1746576279100503000,3.0735029296875,-0.09485971938967704,-0.007170540083339437,0.00409780440737959
1746576279110520000,3.08352001953125,-0.09156886115074157,-0.014114374721737112,-0.010103999719349667
1746576279120536000,3.0935361328125,-0.10069792402386665,-0.008696658238652162,0.00850644202933181
1746576279130552000,3.103552001953125,-0.09261807794272899,-0.004882255616225302,0.007229184068553149
1746576279140568000,3.113568115234375,-0.0900730696350336,-0.006642970261990558,-0.0035176892647519704
1746576279150584000,3.123583984375,-0.09471183535158634,-0.004500466924137436,-0.009046120130294003
1746576279160601000,3.13360107421875,-0.09306582171022891,-0.010418630042916628,-0.000679753291932866
1746576279170617000,3.1436171875,-0.09845335996747016,-0.012695603098149877,-0.0011956577916629612
1746576279180633000,3.153633056640625,-0.0887269157230854,-0.005748336676938925,0.009743427345226518
1746576279190649000,3.163649169921875,-0.09620704234540461,-0.010637421609461307,0.0013535061013419181
1746576279200665000,3.1736650390625,-0.09471125082969666,-0.00744319214541465,0.00204376252098009
1746576279210682000,3.18368212890625,-0.10294190355837345,-0.01016470094762044,-0.006028754203650169
1746576279220698000,3.193697998046875,-0.09680793084800243,-0.00731363149859244,0.000007996076787821948
1746576279230714000,3.203714111328125,-0.08678162687420844,-0.008655666357849258,0.0003976758143864572
1746576279240730000,3.213730224609375,-0.10144728108644485,-0.003796618087275419,0.009402240091585554
1746576279250746000,3.22374609375,-0.10069909306764602,-0.007835043290501926,0.0036310773781966415
1746576279260763000,3.233762939453125,-0.09740823482871055,-0.007281873237015679,-0.02118463961824309
1746576279270779100,3.243779052734375,-0.10399170487225055,-0.006632853010063991,-0.008057227823953144
1746576279280795100,3.253795166015625,-0.10234452218711376,0.002202158819930628,0.004690290407813154
1746576279290811100,3.26381103515625,-0.09845277544558048,0.003613781466812361,0.012611813255236484
1746576279300827100,3.2738271484375,-0.10084405449628829,-0.004101131158915814,0.010622466068924403
1746576279310844000,3.283843994140625,-0.13031681721806526,0.07085784409334883,0.031098610357940194
1746576279320860200,3.293860107421875,-0.058937926658988,-0.08917644958887248,-0.03724061567771714
1746576279330876200,3.303876220703125,-0.059985389885306356,-0.010258361447288188,-0.0009187359798466786
1746576279340892200,3.31389208984375,-0.10023907434046268,-0.005807298039272427,-0.009338737268163822
1746576279350908200,3.323908203125,-0.11729776116907596,-0.00929190930161858,0.012489675579755567
1746576279360925000,3.333925048828125,-0.09171031544804573,-0.014834747718425932,-0.0019463391616474836
1746576279370941200,3.343941162109375,-0.08961480447351931,-0.010379711388191208,0.0007368720403406768
1746576279380957200,3.353957275390625,-0.10981471193730831,-0.012601890082843601,-0.0029690972049720584
1746576279390973200,3.36397314453125,-0.09455109183192252,-0.00978172722873278,-0.012022583224391564
1746576279400989000,3.373989013671875,-0.10442717368006706,-0.009752208873303607,0.0022053371577057984
1746576279411005000,3.3840048828125,-0.08856675672531128,0.001998930148698855,0.0011028375422116369
1746576279421022000,3.39402197265625,-0.10068798715174197,-0.008856682522397023,-0.002366637799795717
1746576279431038200,3.4040380859375,-0.08901566953659057,-0.007340590287465602,-0.013122137397550977
1746576279441054200,3.41405419921875,-0.093205522441864,0.0029339117271592837,-0.007122591022076085
1746576279451070000,3.424070068359375,-0.09784370363652706,-0.007580968064733315,0.0004564248308772221
1746576279461086000,3.4340859375,-0.0936544352531433,-0.0017522893107146955,-0.004088036498613655
1746576279471103000,3.44410302734375,-0.09260814107060432,-0.004520792759535834,-0.0033077408750774337
1746576279481119200,3.454119140625,-0.10383096135258674,-0.01051633196346229,0.0031105652020080015
1746576279491135200,3.46413525390625,-0.09260814107060432,-0.0118529234626214,-0.0015064636067720128
1746576279501151000,3.47415087890625,-0.09634849664270877,-0.011105500345514155,-0.00940360093160998
1746576279511166200,3.484166259765625,-0.09978840796351432,-0.008582196979550644,-0.0022695523671805856
1746576279521183500,3.49418359375,-0.10233224722743034,-0.006817986618890427,-0.0022977920809760686
1746576279531199500,3.504199462890625,-0.1015846437305212,-0.0026768796426127664,0.0014567655464168636
1746576279541215500,3.514215576171875,-0.09993921461105346,-0.006488935044326354,0.0039492353826994075
1746576279551231500,3.5242314453125,-0.09006371728479862,-0.012761017034156247,-0.002086049026437104
1746576279561247200,3.534247314453125,-0.08707154973149299,-0.002032026417413726,-0.000001036613038741052
1746576279571264500,3.544264404296875,-0.09724690678715706,-0.004570289890491404,-0.007590920919878408
1746576279581280500,3.554280517578125,-0.09904255803227424,-0.004600730694527737,-0.004651278138253837
1746576279591296500,3.564296630859375,-0.10143675969243049,-0.008828689403773751,-0.0066210666741477325
1746576279601312500,3.5743125,-0.09096212742924689,-0.007197103863279335,-0.002626316215866245
1746576279611328300,3.584328369140625,-0.10113748448491096,-0.0045039512225892395,-0.001955659545841627
1746576279621345500,3.594345458984375,-0.09410451710820197,-0.015414406203327234,-0.0017988524157786742
1746576279631361500,3.604361572265625,-0.09679740945398807,-0.015445954402349889,-0.009281349091697484
1746576279641377500,3.61437744140625,-0.10083704023361205,-0.014232283746672328,-0.00607800930601079
1746576279651393500,3.6243935546875,-0.09679740945398807,-0.00914061403031228,0.004857614365313202
1746576279661409300,3.6344091796875,-0.08781856870651245,-0.005514737983618397,-0.0040767570527736096
1746576279671426600,3.644426513671875,-0.09380348833501338,-0.010625498276227153,-0.0024047732865205033
1746576279681442600,3.654442626953125,-0.10263269147872925,-0.007127114216855261,0.0024725869588786737
1746576279691458600,3.66445849609375,-0.10008885221481323,-0.010447894953307696,0.0017499443732900545
1746576279701474300,3.674474365234375,-0.09545008649826049,-0.005277257699624169,-0.0055328650120645756
1746576279711490300,3.684490234375,-0.09933949515223503,-0.006433711425482761,-0.007180102496128529
1746576279721506300,3.69450634765625,-0.09724398417770862,-0.006149352942593395,-0.006689122375100851
1746576279731523600,3.704523681640625,-0.087815646097064,-0.0061805266822804695,0.001182040258264169
1746576279741539600,3.71453955078125,-0.07808861733078956,-0.0044705786759499455,-0.0006873794759623705
1746576279751555300,3.724555419921875,-0.09484802895188331,-0.011411586603021714,-0.0004754628914874047
1746576279761571300,3.7345712890625,-0.08212941715419292,-0.01625245989608811,-0.003034234863054007
1746576279771587300,3.74458740234375,-0.09813947171270847,-0.0012769793995656073,-0.0028933650876395403
1746576279781604600,3.7546044921875,-0.09155483262538909,-0.0057968588436488055,-0.009586930742417461
1746576279791620600,3.76462060546875,-0.0963432359457016,-0.011979810378456022,-0.0071102110311156135
1746576279801636400,3.77463623046875,-0.09798924958705901,-0.003627709527465049,0.00009605795273091644
1746576279811652400,3.78465234375,-0.0936503435999155,-0.005443935486441478,0.00815008003944531
1746576279821668400,3.79466845703125,-0.09649404259324074,-0.0022861655752640215,-0.001666910298913717
1746576279831685400,3.804685302734375,-0.09020867871344089,-0.0073200178568949914,-0.0011098700711969286
1746576279841701600,3.81470166015625,-0.1029267059892416,-0.013438445938262156,0.006572542224149219
1746576279851717400,3.82471728515625,-0.08871113363206386,-0.010581455921812448,-0.005277392413653433
1746576279861733400,3.8347333984375,-0.0978378584176302,-0.006019424686301499,-0.011700808490696362
1746576279871749400,3.844749267578125,-0.10636603278815746,-0.011323161684186197,-0.0015670849199406801
1746576279881766400,3.854766357421875,-0.08422025195360183,-0.007412824406614527,0.009009893472865224
1746576279891782400,3.864782470703125,-0.08691314429938793,-0.006160123215068597,0.00678200655663386
1746576279901798400,3.87479833984375,-0.0957417629212141,-0.004893329566088505,-0.004314511331403628
1746576279911814400,3.884814453125,-0.10262567721605301,-0.012832100375834852,-0.0037411181905074044
1746576279921830400,3.894830322265625,-0.09574293196499348,-0.019845842462265863,0.003389660704601556
1746576279931846400,3.904846435546875,-0.09319850817918778,-0.014066165365569759,0.011254019137844443
1746576279941863400,3.914863525390625,-0.09843523978888988,-0.007941175112675409,-0.002780232702521607
1746576279951879400,3.92487939453125,-0.09978197822272777,-0.00596483810498612,-0.015470189227885565
1746576279961895400,3.9348955078125,-0.10337269619107246,-0.010836259516654536,-0.001758502139081247
1746576279971911400,3.944911376953125,-0.09738660751879215,-0.00031105241028126326,0.004084401503112167
1746576279981927400,3.954927490234375,-0.09154898740649223,-0.009825954529526643,0.009052207377785816
1746576279991944200,3.964944091796875,-0.10292086077034472,-0.008631872207019477,0.005221707570506259
1746576280001960400,3.97496044921875,-0.10471651201546192,-0.005227192029799334,-0.003127351940027438
1746576280011976400,3.9849765625,-0.09364274481534958,-0.008467132932250387,0.004519587183138355
1746576280021992400,3.994992431640625,-0.09364274481534958,-0.007018845236522611,0.003516972312121652
1746576280032008400,4.005008544921875,-0.08660860839486122,-0.01092190567322541,-0.001434567414340563
1746576280042025200,4.015025146484375,-0.09603577743172645,-0.0100499634105945,-0.0032195876675890755
1746576280052041500,4.02504150390625,-0.09543605797290801,-0.001944690627255477,0.00783796818323899
1746576280062057500,4.035057373046875,-0.09857727860808371,-0.0022966687029693273,0.010017664009612053
1746576280072073500,4.045073486328125,-0.10097148026823997,-0.00983972504326375,-0.008118387993238866
1746576280082089500,4.05508935546875,-0.09603402386605739,-0.005785214071627706,-0.005545509864506312
1746576280092106200,4.065106201171875,-0.10471183584034442,-0.008991839509655255,0.0020165046212961895
1746576280102122200,4.075122314453125,-0.09288988062143325,-0.0059957241503056135,0.00768894250083249
1746576280112138500,4.085138427734375,-0.08765314901173114,-0.004442624373233411,0.008098623846843837
1746576280122154500,4.095154541015625,-0.08974749094247818,-0.00317716873139143,0.00994714235693682
1746576280132170500,4.10517041015625,-0.09288988062143325,-0.005112066333706025,0.0017425510847009717
1746576280142186500,4.1151865234375,-0.09887538477182388,-0.004152683249639812,-0.00238468491313979
1746576280152203300,4.125203369140625,-0.09004618162810801,-0.002822080816561356,-0.008105797939724288
1746576280162219500,4.135219482421875,-0.09019406566619873,-0.0052382773961056955,0.0077420061286306
1746576280172235500,4.145235595703125,-0.10276245533823966,-0.006346309419954195,0.0021642927612643688
1746576280182251500,4.15525146484375,-0.09109072224497794,-0.009886623791756574,0.007676667541149072
1746576280192267500,4.165267578125,-0.09243746067881584,-0.00927786479324568,-0.004235724173882045
1746576280202284300,4.1752841796875,-0.08929624004364013,-0.003372332827176433,0.0005890793337952346
1746576280212300500,4.185300537109375,-0.09932254401743411,-0.012775709996500517,-0.0011206791595788671
1746576280222316500,4.195316650390625,-0.08884732723236083,-0.003811345298949163,-0.0025174718467984346
1746576280232332500,4.20533251953125,-0.10036942272186279,-0.007844808915979228,0.006994233668362722
1746576280242348500,4.2153486328125,-0.08645312557220458,-0.0038918768889852798,0.0031010712878778574
1746576280252364300,4.2253642578125,-0.10096797313690185,-0.010109000121452844,-0.001499997333367355
1746576280262381300,4.23538134765625,-0.10186579875946045,-0.006688683983683586,-0.008130082997609861
1746576280272397600,4.2453974609375,-0.09917232189178467,-0.008987645108439028,-0.009171997832553461
1746576280282413600,4.25541357421875,-0.10156593903005122,-0.017219350433174987,0.0032724686322966588
1746576280292429600,4.2654296875,-0.09258709828257561,-0.007868612199963536,0.004823524866043589
1746576280302445300,4.2754453125,-0.0978244144141674,-0.007777273804834112,-0.0018683100559515877
1746576280312462300,4.28546240234375,-0.09542962823212146,-0.010149873271246905,-0.009546411502361298
1746576280322478600,4.295478515625,-0.10770166530609131,-0.005065368514612783,-0.008936161516373976
1746576280332494600,4.30549462890625,-0.09782616797983645,-0.004786391743028071,0.007146195659949444
1746576280342510300,4.31551025390625,-0.10007014751434326,-0.003717198458802886,0.006023329109861515
1746576280352526300,4.3255263671875,-0.10096797313690185,-0.003065673464222345,-0.0038103886010125276
1746576280362543400,4.33554345703125,-0.09603402386605739,-0.0015390027530607767,0.0027015323099680243
1746576280372559400,4.345559326171875,-0.0720920072644949,-0.013562483309884556,0.00436956142031122
1746576280382575600,4.35557568359375,-0.12356909652352333,0.006679792857752181,0.0076939200700493525
1746576280392591400,4.36559130859375,-0.08211948028206825,-0.004843891800637356,-0.006713466798490844
1746576280402607400,4.375607421875,-0.09648527476489543,-0.0017386763438931665,0.0018175434165168553
1746576280412623400,4.385623291015625,-0.10052490554451941,-0.003243290486873593,0.003195946497097611
1746576280422640400,4.395640380859375,-0.09229425281584262,-0.0030165211098501458,0.009058733016694895
1746576280432656600,4.40565673828125,-0.11084931568205356,-0.009924425918341149,0.009889804412820375
1746576280442672400,4.41567236328125,-0.08496084118783473,-0.007088729851669632,0.0070070246512768785
1746576280452688400,4.4256884765625,-0.10366437261402606,-0.008714830932870973,0.007849069532565773
1746576280462704400,4.435704345703125,-0.09633154550790786,-0.015552579414867795,-0.004786932882433757
1746576280472721400,4.445721435546875,-0.08899871840178966,-0.007423354933783412,-0.007642778971279039
1746576280482737400,4.4557373046875,-0.0845095902889967,-0.014462642453424632,0.0015260176906129344
1746576280492753400,4.46575341796875,-0.09603110125660896,-0.008769958653592038,0.005938628234784119
1746576280502769400,4.475769287109375,-0.11024667361378669,-0.010357394525106065,0.0016638643918791786
1746576280512785700,4.48578564453125,-0.11039631121754645,-0.013622663948347326,-0.00657822304626461
1746576280522801700,4.4958017578125,-0.10665478660166262,-0.008327046324836555,-0.00227116893553175
1746576280532818400,4.505818359375,-0.09184066382944583,-0.004918135213782079,0.006940658583911135
1746576280542834700,4.515834716796875,-0.091092475810647,-0.0012814980277675203,0.002483190551283769
1746576280552850700,4.5258505859375,-0.09079320060312747,-0.00455662669131998,-0.008611409374303184
1746576280562866700,4.53586669921875,-0.08645371009409428,-0.00702285469135968,-0.0008229154891334474
1746576280572882700,4.545882568359375,-0.10800094051361084,-0.004912474941264372,0.015096835004002787
1746576280582899500,4.5558994140625,-0.09902209976613521,-0.008840991762920749,0.011917666111770085
1746576280592915700,4.565915771484375,-0.10006897847056388,-0.0054277241371572015,-0.00843602540793363
1746576280602931700,4.575931640625,-0.10036766915619373,-0.007917942650848999,-0.008094596125697717
1746576280612947700,4.58594775390625,-0.10246142656505107,-0.0105025774327456,0.0038449393245857206
1746576280622963700,4.595963623046875,-0.09617664720714092,-0.006926908619771711,0.01171174544324167
1746576280632979700,4.605979736328125,-0.10485562822520732,0.00003528137593530118,0.005668921615043654
1746576280642996700,4.615996826171875,-0.10261106416881084,-0.001990646377543453,-0.0025908430436858906
1746576280653012700,4.6260126953125,-0.09677519762217998,-0.00591679314560024,-0.00995602891629096
1746576280663028700,4.63602880859375,-0.09782266084849833,-0.00683031181092374,0.005773194840271025
1746576280673044700,4.646044677734375,-0.10171499211192131,-0.010988114193675574,0.010453520976495928
1746576280683060700,4.656060791015625,-0.0563759672164917,0.0040329818431288,0.005629525752994232
1746576280693077500,4.666077392578125,-0.1621691685527563,-0.011108146677038166,-0.015125229981425218
1746576280703093800,4.67609375,-0.03931961847543716,-0.006744852884020656,0.0064950885071884835
1746576280713109800,4.68610986328125,-0.13449088803231715,-0.011486693099269177,0.00010574822968337684
1746576280723125800,4.696125732421875,-0.07867723087370396,-0.0007779895020183175,0.00384078373927623
1746576280733141800,4.706141845703125,-0.10052490554451941,-0.008269365887425374,0.010635805041110143
1746576280743158500,4.716158447265625,-0.09708440970182418,-0.0032904084310750475,-0.008458657364849931
1746576280753174800,4.7261748046875,-0.08032441355884075,-0.008183096393058076,-0.005052675713109783
1746576280763190800,4.736190673828125,-0.09708440970182418,-0.006571382313524373,0.012838630581321194
1746576280773206800,4.746206787109375,-0.08990238924324512,0.003192402833141386,0.003789925768296234
1746576280783222800,4.756222900390625,-0.09199673117399215,-0.010672732668148818,-0.00198157030523289
1746576280793238500,4.766238525390625,-0.10516484030485153,0.002316021857410669,-0.009541694228048436
1746576280803255600,4.776255615234375,-0.08511515496671199,-0.0021292328643263314,0.008923836324340663
1746576280813271800,4.786271728515625,-0.09349427625536919,-0.0010482806436484678,0.008124644204089418
1746576280823287800,4.796287841796875,-0.09379472050666808,-0.0063366556756198405,0.00644240847188048
1746576280833303800,4.8063037109375,-0.0958902314811945,-0.007772467482264619,0.0044513259862083935
1746576280843319600,4.816319580078125,-0.1059153664112091,-0.014601466402225196,-0.002268698417232372
1746576280853336600,4.826336669921875,-0.09439327092170714,-0.01240067755547352,0.0034525379069382323
1746576280863352800,4.836352783203125,-0.10052841267585753,-0.004874775562668219,0.0022375634934520346
1746576280873368800,4.846368896484375,-0.09154957192838191,-0.014997308735840487,-0.004225705103366635
1746576280883384800,4.856384765625,-0.10741232697069644,-0.012014557464851531,-0.0013301480586407706
1746576280893400600,4.866400634765625,-0.10367255592048168,-0.0020368121903855353,0.011062976378039456
1746576280903416600,4.87641650390625,-0.09753858321011066,0.0022929811918293123,0.009654991009947843
1746576280913433600,4.88643359375,-0.0997849008321762,-0.01055967791484436,-0.005919083284097723
1746576280923449900,4.896449951171875,-0.1002338136434555,-0.010424379363690967,-0.0027785430689342317
1746576280933465600,4.906465576171875,-0.09514671963751316,0.002769508095819037,0.0030510581336915493
1746576280943481600,4.916481689453125,-0.08990940350592136,-0.008628134463529568,0.0046412362348521126
1746576280953497600,4.92649755859375,-0.09185410783290862,-0.003344230110698845,-0.00035000074775889516
1746576280963514600,4.9365146484375,-0.09903671281337738,-0.010955431200203019,-0.0003531927852658555
1746576280973531000,4.94653076171875,-0.10427402894496918,-0.003297680705366656,0.009560928651480935
1746576280983546600,4.956546630859375,-0.09664075758755207,-0.008896302146732342,0.001408117798832245
1746576280993562600,4.966562744140625,-0.09753741416633128,-0.007837198714970146,0.010401959752617403
1746576281003578600,4.97657861328125,-0.09708616326749324,-0.015754798872524407,0.008961405555484817
1746576281013594600,4.9865947265625,-0.09813128840625286,-0.005590241772087756,0.01048249134265352
1746576281023612000,4.99661181640625,-0.09259294350147247,-0.0005163040752406232,0.0030783662657253444
1746576281033627600,5.006627685546875,-0.08974924450814724,-0.010822253824188372,-0.0005594742133980616
1746576281043643600,5.0166435546875,-0.08555939160287379,0.010504634675802663,0.003207276175287552
1746576281053659600,5.02665966796875,-0.09064648560881614,-0.02999506956283003,0.008208157769078388
1746576281063675600,5.036675537109375,-0.09962474183440208,-0.0060094809643109325,0.0004749560014111921
1746576281073692700,5.046692626953125,-0.09932546662688255,-0.0020363281331956386,-0.00342300585177727
1746576281083708700,5.056708740234375,-0.09513502919971942,-0.0015983819572138599,-0.0014412528834538533
1746576281093724700,5.066724609375,-0.09692892687916756,-0.014317847704852464,-0.0021734167826361955
1746576281103740700,5.07674072265625,-0.09677987379729747,-0.00887710653920658,0.008741415262408554
1746576281113756700,5.086756591796875,-0.09109189128875732,-0.00718683134772582,0.006459839097294025
1746576281123772700,5.096772705078125,-0.09393559028208255,-0.002573729795392137,0.003927612639358267
1746576281133789700,5.106789794921875,-0.09453355617523193,-0.0073408734152559186,0.0029929804040584713
1746576281143805700,5.1168056640625,-0.09169044170379638,-0.010335274024843237,-0.0005803115054499357
1746576281153821700,5.12682177734375,-0.09857435599863529,-0.01169265258370433,0.007012312747747637
1746576281163837700,5.136837646484375,-0.09498188446462154,-0.002214993185328785,0.011951340052508749
1746576281173853700,5.146853759765625,-0.08959434620738028,-0.00010719583467580378,0.008245544337132014
1746576281183870500,5.156870361328125,-0.09617898529469966,-0.00705735746587161,-0.008070941255474463
1746576281193886700,5.16688671875,-0.09962065018117428,-0.0043964265943504865,-0.008397835122281686
1746576281203902700,5.17690283203125,-0.09198854786753653,-0.017616510224330705,0.017792668225546367
1746576281213918700,5.186918701171875,-0.08570376850962638,-0.009305220874340738,0.018608925645030104
1746576281223934700,5.196934814453125,-0.08974456833302974,-0.008283444645127747,0.007932053374592215
1746576281233950700,5.20695068359375,-0.10037000724375247,-0.009670558471838012,-0.008230881057539954
1746576281243967700,5.2169677734375,-0.06520517036020755,-0.007119704945245758,-0.005726209326810203
1746576281253983700,5.226983642578125,-0.13388941500782967,-0.003789749955071602,0.010044392186333425
1746576281263999700,5.236999755859375,-0.07223755321502685,-0.010961406566551885,0.017940287402155808
1746576281274015700,5.247015625,-0.12086977443695068,-0.011102406489418353,0.004316712421644479
1746576281284031700,5.25703173828125,-0.09857318695485591,-0.0002703824731754139,0.002420948103186674
1746576281294047500,5.267047607421875,-0.10844868428111076,-0.0104052773709991,0.002804175267112441
1746576281304064800,5.277064697265625,-0.09273615136444568,-0.007120387648546602,0.009277522299950942
1746576281314080800,5.287080810546875,-0.08256079430878162,-0.0036362170609063466,-0.003384559837798588
1746576281324096800,5.2970966796875,-0.09976794969737529,-0.002499438433186151,0.00983299619166646
1746576281334112800,5.30711279296875,-0.09393149862885475,-0.003944865168258547,0.007647751973918639
1746576281344128500,5.31712841796875,-0.09482932425141334,-0.0045172399624250825,0.00012558087473735213
1746576281354145800,5.327145751953125,-0.10560323172211647,-0.0003182950018206611,0.0021974461121950298
1746576281364161800,5.337161865234375,-0.09318331061005591,-0.006298876381921581,-0.0013353904893388972
1746576281374177800,5.347177734375,-0.08540215521454811,-0.017459312651911748,0.011071063786372543
1746576281384193500,5.357193603515625,-0.0918377412199974,-0.007161852170096244,0.008089764686953277
1746576281394209500,5.36720947265625,-0.10395838712453842,-0.01678261896674521,-0.00689162724383641
1746576281404225500,5.3772255859375,-0.08764671927094458,-0.008786555878655053,0.00645076074169483
1746576281414242800,5.387242919921875,-0.09482932425141334,-0.013059999980730935,0.01955291479714215
1746576281424258800,5.3972587890625,-0.10006605586111544,-0.00818840732241515,0.00915027462451253
1746576281434274600,5.407274658203125,-0.0972229413896799,-0.0013374340326641687,-0.007095967876631766
1746576281444290600,5.41729052734375,-0.08899111961722374,-0.001736061978409998,-0.003007492986600846
1746576281454306600,5.427306640625,-0.09033727352917194,-0.0064707806164165955,0.0030363857209449634
1746576281464322600,5.437322509765625,-0.10545067150890827,-0.0029968254621140656,0.002388141812128015
1746576281474339800,5.44733984375,-0.09931552975475788,-0.0003033600108814426,-0.003482216092571616
1746576281484355600,5.45735546875,-0.09722060330212115,-0.0006472415451076812,0.0008547171331942081
1746576281494371600,5.46737158203125,-0.09961480496227741,-0.010718946430052164,-0.0008379212620202452
1746576281504387600,5.4773876953125,-0.09647241528332233,-0.01180733303851448,0.0024534895327640695
1746576281514404000,5.487404052734375,-0.09856792625784873,-0.00263801122023724,-0.0006213970010867342
1746576281524420900,5.4974208984375,-0.09258300662934779,-0.00722664048501756,0.0009367967929225415
1746576281534436900,5.507436767578125,-0.10410510211884975,-0.015151143024105113,0.005841063311556354
1746576281544453000,5.517453125,-0.1009615433961153,-0.01121614851260092,0.012402321523288264
1746576281554469000,5.52746923828125,-0.10559914006888865,-0.009160190947039518,-0.0003080978347919881
1746576281564485000,5.537485107421875,-0.08988660715222359,-0.002872367965383455,0.00168118998601567
1746576281574501000,5.547501220703125,-0.10440145471692085,-0.005015168130758684,0.012860107194189913
1746576281584518000,5.557517822265625,-0.0985650036484003,-0.004160115354135632,0.004236751653766259
1746576281594534100,5.5675341796875,-0.08943827886283397,-0.007549828574375714,-0.009537794371065684
1746576281604550100,5.577550048828125,-0.09916472310721873,-0.003802961063093971,0.00707129009310156
1746576281614566100,5.587566162109375,-0.09572188917696475,-0.0031187827577930875,0.009423707571299745
1746576281624582100,5.59758203125,-0.09302782778739929,0.0009035817931988276,0.009996301561174913
1746576281634598100,5.60759814453125,-0.09691782096326351,-0.0059204190079472025,-0.0020894054607255384
1746576281644615000,5.617614990234375,-0.09631868602633475,-0.0033985061647603286,0.0009042279638815671
1746576281654631200,5.627631103515625,-0.09826397487521171,0.0078096097384346645,0.00132628016769886
1746576281664647200,5.637647216796875,-0.09631810150444507,-0.008891938782157376,0.002885099582793191
1746576281674663200,5.6476630859375,-0.09362287107110023,-0.00992609728561947,-0.002707528225914575
1746576281684679000,5.657678955078125,-0.08928221151828765,-0.004852892524423077,0.004200077471765689
1746576281694696000,5.667696044921875,-0.08928221151828765,-0.0015893218679237178,0.010300554337911307
1746576281704712200,5.677712158203125,-0.08509177409112453,-0.007254877915524411,0.007131673944252542
1746576281714728200,5.687728271484375,-0.09975684378147125,0.002125495120836422,-0.00030060408150311556
1746576281724744200,5.697744140625,-0.09182721982598305,-0.008146180182462558,0.008317212200700305
1746576281734760000,5.707760009765625,-0.09257599236667155,-0.00651114230955718,0.006138091763062402
1746576281744776000,5.71777587890625,-0.09781330849826335,-0.011306902385840657,0.010163369790348225
1746576281754793000,5.72779296875,-0.09362345559298992,-0.004753053445718251,0.00547939039231278
1746576281764809200,5.737809326171875,-0.0985603274732828,0.0015453685617656445,0.0073840001709293565
1746576281774825200,5.7478251953125,-0.09377309319674969,0.0011502979797078296,0.010614488258445635
1746576281784841000,5.757841064453125,-0.05097790756523609,0.0030857458545826373,-0.0015026185487164183
1746576281794857000,5.76785693359375,-0.16006430522799492,-0.017533686212508472,-0.008306814104272052
1746576281804873000,5.777873046875,-0.05621756178438663,-0.0014663302424945868,0.024432056007673963
1746576281814890200,5.78789013671875,-0.12205869196057319,-0.008592663574637845,0.0077186298196204005
1746576281824906000,5.797906005859375,-0.08749182097017764,-0.004095304206328001,0.0023859361553099003
1746576281834922000,5.807921875,-0.10290390963554381,-0.007700518774194642,0.004995456500002183
1746576281844938000,5.81793798828125,-0.08763853596448898,-0.00730018977841828,-0.00035116522496100514
1746576281854954000,5.8279541015625,-0.0779126762419939,0.003803582117601763,0.008995472221868112
1746576281864971300,5.83797119140625,-0.10499649800062179,-0.007492358199518639,0.00828720065492671
1746576281874987000,5.847987060546875,-0.09541852231621742,-0.003250398364383727,-0.004718301792745478
1746576281885003000,5.8580029296875,-0.09152911366224288,-0.009432349818770308,-0.000968411207315512
1746576281895019000,5.86801904296875,-0.09586860417127609,0.005357241300388705,0.014374749540840275
1746576281905035000,5.878034912109375,-0.0993102690577507,-0.0007765487468917854,0.013341785197332501
1746576281915051000,5.888051025390625,-0.10574468601942062,-0.0007879423571634106,-0.002163151116948575
1746576281925068000,5.898068115234375,-0.1032008467555046,-0.005081933773634955,-0.005446853529312647
1746576281935084000,5.908083984375,-0.09661679219007492,0.001603448574687354,0.008777646486414596
1746576281945100000,5.91810009765625,-0.09078151016533374,-0.002009188964520581,0.015581974472710862
1746576281955116000,5.928115966796875,-0.08763912048637866,0.0020774821274913845,0.01659756298973225
1746576281965132000,5.938132080078125,-0.09751461781263351,-0.0023791433716309255,0.001999672217504121
1746576281975148000,5.94814794921875,-0.0928752675741911,-0.006975435353058856,-0.0036477408186299724
1746576281985165000,5.9581650390625,-0.09482055642306804,-0.006083811142423655,0.006223865783796645
1746576281995181000,5.96818115234375,-0.09092822515964508,-0.003617916502524167,0.005662327477475628
1746576282005197000,5.978197021484375,-0.09646306293308735,-0.010102791859663557,0.012850152055756188
1746576282015213000,5.988213134765625,-0.09242167858779429,-0.0018640745555399917,0.009326695203920826
1746576282025229000,5.99822900390625,-0.09645955580174922,-0.005825242404628079,0.009788965253694914
1746576282035245000,6.0082451171875,-0.08149637994766235,0.007140918979921844,-0.0032991237437818197
1746576282045262000,6.018261962890625,-0.09241934050023555,-0.01632221436378313,-0.009358830208121798
1746576282055278000,6.028278076171875,-0.09645897127985954,-0.00035065148501889777,0.009935762446396984
1746576282065294000,6.038294189453125,-0.10349076961278915,-0.007917090984189417,0.013686908840574323
1746576282075310000,6.04831005859375,-0.09256664001643657,-0.003239502511033788,-0.0008588727185036987
1746576282085326000,6.058326171875,-0.09002280075252056,-0.009076654549164231,0.004662370354426093
1746576282095342000,6.068342041015625,-0.10049743301570414,-0.0024008346136310138,0.009354665489657781
1746576282105359000,6.078359130859375,-0.09122165514826774,-0.005591351450362708,0.010592851815372705
1746576282115375000,6.088375,-0.10498889921605586,-0.002049817802431062,-0.006321636203001253
1746576282125391000,6.09839111328125,-0.0888268689662218,-0.002598487494024448,0.001746546839806251
1746576282135406800,6.10840673828125,-0.09047288260757923,-0.008225229918176773,0.021971305617061444
1746576282145422800,6.1184228515625,-0.0879296278655529,-0.007566651845013257,0.00484613855665084
1746576282155440000,6.128440185546875,-0.09376549441218375,-0.004889217363263015,-0.0044702087831916286
1746576282165456100,6.1384560546875,-0.09855389773249626,-0.009486260546650737,-0.005780336967110633
1746576282175472000,6.14847216796875,-0.08792904334366321,-0.006163566414325032,0.009989068102790042
1746576282185488000,6.15848779296875,-0.08418868777155876,-0.007528080250159837,0.02018130779459607
1746576282195503900,6.16850390625,-0.08912672869563103,-0.006603206790471449,0.009592501966678537
1746576282205520100,6.17852001953125,-0.09885317294001579,-0.004392134011723101,-0.003551687432476319
1746576282215537200,6.188537109375,-0.09331658160090446,-0.010206049021449871,0.002094099902152084
1746576282225553200,6.19855322265625,-0.08314180906713009,-0.007875925573450513,0.005793100550561212
1746576282235569000,6.20856884765625,-0.09601122751235962,-0.006400272663473152,0.01109369117671158
1746576282245585000,6.2185849609375,-0.08808043451309204,-0.008138111040438526,0.0017906234435504302
1746576282255601000,6.228600830078125,-0.09571195230484009,-0.000041912046121433375,-0.004205740027572028
1746576282265617200,6.2386171875,-0.10020166493952273,-0.002735386630508583,0.009589204897894523
1746576282275634200,6.24863427734375,-0.08927753534317016,0.0029430791310151106,0.008029412801843137
1746576282285650000,6.25864990234375,-0.09451426695287227,-0.003928235977154691,0.005922215956100262
1746576282295666000,6.268666015625,-0.08793021238744259,-0.0058635468547116034,0.008884285198664292
1746576282305682000,6.278681884765625,-0.0873322464942932,-0.007445005076588131,0.01081258638012223
1746576282315698200,6.2886982421875,-0.09855565129816532,-0.008325244810106233,0.0031278405637945976
1746576282325714200,6.298714111328125,-0.08493921387791634,-0.004030257879791315,0.002126897060056217
1746576282335731000,6.30873095703125,-0.09990355877578258,0.0035712437996058724,0.0123570028105285
1746576282345747000,6.318746826171875,-0.08718436245620251,0.0005935796956880949,0.007177691343333572
1746576282355763000,6.328762939453125,-0.08628653683364391,-0.006614901794842444,0.0024734683082904664
1746576282365779200,6.338779296875,-0.10169804097712039,-0.0052598156577674665,0.00014443170567974447
1746576282375795200,6.348795166015625,-0.10573825627863406,-0.0052045463731512425,0.009262731156195513
1746576282385811200,6.358811279296875,-0.10050152466893196,0.0012431296456023118,0.009841330195171758
1746576282395828000,6.368827880859375,-0.0912234087139368,-0.004037991378386505,0.005940537064080126
1746576282405844000,6.378843994140625,-0.09286942235529422,-0.0000794127786066383,0.007517947015212848
1746576282415860000,6.38885986328125,-0.09032499856948852,-0.0093800236932002,0.013139175297319889
1746576282425876200,6.398876220703125,-0.09960136095881461,-0.0016767352898954414,0.004294308793591335
1746576282435892200,6.408892333984375,-0.09615911155045032,-0.010424724140274337,-0.0008685584288788959
1746576282445908000,6.418907958984375,-0.08942483485937118,0.004002872115944046,0.003826408154051751
1746576282455925000,6.428925048828125,-0.0972054057329893,0.0007655980946146883,0.012588546544080599
1746576282465941000,6.43894091796875,-0.09062018212378024,-0.00416130494751269,0.0010486870690248906
1746576282475957200,6.448957275390625,-0.08882511540055274,-0.008345876606181264,-0.009158375732577405
1746576282485973000,6.458972900390625,-0.09526011688411236,-0.0048765816439758055,-0.006914113070280291
1746576282495989000,6.468989013671875,-0.08313888645768165,-0.004668975908437278,0.01502881126909051
1746576282506005000,6.4790048828125,-0.09047054452002048,-0.00526505352188833,0.014245634135301223
1746576282516022500,6.4890224609375,-0.09226736480891704,-0.0036720098934951238,0.007104452577186748
1746576282526038500,6.49903857421875,-0.10004852020442485,-0.004939374364633113,-0.00124216381451115
1746576282536054300,6.50905419921875,-0.0954103390097618,-0.0015070983610115944,0.012625111128226852
1746576282546070300,6.5190703125,-0.09406360057592392,0.005754718468664214,0.017694505080697125
1746576282556086500,6.52908642578125,-0.08373685235083103,-0.00681528777172789,0.009552206488908269
1746576282566102500,6.5391025390625,-0.09466039742529392,-0.004859406746888999,0.007455973995174281
1746576282576119300,6.549119384765625,-0.10154431172013283,-0.001295622451242525,0.008428782816394231
1746576282586135300,6.55913525390625,-0.09675590839982032,-0.008763688743009698,0.013416996724857017
1746576282596151300,6.5691513671875,-0.08179214802384376,-0.00806270086680306,0.008440203826129436
1746576282606167300,6.579167236328125,-0.09361410324275493,-0.004633626033843029,-0.0011134639675030485
1746576282616183600,6.58918359375,-0.09436287578344345,-0.006865725617599673,-0.00606944240706507
1746576282626200300,6.599200439453125,-0.09540916996598243,-0.0017930939618498085,-0.0001132191500859335
1746576282636216300,6.60921630859375,-0.09107084850072861,0.0020316633745213037,0.013415969244972802
1746576282646232300,6.619232421875,-0.10768062251806258,-0.0021030275607015936,0.00437158898061607
1746576282656248300,6.629248291015625,-0.09870178177058696,-0.002874418358574621,-0.0032000929492525753
1746576282666264600,6.6392646484375,-0.0903214914381504,-0.004612884639913681,0.008975726341782137
1746576282676280600,6.649280517578125,-0.09466039742529392,-0.00455989179406315,0.010661039947066455
1746576282686296600,6.659296630859375,-0.09615618894100189,-0.0035688965788925994,0.013014868497638962
1746576282696313300,6.669313232421875,-0.09481003502905368,-0.0038446744631044564,0.013020782215194775
1746576282706329300,6.679329345703125,-0.09570727612972259,-0.006260724912176374,0.00912426796699874
1746576282716345300,6.689345458984375,-0.09406067796647548,-0.004556775105081032,0.00354575088203419
1746576282726361600,6.699361572265625,-0.08268822008073329,0.001726396817632485,0.005373774593370035
1746576282736377600,6.709377685546875,-0.10004618211686611,-0.0067964026914560235,0.011802711662324144
1746576282746393300,6.719393310546875,-0.08987024053931236,-0.007990512413426767,0.0005203843120252713
1746576282756410400,6.729410400390625,-0.09795008662045002,-0.0028436852935934437,0.0020021381692262364
1746576282766426400,6.73942626953125,-0.09914777197241782,-0.010305844717670697,0.006206142897438258
1746576282776442600,6.749442626953125,-0.09884849676489829,-0.00039015694492263716,0.0005243709339760244
1746576282786458400,6.759458251953125,-0.08837327997982501,-0.008284764385956805,0.004422401285823435
1746576282796474400,6.769474365234375,-0.10318740275204182,-0.005103264256031252,0.002034190975036472
1746576282806491400,6.779491455078125,-0.09735212072730064,0.0013769600421655922,0.0096481137445895
1746576282816507400,6.78950732421875,-0.09331132090389728,0.0034301593950600362,0.01672467823443003
1746576282826523400,6.7995234375,-0.09660334818661212,-0.0008147047832142561,0.005338045692862943
1746576282836539400,6.809539306640625,-0.08463233988583087,-0.003603476985218003,-0.01053291092221625
1746576282846555400,6.819555419921875,-0.08777472956478595,-0.00551488639737945,0.003574383321474306
1746576282856571400,6.8295712890625,-0.08478139296770096,-0.008620355299161747,0.00992487572620157
1746576282866588400,6.83958837890625,-0.09600421324968338,-0.002363854470953811,0.021259467553277497
1746576282876604400,6.8496044921875,-0.0998942064255476,-0.005091642316896468,0.0041775185800855975
1746576282886620400,6.859620361328125,-0.07804711627662181,-0.01210659226301359,0.002334288166463375
1746576282896636400,6.869636474609375,-0.09151508513689041,-0.0006832490068278275,0.0032942283729556947
1746576282906652400,6.87965234375,-0.08523030577898025,0.005949814065790269,0.0037006948485737664
1746576282916668400,6.88966845703125,-0.09705109195411205,-0.0013287803687504491,0.0057094134556362405
1746576282926685400,6.899685546875,-0.09480711241960525,-0.0011945960624492726,0.005676780694513581
1746576282936701400,6.909701416015625,-0.10438333453834056,0.00001207403028383851,0.005913233498623594
1746576282946717400,6.919717529296875,-0.09031681526303291,-0.0009925501347286627,0.005767386153992265
1746576282956733400,6.9297333984375,-0.09450725269019603,-0.0030691600459627805,0.002638056886009872
1746576282966749400,6.93974951171875,-0.09360942706763743,-0.005730017852247692,0.007889433508994988
1746576282976765400,6.949765380859375,-0.09675123222470283,-0.006224703750724438,0.015116256657103075
1746576282986781400,6.959781494140625,-0.08777356052100659,-0.00038278192264260723,0.004524016763083637
1746576282996798500,6.969798583984375,-0.09510638762712478,-0.005616177647653967,0.0018116707981564104
1746576283006814500,6.979814453125,-0.09525485618710518,-0.00346934062797809,0.006511806746548973
1746576283016830500,6.98983056640625,-0.10348433987200259,0.0017130076130968518,0.013857470501353964
1746576283026846500,6.999846435546875,-0.08896890778541565,0.0021365416712360455,0.014197552643297239
1746576283036862500,7.009862548828125,-0.09315876069068908,-0.00620781426471658,0.008957176904939114
1746576283046878500,7.01987841796875,-0.09854571442604064,0.0019799126376863567,0.004465893367677927
1746576283056895500,7.0298955078125,-0.0991442648410797,-0.00009408975793048739,0.006919985688640736
1746576283066911500,7.039911376953125,-0.0979465794891119,0.0029065487961983305,0.010842871920531615
1746576283076927500,7.049927490234375,-0.09196165986061096,0.002213684860942885,0.0077668665752513326
1746576283086943500,7.059943603515625,-0.09734861359596252,-0.0024024443321162834,0.002421331695676781
1746576283096959200,7.069959228515625,-0.09645078797340392,0.004030483925365843,0.008702663287753239
1746576283106975200,7.079975341796875,-0.09016659313738346,-0.0027678709778701884,0.005662304644589312
1746576283116992500,7.089992431640625,-0.10213818596005439,-0.0004140332941431552,-0.00021166998930275438
1746576283127008500,7.100008544921875,-0.09734919811785221,0.00041375473293010144,0.006768471221625804
1746576283137024500,7.1100244140625,-0.09420563939511775,-0.010067891792929731,0.005851274178316816
1746576283147040300,7.120040283203125,-0.09270984787940978,-0.012590466789819765,0.012624581405264325
1746576283157056300,7.13005615234375,-0.08358195405006408,0.0008046628798125311,0.0016144859919324517
1746576283167072500,7.140072509765625,-0.13460779241025447,-0.01416719175436301,0.014305214268853887
1746576283177089500,7.150089599609375,-0.0705623134791851,0.004388352885749191,-0.0002728621246293187
1746576283187105500,7.16010546875,-0.0906137523829937,0.002788306411122903,0.003612395510612987
1746576283197121300,7.170121337890625,-0.09270809431374072,-0.003104461971495766,-0.0012648460037773474
1746576283207137300,7.18013720703125,-0.09629998132586479,-0.003068520725145936,0.003872927876631729
1746576283217153300,7.1901533203125,-0.10303425801694392,-0.001268003791954834,0.016726737760775722
1746576283227169500,7.20016943359375,-0.08193594040870666,0.004018775221263058,0.001620472774724476
1746576283237186300,7.210186279296875,-0.09345803589820861,0.0006842422373825684,0.0003165916685014963
1746576283247202300,7.220202392578125,-0.09585165303647518,-0.007227916843362618,-0.004174901931313798
1746576283257218300,7.23021826171875,-0.08627426187396049,-0.0025660967614967375,0.010425550690758973
1746576283267234300,7.240234375,-0.10048983423113822,-0.00433372063866118,0.009073515027295798
1746576283277250600,7.25025048828125,-0.09390636418759822,-0.001478810698154848,0.0031536280255997553
1746576283287266600,7.2602666015625,-0.10767302373349666,-0.010561189451918472,0.006223623755201697
1746576283297283300,7.270283447265625,-0.09929331792294979,-0.006119804904412012,0.004313958775554783
1746576283307299300,7.28029931640625,-0.09121288731992244,-0.00165969739012653,0.011951221321499906
1746576283317315300,7.2903154296875,-0.09719839147031306,-0.0010258998484816402,0.005523366531357169
1746576283327331300,7.300331298828125,-0.0865741216033697,-0.0009732198131736367,0.0022966641363920642
1746576283337347600,7.31034765625,-0.09091361211240291,0.002186509159649722,0.008048528494266793
1746576283347363600,7.320363525390625,-0.09255962575376034,0.0012455704811494797,0.015686494293110444
1746576283357380400,7.33038037109375,-0.08687339681088924,-0.007512387207394931,0.0016066588785033672
1746576283367396400,7.340396240234375,-0.09016542409360408,-0.005199491172120906,0.012363596948096528
1746576283377412400,7.350412353515625,-0.09300912308692931,0.00009279056669911369,0.004642674706690013
1746576283387428600,7.3604287109375,-0.08911912991106509,-0.003515812401496805,0.010130161640490404
1746576283397444600,7.370444580078125,-0.09660217914283276,-0.005228491221030708,0.00363967167660594
1746576283407460400,7.38046044921875,-0.09824936182796955,-0.00496152454764815,0.006628537594550289
1746576283417477400,7.390477294921875,-0.08373451426327227,-0.009381651677994523,0.011717937722010538
1746576283427493400,7.400493408203125,-0.09196516699194908,-0.0005651253527612425,0.0028555081621278074
1746576283437509600,7.410509521484375,-0.10603110174536705,0.0008156180986668914,-0.002253149221651256
1746576283447525400,7.420525390625,-0.08373509878516197,-0.003311670414812397,-0.005375610357429832
1746576283457541400,7.430541259765625,-0.10647884551286697,0.0016878389225108547,0.0035690586923854423
1746576283467557400,7.440557373046875,-0.10258826781511306,0.0008670857077115215,0.0004003655283944681
1746576283477574400,7.450574462890625,-0.09001929362118244,-0.003967232263693585,0.001114614744973369
1746576283487590400,7.46059033203125,-0.08478256201148032,-0.001035421162075363,-0.000496980603551492
1746576283497606400,7.4706064453125,-0.09166764535009861,0.00358426539467182,0.005406644816510379
1746576283507622400,7.480622314453125,-0.09241700241267681,0.010154843990597873,0.011204106448357924
1746576283517638000,7.490637939453125,-0.09032207596004009,-0.0007341937427758239,0.0011153819299535826
1746576283527654000,7.50065380859375,-0.09885141937434673,-0.004744164603075478,0.0016795825508190319
1746576283537670100,7.510670166015625,-0.10259235946834087,-0.008362779791920912,0.010307111942861229
1746576283547687200,7.520687255859375,-0.09615794250667095,-0.009976046507724094,0.010811750696483068
1746576283557703000,7.530702880859375,-0.08987374767065048,-0.00962151799860876,0.007847631060727871
1746576283567719000,7.540718994140625,-0.08613222305476664,-0.0009199392729555256,0.0025164306671824305
1746576283577735000,7.55073486328125,-0.08643091374039649,-0.0016583593829884193,-0.003297507175430655
1746576283587751200,7.560751220703125,-0.09451075982153415,-0.002545133888570126,0.0015950506391003727
1746576283597767200,7.57076708984375,-0.09735270524919032,-0.0022178267465205862,0.0061765651765046635
1746576283607784000,7.580783935546875,-0.08672843538224696,0.0016058186282869428,0.008154683149326592
1746576283617800000,7.590800048828125,-0.09525719427466392,-0.00710526086136233,0.01120250357973855
1746576283627816000,7.60081591796875,-0.09720306764543056,0.006085231347952504,0.004704871489014476
1746576283637832200,7.610832275390625,-0.08987082506120204,-0.0006020803792634978,-0.0011260631541721523
1746576283647848200,7.62084814453125,-0.09017010026872158,0.002737708735046908,0.005399333726312033
1746576283657864200,7.6308642578125,-0.09705343004167079,-0.001080440764024388,0.0004567901570582762
1746576283667881000,7.640880859375,-0.09675415483415126,-0.013105978563905227,0.0062754087413661175
1746576283677897000,7.65089697265625,-0.09854922155737876,-0.0110065700156847,-0.001500563588947989
1746576283687913000,7.660912841796875,-0.08627893804907798,-0.00018698307261802254,0.005645513339992613
1746576283697929200,7.67092919921875,-0.08597966284155845,-0.006558682662155479,0.014803176686516963
1746576283707945200,7.6809453125,-0.09510814119279384,-0.007074171603354625,0.001619956751493737
1746576283717961000,7.6909609375,-0.09256371740698814,-0.0016806876625167205,-0.008047683677473105
1746576283727978000,7.70097802734375,-0.0931622678220272,-0.0010425975382444448,0.0020574394198833034
1746576283737994000,7.710993896484375,-0.09421031557023525,-0.004789643146039452,0.017402244135853832
1746576283748010200,7.72101025390625,-0.08717734819352627,0.004099249729083385,0.010579384979023597
1746576283758026200,7.731026123046875,-0.08987140958309173,-0.001968715390237048,-0.00979752758606337
1746576283768042000,7.7410419921875,-0.09450959077775478,0.01201448439961532,-0.007434022458270192
1746576283778058000,7.75105810546875,-0.09166706082820891,-0.0008029161640093662,0.006710809050523675
1746576283788074000,7.761073974609375,-0.0946609819471836,0.005637503563473001,0.014205932312575168
1746576283798091000,7.771091064453125,-0.08433598728775978,-0.005736568607331719,0.009914116870169527
1746576283808107300,7.781107177734375,-0.08867606231868266,-0.00629092368761776,-0.0033265551734017206
1746576283818123000,7.791123046875,-0.10019815780818461,-0.009030771864112466,0.004138255148776806
1746576283828139000,7.801138916015625,-0.09526070140600204,-0.006314315979648381,0.006496933404402807
1746576283838155000,7.811155029296875,-0.08897650656998157,0.0019487366147106513,0.0034308009991655124
1746576283848171000,7.8211708984375,-0.10064882418513298,-0.0038942743420484474,0.006390427122893743
1746576283858188000,7.83118798828125,-0.10184650953710078,-0.008194885012262966,0.0004850572703173384
1746576283868204000,7.8412041015625,-0.09511340188980102,-0.0031312700633192433,0.005887130942987278
1746576283878220000,7.851219970703125,-0.0829933405071497,0.0012274959683418274,-0.0021434828686760737
1746576283888236000,7.861236083984375,-0.09616144963800907,-0.003263509007706307,-0.002703957162494771
1746576283898252000,7.871251953125,-0.09750818807184695,-0.003252218145423103,0.007261853362293913
1746576283908268000,7.88126806640625,-0.08987725480198859,0.002991683496115729,0.003950271995738148
1746576283918285000,7.89128515625,-0.09691139122247695,0.005401774561859201,-0.002112019151332788
1746576283928301000,7.901301025390625,-0.10633914478123187,0.0038191632792237214,0.000506762212049216
1746576283938317000,7.911317138671875,-0.08404197277724743,-0.0024736509713809934,0.014188652384211308
1746576283948333000,7.9213330078125,-0.10095043748021125,-0.008142684467567596,0.009778133332426659
1746576283958349000,7.93134912109375,-0.09361702585220337,-0.004770484071131795,0.0015861184139735996
1746576283968365000,7.941364990234375,-0.08897709109187125,-0.00870793996778084,0.006552462983923033
1746576283978381000,7.951381103515625,-0.09107201754450797,-0.00534747339162277,0.003464853965817019
1746576283988398000,7.961398193359375,-0.09885317294001579,-0.00023090441273525356,0.01283619659563992
1746576283998414000,7.9714140625,-0.09391513201594352,-0.0028933148552896452,0.009272380333952605
1746576284008430000,7.98143017578125,-0.09271861570775508,0.0002620461863814853,0.005930901586054824
1746576284018446000,7.991446044921875,-0.0900251388400793,0.003989037670125253,0.010743411867739631
1746576284028461800,8.0014619140625,-0.09271744666397572,0.004698971471190453,0.015615502282977103
1746576284038478000,8.01147802734375,-0.09211948077082634,0.004293121483502909,0.009730910356948152
1746576284048495000,8.0214951171875,-0.09062252021133899,0.00029279751767171547,0.004810647118161432
1746576284058511000,8.031510986328126,-0.08867723136246204,-0.0013220378174213692,0.00015091167881619183
1746576284068527000,8.041527099609375,-0.09496201072037219,0.0012578774068737401,0.006733093947567976
1746576284078542800,8.05154296875,-0.10034896445572376,-0.005861829821660649,0.0061279722278472035
1746576284088559000,8.06155908203125,-0.08852759375870227,-0.004220827998849563,-0.005048483595182188
1746576284098575000,8.0715751953125,-0.09496084167659283,-0.008679186514043249,0.0034405643413541838
1746576284108592000,8.081592041015625,-0.09047229808568955,-0.00028969681171001863,0.02206936373063363
1746576284118608000,8.09160791015625,-0.09436287578344345,-0.005340952319290954,0.004658114304416813
1746576284128623900,8.101623779296874,-0.10259294399023056,-0.0011952102670911699,-0.0001695844132453203
1746576284138640000,8.111639892578125,-0.08927519725561141,0.0004568495225626975,0.010489560404256916
1746576284148656000,8.12165625,-0.0976543185442686,0.0003431622983072884,0.0017227504056878387
1746576284158672100,8.131672119140624,-0.09511047928035259,0.0034870018655434247,0.0008066813069628552
1746576284168688000,8.141688232421876,-0.08718027080297469,0.0014236647111247292,-0.00028994112359359857
1746576284178705000,8.151704833984375,-0.09391396297216414,0.005889738458604551,0.0009242021728307009
1746576284188721000,8.161720947265625,-0.09271686214208602,0.0036234306445694525,0.009132300576404668
1746576284198737200,8.171737060546874,-0.08957388794124126,-0.0009126304660458117,0.010430172066949307
1746576284208753200,8.181753173828126,-0.0960077203810215,-0.0006583291947026736,0.005617022464447654
1746576284218769200,8.19176904296875,-0.09211597363948822,-0.012259036028501577,0.01176879112641327
1746576284228785200,8.20178515625,-0.08583177880346775,-0.010672741801303344,0.012937222984433174
1746576284238802000,8.211802001953124,-0.09136895466446876,-0.008083483359927778,0.003741794043942354
1746576284248818200,8.221818115234376,-0.09331541255712508,-0.005550336736673489,0.0016582977341953664
1746576284258834200,8.231834228515625,-0.0984036756068468,-0.010967505230486858,-0.005458813395164907
1746576284268850200,8.24185009765625,-0.09017419192194938,-0.0022118376804399304,0.007996944437501952
1746576284278866200,8.2518662109375,-0.09780629423558712,-0.00265217217633035,0.001965760814747773
1746576284288882000,8.2618818359375,-0.10020108041763305,0.004509191369998734,-0.001081050402089022
1746576284298899000,8.27189892578125,-0.08912848226130009,0.0013479736929875798,0.004903426268417388
1746576284308915200,8.281915283203125,-0.09750877259373664,-0.00017522185287671162,0.010641170769394375
1746576284318931200,8.29193115234375,-0.09122516227960586,-0.001154433015419636,0.0038000772695522753
1746576284328947000,8.301947021484375,-0.08942951103448868,-0.00210614196639508,-0.0011754872198915108
1746576284338963000,8.311962890625,-0.09301964448094367,-0.001529746300948318,-0.0006834202534751966
1746576284348979000,8.32197900390625,-0.09316869756281375,-0.007070006884890608,-0.0020244961315067484
1746576284358995000,8.331994873046876,-0.08703297128677367,-0.00483982754687313,-0.00291209718757309
1746576284369012200,8.34201220703125,-0.08508709791600703,-0.0035143625132157464,0.0001089722332311794
1746576284379028000,8.352028076171875,-0.08718319341242313,-0.0001804802665952593,0.008128836322017014
1746576284389044000,8.3620439453125,-0.0964607248455286,0.0001725732380640693,0.006020598296658136
1746576284399060000,8.37206005859375,-0.09960253000259399,-0.006020584596926346,0.0029951129956403747
1746576284409076000,8.382075927734375,-0.09556231470108031,-0.004777322520583402,0.0012100881758145988
1746576284419092000,8.392092041015625,-0.08613573018610476,-0.010829357135121244,0.009845677576726303
1746576284429109000,8.40210888671875,-0.09601064299046992,-0.0018262107801623642,0.012512449100567027
1746576284439125000,8.412125,-0.09376549441218375,-0.004527626642410178,-0.003060657079098746
1746576284449141000,8.42214111328125,-0.09870295081436634,0.0006992799763102084,-0.007057183935935608
1746576284459157000,8.432156982421875,-0.10633446860611438,-0.001127855535747949,0.005266414361912757
1746576284469173000,8.442173095703126,-0.08852700923681259,0.00374686294470448,0.005767934143263847
1746576284479189200,8.452189208984375,-0.09107084850072861,-0.0003196078927838243,0.010905424895882606
1746576284489205200,8.462205322265625,-0.08598375449478626,0.006224715167167596,0.0034292437963187694
1746576284499222000,8.472221923828124,-0.10468845496475696,0.0014064304485335013,-0.004883328761882149
1746576284509238000,8.482238037109376,-0.08897650656998157,-0.004463171687629074,0.0006246895032934845
1746576284519254000,8.49225390625,-0.09825403800308703,-0.0028760463433689437,0.007011696259817108
1746576284529270300,8.502270263671875,-0.08732990840673446,-0.00864447139368858,0.00878987121374812
1746576284539286000,8.5122861328125,-0.09900281054377555,-0.0035588295593159272,0.008783226843830198
1746576284549302000,8.522302001953125,-0.09855389773249626,-0.006889937610249035,-0.0007563210929045453
1746576284559319000,8.532319091796875,-0.09735738142430782,-0.006469285062362906,-0.0020711848174454644
1746576284569335000,8.5423349609375,-0.10109890604019164,-0.008864694582205266,0.002497598102549091
1746576284579351300,8.552351318359374,-0.09286883783340454,-0.0008359439340652898,0.0013274126788601279
1746576284589367000,8.562366943359375,-0.09556114565730095,0.0013151833849493414,0.005965735437418334
1746576284599383000,8.572383056640625,-0.09167115248143673,-0.003845701942988671,0.002945561065757647
1746576284609399000,8.58239892578125,-0.09885375746190547,-0.00429435902594123,-0.0027395992980338633
1746576284619415000,8.5924150390625,-0.09975216760635375,0.0016930653701885603,0.007071833515795879
1746576284629432300,8.602432373046875,-0.09705810621678829,-0.002717433131998405,0.0065778622866608195
1746576284639448000,8.612447998046875,-0.09601005846858024,-0.006882099080376792,0.0006379599768202752
1746576284649464000,8.622464111328124,-0.08912672869563103,-0.008232915467710699,-0.005638024153281003
1746576284659480000,8.63247998046875,-0.08852759375870227,-0.003459100078465417,0.009456070904363878
1746576284669496000,8.64249609375,-0.1036409917384386,-0.006108979833009652,0.016388829309609717
1746576284679512000,8.652511962890625,-0.0966086088836193,-0.002282793157955166,0.009451152700651437
1746576284689529000,8.662529052734374,-0.08284194933772086,-0.005341653288900852,0.0018314760437468066
1746576284699545000,8.672545166015626,-0.09451368243098258,-0.006732979783136397,0.00933163167394232
1746576284709561000,8.68256103515625,-0.08867781588435172,-0.00240472533745924,0.008150760459457524
1746576284719577000,8.6925771484375,-0.09615852702856063,-0.008014283731370232,0.013577872675261459
1746576284729593000,8.702593017578126,-0.09735562785863876,-0.004549329300853423,0.004893009905680082
1746576284739609000,8.712609130859375,-0.09436404482722281,-0.002747035969106946,0.006660891794459894
1746576284749625000,8.722625,-0.09795593183934688,-0.0005016727616894059,0.0006082406919915229
1746576284759642000,8.73264208984375,-0.09271744666397572,-0.00031652088655391707,-0.0035564686388708648
1746576284769658000,8.742658203125,-0.09660802436172962,-0.005649223684018943,-0.007377246203157119
1746576284779674000,8.752674072265625,-0.0966086088836193,-0.006336443329777103,0.006087421021750196
1746576284789690000,8.762690185546875,-0.0939157165378332,-0.004511846834677272,0.006957107395213097
1746576284799705900,8.772705810546874,-0.09645955580174922,-0.007660727903211955,0.00839807258429937
1746576284809722000,8.78272216796875,-0.09137246179580688,-0.004731120175123215,0.002489213866693899
1746576284819739100,8.7927392578125,-0.08957797959446906,-0.007049658216605894,0.003820741031668149
1746576284829755100,8.802755126953125,-0.09316869756281375,-0.002508028165018186,0.012554571209242566
1746576284839771100,8.812771240234374,-0.0990051486313343,-0.0069874523011269046,0.002920033898856491
1746576284849787000,8.822786865234375,-0.0855371797710657,-0.0015511840979102998,0.0019314795192331075
1746576284859803100,8.83280322265625,-0.09511281736791133,0.00401499637857778,0.008994385376479477
1746576284869819100,8.842819091796875,-0.09002572336196898,-0.006452306528098415,0.007172403246862813
1746576284879835100,8.852835205078126,-0.09361702585220337,0.0008328181119286454,0.009330439797276631
1746576284889852200,8.86285205078125,-0.08628361422419548,-0.00021529813493834806,0.0033093665765831243
1746576284899868000,8.872867919921875,-0.1013970122039318,-0.005095243063068483,0.005721775180287659
1746576284909884000,8.8828837890625,-0.09167056795954703,-0.007244112209626473,0.011612577651394531
1746576284919900200,8.892900146484376,-0.08897592204809188,-0.009585021913121454,0.0009301387232728301
1746576284929916200,8.902916259765625,-0.09810440039932727,-0.004268836425617337,0.009684970589680597
1746576284939932200,8.91293212890625,-0.09735621238052844,-0.0012388324963976628,0.02170359915816225
1746576284949948200,8.9229482421875,-0.09630816463232039,0.0051025427368236705,0.005003365811822005
1746576284959965000,8.93296484375,-0.09301730639338493,0.0006748716208385303,0.007856193393096327
1746576284969981200,8.942981201171875,-0.09780629423558712,0.002018116623070091,-0.00134015342942439
1746576284979997200,8.9529970703125,-0.08912672869563103,-0.004221264106978196,0.012738398776971735
1746576284990013200,8.96301318359375,-0.09032499856948852,-0.003841987032385077,0.00915866799352225
1746576285000029200,8.973029296875,-0.1043903488010168,0.0010015120426076463,0.009509531824383884
1746576285010045000,8.983044921875,-0.09840601369440555,0.001937249389605131,0.00217803815882653
1746576285020062000,8.99306201171875,-0.1006517467945814,-0.000009388882853090763,0.012010669024311936
1746576285030078200,9.003078125,-0.10529051251113414,0.0008828449658467433,0.008112620406155475
1746576285040094200,9.01309423828125,-0.10229717591404915,-0.006640949551551602,0.006542722474620677
1746576285050110200,9.023110107421875,-0.1012491281658411,0.00009692788569955154,0.0014338139290921389
1746576285060126000,9.0331259765625,-0.09691022217869757,0.0006981269155512563,0.004355053404346108
1746576285070142000,9.043141845703126,-0.08957856411635876,-0.0006662019739043898,0.01297485614765901
1746576285080158000,9.053157958984375,-0.08838204780817031,-0.004839256724715232,0.0009108586340676992
1746576285090175200,9.06317529296875,-0.09107552467584609,-0.004569584354304243,-0.003736368950153701
1746576285100191200,9.073191162109374,-0.08808335712254046,-0.003895352054282557,0.007025596921006217
1746576285110207000,9.08320703125,-0.0945171895623207,-0.003409402018110268,0.005401790544879622
1746576285120223000,9.093222900390625,-0.08509002052545547,-0.0038302714784163978,0.008237621325580403
1746576285130239000,9.103239013671875,-0.08853168541193007,-0.0014650835669017396,0.0050680194127140565
1746576285140255000,9.1132548828125,-0.09002864597141742,0.00017889338099630548,0.003335875557595864
1746576285150271200,9.123271240234375,-0.08958148672580718,0.00009483639331301674,-0.0001179866567486897
1746576285160288000,9.1332880859375,-0.0889841053545475,-0.004612501047423574,0.004236354361544363
1746576285170304000,9.143303955078125,-0.0837467892229557,-0.00012421775142429397,-0.0003975342504912987
1746576285180320000,9.153320068359376,-0.12280161928236484,-0.007937451068917288,0.002349736897344701
1746576285190336000,9.1633359375,-0.07312135031223296,0.0017568421882460823,-0.009865957746352069
1746576285200352300,9.173352294921875,-0.10289981798231601,-0.006791078062367159,0.007244189841439947
1746576285210368300,9.1833681640625,-0.08763678239881992,-0.004211562413582578,0.01168828236926347
1746576285220385000,9.193385009765626,-0.09436989004611969,-0.007654330128466245,0.0015668520245002582
1746576285230401000,9.203401123046875,-0.09990765042901038,-0.005049068117071874,0.0013661418206291273
1746576285240417000,9.2134169921875,-0.08584171567559241,-0.005041396267269738,0.002954210163094103
1746576285250433000,9.22343310546875,-0.10514496656060218,-0.009068423293647355,0.010156136331963352
1746576285260449300,9.23344921875,-0.08389701134860515,-0.005213190903910436,0.015078504762868396
1746576285270465000,9.243465087890625,-0.09541969135999678,-0.0072223798684310165,0.010873979444848372
1746576285280481000,9.25348095703125,-0.09467208786308765,-0.009771041437936947,-0.005323218016489409
1746576285290498000,9.263498046875,-0.08434650868177414,0.00010518654068000614,0.007760372902383096
1746576285300514000,9.27351416015625,-0.09287585209608078,-0.004065409108274616,0.011363128368393517
1746576285310530300,9.2835302734375,-0.09721534260511398,-0.0034741629335680044,0.00731443749947939
1746576285320546000,9.293546142578125,-0.09302607422173023,-0.008638135267735924,0.007277429957338609
1746576285330562000,9.30356201171875,-0.0984124434351921,-0.0019131698276964016,0.0003215327051002532
1746576285340578000,9.313578125,-0.10245265873670577,-0.003505398322048131,0.011051477736490779
1746576285350594000,9.323593994140625,-0.09467208786308765,-0.0054696978320716875,0.013385309245227836
1746576285360611300,9.333611328125,-0.09586860417127609,-0.005256157829379662,0.004073834443325176
1746576285370627000,9.343626953125,-0.08928571864962577,-0.007938743410282768,0.002564429960795678
1746576285380643000,9.35364306640625,-0.08838847754895686,-0.003590032981755212,0.009153726956923491
1746576285390659000,9.3636591796875,-0.08539572547376155,-0.012687410658539738,0.012146173071442171
1746576285400675000,9.373675048828124,-0.09766542446017265,-0.011854887090844568,0.013109469712222925
1746576285410691000,9.383691162109375,-0.09063128803968429,-0.009431130542641039,-0.0026464365552878004
1746576285420708000,9.3937080078125,-0.09945990666151046,-0.003486944783327635,0.0012001421705354004
1746576285430724000,9.40372412109375,-0.08928630317151547,-0.012452124614920467,0.0025385511674452573
1746576285440740000,9.413739990234374,-0.09272855257987976,-0.008158484824898187,0.0016552655268926172
1746576285450756000,9.423756103515625,-0.09018588235974312,-0.007596674807230011,0.001806848492566496
1746576285460772000,9.433772216796875,-0.09991349564790725,-0.007662246290151961,0.015137335977749898
1746576285470788000,9.4437880859375,-0.09916589215099811,-0.00521791274480056,0.004475154386367648
1746576285480804000,9.45380419921875,-0.09527589897513389,0.00023575640107737853,-0.003101788240508176
1746576285490821000,9.463821044921875,-0.0870452462464571,-0.007004229905991814,-0.007776022562664002
1746576285500837000,9.473837158203125,-0.09093640846610068,-0.003103082865162287,-0.005106547625083476
1746576285510853000,9.48385302734375,-0.08779343426525592,-0.015721220829908268,0.016879119877470657
1746576285520869400,9.493869384765626,-0.09422785122692584,-0.006072919855650979,0.008046637931279837
1746576285530885400,9.503885498046875,-0.09751987850964068,-0.009976973522908519,0.002806084096408449
1746576285540901400,9.5139013671875,-0.0922819778561592,-0.011164612404897342,-0.0030542227717349304
1746576285550917400,9.52391748046875,-0.0940770445793867,-0.011173099388740957,0.010392963595408946
1746576285560934700,9.5339345703125,-0.09587269582450389,-0.003946504569496028,0.008011534651857801
1746576285570950400,9.543950439453125,-0.0897375540703535,-0.0065877238102606496,0.004281764405849389
1746576285580966400,9.55396630859375,-0.09318038800060749,-0.0031002858365885913,0.005096067330264486
1746576285590982400,9.563982421875,-0.09737199447154998,-0.009463087450328748,-0.00652120476255659
1746576285600998400,9.573998291015625,-0.08869359797537327,-0.002250708386104088,-0.01378043690950144
1746576285611014400,9.584014404296875,-0.09527823706269263,-0.007006042837165296,-0.008759517174679786
1746576285621030700,9.59403076171875,-0.08839373824596404,-0.0030239920302527023,0.008090531871933489
1746576285631047400,9.60404736328125,-0.09183540313243865,0.00464110380411148,0.006792738013202324
1746576285641063400,9.6140634765625,-0.09677344405651092,-0.00542165515597444,0.01179481148365885
1746576285651079400,9.624079345703125,-0.10889350543916225,-0.005878360831353347,-0.005091308956756256
1746576285661095400,9.634095458984374,-0.08764496570527552,-0.007157349524914753,-0.00555194873844739
1746576285671111400,9.644111328125,-0.08150865490734577,-0.004325329552940092,0.016067684763576836
1746576285681127400,9.65412744140625,-0.09078560181856155,-0.004584866405115463,0.010671547641349024
1746576285691143400,9.664143310546875,-0.0972188497364521,-0.0022113536232500337,0.0037291720243869345
1746576285701160400,9.674160400390624,-0.09736790281832218,-0.004478330440854188,0.0031002493039704857
1746576285711176400,9.684176513671876,-0.10200491496920586,-0.009851534212066325,0.007191368242236785
1746576285721192400,9.6941923828125,-0.08794014925956725,-0.009565657342236954,0.003083818758977577
1746576285731208400,9.70420849609375,-0.08419862464368343,-0.01332842795883771,0.0030311478568241
1746576285741224400,9.714224365234376,-0.09572013561129569,-0.014212069792416878,0.004725827512075193
1746576285751240400,9.724240478515625,-0.09168050483167171,-0.009306641079869586,0.013171091105812228
1746576285761257500,9.734257568359375,-0.09242869285047053,-0.009568865362764335,0.007672416057717055
1746576285771273500,9.7442734375,-0.09766600898206233,-0.0013241224599420092,-0.001285518899047747
1746576285781289500,9.75428955078125,-0.0883873085051775,-0.0079996729674167,0.008633159981807694
1746576285791305500,9.764305419921875,-0.08943418720960616,-0.00924925518669188,0.02176623889848124
1746576285801321500,9.774321533203125,-0.10005787255465984,-0.010425536991027183,0.008961661283811553
1746576285811337500,9.78433740234375,-0.09586860417127609,-0.004905577126308344,-0.008471973504149355
1746576285821353500,9.794353515625,-0.09736381116509436,-0.006977755174308549,-0.0007543665978359058
1746576285831370200,9.804370361328125,-0.08808569521009922,-0.005829562386719044,0.011128520461497827
1746576285841386500,9.814386474609375,-0.08733750719130039,-0.0010381108760833739,0.007790083054057322
1746576285851402500,9.824402587890624,-0.09526946923434734,-0.000311253339680843,0.005889738458604551
1746576285861418500,9.83441845703125,-0.08823767090141772,-0.008184048524417448,0.006427713226247579
1746576285871434500,9.8444345703125,-0.09781330849826335,-0.01244877959707519,0.006704680703836493
1746576285881450500,9.854450439453124,-0.09751344876885414,-0.012958297738502733,0.006481073681567795
1746576285891466500,9.864466552734376,-0.09197744195163249,-0.00809964676015079,0.007001375795202329
1746576285901483500,9.8744833984375,-0.1011053357809782,-0.006474130200839135,0.0026382897814502936
1746576285911499500,9.88449951171875,-0.09586743512749671,-0.00988625846557552,0.007770474171289243
1746576285921515500,9.894515625,-0.0910796163290739,-0.0037865647674305363,-0.0003441098630893975
1746576285931531500,9.904531494140626,-0.09422200600802898,-0.008460139219171832,0.003341213886416517
1746576285941547500,9.914547607421875,-0.08314882332980632,-0.01418754727251362,0.006466766595002263
1746576285951563300,9.924563232421875,-0.09317395825982093,-0.006955757971631828,0.008149020593520254
1746576285961579500,9.93457958984375,-0.09751403329074382,-0.004491858925996348,0.0012022656289627776
1746576285971596500,9.944596435546876,-0.09137830701470374,-0.003147629826364573,-0.00535297840051353
1746576285981612500,9.954612548828125,-0.09122866941094399,-0.0035366519768373107,0.0018665747565915808
1746576285991628300,9.964628173828125,-0.0967652607500553,-0.008502398325165268,0.009622979303332977
1746576286001644300,9.974644287109374,-0.07222527825534343,-0.009155948596762028,0.002187230678857304
1746576286011660500,9.98466064453125,-0.09676467622816562,-0.009146927323378622,0.01295245708618313
1746576286021676500,9.994676513671875,-0.08748772931694984,-0.010300296326295937,0.00015164689775556324
1746576286031692500,10.004692626953124,-0.11262743127048015,-0.012546230355871374,0.01278433854423929
1746576286041709300,10.014709228515626,-0.06115209557712078,-0.005633115082723088,-0.008613802260789089
1746576286051725300,10.024725341796875,-0.12175590962171554,-0.010464238733332604,0.004290427202917635
1746576286061741300,10.0347412109375,-0.08150339421033859,0.0026851885299431157,0.0036915068951202555
1746576286071757600,10.044757568359374,-0.0927267990142107,-0.004716808521980419,0.011718252815841696
1746576286081773600,10.054773681640626,-0.10425006354749203,-0.004701177128008566,0.012108151749148964
1746576286091789600,10.06478955078125,-0.07387304546236992,0.007299552740890066,-0.007722657540766522
1746576286101805600,10.0748056640625,-0.10035890132784843,-0.0021432910724310202,0.0014265759041300042
1746576286111822300,10.084822265625,-0.09527180732190609,-0.004737419768457767,0.008414530528755858
1746576286121838600,10.094838623046876,-0.09706687404513359,-0.0062793474142556075,0.011782796818879433
1746576286131854600,10.1048544921875,-0.0922778862029314,-0.009039583074941765,0.0061413248997647316
1746576286141870600,10.11487060546875,-0.10185527736544608,-0.013934917368448804,0.006985625670221634
1746576286151886300,10.12488623046875,-0.09916238501965999,-0.01726186526749516,0.0044333017057506365
1746576286161902300,10.13490234375,-0.08973580050468444,-0.013294964080653152,-0.000531426295847632
1746576286171918300,10.14491845703125,-0.09871405673027038,-0.01061308631922584,0.00880626065954566
1746576286181935600,10.154935546875,-0.09392506888806819,-0.008484234764100984,0.006180679662618786
1746576286191951600,10.16495166015625,-0.08569558520317078,0.0021039819753495975,0.01222626170348376
1746576286201967400,10.17496728515625,-0.09302782778739929,-0.0021510154378716834,0.017036123370355927
1746576286211983400,10.1849833984375,-0.09197978003919124,0.0006844317503389902,0.0021405967918457463
1746576286221999400,10.194999267578124,-0.09063362612724303,-0.0000409188155666925,0.006126716419099829
1746576286232015400,10.205015380859376,-0.08883797488212584,0.0017493507182458415,0.0023183919110102576
1746576286242031600,10.215031494140625,-0.10140694907605648,0.001364479586505331,0.002377200293005444
1746576286252048400,10.22504833984375,-0.0886877527564764,-0.0016311813984066247,0.005537710150540806
1746576286262064400,10.235064453125,-0.08913783461153507,-0.003628718741040211,-0.0031728852819185704
1746576286272080400,10.245080322265625,-0.09302899683117866,-0.01304662219263846,-0.0019381558551918713
1746576286282096400,10.255096435546875,-0.08794073378145695,-0.019559595699678176,0.016030421493109313
1746576286292112400,10.2651123046875,-0.09332710299491882,-0.01822123465182958,0.013807553245290182
1746576286302128600,10.275128662109376,-0.10095862078666687,-0.019967623944720254,0.009618978981650433
1746576286312144600,10.28514453125,-0.09242927737236023,-0.01789129487798782,0.01695792530130129
1746576286322161400,10.295161376953125,-0.09557283609509468,-0.012913976822874974,0.01097767271476332
1746576286332177400,10.305177490234374,-0.09647066171765327,-0.006070488153258338,0.009283230521529913
1746576286342193400,10.315193359375,-0.09901508550345897,-0.0052017904437729155,-0.0022828000078210604
1746576286352209700,10.325209716796875,-0.08928922578096389,-0.006302178017282858,0.00991821765655186
1746576286362225400,10.335225341796875,-0.0886918444097042,-0.0008943207745091058,0.00952243697172962
1746576286372241400,10.345241455078124,-0.09407938266694545,0.005536938398983329,-0.0082211405482376
1746576286382257400,10.35525732421875,-0.09841945769786835,0.003864333578222431,0.006085726821585558
1746576286392274400,10.3652744140625,-0.07941548202037811,-0.01086756340379361,0.00022726485065650194
1746576286402290400,10.37529052734375,-0.0981201824903488,-0.008203538676176686,0.007862129943538456
1746576286412306400,10.385306396484374,-0.10141162525117396,-0.012865728650800884,0.012969782680319621
1746576286422322400,10.395322509765625,-0.08764555022716522,-0.00891265962648904,-0.001738984587858431
1746576286432338400,10.40533837890625,-0.09931669879853725,-0.007850350457488093,0.006962203695438802
1746576286442354400,10.4153544921875,-0.09467793308198451,-0.007916250733972991,0.0075837102943798525
1746576286452370400,10.425370361328126,-0.08854279132783413,-0.010662711314344778,-0.0009634793038712814
1746576286462387500,10.435387451171875,-0.10485329013764857,-0.014390186855278443,0.0006553586361929774
1746576286472403500,10.445403564453125,-0.10455343040823936,-0.009092116979777347,0.003293155227298848
1746576286482419500,10.45541943359375,-0.09063596421480179,-0.005559373993077315,0.007374268794781528
1746576286492435500,10.465435546875,-0.09931552975475788,0.0031383825074066405,-0.000009603511984460056
1746576286502451500,10.475451416015625,-0.10814356385469436,0.006955888119083829,-0.00187949817024637
1746576286512466700,10.485466796875,-0.09437573526501655,0.004551114832563326,0.0058298249649116765
1746576286522482700,10.495482666015626,-0.0880903713852167,0.003877782148262486,0.0051370888938196
1746576286532498700,10.505498779296875,-0.07731646391451358,0.005812355523591395,0.0015438547414029016
1746576286542515700,10.515515625,-0.12220716052055358,0.000294430069043301,-0.00509109889420215
1746576286552531700,10.52553173828125,-0.07402443663179874,-0.0006135082388645969,-0.009442850663186982
1746576286562547700,10.535547607421876,-0.10514905821382999,-0.005422328726120759,0.0050562513431068505
1746576286572563700,10.545563720703125,-0.0934761560767889,-0.007588726679503451,0.0011428498921915889
1746576286582579700,10.555579833984375,-0.08928688769340515,-0.01083435297064716,-0.0007461239258758723
1746576286592595500,10.565595458984374,-0.09093290133476256,-0.022398764648358337,0.008835340623557567
1746576286602611700,10.57561181640625,-0.09332710299491882,-0.022321671691001393,0.0018307453913846982
1746576286612628700,10.585628662109375,-0.0925783304542303,-0.017117212082818148,-0.0005996372604276985
1746576286622644700,10.595644775390625,-0.09048340400159359,-0.010182460366596932,0.011247635062830523
1746576286632660700,10.60566064453125,-0.10185586188733577,-0.01251811850623926,0.012968554271035828
1746576286642676500,10.615676513671875,-0.07836334261894226,-0.005578893827588763,-0.0005955593069316818
1746576286652692500,10.6256923828125,-0.08539630999565125,-0.00683985824069241,-0.018953419100609607
1746576286662708700,10.635708740234374,-0.08838847754895686,0.0027927405576454473,-0.0038308057679561896
1746576286672724700,10.645724853515626,-0.0982645593971014,-0.001844554721028544,0.009287714900402352
1746576286682741800,10.65574169921875,-0.08808978686332702,0.006956082198617514,0.012123162088613025
1746576286692757500,10.665757568359375,-0.09108136989474296,0.006735215122706722,-0.003169350751116872
1746576286702773500,10.6757734375,-0.09078151016533374,0.006616504663461819,-0.012880044870520942
1746576286712789800,10.685789794921876,-0.10170447071790695,-0.016181068310444243,0.01908122846505139
1746576286722805800,10.6958056640625,-0.08479542149305343,0.0050593520490685474,0.00996353180273436
1746576286732821800,10.70582177734375,-0.09452128121554851,-0.009800922836258542,0.014079931312729603
1746576286742837800,10.715837646484376,-0.10005845707654952,-0.0011386874570162035,-0.0009946964260423555
1746576286752854500,10.7258544921875,-0.09676818335950374,-0.01542207805312937,0.0028483340692473575
1746576286762870800,10.735870849609375,-0.09257891497611999,-0.00962341541146161,0.01381148963489104
1746576286772886800,10.74588671875,-0.0942255131393671,-0.005311858655547257,0.006875836019660346
1746576286782902800,10.75590283203125,-0.09617255555391312,-0.020416367792640812,0.008078229512786493
1746576286792918800,10.765918701171875,-0.09273030614554882,-0.012689853777375536,0.0015541523731313644
1746576286802934500,10.7759345703125,-0.09781973823904991,-0.006216408563125878,0.0028962785639334468
1746576286812950500,10.785950439453124,-0.09811784440279006,-0.006597936960309744,0.006280655738641508
1746576286822967800,10.7959677734375,-0.08943944790661335,0.005875748749158811,0.0028939907087245954
1746576286832983800,10.80598388671875,-0.08614800514578819,0.003672135474369861,0.004712310443376191
1746576286842999800,10.815999755859375,-0.08959025455415248,-0.003341291518229991,-0.00012497808653861285
1746576286853015600,10.826015625,-0.1008130748361349,0.00027189857682678845,-0.0038115759111009536
1746576286863031600,10.836031494140625,-0.0957242272645235,-0.006618018483824562,-0.009223618421936407
1746576286873047600,10.846047607421875,-0.09527589897513389,-0.007790302249765954,0.0014869734550127759
1746576286883063600,10.8560634765625,-0.09647183076143265,-0.003986450704105663,0.0067716358596691855
1746576286893079800,10.866079833984376,-0.08255436456799507,-0.01021885598738445,-0.006069689002237282
1746576286903096600,10.8760966796875,-0.08584580732882022,-0.015803595033870077,0.00506993737516459
1746576286913112600,10.886112548828125,-0.09063537969291209,-0.009373772048926912,0.013181808862648903
1746576286923128600,10.896128662109374,-0.0993143607109785,0.0008305827723583206,0.0024036407753592354
1746576286933144600,10.90614453125,-0.10724515371024608,0.005121845658915117,0.0007330361154396087
1746576286943160800,10.916160888671875,-0.09228139333426952,-0.008468865948321762,-0.002847968743066303
1746576286953176800,10.9261767578125,-0.08614683610200881,-0.00473910711875651,0.012988259051926434
1746576286963192600,10.936192626953124,-0.10200842210054396,-0.0005881431854562833,0.012055859872908331
1746576286973209600,10.946209716796876,-0.09856675721406936,-0.004422214056155644,0.0034657672812696545
1746576286983225600,10.9562255859375,-0.09377835389375686,-0.006885352766676805,-0.003606632490106858
1746576286993241900,10.966241943359375,-0.09452595739066601,-0.007070458976039662,0.0005998153569409623
1746576287003257900,10.9762578125,-0.09512567684948443,0.0011607189090223982,0.016069027337292208
1746576287013273600,10.986273681640625,-0.10200900662243366,-0.006575647496688179,0.014672083953022956
1746576287023289600,10.99628955078125,-0.1014104562073946,-0.003288307805533986,-0.004810167627548798
1746576287033305600,11.0063056640625,-0.08973930763602256,-0.015562322207458783,-0.0015508324714610352
1746576287043322600,11.016322509765626,-0.08839432276785374,-0.009226577564002945,0.015026473181531764
1746576287053339000,11.0263388671875,-0.10141279429495334,-0.008795456137740984,0.017013779107807204
1746576287063354600,11.036354736328125,-0.10081482840180396,-0.008949027847812976,0.0013829696578439325
1746576287073370600,11.04637060546875,-0.08375672609508036,0.0012723762896843253,0.002485697602201253
1746576287083386600,11.05638671875,-0.09273556684255599,-0.005526417004968971,0.0010049986243480815
1746576287093402600,11.066402587890625,-0.09722469495534897,-0.00020690933250589296,-0.0013822298723272979
1746576287103418600,11.076418701171875,-0.09243687615692615,-0.0027077474216232076,0.0006930283320369198
1746576287113434600,11.0864345703125,-0.0943821650058031,-0.005406658516242169,0.0064707897495711215
1746576287123451600,11.09645166015625,-0.09064122491180897,-0.004585688389022834,-0.002997556114476174
1746576287133467600,11.106467529296875,-0.09767477681040763,-0.006812995349941775,-0.006838956341682933
1746576287143483600,11.116483642578125,-0.08839841442108154,-0.004686111989617347,0.0031552948263008146
1746576287153499600,11.126499755859374,-0.09169044170379638,-0.004210260939062573,0.012056960418028756
1746576287163515600,11.136515625,-0.097675945854187,-0.001182843975862488,0.009695907542225905
1746576287173531600,11.14653173828125,-0.10051847580373287,-0.005768420483742375,0.0040618197785457595
1746576287183547600,11.156547607421874,-0.08630173440277576,-0.008926434706803411,0.00038978933545295147
1746576287193564700,11.166564697265626,-0.0961772317290306,0.0009720553359715267,0.0101719047232531
1746576287203580700,11.17658056640625,-0.08869593606293201,0.0016615057547227478,0.0134636397450231
1746576287213596700,11.1865966796875,-0.08794833256602287,-0.0018159976301132701,0.004440430132858455
1746576287223612700,11.19661279296875,-0.08271160095632075,-0.00487553818107117,-0.002130810616770759
1746576287233628700,11.206628662109376,-0.05802022729218006,-0.0009073263865546322,-0.003536983053688891
1746576287243644700,11.216644775390625,-0.1443622937053442,-0.011048351914354134,0.021843802213296293
1746576287253660700,11.22666064453125,-0.08525544022023678,0.0034924338091979735,0.0010893752724397928
1746576287263677700,11.236677734375,-0.08884674271047115,-0.010220362957881297,-0.013604445588355883
1746576287273693400,11.246693359375,-0.11578151138722896,-0.006020632545987609,0.004427050061477348
1746576287283709700,11.256709716796875,-0.0855547154277563,-0.0038116946421097963,0.004617024242202751
1746576287293725700,11.2667255859375,-0.09902209976613521,-0.020475929659884422,0.008739520132844335
1746576287303741700,11.27674169921875,-0.09872282455861568,0.0028870769107481463,-0.00727109154809732
1746576287313757700,11.2867578125,-0.08450842124521732,-0.0061656053910730405,0.006581392250885255
1746576287323773700,11.296773681640625,-0.09692892687916756,-0.007025740768190007,0.0033890761827118695
1746576287333789700,11.306789794921874,-0.09199088595509529,-0.00029289341579424215,0.0018667756859911606
1746576287343806700,11.316806640625,-0.10994681388437748,0.0033849342971341684,0.004460436307848431
1746576287353822700,11.32682275390625,-0.08824936133921146,0.004606014224421233,0.012243057574657722
1746576287363838700,11.336838623046875,-0.09962181922495364,-0.004285862908943091,0.0026240009611938147
1746576287373854700,11.346854736328124,-0.09812602770924568,-0.0027902061072643844,-0.0013007027684478088
1746576287383870700,11.35687060546875,-0.08660334769785404,-0.003960261383501347,-0.008326395587576552
1746576287393886500,11.366886474609375,-0.09947218162119388,-0.0036214122174191288,0.011637684693187475
1746576287403902700,11.37690283203125,-0.09842530291676521,-0.0038754714601673184,0.011754602770856581
1746576287413919700,11.386919677734374,-0.08660393221974372,-0.009996682870376389,-0.0023665190687868743
1746576287423935700,11.396935791015625,-0.10336392836272716,-0.009083634562510996,0.00928676505233161
1746576287433951700,11.40695166015625,-0.09857552504241467,-0.00798877483077813,0.01179050063472241
1746576287443967500,11.416967529296874,-0.08855039011240005,-0.00594714033480268,0.004641482830024324
1746576287453983700,11.426983642578126,-0.08795242421925067,-0.0072812453326419925,0.0017175490741850807
1746576287463999700,11.436999755859375,-0.09752923085987568,-0.007485001443547662,0.0019507413421291856
1746576287474015700,11.447015625,-0.08810264634490013,-0.005323183767159935,0.002498347021220252
1746576287484031700,11.45703173828125,-0.09034662587940692,0.0007895178263192064,0.009549553307518362
1746576287494048500,11.467048583984376,-0.10141980855762958,0.006206213679385837,-0.0015391146342037245
1746576287504064500,11.477064453125,-0.08885083436369895,0.00042437202506698664,0.00020236787141766398
1746576287514080500,11.48708056640625,-0.09558394201099872,0.00280328250125749,0.00668613126699347
1746576287524096500,11.497096435546876,-0.0970797335267067,-0.004200056922168005,0.009772621473670005
1746576287534112800,11.50711279296875,-0.09154197314381599,0.0027789905935060233,-0.0008724034869344905
1746576287544128800,11.517128662109375,-0.09348726199269294,-0.004018051418766845,-0.019830119736748746
1746576287554144500,11.52714453125,-0.0922907456845045,-0.012664783268200698,0.001057158069848083
1746576287564161500,11.53716162109375,-0.08615677297413349,0.000533937913342379,0.013434226420870981
1746576287574177500,11.547177490234375,-0.09064648560881614,0.003126059598661959,0.009384526338381691
1746576287584193800,11.55719384765625,-0.10321487528085709,-0.016385169197933282,0.002892871897295117
1746576287594209800,11.567209716796874,-0.0670025751709938,-0.002110749642853625,-0.004502293555042706
1746576287604225500,11.5772255859375,-0.10501052652597427,-0.003281202211312484,0.018034550690022296
1746576287614241500,11.587241455078125,-0.071342065680027,-0.0000934869697317481,0.0026420343748060986
1746576287624257500,11.597257568359375,-0.10770400339365005,-0.01230933002718957,-0.004209169527096673
1746576287634273500,11.6072734375,-0.09154255766570568,0.001973523996095173,-0.005000991191645153
1746576287644290600,11.61729052734375,-0.0792716896355152,-0.0009415574497194029,-0.002360664716735482
1746576287654306600,11.627306640625,-0.10485913535654544,-0.007493214432755485,0.00848639932172373
1746576287664322600,11.637322509765625,-0.08869827415049075,0.005020038385409861,-0.006766137700644321
1746576287674338600,11.647338623046876,-0.08600421276092529,-0.005318790719832759,0.0006589570990763605
1746576287684354600,11.6573544921875,-0.08750117332041263,-0.003736967171775177,-0.0006245159733574837
1746576287694370600,11.66737060546875,-0.08899754935801028,-0.007723155297688208,-0.0046870938037289304
1746576287704386600,11.677386474609374,-0.09303659561574458,-0.003139932860387489,0.005026075400551781
1746576287714403600,11.687403564453126,-0.09528115967214107,-0.0038301641638507134,0.0036380140090594066
1746576287724419600,11.697419677734375,-0.08824877681732177,-0.007866486458247527,0.0044274108210811385
1746576287734435600,11.707435546875,-0.10051906032562255,-0.004832333793584257,-0.0014874072798527777
1746576287744451600,11.71745166015625,-0.10440846897959709,-0.006910210930008907,0.002477596494136378
1746576287754467600,11.727467529296876,-0.09168868813812732,-0.01437469930849038,0.003553523196536116
1746576287764483600,11.737483642578125,-0.09079086251556873,-0.0034980164499022063,0.004481469962722621
1746576287774499600,11.74749951171875,-0.09109072224497794,-0.0009991990712238474,0.0019366625844268127
1746576287784515600,11.757515625,-0.09079144703745841,-0.011404599739809054,-0.000836546722264029
1746576287794532600,11.76753271484375,-0.08645195652842522,-0.001867736950505059,-0.0019158389921067282
1746576287804548600,11.777548583984375,-0.09034253422617912,-0.004685662181756925,0.00006173099144361913
1746576287814564600,11.787564697265625,-0.08974398381114006,0.003413852147653233,0.0025057174769230186
1746576287824580600,11.79758056640625,-0.09079144703745841,-0.0038465924255549904,-0.00021917744232341645
1746576287834596600,11.8075966796875,-0.09857201791107655,-0.005202295050560497,0.004163220626674592
1746576287844612600,11.817612548828125,-0.09677695118784904,-0.0021025891692843285,0.00542118023193907
1746576287854628600,11.827628662109374,-0.10036825367808341,-0.00133602752686711,-0.004694126332714222
1746576287864645400,11.837645263671876,-0.09797405201792717,-0.00011407766661141067,-0.010448926999769173
