time,seconds_elapsed,z,y,x
1746729173931347200,0.02534716796875,-0.09780570971369743,-0.023548085380531845,0.0020230302602052687
1746729173941365200,0.035365234375,-0.08882569992244244,-0.02329822967215441,-0.0037650881545618175
1746729173951382300,0.04538232421875,-0.10708382566869258,-0.018989225632930172,-0.00087930358517915
1746729173961400000,0.055400146484375,-0.10020224946141243,-0.01362376221017912,-0.0009012048897333443
1746729173971417000,0.0654169921875,-0.11202537372410297,-0.020832469746284187,0.0038085985027253625
1746729173981434000,0.07543408203125,-0.09871054959893226,-0.016561888888152316,-0.0022156850217841563
1746729173991452200,0.0854521484375,-0.1102332296103239,-0.018697905403003097,-0.00024317937241867183
1746729174001469200,0.09546923828125,-0.09646715458631515,-0.018005520958360284,-0.0017028766614384948
1746729174011486000,0.10548583984375,-0.12160744106173514,-0.02107651676838286,-0.004133757070172578
1746729174021504300,0.115504150390625,-0.09018471331596374,-0.021143051799107342,-0.005484696755092591
1746729174031521000,0.12552099609375,-0.11487141080498695,-0.02186481760186143,0.00005613236771896481
1746729174041539000,0.1355390625,-0.0864396815687418,-0.013791045068483799,-0.013155304448213428
1746729174051556000,0.14555615234375,-0.10589257005751132,-0.02226046585594304,0.000921955416817218
1746729174061573000,0.155572998046875,-0.10125614242851734,-0.024951887763850388,-0.006582063537742942
1746729174071591200,0.165591064453125,-0.10873802261650561,-0.015132431473769246,-0.002059654209855944
1746729174081608000,0.17560791015625,-0.1014057800322771,-0.012521262594684958,0.00434473293973133
1746729174091626200,0.185626220703125,-0.11786650096774101,-0.01428717628866434,-0.002261789185833186
1746729174101643000,0.19564306640625,-0.10604688383638858,-0.016879202075861393,-0.0033877062095329165
1746729174111660300,0.205660400390625,-0.10709493158459663,-0.01492156520206481,0.0013733524461276827
1746729174121678000,0.215677978515625,-0.09272446092665194,-0.028058594208071008,-0.0016828933193348348
1746729174131695000,0.225695068359375,-0.10783785890638828,-0.0204096229580231,-0.00018469065083190797
1746729174141713200,0.235713134765625,-0.10230243661105633,-0.013206550578260794,-0.003565729657560587
1746729174151730200,0.245730224609375,-0.108289694327116,-0.014430155822774394,-0.0021017763185314834
1746729174161747200,0.255747314453125,-0.09572130465507507,-0.009595374343777075,-0.0010212328065186739
1746729174171765000,0.265764892578125,-0.09661971479952335,-0.019408967148652298,0.0018286036666482685
1746729174181782300,0.2757822265625,-0.10050970797538757,-0.017593798352312295,0.003076064710784703
1746729174191800000,0.285800048828125,-0.10215338352918624,-0.017733955741673708,0.004978793059568852
1746729174201817000,0.295817138671875,-0.0991577088445425,-0.014496626921417191,-0.001362410927005112
1746729174211834000,0.305834228515625,-0.09361877941787243,-0.020425660777371374,-0.000941573432739824
1746729174221852200,0.31585205078125,-0.09780746327936649,-0.018342187300510703,0.001945855104457587
1746729174231869200,0.325869140625,-0.10214403117895125,-0.020623868496902287,0.004596625341568142
1746729174241887000,0.335886962890625,-0.10528758990168571,-0.02072617809390649,-0.002470426967833191
1746729174251904300,0.345904296875,-0.09750877259373664,-0.009690487015014513,0.0007790032821707427
1746729174261921300,0.35592138671875,-0.09825754513442515,-0.023533563664834944,-0.0016817790744826197
1746729174271939000,0.36593896484375,-0.10124795912206172,-0.019997818153584375,-0.0032512934135273098
1746729174281956000,0.3759560546875,-0.11411854661107063,-0.01774196551819332,0.0003458542956039309
1746729174291974100,0.38597412109375,-0.10424889450371265,-0.014751597196329385,-0.0012132482472807168
1746729174301991200,0.3959912109375,-0.10200433044731616,-0.014984812297159806,0.005095131181925535
1746729174312008200,0.40600830078125,-0.09766133280694485,-0.021901587681984528,-0.002852083229180425
1746729174322026200,0.416026123046875,-0.09900982480645179,-0.02032578059947118,-0.0016889212013222277
1746729174332043300,0.426043212890625,-0.10424714093804359,-0.016029188517248258,0.0020391411447897552
1746729174342061000,0.43606103515625,-0.10544248820245265,-0.016609764884179458,0.005940514231193811
1746729174352078000,0.446078125,-0.10649228951632976,-0.014443371497374027,-0.0030908421548083423
1746729174362095000,0.45609521484375,-0.09990823495090007,-0.01139969295253977,-0.0007623078756965697
1746729174372113200,0.466113037109375,-0.1021551370948553,-0.01562192289060913,-0.0059624338020570575
1746729174382130200,0.476130126953125,-0.10649696569144725,-0.0161440562017262,0.005031710556894541
1746729174392148200,0.486148193359375,-0.11113397784233092,-0.015607876098947598,0.007694883617851883
1746729174402165200,0.496165283203125,-0.08719254576265811,-0.010298389780288561,0.0009105937725864351
1746729174412182000,0.50618212890625,-0.10499942061007023,-0.019465428309934214,-0.0014358780220150946
1746729174422200300,0.516200439453125,-0.10305413176119327,-0.016318033662298694,-0.0053041890890337525
1746729174432217000,0.526217041015625,-0.09198094908297061,-0.020723620810639113,-0.003029832682572305
1746729174442234000,0.536234130859375,-0.09527648349702357,-0.017043343129009007,-0.0016413922651670873
1746729174452252200,0.546252197265625,-0.10231412704885005,-0.020191495828470213,0.005935253534186631
1746729174462269200,0.556269287109375,-0.11024667361378669,-0.01786797565119341,0.0031360330034047364
1746729174472287200,0.566287353515625,-0.10351590405404568,-0.013068667344376445,-0.004157959929667413
1746729174482304000,0.576303955078125,-0.10605857427418232,-0.01719511789092794,-0.01006665425049141
1746729174492321300,0.5863212890625,-0.10156827711760998,-0.008235694229975343,-0.001348254537489265
1746729174502339000,0.596339111328125,-0.09468436282277107,-0.017907595275528727,0.0004944141871295869
1746729174512356000,0.606356201171875,-0.09932254401743411,-0.017900060423044487,0.0011819763261824846
1746729174522374100,0.6163740234375,-0.10815350072681904,-0.016947737267427144,-0.009593154987227171
1746729174532391200,0.62639111328125,-0.10381342569589615,-0.019489137979084626,-0.0031222236737608908
1746729174542408200,0.636408203125,-0.09798223532438277,-0.011668034165678545,0.00043020811080932614
1746729174552426000,0.646426025390625,-0.11414543461799621,-0.010559771529678255,0.005299896506406367
1746729174562443300,0.656443359375,-0.10501754078865051,-0.017602958906302226,0.006915423677954822
1746729174572461000,0.6664609375,-0.10756430266201496,-0.015711035079322755,-0.0016894691905938088
1746729174582478000,0.67647802734375,-0.10277765290737151,-0.016494102615257723,-0.008226360146049409
1746729174592495000,0.6864951171875,-0.10367898566126822,-0.014501869352115317,-0.007377835291624069
1746729174602513200,0.69651318359375,-0.10322831928431987,-0.01397052068808116,-0.0009825082313269376
1746729174612530200,0.7065302734375,-0.10457681128382683,-0.021145298555120824,0.001189520311821252
1746729174622548200,0.71654833984375,-0.11265899545252323,-0.015490935188392176,-0.0038524376444518563
1746729174632565000,0.72656494140625,-0.1066734913021326,-0.011730459276866168,-0.0025634755461476743
1746729174642582300,0.736582275390625,-0.09784428815841674,-0.01071767463828437,0.0028479733096435666
1746729174652600000,0.74660009765625,-0.09949088632166385,-0.023807375637535006,0.00000573562104254961
1746729174662617000,0.7566171875,-0.10383096135258674,-0.017726192560326308,-0.0006282149009406566
1746729174672635100,0.76663525390625,-0.09888999781906604,-0.01667726802928373,0.006519355298765003
1746729174682652200,0.776652099609375,-0.10397884539067745,-0.014712589493347332,-0.0053402467831037935
1746729174692669200,0.786669189453125,-0.10008943673670291,-0.014780366633087396,-0.004458659909293055
1746729174702687000,0.79668701171875,-0.09844634570479392,-0.019594087057746946,-0.002887300673034042
1746729174712704300,0.806704345703125,-0.10622750110030174,-0.019183396498160435,0.004276142949238419
1746729174722722000,0.81672216796875,-0.11131576415002345,-0.021686282697180283,-0.0018644969639368355
1746729174732739300,0.8267392578125,-0.10009177482426165,-0.01742259737071581,-0.006696428898721933
1746729174742756000,0.836756103515625,-0.10128887565433979,-0.017584172007441518,-0.009277896759286522
1746729174752774100,0.846774169921875,-0.10638006131350994,-0.0214750876319129,-0.0015622260817326605
1746729174762791200,0.856791259765625,-0.11401567075848579,-0.02520945185464807,0.005520991911180317
1746729174772809000,0.86680908203125,-0.10428922651410102,-0.011191941086528823,0.0007808664456941187
1746729174782826200,0.876826171875,-0.09919745633304118,-0.006725947254151106,0.006024265258200466
1746729174792843000,0.886843017578125,-0.10743044714927673,-0.005880673802737146,-0.003175141171086579
1746729174802861300,0.896861328125,-0.1036930141866207,-0.011137151292525231,-0.00041844460777938365
1746729174812878000,0.906878173828125,-0.09785831668376922,-0.010295357572985813,-0.0005148907195776701
1746729174822896000,0.916896240234375,-0.10039981786012649,-0.009615576881589368,0.006884864142909646
1746729174832913200,0.9269130859375,-0.10443886411786078,-0.016022804442234338,0.005363481528218836
1746729174842930200,0.93693017578125,-0.09755202721357345,-0.020991140039870515,-0.007498831322789192
1746729174852948200,0.9469482421875,-0.1023380924463272,-0.018667638128902764,-0.0005695617825724184
1746729174862965000,0.956965087890625,-0.10308686498701572,-0.013327957601379602,0.00029459903240203856
1746729174872983300,0.9669833984375,-0.10128887565433979,-0.01788059767074883,0.001715096822194755
1746729174883000000,0.977,-0.09216098182499408,-0.02257193382475525,-0.004233070992492139
1746729174893017000,0.98701708984375,-0.10592764137089251,-0.01935910012493841,-0.007998561005853116
1746729174903035100,0.99703515625,-0.09949322440922259,-0.014670439985208212,-0.005057466052658856
1746729174913052200,1.00705224609375,-0.10174188011884688,-0.015090318498248233,-0.002472911185864359
1746729174923069200,1.017069091796875,-0.10218962388634681,-0.01268417980512604,-0.00000922448607161641
1746729174933087000,1.0270869140625,-0.09874912804365157,-0.010692184004001319,0.0003234963333234191
1746729174943103700,1.037103759765625,-0.10039397264122962,-0.01874311451790854,0.003155998079199344
1746729174953121800,1.047121826171875,-0.1063812303572893,-0.01492665236913599,-0.002428724984265864
1746729174963138800,1.057138916015625,-0.11071779825687408,-0.011133196636615321,0.00132870958680287
1746729174973155800,1.06715576171875,-0.11086334420740604,-0.014240862062061205,-0.0009599310733377933
1746729174983174000,1.077173828125,-0.0997895770072937,-0.02027647983133793,0.005794657753407955
1746729174993190700,1.087190673828125,-0.10292904407680034,-0.01487696800851263,0.002550579531956464
1746729175003209000,1.097208984375,-0.11026304022669792,-0.01623279393110424,-0.004570303590223193
1746729175013225700,1.107225830078125,-0.09978782344162464,-0.015438099889457225,-0.0026402488430961966
1746729175023243000,1.117242919921875,-0.10412556038498878,-0.011442326517868787,0.0024936069140210747
1746729175033260800,1.1272607421875,-0.09245148920416832,-0.014315087208896874,-0.001010108624305576
1746729175043277800,1.13727783203125,-0.10711772793829441,-0.011504441101802512,0.004974774471577257
1746729175053295900,1.1472958984375,-0.09873802212774753,-0.01052557699913159,0.003662066171504557
1746729175063313000,1.15731298828125,-0.10248013126552104,-0.012048493983782826,0.0010504771673120557
1746729175073330000,1.167329833984375,-0.09529694176316261,-0.01061993161854334,0.004694057834055274
1746729175083347700,1.17734765625,-0.09574760814011096,-0.019564532169699667,-0.0008071333981119096
1746729175093365000,1.187364990234375,-0.10397767634689807,-0.014865030975546686,-0.000189841749984771
1746729175103382800,1.1973828125,-0.09440086970627308,-0.014344541632244363,0.004618654510285705
1746729175113399800,1.20739990234375,-0.11265782640874385,-0.011998508229060097,0.0016311083331704138
1746729175123416800,1.217416748046875,-0.09425532375574111,-0.017816546858055515,-0.004105133763886988
1746729175133435000,1.227434814453125,-0.1069745200753212,-0.014701291781198233,0.009736819507926701
1746729175143452000,1.237451904296875,-0.1029348892956972,-0.022256995257223022,0.0006841828718781471
1746729175153469700,1.2474697265625,-0.10607494088709354,-0.013832993647223337,0.00036050387546420094
1746729175163487000,1.257487060546875,-0.10008417603969573,-0.007606209820555523,-0.0018450616111047565
1746729175173504000,1.26750390625,-0.10307166741788387,-0.021495354101806877,-0.003927402576804161
1746729175183521800,1.277521728515625,-0.09289689488410949,-0.01150645039579831,0.0011351780423894523
1746729175193538800,1.287538818359375,-0.0991793361544609,-0.01666955964686349,-0.0009887370427139103
1746729175203556900,1.297556884765625,-0.09513853633105754,-0.011924474878469482,0.008906908022426068
1746729175213574000,1.307573974609375,-0.09139525814950465,-0.014263192624878138,-0.0000925736542791128
1746729175223591000,1.3175908203125,-0.09917641354501247,-0.01654457242717035,0.012616283934377134
1746729175233609000,1.32760888671875,-0.10411503899097442,-0.012914965486852451,-0.000725282067246735
1746729175243626000,1.3376259765625,-0.11175006391406059,-0.013281570309540256,-0.0017159918713383375
1746729175253643800,1.347643798828125,-0.10366787974536418,-0.010772747560078278,0.006415767060127109
1746729175263660800,1.357660888671875,-0.1009749873995781,-0.0194751277200412,0.0017446151776239274
1746729175273677800,1.367677734375,-0.10411796160042286,-0.026294196617742998,0.00023426541360095141
1746729175283695900,1.37769580078125,-0.09005319589078425,-0.021499299624562263,0.00010963438693434
1746729175293713000,1.387712890625,-0.1023211413115263,-0.016162395576015114,-0.000244969470705837
1746729175303731000,1.39773095703125,-0.10247253248095511,-0.014221956432191655,0.008120616482943295
1746729175313748000,1.407748046875,-0.09708557874560356,-0.015933125997940077,-0.006201357124466449
1746729175323764700,1.4177646484375,-0.10217442631721496,-0.012309519540145992,-0.005041172504983842
1746729175333782800,1.42778271484375,-0.09439210187792778,-0.011556627946766092,-0.006172587687708437
1746729175343799800,1.4377998046875,-0.10381693282723427,-0.011244063999410718,-0.0029298063741996882
1746729175353817900,1.44781787109375,-0.10606441949307918,-0.01595500903618522,0.0035691454573534426
1746729175363835000,1.4578349609375,-0.10337152714729309,-0.009413944229111074,-0.0003156600867398083
1746729175373852000,1.467851806640625,-0.10037877507209778,-0.015971247784933074,0.007119476616382598
1746729175383870000,1.477869873046875,-0.10591653545498847,-0.017009294728934764,0.009983067620266229
1746729175393886700,1.48788671875,-0.10681436107754706,-0.012132546404888853,-0.000049099838733673096
1746729175403905000,1.497905029296875,-0.11369769085049629,-0.017488493080623446,0.0011582666570320724
1746729175413921800,1.507921875,-0.106215810662508,-0.01684772922536358,0.005747256681416183
1746729175423938800,1.517938720703125,-0.10576631332933902,-0.017253624878823755,-0.0031079576863907274
1746729175433956900,1.527956787109375,-0.10801321547329425,-0.010824212885834275,0.0005340886103920639
1746729175443974000,1.537973876953125,-0.10292378337979316,-0.011650845568859949,0.005121690395288169
1746729175453991000,1.547990966796875,-0.09723521634936332,-0.01788973995842971,0.0009017346126958727
1746729175464008700,1.5580087890625,-0.10441957489550113,-0.012281846081931143,0.0058007587006315585
1746729175474026000,1.56802587890625,-0.10696399868130683,-0.011793806836660951,-0.0029522556680254635
1746729175484043800,1.578043701171875,-0.10546762264370918,-0.014143511767964809,-0.0012819478356279432
1746729175494060800,1.588060791015625,-0.10381868639290333,-0.015860864479327573,0.00015341872973367572
1746729175504077800,1.598077880859375,-0.10307108289599418,-0.006913779710140079,0.0001866816785186529
1746729175514095900,1.608095947265625,-0.09797989723682403,-0.013017485146410763,0.00379042352521792
1746729175524113000,1.61811279296875,-0.11204466294646262,-0.014182939596055075,-0.0025932678962126373
1746729175534130700,1.628130615234375,-0.09932546662688255,-0.01481849755323492,-0.008895729041285813
1746729175544147700,1.638147705078125,-0.10157236877083778,-0.012613817982655018,-0.0007785100918263196
1746729175554165000,1.6481650390625,-0.09752981538176536,-0.020219662477029485,-0.002313373242598027
1746729175564182800,1.658182861328125,-0.10171733019948005,-0.025350915285106745,0.007205437866784631
1746729175574199800,1.66819970703125,-0.11443418843150138,-0.021993905607936903,0.0019360278301872311
1746729175584217900,1.6782177734375,-0.09917173736989497,-0.01597897443366237,0.003203764477372169
1746729175594235000,1.68823486328125,-0.095728903439641,-0.005590613948134705,-0.0005242978687398136
1746729175604252000,1.698251953125,-0.10216098231375217,-0.014092366102617233,0.0013686945373192429
1746729175614269700,1.708269775390625,-0.10575170028209685,-0.0098519155212678,0.005462813716847449
1746729175624287000,1.718286865234375,-0.0955804348796606,-0.010411576964333653,0.007420340992789715
1746729175634304800,1.7283046875,-0.10381167213022709,-0.009623504459718242,-0.0013078129292465746
1746729175644321800,1.73832177734375,-0.09707447282969951,-0.011078644304629414,0.0035257629733532665
1746729175654338800,1.7483388671875,-0.1051572415202856,-0.017295198998227714,0.0035835758415050803
1746729175664356900,1.75835693359375,-0.10470482157766818,-0.008761791330156848,0.0023945121874101457
1746729175674374000,1.768373779296875,-0.10619885952770709,-0.012451622291421518,-0.007641947854217141
1746729175684391700,1.7783916015625,-0.09796703775525092,-0.011493070324417202,-0.0035729631159454583
1746729175694409000,1.788408935546875,-0.11846738947033882,-0.017434132544882595,-0.001157426406815648
1746729175704425700,1.79842578125,-0.10410568664073944,-0.011851811501057817,0.0017709734615869819
1746729175714444000,1.808444091796875,-0.10785188743174075,-0.008787747755320742,0.003910086115822196
1746729175724460800,1.818460693359375,-0.1059065985828638,-0.011533767660986632,0.005814275769330561
1746729175734478800,1.828478759765625,-0.10261632486581802,-0.011113277226593344,0.01321925479620695
1746729175744495900,1.838495849609375,-0.10246551821827887,-0.011084279460972174,0.001223915771767497
1746729175754513000,1.848512939453125,-0.10395838712453842,-0.01171865924121812,-0.0012432415267452598
1746729175764531000,1.858531005859375,-0.10455050779879092,-0.016496897360542787,0.0003052117579616606
1746729175774547700,1.868547607421875,-0.09946224474906921,-0.014640181844262405,-0.004276142949238419
1746729175784566000,1.87856591796875,-0.0988660324215889,-0.010968461928423493,0.0013361987735144793
1746729175794582800,1.888582763671875,-0.1024602575212717,-0.011947335164248942,-0.00225661982037127
1746729175804599800,1.898599853515625,-0.11054127264618872,-0.016594119790475814,-0.007217110038269311
1746729175814617900,1.908617919921875,-0.10111585717499255,-0.00953884011725895,0.0028039149722084403
1746729175824635000,1.918634765625,-0.10381225665211677,-0.010351517340168356,0.004962919637002051
1746729175834653000,1.92865283203125,-0.10186696780323981,-0.009800011804094538,0.002626256850361824
1746729175844669700,1.938669677734375,-0.10396072521209716,-0.006768745216261595,0.005543496003933251
1746729175854686700,1.948686767578125,-0.10710311489105225,-0.013793638884369283,0.004938643712271005
1746729175864704800,1.958704833984375,-0.08899521127045154,-0.012082021794049068,-0.0017637400032021104
1746729175874721800,1.9687216796875,-0.10949614750742911,-0.01153632494425401,0.009562266658619046
1746729175884739800,1.97873974609375,-0.10246785630583763,-0.015434400961874052,0.009645561027899385
1746729175894756900,1.9887568359375,-0.09409048858284949,-0.01444581918278709,0.01110797999696806
1746729175904774000,1.99877392578125,-0.10262275460660457,-0.013438039512885734,0.0016048779133707284
1746729175914792000,2.0087919921875,-0.10127718521654605,-0.0034881343767046926,-0.0062754270076751705
1746729175924808700,2.01880859375,-0.10516893195807933,-0.019194511547219007,-0.011545512897707522
1746729175934827500,2.02882763671875,-0.12103285604417323,-0.008589202109072358,0.001127433127351105
1746729175944844800,2.0388447265625,-0.10502046339809894,-0.006037910191062837,0.004545808469783514
1746729175954861600,2.048861572265625,-0.10591945806443691,-0.01731123681757599,-0.00009832754163071513
1746729175964880000,2.0588798828125,-0.10696867485642432,-0.014352770604472606,-0.006091777536459266
1746729175974896600,2.068896728515625,-0.09634206690192222,-0.013624949520267545,-0.003615761078055948
1746729175984914400,2.07891455078125,-0.10158113659918308,-0.013821933397091925,0.0022025880781933664
1746729175994931700,2.088931640625,-0.10187982728481292,-0.014109755628835409,0.004098448294773698
1746729176004948700,2.09894873046875,-0.09679507136642933,-0.013751735971402376,0.00869825197411701
1746729176014966800,2.108966796875,-0.09739479082524775,-0.009902759792516008,0.006854742999281734
1746729176024983600,2.118983642578125,-0.10367781661748886,-0.014843348866701125,-0.007598912430088966
1746729176035001900,2.129001953125,-0.10173135872483254,-0.01820611243122257,-0.0011486403121612966
1746729176045018600,2.1390185546875,-0.10098083261847496,-0.01599382494292222,0.0008914324143901467
1746729176055035600,2.14903564453125,-0.104425420114398,-0.016185529856430365,0.006035279842559248
1746729176065053700,2.1590537109375,-0.10726853458583355,-0.007851188424415886,0.007513700098358094
1746729176075070700,2.16907080078125,-0.11160393344163894,-0.008091828779876232,-0.0023676607131026682
1746729176085088800,2.1790888671875,-0.09948094944953918,-0.01165216987626627,-0.000603610182646662
1746729176095105500,2.18910546875,-0.10202946488857269,-0.008999719138722866,-0.005113141762651503
1746729176105122600,2.19912255859375,-0.06582067191004752,-0.00031208902332000433,-0.004880593382101506
1746729176115140600,2.209140625,-0.15275661256313322,-0.025535131011903283,-0.0011002893920987844
1746729176125157600,2.21915771484375,-0.14991349809169768,-0.028920928392140194,0.005210446390975267
1746729176135175700,2.22917578125,-0.04531272141039371,-0.0060122277605347335,0.006374412136431783
1746729176145192700,2.239192626953125,-0.15948738212287425,-0.01988030185429379,0.016366338916588574
1746729176155209500,2.24920947265625,-0.0284036721855402,-0.0023413389617577196,-0.006833024357818067
1746729176165227800,2.259227783203125,-0.17520283764898775,-0.015686192899011075,-0.0021155856481753286
1746729176175244500,2.26924462890625,-0.03693593820929527,-0.011505683210818097,-0.009580423369817435
1746729176185262600,2.2792626953125,-0.16966566178798675,-0.01036663271090947,0.005380743190273642
1746729176195279600,2.289279541015625,-0.04472118525803089,-0.007651336737070232,-0.010748462502192704
1746729176205296600,2.299296630859375,-0.15395488243699074,-0.01781009885095991,-0.003119301064312458
1746729176215314700,2.309314697265625,-0.05190145215094089,-0.009939493340020998,-0.004306921679992228
1746729176225331500,2.31933154296875,-0.15051146398484705,-0.014131593001307919,0.00298476969813928
1746729176235349800,2.329349853515625,-0.06342004050910473,-0.013695457473210989,0.00010119535215198994
1746729176245366500,2.339366455078125,-0.1422796422123909,-0.019169769831607116,0.004894402711745351
1746729176255383800,2.3493837890625,-0.07254734981656075,-0.010631759053654969,0.00315873802555725
1746729176265401600,2.359401611328125,-0.13195581659674643,-0.012096525243436917,-0.0038231202184222635
1746729176275419000,2.3694189453125,-0.07988543761968613,-0.013355777190066873,-0.0043771921709179875
1746729176285436700,2.379436767578125,-0.11848901678025722,-0.01666074615274556,0.004114924505539238
1746729176295453400,2.389453369140625,-0.08826338986456393,-0.010485866043251007,0.00258504805713892
1746729176305470700,2.399470703125,-0.11011048001348972,-0.01519868337670341,-0.002906315900757909
1746729176315488500,2.409488525390625,-0.0996370167940855,-0.011162413597945123,-0.0004905417296104133
1746729176325505800,2.419505859375,-0.10711772793829441,-0.013528969199350102,0.008181918216124176
1746729176335523600,2.429523681640625,-0.10083762475550175,-0.019548677013441918,0.0020587591607123612
1746729176345540600,2.43954052734375,-0.09784428815841674,-0.012202232373924924,0.0038869609685614702
1746729176355557600,2.4495576171875,-0.10951719029545784,-0.020877697127498686,0.0022605653431266547
1746729176365575400,2.459575439453125,-0.09425766184329987,-0.012740796230034901,-0.006111541682854295
1746729176375592700,2.4695927734375,-0.10383505300581454,-0.01944151771138422,-0.0009556750233285129
1746729176385609700,2.479609619140625,-0.09141454737186432,-0.009613996845856308,-0.0023013905438594518
1746729176395627800,2.489627685546875,-0.10907295365929603,-0.01658180829817429,0.004127181198913604
1746729176405644500,2.49964453125,-0.09859715235233306,-0.014595630316482856,0.010029226583242417
1746729176415662600,2.50966259765625,-0.11745207494795322,-0.008272217714926228,0.008231748707219958
1746729176425679600,2.5196796875,-0.10218670127689838,-0.014886804415937512,-0.0036650253135710954
1746729176435697700,2.52969775390625,-0.10502923122644424,-0.01459181265789084,-0.002432506110239774
1746729176445714700,2.539714599609375,-0.09814473240971565,-0.013092011687345802,-0.00043819048786535855
1746729176455731700,2.549731689453125,-0.11370762772262095,-0.014251949711656197,-0.0020103169091045857
1746729176465749800,2.559749755859375,-0.09380524190068244,-0.011522141155274584,0.00902951148878783
1746729176475766800,2.569766845703125,-0.11086275968551636,-0.011307950415322557,-0.0036696466897614298
1746729176485783600,2.579783447265625,-0.09500351177453994,-0.013152865895954892,0.007638550320733338
1746729176495801600,2.589801513671875,-0.10143792873620987,-0.013446149754105135,-0.003882339592371136
1746729176505818600,2.599818603515625,-0.09545008649826049,-0.00972553092893213,0.0036099889243952927
1746729176515836700,2.609836669921875,-0.10233283174932002,-0.009312767143268138,0.0011606412772089242
1746729176525853700,2.619853759765625,-0.10458031841516494,-0.012226553964428602,-0.007143021888751536
1746729176535870500,2.629870361328125,-0.09889701208174229,-0.008778002679441123,-0.0015090345897711814
1746729176545888800,2.639888671875,-0.10323533354699611,-0.013241384429624303,0.0005013736508786679
1746729176555905500,2.649905517578125,-0.10099018496870994,-0.007721643760614096,-0.0033927842434495685
1746729176565923600,2.659923583984375,-0.10188917963504791,-0.014484653355833143,0.006505856496375054
1746729176575940600,2.669940673828125,-0.09725216748416424,-0.015792822478106244,0.004732124822121113
1746729176585957600,2.67995751953125,-0.09545476267337799,-0.011959783653868362,0.0002679119548760354
1746729176595975700,2.6899755859375,-0.10548048212528228,-0.00523004614058882,-0.0036181904971599576
1746729176605992400,2.699992431640625,-0.10039631072878837,-0.00710409638416022,0.004119125756621361
1746729176616010800,2.7100107421875,-0.10189502485394478,-0.011006702446425333,-0.007577979239914566
1746729176626027500,2.720027587890625,-0.09785656311810016,-0.014183030927600338,0.0046604295590892434
1746729176636044800,2.730044921875,-0.10518880570232868,-0.008809831722965464,0.004664155886135995
1746729176646062600,2.7400625,-0.10653729770183562,-0.006772709005326032,-0.0034498481929302214
1746729176656079600,2.75007958984375,-0.09830781401693821,-0.010521814139466732,-0.001672992979828268
1746729176666097700,2.76009765625,-0.10309855542480945,-0.00678140376843512,0.00031836350047960877
1746729176676114400,2.770114501953125,-0.0983124901920557,-0.0068367689511738714,-0.0019169395372271537
1746729176686131700,2.780131591796875,-0.09621814826130866,-0.004233682913845405,0.004165558714233339
1746729176696149500,2.7901494140625,-0.09726327340006828,-0.015184572652960195,-0.00023978183893486857
1746729176706166800,2.800166748046875,-0.10549217256307601,-0.00694535302533768,-0.00244834300018847
1746729176716184600,2.8101845703125,-0.09965396792888641,-0.01176355782886967,-0.004070263379905373
1746729176726201600,2.82020166015625,-0.1017500634253025,-0.015744498957507312,-0.0018444588229060172
1746729176736218600,2.830218505859375,-0.10040390951335429,-0.010189705241424962,0.012496018555574119
1746729176746236700,2.840236572265625,-0.10325053111612796,-0.0117205589373596,0.005612761847861111
1746729176756253700,2.850253662109375,-0.10429799434244633,-0.005237626658845693,-0.0029772257125005126
1746729176766271500,2.860271484375,-0.10384849700927734,-0.009562367123318835,0.00012945333225652575
1746729176776288800,2.870288818359375,-0.10654138935506344,-0.009207936795614659,0.007813176235277206
1746729176786305800,2.880305908203125,-0.1078892968326807,-0.012949698873516172,0.001997548759076744
1746729176796323600,2.890323486328125,-0.10235621262490749,-0.012822382699418813,-0.012314524508826434
1746729176806340600,2.900340576171875,-0.10595336033403872,-0.007270593791175633,-0.005889076304901391
1746729176816358700,2.910358642578125,-0.10311316847205161,-0.011691469840193166,-0.0018029760350473224
1746729176826375700,2.920375732421875,-0.09862111774981021,-0.012563558233296497,-0.0010656016712076962
1746729176836392700,2.930392822265625,-0.09772387664914131,-0.019873963445052503,0.004009326972905547
1746729176846410800,2.94041064453125,-0.10640344218909739,-0.013214377691689878,0.0037127917117439208
1746729176856427800,2.950427734375,-0.101314594617486,-0.012695166990021243,-0.002176412457320839
1746729176866445600,2.960445556640625,-0.10310907681882381,-0.012281572087295353,-0.0057278395948931575
1746729176876462600,2.970462646484375,-0.11343348695635795,-0.013994632216030731,-0.005962305937893688
1746729176886479600,2.980479736328125,-0.10071604420244692,-0.007882469478668644,-0.006655475833825766
1746729176896497700,2.99049755859375,-0.10879472123980521,-0.00828736048513092,-0.0048393297899514435
1746729176906514700,3.0005146484375,-0.0999637645304203,-0.010688521609036251,-0.0015948862423188982
1746729176916532700,3.01053271484375,-0.09637246204018592,-0.010309066437929868,-0.002084021466132253
1746729176926549800,3.0205498046875,-0.10520400327146052,-0.007812116789352148,0.004942589235026389
1746729176936566300,3.030566162109375,-0.10356032771766185,-0.014151759006502106,-0.0022052732256241142
1746729176946584600,3.04058447265625,-0.09697861123979092,-0.013998504673549905,-0.0011934110356494783
1746729176956601300,3.050601318359375,-0.1008656818062067,-0.008703978462005034,0.001453614608105272
1746729176966619100,3.060619140625,-0.10415829361081123,-0.002732731165830046,-0.0038844219516031443
1746729176976636400,3.070636474609375,-0.09667699794471263,-0.010963995815860108,0.0016189612376503646
1746729176986653400,3.0806533203125,-0.1055062010884285,-0.011403583676367998,-0.002582856100052595
1746729176996671500,3.09067138671875,-0.10700316164791583,-0.0192557128157001,-0.005711527780909091
1746729177006688300,3.100688232421875,-0.09996902522742748,-0.01570951897567138,0.007244180708285421
1746729177016706600,3.11070654296875,-0.09113982208371162,-0.007523810500418767,-0.002832611343730241
1746729177026723300,3.120723388671875,-0.11253975298702716,-0.0037335970377549528,-0.0024570560296066106
1746729177036740400,3.130740234375,-0.09458382505774497,-0.011553769269399345,0.0019277531921863555
1746729177046758400,3.14075830078125,-0.10027122304439544,-0.007257442048657685,0.003407141562364995
1746729177056775400,3.150775390625,-0.10386486362218857,-0.0027257077699992804,-0.005484185298439115
1746729177066793500,3.16079345703125,-0.10146773935258388,-0.008856931400857864,0.005339315201342105
1746729177076810200,3.170810302734375,-0.1020633671581745,-0.009109910648083313,0.009984200131427496
1746729177086827300,3.1808271484375,-0.09817337398231028,-0.010078152892040088,0.0006540069293230772
1746729177096845300,3.19084521484375,-0.09652385320961475,-0.010288325044000521,0.0007626914681866764
1746729177106862300,3.2008623046875,-0.0992138229459524,-0.014927565684588626,0.0059914041682146485
1746729177116880400,3.21088037109375,-0.10131108748614788,-0.010459197232034057,0.008065707957930863
1746729177126897400,3.2208974609375,-0.09936579863727092,-0.008382518822140991,0.0029512327547185123
1746729177136914200,3.2309140625,-0.10595336033403872,-0.00572610429553315,-0.0046811983524821695
1746729177146932500,3.240932373046875,-0.10146423222124576,-0.012738248079922049,-0.0033323958257213235
1746729177156949200,3.25094921875,-0.09697218149900436,-0.01148759043170139,-0.002353102464787662
1746729177166967300,3.26096728515625,-0.10490297449827193,-0.0049797246413305395,0.006359050170518458
1746729177176984300,3.270984375,-0.11148644454181193,-0.01687472683014348,-0.0003232771376147866
1746729177187001300,3.28100146484375,-0.10849603055417537,-0.012253661167062817,-0.0016966843826696275
1746729177197019400,3.291019287109375,-0.1093921026110649,-0.009242834579059854,0.0034731925358995794
1746729177207036200,3.3010361328125,-0.10774725801348685,-0.013754950841795652,0.0051311706096865235
1746729177217054500,3.311054443359375,-0.11148702906370163,-0.012006381008261815,0.003665792498551309
1746729177227071200,3.3210712890625,-0.10460253024697304,-0.013175013795681296,-0.001510422829259187
1746729177237088500,3.331088623046875,-0.10115677370727062,-0.015058160661160945,0.0013106442071497439
1746729177247106300,3.341106201171875,-0.09995791931152344,-0.003674596859514713,-0.0019695465072989463
1746729177257123300,3.351123291015625,-0.10354922180175781,-0.00909594605481252,0.0043042365325614805
1746729177267141400,3.361141357421875,-0.10399579652547836,-0.01580528010088019,0.0011299904106184839
1746729177277158100,3.371158203125,-0.0875327375024557,-0.008966346592083573,-0.008189535266999155
1746729177287175400,3.381175537109375,-0.11072598156332969,-0.01671909787701443,0.005694814108125865
1746729177297193200,3.391193115234375,-0.11207038190960883,-0.005587682205531746,0.006928885947726666
1746729177307210500,3.40121044921875,-0.09830606045126915,-0.003972292031301185,-0.007089373739063739
1746729177317228300,3.411228271484375,-0.1077367366194725,-0.0105332397157792,0.001656681165844202
1746729177327245300,3.421245361328125,-0.09546528406739234,-0.013250928576104342,0.007756130552105605
1746729177337262300,3.431262451171875,-0.10399521200358867,-0.01706201129686087,-0.003976356285065413
1746729177347280400,3.4412802734375,-0.09606734161376952,-0.014342778933420777,-0.002271214601304382
1746729177357297400,3.45129736328125,-0.11043021348714828,-0.009991963312774896,0.0036664866182953117
1746729177367315200,3.461315185546875,-0.09950666841268539,-0.014702104631951077,-0.0036383747686631975
1746729177377332500,3.47133251953125,-0.10414835673868655,-0.016653010370861736,0.002076349616330117
1746729177387349200,3.481349365234375,-0.10235387453734875,-0.007627371339593082,-0.005288425264321267
1746729177397367300,3.4913671875,-0.09936404507160186,-0.005509986459976062,-0.007791147066559642
1746729177407384300,3.50138427734375,-0.09742050978839396,-0.009337682388816028,-0.0010984810275025665
1746729177417402400,3.51140234375,-0.10280395639240741,-0.0016872407008893787,0.006543211098387837
1746729177427419400,3.52141943359375,-0.10714344690144062,-0.004991205016570166,0.0012912636532448232
1746729177437436400,3.5314365234375,-0.10594809963703154,-0.010919453421235084,0.0015360687271691858
1746729177447454500,3.541454345703125,-0.09966215123534201,-0.009212713435431941,-0.003324468247592449
1746729177457471500,3.551471435546875,-0.09083645522296428,-0.005295074200816452,-0.0005923398699611425
1746729177467489300,3.5614892578125,-0.10520166518390178,-0.015154214047314598,-0.0016147234539501368
1746729177477506300,3.57150634765625,-0.11193418830931186,-0.00777149251801893,0.005920366492308676
1746729177487523300,3.5815234375,-0.10609364558756351,-0.013010699212597683,0.0011991649230010807
1746729177497541400,3.591541259765625,-0.1053489647001028,-0.015751001763530073,0.00027468875553458925
1746729177507558400,3.601558349609375,-0.10564648634195327,-0.01599050960782915,0.0010427322522737084
1746729177517576400,3.611576416015625,-0.10744564471840858,-0.015721593005955218,0.0066426346185617146
1746729177527593500,3.621593505859375,-0.10011749378740786,-0.008967086377600207,0.006250749224144965
1746729177537610200,3.6316103515625,-0.10116261892616749,-0.008577867864305153,0.009620791912823915
1746729177547628300,3.641628173828125,-0.0999637645304203,-0.016760973390517755,-0.0030096118784509597
1746729177557645300,3.651645263671875,-0.10774784253537655,-0.008659244271134956,0.001674362953007221
1746729177567663400,3.661663330078125,-0.10161445434689521,-0.01299194884635508,-0.003940170726832002
1746729177577680400,3.671680419921875,-0.0954798971146345,-0.010928933635633438,-0.004568385627772659
1746729177587697200,3.681697265625,-0.09772796830236911,-0.012833899607276543,0.0009076894294470548
1746729177597715500,3.691715576171875,-0.09773147543370724,-0.009313598260330036,0.006926401729695499
1746729177607732200,3.701732177734375,-0.10476619637608528,-0.007600638596294448,-0.00395790731292218
1746729177617750500,3.71175048828125,-0.10910627140700817,-0.009212649503350257,-0.00778013248220086
1746729177627767300,3.721767333984375,-0.10282032300531864,-0.0025343955821357667,0.0037544754290021955
1746729177637784300,3.731784423828125,-0.08905249441564082,-0.008246663148561493,-0.0033954328582622107
1746729177647802400,3.74180224609375,-0.11045125627517699,-0.009562449321709573,0.0018468699757009743
1746729177657819400,3.7518193359375,-0.10416589239537716,-0.00923180172839202,0.0072722012263722715
1746729177667837400,3.76183740234375,-0.10401625479161739,-0.005539322152314707,-0.0010725246023386716
1746729177677854200,3.771854248046875,-0.10222001902461052,-0.011419438832625747,-0.0035930560559034345
1746729177687871500,3.78187158203125,-0.10027356113195418,-0.008359338875953108,0.00195080527421087
1746729177697889300,3.79188916015625,-0.09039864832758902,-0.011347588305966928,-0.001085530214384198
1746729177707906300,3.80190625,-0.0995277112007141,-0.01747851967588067,0.0033402138059958814
1746729177717924400,3.81192431640625,-0.09504150569736956,-0.012674681324418633,0.009367858331371099
1746729177727941400,3.82194140625,-0.11060498553216457,-0.008602353851590305,-0.00025713483253493905
1746729177737958400,3.83195849609375,-0.10582242743074893,-0.009062938834354281,-0.009549279312882571
1746729177747976200,3.84197607421875,-0.10013502944409847,-0.00015442337673157453,-0.002434625002089888
1746729177757993500,3.851993408203125,-0.0990881507396698,-0.013927585728652775,0.00502036717897281
1746729177768011300,3.86201123046875,-0.113004447889328,-0.008897318210173397,0.0017066212547942996
1746729177778028300,3.8720283203125,-0.10043605821728706,-0.008864411454414948,0.00090947952773422
1746729177788045300,3.88204541015625,-0.10627367832958698,-0.006323704862501472,-0.0015516864214092491
1746729177798063400,3.8920634765625,-0.09729542210400104,-0.01514994886415079,-0.0033372363976202904
1746729177808080400,3.902080322265625,-0.10283318248689174,-0.018599230801500378,-0.004907737117353827
1746729177818098400,3.912098388671875,-0.10926935301423073,-0.015190427005011588,0.0020450776952318844
1746729177828115500,3.922115478515625,-0.10447978065013885,-0.01324184108735062,-0.004034899805579334
1746729177838132500,3.932132568359375,-0.10373100810945034,-0.006358849241118878,-0.0009553462297655641
1746729177848150300,3.942150390625,-0.09864216053783893,-0.018361339525552467,0.003578680470678955
1746729177858167300,3.952167236328125,-0.10268179131746291,-0.011263946876814588,0.008942691721860319
1746729177868185300,3.962185302734375,-0.09834580793976783,-0.012005202831327914,-0.00033230069428682324
1746729177878202400,3.972202392578125,-0.10837211191356182,-0.00023556232154369353,-0.004939684891887008
1746729177888219400,3.982219482421875,-0.1106166759699583,-0.001035133467707783,-0.0108716322241351
1746729177898237400,3.992237548828125,-0.10313888743519782,-0.013614364194171502,-0.0009629267480224371
1746729177908254500,4.00225439453125,-0.09865092836618423,-0.004797125482885167,-0.0017631006823852658
1746729177918272300,4.012272216796875,-0.09775602535307407,-0.010188116072537378,-0.0047322526862844825
1746729177928289500,4.02228955078125,-0.1110737720876932,-0.011059510345896705,-0.005987257716059685
1746729177938306000,4.03230615234375,-0.09790858556628226,-0.014359227744722739,0.0018834391264244913
1746729177948324000,4.042323974609375,-0.10270049601793288,-0.008694589579151943,-0.004343618694879115
1746729177958341000,4.052341064453125,-0.10210019203722476,-0.013208313277084379,-0.0018875855785794554
1746729177968359000,4.06235888671875,-0.11137596990466117,-0.009223791951872408,-0.0022070633239112793
1746729177978376200,4.072376220703125,-0.09955518372952937,-0.006335121305659413,0.005563826405908912
1746729177988393000,4.08239306640625,-0.10105039072334766,-0.00876681456514634,-0.003085709321964532
1746729177998411300,4.092411376953125,-0.11421674628853798,-0.010345151531463488,-0.006109623720403761
1746729178008428000,4.102427978515625,-0.10463701703846454,-0.012100589497201143,-0.004687153169233352
1746729178018446000,4.112446044921875,-0.09580956746041774,-0.0023246161558199674,-0.00021950623588636516
1746729178028463000,4.122463134765625,-0.09625964931547641,-0.011945435468107462,-0.005541340579465031
1746729178038480100,4.132480224609375,-0.0994020389944315,-0.0015958543566986917,0.00016202216129750012
1746729178048498200,4.142498291015625,-0.10448971752226352,-0.009273439779877662,-0.0030642098762094973
1746729178058515000,4.152514892578125,-0.09955459920763969,-0.013001502125989646,0.00518852682011202
1746729178068533200,4.162533203125,-0.10344693047106265,-0.01145551479300484,0.0018386136040091513
1746729178078550000,4.172550048828125,-0.10150397970974445,-0.01319285997962579,-0.004670676958467811
1746729178088567000,4.182567138671875,-0.09985270537137984,-0.010458402647590265,0.001047408427391201
1746729178098585000,4.192585205078125,-0.09551613747179508,-0.0072647485722787675,-0.0004771890576928854
1746729178108602000,4.20260205078125,-0.09820902981758117,-0.013036308577889576,0.0030329927540384233
1746729178118620200,4.2126201171875,-0.10599193877875804,-0.013064182965504005,-0.00694457670720294
1746729178128637200,4.22263720703125,-0.10165069470405579,-0.0075087499286048106,0.0021244996069930493
1746729178138654000,4.232654052734375,-0.08922726646065711,-0.005099469430325553,0.000027180267870426175
1746729178148672000,4.242672119140625,-0.11751052713692188,-0.004081131833791733,-0.0002846621602773666
1746729178158689000,4.25268896484375,-0.10284370388090609,-0.009983158951811491,-0.0006758169023320078
1746729178168707000,4.26270703125,-0.10134265166819095,-0.009615065424935891,-0.001550152051448822
1746729178178724000,4.27272412109375,-0.09835282220244407,-0.016208855933090672,-0.0029597265884280205
1746729178188741000,4.2827412109375,-0.10494038389921188,-0.010008549121394752,0.005596924957912415
1746729178198759200,4.29275927734375,-0.10149813449084759,-0.002734877457143739,0.0008122114320285618
1746729178208776000,4.30277587890625,-0.09521335513293742,-0.007720374252134934,-0.004140460805594921
1746729178218794000,4.3127939453125,-0.10598843164741992,-0.011374110986711457,0.0009432721994817256
1746729178228811000,4.32281103515625,-0.09640987144112587,-0.012817688257992267,-0.0017330343376845121
1746729178238828300,4.332828369140625,-0.09955401468575001,-0.008943623303622007,0.004609137763269246
1746729178248846000,4.34284619140625,-0.10060323147773742,-0.01574393270192668,0.006368621716462075
1746729178258863000,4.352863037109375,-0.0938677857428789,-0.01115655924589373,0.0011257891595363616
1746729178268881200,4.362881103515625,-0.09327157341539859,-0.01259688511416316,-0.0023373569063842295
1746729178278898000,4.37289794921875,-0.10704057104885578,-0.0073172916102688754,0.006277491100598127
1746729178288915200,4.382915283203125,-0.10135434210598468,-0.017008445345563814,0.0034470534476451573
1746729178298933000,4.39293310546875,-0.1033013845205307,-0.007679585584020242,-0.0016855602004565299
1746729178308950300,4.4029501953125,-0.10165712444484233,-0.0035109763961751013,-0.005893113159202039
1746729178318968000,4.412968017578125,-0.10464929199814796,-0.00910894253370352,-0.007090889842715114
1746729178328985000,4.422985107421875,-0.10075754525661468,-0.013903483333857729,-0.0009121829414740205
1746729178339002000,4.433002197265625,-0.09686521399319171,-0.012842640036158263,0.005899908226169645
1746729178349020000,4.44302001953125,-0.1041986256211996,-0.014825667079538106,0.000379994027223438
1746729178359037200,4.453037109375,-0.08983400018215179,-0.013125439032912254,-0.0007442424960434436
1746729178369055000,4.463054931640625,-0.10300269383490085,-0.011418187590455636,-0.006797752115037292
1746729178379072300,4.473072265625,-0.09866320332586764,-0.011490111182350665,-0.006682802232168615
1746729178389089000,4.483089111328125,-0.11123217751979828,-0.008652010812750086,0.007847681293077766
1746729178399107000,4.493107177734375,-0.10210369916856288,-0.004466012098686769,-0.000045227381214499474
1746729178409124000,4.5031240234375,-0.10075812977850436,-0.005262505371775478,0.0005465644994750618
1746729178419142000,4.513141845703125,-0.10345569829940796,-0.004482497442606836,-0.005897551872301846
1746729178429159200,4.5231591796875,-0.10061550643742084,-0.0072910246578510845,-0.0024922552071511743
1746729178439176200,4.53317626953125,-0.09612404023706912,-0.002541957834083587,-0.003849916893802583
1746729178449194200,4.5431943359375,-0.1034539447337389,-0.01390753845446743,0.005095733970124274
1746729178459211000,4.5532109375,-0.1040548332363367,-0.01070397490649484,0.004568750953953713
1746729178469229000,4.56322900390625,-0.10525368763208388,-0.005912712908815592,-0.004258406363148242
1746729178479246000,4.57324609375,-0.10406009393334388,-0.008922297387802973,0.0074851681236177674
1746729178489263000,4.58326318359375,-0.10376140324771403,-0.007217731092777103,0.0027801139715127646
1746729178499281200,4.59328125,-0.09388415235579013,-0.01217006540368311,0.0031229177935048935
1746729178509298200,4.603298095703125,-0.10016776266992092,-0.01658652100590989,0.009498005783371627
1746729178519316200,4.613316162109375,-0.10735036765038966,-0.010280543596344068,-0.0053268941111862655
1746729178529333000,4.6233330078125,-0.11348667844831943,-0.008339985721511766,-0.0028881226569414135
1746729178539350000,4.63335009765625,-0.1016676458388567,-0.00776743739740923,-0.004354907273873687
1746729178549368000,4.6433681640625,-0.09762976862490176,-0.012748184952046722,-0.00394818963650614
1746729178559385000,4.653385009765625,-0.10137187776267528,-0.014987835371308027,-0.007299509358406066
1746729178569403100,4.663403076171875,-0.09463818559348583,-0.0073243789381813255,-0.0015955438294447957
1746729178579420200,4.673420166015625,-0.08984744418561458,-0.005885002917982637,-0.011843783458229154
1746729178589437000,4.68343701171875,-0.10675473984479904,-0.008261349261039868,0.001403765850700438
1746729178599455200,4.693455322265625,-0.10316285283267497,-0.019298437712574376,-0.002515544751193374
1746729178609472000,4.703471923828125,-0.0941863501727581,-0.013643572022346779,-0.0033485980418510733
1746729178619490000,4.713489990234375,-0.09957388842999934,-0.013577721978211775,-0.0011020429577678441
1746729178629507000,4.723507080078125,-0.09732990889549255,-0.009170344731584191,-0.00738013684656471
1746729178639524000,4.733524169921875,-0.10346446612775326,-0.009510582137154415,-0.0022159224838018414
1746729178649542100,4.743542236328125,-0.09837678759992122,-0.01102791876439005,0.003229172913264483
1746729178659559000,4.753558837890625,-0.10226678077578544,-0.00430000788201578,-0.0016081475826911628
1746729178669577200,4.7635771484375,-0.11214520071148872,-0.009881570874014868,0.007464618525933474
1746729178679594000,4.773593994140625,-0.10750292786359786,-0.011494833023240789,0.003291990750096738
1746729178689611300,4.783611328125,-0.10181786796450615,-0.009374507267866284,-0.005253627945575863
1746729178699629000,4.793629150390625,-0.10017185432314872,-0.0014269092642702162,0.003559994036518037
1746729178709646000,4.80364599609375,-0.10151567014753818,-0.008112606706423685,0.004981441674381494
1746729178719664000,4.8136640625,-0.0977764836192131,-0.012624960431177168,-0.0036880225966684516
1746729178729681000,4.823680908203125,-0.10600362921655178,-0.01274034870546311,-0.0025059732052497563
1746729178739698200,4.8336982421875,-0.1085468839585781,-0.004263183002965525,-0.0011676007409580052
1746729178749716000,4.843716064453125,-0.10704992339909077,-0.0033029414023738354,0.004053275712486357
1746729178759733200,4.853733154296875,-0.09851765737533569,-0.01732438856009394,0.007124591182917356
1746729178769751000,4.8637509765625,-0.09926818348169326,-0.013643818617518991,0.0031021307338029145
1746729178779768000,4.87376806640625,-0.11303542754948138,-0.00908963504503481,-0.0038481267955154178
1746729178789786000,4.8837861328125,-0.09477613275945186,-0.013559537867549806,-0.006835526842158287
1746729178799803100,4.89380322265625,-0.10973930861353874,0.0014031904619652778,-0.0009804076057858765
1746729178809820200,4.903820068359375,-0.0947784708470106,-0.008612628650432452,-0.009472031091898678
1746729178819838000,4.913837890625,-0.10764847381412983,-0.013956282100174576,0.000813745801988989
1746729178829855200,4.923855224609375,-0.10180968465805053,-0.010053776502609251,0.004546082464419305
1746729178839872000,4.9338720703125,-0.10809504853785037,-0.002288786790613085,0.006225596516579389
1746729178849890000,4.94389013671875,-0.11393149960637092,-0.009369438367104157,-0.0033277927158400413
1746729178859907000,4.953906982421875,-0.10674947914779186,-0.008982548808213323,-0.005098510449100285
1746729178869925000,4.963925048828125,-0.1049567505121231,-0.005265227051824331,-0.0018567703152075408
1746729178879942100,4.973942138671875,-0.1049567505121231,-0.00541465459302999,0.0059223575199954205
1746729178889959200,4.983959228515625,-0.11094050109684467,-0.008338350886851548,-0.0016061017560772596
1746729178899977200,4.993977294921875,-0.10271335549950598,-0.004157055747369304,-0.006002491817809641
1746729178909994200,5.003994140625,-0.09568155716657638,-0.011639292128384113,-0.0010264752372168005
1746729178920012000,5.014011962890625,-0.10824877779483795,-0.003148600224032998,0.003984320395812392
1746729178930029000,5.024029052734375,-0.10600070660710334,-0.0037241442228201777,-0.0007864194036461413
1746729178940047400,5.03404736328125,-0.10076280595362186,-0.009442074345052242,0.006994809057097881
1746729178950064000,5.044064208984375,-0.10016133292913436,-0.005259993754280731,-0.004790120353363454
1746729178960081400,5.054081298828125,-0.11348258679509163,-0.003473676593089476,0.0053173408315517
1746729178970099200,5.06409912109375,-0.10465455269515514,-0.01051177680264227,-0.0054744128230959175
1746729178980116200,5.0741162109375,-0.10659984154403208,-0.005181969215162098,0.005479527389630675
1746729178990134300,5.08413427734375,-0.09612345571517944,-0.007942465170752257,-0.005696768603194504
1746729179000151000,5.094151123046875,-0.1040548332363367,-0.002471093688113615,-0.002846749466937035
1746729179010168300,5.104168212890625,-0.10375380446314811,-0.0012829068168532102,0.004727777440566569
1746729179020186000,5.11418603515625,-0.10674831010401248,-0.0039480435060337184,0.0030151283037848768
1746729179030203400,5.124203369140625,-0.10210837534368038,-0.009029155295761301,0.007926865742821245
1746729179040220200,5.13422021484375,-0.10345219116806983,-0.0038440534085966644,-0.0006473945254459977
1746729179050238200,5.14423828125,-0.09491641801297664,-0.009479072754038496,0.005405968963075429
1746729179060255200,5.154255126953125,-0.09775836344063281,-0.011356785392574965,-0.006929086877126246
1746729179070273300,5.164273193359375,-0.10030220270454883,-0.00577984377676621,-0.0001746259145438671
1746729179080290300,5.174290283203125,-0.09700666829049587,-0.018036062227096406,-0.0018184475988149641
1746729179090308000,5.18430810546875,-0.10283961222767829,-0.011328481746697797,-0.0012596994712017475
1746729179100325000,5.1943251953125,-0.10673135896921157,-0.017490657638246192,0.0055653973084874445
1746729179110342100,5.204342041015625,-0.09565700724720955,-0.007373296113824471,0.0018553638094104825
1746729179120360200,5.214360107421875,-0.10568272669911384,-0.006861949058203027,0.0015894246159121393
1746729179130377200,5.224377197265625,-0.10343640907704829,-0.004463007290847599,0.00038892625235021114
1746729179140395300,5.234395263671875,-0.10403028331696987,-0.008132891442626715,0.009149868199136107
1746729179150412300,5.244412353515625,-0.10417758283317088,-0.009747961956448852,-0.005085486570745706
1746729179160429300,5.25442919921875,-0.1068698906570673,-0.007930418539931997,-0.0015148615423589945
1746729179170447000,5.264447021484375,-0.10088555555045604,-0.002732840763684362,-0.0005338146157562732
1746729179180464400,5.27446435546875,-0.10133446836173533,-0.011485298009915277,0.006291811886895447
1746729179190482200,5.284482177734375,-0.10013736753165721,-0.01569275963711552,0.0013553235990926623
1746729179200499200,5.294499267578125,-0.10058569582104682,-0.008277250083070248,-0.0004468121857382357
1746729179210516200,5.30451611328125,-0.09415420146882533,-0.005530974449077621,0.0013925686032511292
1746729179220534300,5.3145341796875,-0.10074059412181377,-0.005923654427938163,-0.002415481910202652
1746729179230551300,5.32455126953125,-0.10163900426626205,-0.010311148797161877,0.003084028821531683
1746729179240569000,5.334569091796875,-0.09804770177602767,-0.010244522434892132,0.007300020815059542
1746729179250586400,5.34458642578125,-0.09670096334218978,-0.01066413608645089,0.008967972293589263
1746729179260603100,5.35460302734375,-0.10597732573151587,0.002107247078092769,0.0013302439567632973
1746729179270621200,5.36462109375,-0.10148702857494353,-0.0063080323693342506,0.0007553484119474887
1746729179280638200,5.37463818359375,-0.10583119525909424,-0.000724633613275364,-0.00022805486852303146
1746729179290656300,5.38465625,-0.11166764632761478,-0.007588016576739028,0.0015451653490774332
1746729179300673300,5.39467333984375,-0.10223697015941142,-0.006706740230182185,0.006835472043231129
1746729179310690000,5.40468994140625,-0.1049304470270872,-0.01822888138545677,-0.0003240260562859475
1746729179320708400,5.414708251953125,-0.1016407578319311,-0.008966538388328626,-0.010326108904276042
1746729179330725000,5.42472509765625,-0.10852350308299064,-0.007953251426247879,0.002547181998472661
1746729179340743400,5.434743408203125,-0.11286124002635478,-0.005245033647166565,0.0001606704544275999
1746729179350760200,5.44476025390625,-0.09594926819205284,-0.007382584531977772,0.002679210880305618
1746729179360777200,5.454777099609375,-0.10328034173250197,-0.0013993545370642095,-0.004771141658257693
1746729179370795300,5.464795166015625,-0.11450199297070503,-0.0028335611918009814,0.005036003139521926
1746729179380812300,5.474812255859375,-0.10282909083366393,-0.014180364046478643,-0.009865176861640065
1746729179390830300,5.484830322265625,-0.10103285506665706,-0.0045658740102779115,-0.010416472335159778
1746729179400847000,5.49484716796875,-0.10312661247551441,-0.00614097783989273,0.0030655615830793973
1746729179410864000,5.504864013671875,-0.10283084439933299,-0.012248089942801743,0.010046963169332594
1746729179420882200,5.514882080078125,-0.10103343958854674,-0.0027285755805205552,0.00013940847069025038
1746729179430899200,5.524899169921875,-0.10193126521110533,-0.000055958837782964105,0.0001334171213209629
1746729179440917200,5.534917236328125,-0.09773965874016284,-0.008236662344355135,-0.002760477689281106
1746729179450934300,5.544934326171875,-0.08935469223260879,-0.007896799398120493,0.0030864217080175875
1746729179460951300,5.554951416015625,-0.09204758457839489,-0.007351933665387332,0.006446344861481338
1746729179470969000,5.564968994140625,-0.10207564211785793,-0.010290224740142002,0.002345211419276893
1746729179480986000,5.574986083984375,-0.11090309169590473,-0.00895823635086417,-0.0010436638340353965
1746729179491004200,5.585004150390625,-0.10207271950840949,-0.008181087099062278,-0.0021699644502252338
1746729179501021200,5.595021240234375,-0.10491524945795536,-0.004383740642713382,0.005812832730915397
1746729179511038200,5.6050380859375,-0.10835574530065059,-0.009005226430902256,0.002746887555345893
1746729179521056300,5.61505615234375,-0.11269114415645598,-0.014390417467430233,0.002999601941090077
1746729179531073300,5.6250732421875,-0.09922142173051833,-0.002703906930144876,0.001442070300783962
1746729179541091300,5.63509130859375,-0.09832359610795974,-0.006449267470929772,-0.004226787382178008
1746729179551108000,5.645108154296875,-0.11762976960241794,-0.00680168850463815,0.0036256431512534616
1746729179561125400,5.65512548828125,-0.10461129807531833,-0.019160938071180134,0.007399992324505001
1746729179571143200,5.66514306640625,-0.10236556497514247,-0.007002243444882333,-0.0019784787324257196
1746729179581160200,5.67516015625,-0.10101707297563552,-0.0034790651542600244,-0.003565035537816584
1746729179591178200,5.68517822265625,-0.09922375981807709,-0.006011643238645047,0.002839808269497007
1746729179601195300,5.6951953125,-0.10895195762813091,-0.00229067735360004,0.007928820237889886
1746729179611212300,5.70521240234375,-0.10656301666498183,-0.010687252100557088,0.006111614748090505
1746729179621230000,5.71522998046875,-0.11284954958856105,-0.003088458401476964,-0.0012423282112926245
1746729179631247400,5.725247314453125,-0.10851005907952785,-0.00017769465446472167,0.005537504654563963
1746729179641265200,5.73526513671875,-0.10222294163405894,-0.0001635565312579274,0.005350731644500046
1746729179651282400,5.745282470703125,-0.10626140336990356,0.0064362709920387715,-0.003851524328999221
1746729179661299200,5.75529931640625,-0.10820844578444958,-0.004065559805324301,0.009456249000877142
1746729179671317200,5.765317138671875,-0.09593874679803847,0.0009058810648508369,-0.004916724141407758
1746729179681334300,5.775334228515625,-0.093694182741642,-0.009973212946532294,0.004531341553013771
1746729179691352000,5.78535205078125,-0.10656477023065089,-0.012649300287989898,-0.001590684991236776
1746729179701369300,5.795369384765625,-0.0996802714139223,0.00034583602929487824,0.005476422117091715
1746729179711386000,5.80538623046875,-0.10611293480992316,-0.007318314523575827,0.0037328115864656863
1746729179721404400,5.815404296875,-0.09309446328282356,-0.011203448861232026,0.006745273009128868
1746729179731421200,5.825421142578125,-0.1016197150439024,-0.007100863247457892,0.0068834393708035345
1746729179741439200,5.835439208984375,-0.10146949291825294,-0.008783007648121566,0.007926062025222927
1746729179751456300,5.845456298828125,-0.10865034433305262,-0.005888016858976334,0.00659696884592995
1746729179761473300,5.855473388671875,-0.09473638527095317,-0.0008708554172422736,0.006457231581676751
1746729179771491300,5.8654912109375,-0.10491291137039661,-0.008647727363277227,0.003576251051574945
1746729179781508000,5.875508056640625,-0.10012684613764286,-0.006620788112934679,0.008386172083951532
1746729179791526400,5.8855263671875,-0.10416647691726684,-0.0008207235320471227,-0.00020814459165558217
1746729179801543200,5.895543212890625,-0.10895604928135871,-0.0049322505041025574,0.00007679156325757503
1746729179811560200,5.905560302734375,-0.10581482864618301,-0.005954643221246079,0.004604881713259965
1746729179821578200,5.915578125,-0.10731062016189098,-0.013973269767593591,0.0018887911549769342
1746729179831595300,5.92559521484375,-0.10760638823807239,-0.00785468642259948,0.004886255937907844
1746729179841613300,5.93561328125,-0.10490940423905849,-0.007399079009052366,0.005325925996806472
1746729179851630300,5.94563037109375,-0.10535948609411716,-0.004176527632819488,0.000969886211771518
1746729179861648400,5.9556484375,-0.0987742624849081,-0.004037557553546503,-0.008405625703092664
1746729179871665200,5.9656650390625,-0.11119476811885833,-0.0007569923797622322,0.00384544164808467
1746729179881682200,5.97568212890625,-0.11239186894893645,-0.010107077592425047,0.013463347484078257
1746729179891700200,5.9857001953125,-0.107301267811656,-0.00821140917208977,0.00000608268091455102
1746729179901717200,5.99571728515625,-0.11253975298702716,-0.004736152543267235,-0.0013749964139424264
1746729179911735300,6.0057353515625,-0.103261637032032,-0.00906176065742038,-0.00209061560370028
1746729179921752300,6.01575244140625,-0.10595394485592842,-0.0024541151538491246,0.004639149309042841
1746729179931769000,6.02576904296875,-0.09697685767412186,-0.006515683770645409,0.005634243027307093
1746729179941787600,6.03578759765625,-0.10041501542925835,-0.014193689318932593,0.004850636635255068
1746729179951805000,6.045804931640625,-0.09128127638101577,-0.01168359706099145,0.008693173940200359
1746729179961822700,6.05582275390625,-0.0923299086511135,0.0019154873656574635,0.0016023754290305078
1746729179971839700,6.06583984375,-0.10460311476886272,-0.0036600568775087593,-0.003256170518044382
1746729179981856800,6.075856689453125,-0.098918054869771,-0.002114453137014061,0.007036291844956576
1746729179991874800,6.085874755859375,-0.10729600711464882,0.0005848689495585858,0.0035298728928901254
1746729180001891800,6.095891845703125,-0.10071019898355006,-0.012389306778088211,0.007886698129214345
1746729180011909600,6.10590966796875,-0.09891630130410194,-0.0034583876924123612,-0.00006471753297373653
1746729180021927000,6.115927001953125,-0.10490414354205131,-0.007851645082142204,0.0010121909835375845
1746729180031943700,6.125943603515625,-0.10999065302610396,-0.00739275886612013,0.007779420096147805
1746729180041961700,6.135961669921875,-0.11058861891925334,-0.009948964421264826,0.005706614143773913
1746729180051978800,6.145978759765625,-0.10460194572508334,-0.002173846040898934,0.014380498861614613
1746729180061996800,6.155996826171875,-0.10864216102659702,-0.0103624497261364,0.006830028683133423
1746729180072013800,6.166013916015625,-0.10026128617227077,-0.008166592782828956,0.010751439910568296
1746729180082030800,6.17603076171875,-0.11402502310872077,-0.012496447813836856,0.003998951709363609
1746729180092049000,6.186048828125,-0.10953238786458969,-0.010737676246697083,0.001504340148344636
1746729180102066000,6.19606591796875,-0.10668751982748508,-0.0010107114125043153,0.005324245496373624
1746729180112083700,6.206083740234375,-0.10204992315471172,-0.004241135567938909,-0.0009840243349783122
1746729180122100700,6.216100830078125,-0.10339607706665992,-0.002069682413525879,0.0028405754544772207
1746729180132117800,6.22611767578125,-0.10279811117351055,0.00038023148924112317,0.007776625350862741
1746729180142135800,6.2361357421875,-0.10504325975179672,-0.0001047481492627412,-0.00019519377853721378
1746729180152152800,6.24615283203125,-0.10534078139364719,-0.004265831617778167,0.003477612982690334
1746729180162170600,6.256170654296875,-0.10055237807333468,-0.008454323683027178,0.0022801285601221025
1746729180172188000,6.26618798828125,-0.10429390268921851,-0.0006779631936457008,-0.00036549057783558965
1746729180182204700,6.27620458984375,-0.10145721795856952,-0.005504159507388248,-0.0037377252236008643
1746729180192222700,6.28622265625,-0.10160393295288085,-0.0035806714983657,-0.0021087723148986697
1746729180202239700,6.29623974609375,-0.10848726272583008,-0.005534709909278899,0.004904777975287288
1746729180212257800,6.3062578125,-0.10564765538573265,-0.005340858704457059,0.0016533018986694514
1746729180222274800,6.31627490234375,-0.11387947715818882,-0.0039194293329026545,0.007750687192007899
1746729180232291600,6.32629150390625,-0.10415654004514217,-0.004704634026996791,0.0019534721553325653
1746729180242310000,6.336309814453125,-0.10670330191850662,-0.0010216985973995178,0.009135876206401735
1746729180252326700,6.34632666015625,-0.0957809258878231,-0.0037811625065281985,0.00660182768413797
1746729180262345000,6.356344970703125,-0.11418342854082583,-0.005422901831567287,0.00006060761343687772
1746729180272361700,6.36636181640625,-0.10834639295041561,-0.010701152761746198,0.0014382891748100518
1746729180282378800,6.376378662109375,-0.09667641342282295,-0.004875341818248852,0.0059098268319852645
1746729180292396800,6.386396728515625,-0.09981704953610897,0.0003508044653572142,0.007574746103212237
1746729180302413800,6.396413818359375,-0.09996844070553779,-0.004002467973856255,0.006440006452240049
1746729180312431900,6.406431884765625,-0.10879881289303302,-0.00663210409139283,0.0069022902017459265
1746729180322448600,6.41644873046875,-0.10535831705033778,-0.006510861465055495,0.0016176460633985697
1746729180332467000,6.426467041015625,-0.10715572186112403,-0.0040893060070928185,0.0013903218472376465
1746729180342483700,6.436483642578125,-0.11314064148962497,-0.0004166727758012712,-0.0010210136108100413
1746729180352500700,6.446500732421875,-0.10640636479854583,-0.0028961324334610254,0.002336260927841067
1746729180362518800,6.456518798828125,-0.09369126013219356,-0.0021472502949181943,0.005075896758493036
1746729180372535800,6.466535888671875,-0.11090133813023567,0.0007384064103011041,0.00024453107928857205
1746729180382553900,6.476553955078125,-0.10955226160883903,-0.002055279428837821,0.0023912973170168695
1746729180392570600,6.486570556640625,-0.10326689772903919,0.0011024996154941618,0.007512165728397667
1746729180402587600,6.496587646484375,-0.10147066196203232,0.0001964541538618505,0.00213524019671604
1746729180412605700,6.506605712890625,-0.10237082567214965,0.0012687778268009424,0.007369999045040458
1746729180422622700,6.516622802734375,-0.1043166990429163,-0.006433777640853077,0.010300755267310887
1746729180432640800,6.526640869140625,-0.09578852467238902,0.0021545476853847504,-0.002127550080604851
1746729180442657800,6.53665771484375,-0.10461772781610489,-0.0009940434054937213,0.004565298621542752
1746729180452674800,6.5466748046875,-0.09982698640823363,0.00032128610992804166,-0.004768091184645891
1746729180462692900,6.55669287109375,-0.1088040735900402,0.00006284523629583418,0.01123814571527764
1746729180472709600,6.566709716796875,-0.10535948609411716,-0.003305964476522058,0.006231752262730151
1746729180482727700,6.576727783203125,-0.09772972186803817,-0.0015701810593251138,0.003352360901515931
1746729180492744700,6.58674462890625,-0.09982523284256457,-0.005012357402453199,0.00221044259108603
1746729180502761700,6.59676171875,-0.10475976663529872,0.000732889984967187,0.004097827240265905
1746729180512779800,6.60677978515625,-0.10640285766720771,0.0013679182191845029,0.0072557432819157835
1746729180522796800,6.616796875,-0.09727321027219295,-0.008003164115734398,0.0009159823337569832
1746729180532814800,6.62681494140625,-0.09293371976315974,-0.0034831385411787778,0.006918547216802835
1746729180542831600,6.63683154296875,-0.09802198281288146,-0.006393281233683228,-0.0019025091530755162
1746729180552849000,6.646848876953125,-0.11044131940305232,0.000591033828863874,0.0028245559014379975
1746729180562866700,6.65686669921875,-0.1001163247436285,0.000005744754197075963,0.007627773198392242
1746729180572884000,6.666884033203125,-0.10983926185667514,-0.008689246683754027,0.015103716835938393
1746729180582901800,6.67690185546875,-0.09203647866249084,-0.006738505341624841,-0.00026856954200193283
1746729180592918800,6.686918701171875,-0.1105950486600399,-0.0022023780156392603,0.0035017610432580113
1746729180602935800,6.696935791015625,-0.10596037459671497,-0.0007448909500148147,0.002478482410125434
1746729180612953600,6.70695361328125,-0.1231692835509777,-0.004393029060866684,0.00033191710179671644
1746729180622971000,6.716970947265625,-0.11419161184728145,-0.007008472256269305,0.010376067259535193
1746729180632988700,6.72698876953125,-0.10626140336990356,-0.0044466589442454275,0.009600315380375831
1746729180643006000,6.737005859375,-0.09593933131992817,-0.00417251817798242,0.0014615421862341463
1746729180653022700,6.747022705078125,-0.09982757093012333,-0.0013785674773622303,-0.0033927111782133578
1746729180663040800,6.757040771484375,-0.10985095229446887,-0.0020017226106952874,0.004861340692359954
1746729180673057800,6.767057861328125,-0.1046124671190977,-0.0040037466154899445,0.01049309950163588
1746729180683075600,6.77707568359375,-0.09713234049677848,-0.003830819467687979,0.006918967341911047
1746729180693092900,6.7870927734375,-0.10760405015051364,-0.0031063045854214577,0.0013495697117410599
1746729180703109600,6.797109619140625,-0.10416004717648028,0.0016194544279947876,-0.00022904124921187757
1746729180713128000,6.8071279296875,-0.09847323371171951,0.0002122727775014937,0.008286693764850497
1746729180723144700,6.817144775390625,-0.09832359610795974,-0.007839771981257945,0.013528704337868838
1746729180733162800,6.827162841796875,-0.10011807830929756,-0.0006827854992356151,0.010058233482018113
1746729180743179800,6.8371796875,-0.1059504377245903,-0.0026201650362927464,0.009610069589409976
1746729180753197600,6.847197509765625,-0.1035538979768753,0.0012984149132389575,0.0016374102097935974
1746729180763214800,6.85721484375,-0.0981640216320753,-0.00020390680795535443,0.009715447926335037
1746729180773231900,6.86723193359375,-0.11058335822224616,-0.00583303526872769,-0.005949629119411111
1746729180783250000,6.87725,-0.10938508834838867,0.005523567460756749,0.0041120749613270165
1746729180793266700,6.8872666015625,-0.09397183063924312,-0.011087485198210924,0.014317607959546149
1746729180803285000,6.897284912109375,-0.11028174492716789,-0.0009824808318633586,-0.0003563026243820786
1746729180813301800,6.9073017578125,-0.10100538253784179,-0.005330081582115963,-0.0006465542752295732
1746729180823318800,6.91731884765625,-0.10504618236124515,-0.007451494182879105,0.009886183117050676
1746729180833336800,6.9273369140625,-0.10444587838053702,-0.011369772738311438,-0.00039060675278306006
1746729180843353900,6.937353759765625,-0.10399638104736804,-0.006469643538678065,0.00148917911183089
1746729180853372000,6.947371826171875,-0.10369710583984851,0.00022821013214997945,0.013904424048773944
1746729180863388700,6.957388671875,-0.09905483299195766,-0.003484216253412887,0.004028104738611728
1746729180873405700,6.96740576171875,-0.10638766009807586,-0.008405954496655613,-0.0006110263041220605
1746729180883423700,6.977423828125,-0.09471475796103476,-0.0025261574767529963,0.007079838725738227
1746729180893440800,6.987440673828125,-0.11176876861453056,-0.0066183038949035105,0.0029166728979907928
1746729180903458800,6.997458740234375,-0.09785422503054142,-0.006777175117889419,0.007705313680320978
1746729180913475800,7.007475830078125,-0.09755319625735283,-0.00025560046257451177,-0.0012900398105382919
1746729180923492600,7.01749267578125,-0.10189327128827572,0.0010908274440094828,-0.006403254638426005
1746729180933510700,7.0275107421875,-0.11146949340701102,-0.002852978278324008,0.011685962548013776
1746729180943529700,7.03752978515625,-0.10174246464073658,-0.0075236552367918185,0.007366327516920864
1746729180953547800,7.0475478515625,-0.096805008238554,0.0008597951671108603,0.013483020298928021
1746729180963564500,7.057564453125,-0.10323825615644454,-0.003465310623543337,0.005608377933688461
1746729180973581600,7.06758154296875,-0.1003945571631193,-0.0012464381308294832,-0.0009535378651693463
1746729180983599600,7.077599609375,-0.09875088160932063,0.0025224220165517178,0.008757233886048198
1746729180993616600,7.08761669921875,-0.1045867481559515,-0.00025569179411977526,0.003239292448479682
1746729181003634700,7.097634765625,-0.10638532201051712,-0.004409203877532854,0.006673358550388366
1746729181013651700,7.107651611328125,-0.10429214912354945,-0.005061530306423083,0.0025952041249722242
1746729181023668500,7.11766845703125,-0.09037760553956031,-0.00009045476242899895,0.003130827105324715
1746729181033686500,7.1276865234375,-0.10953004977703094,0.0008777326826006174,-0.00013398337690159677
1746729181043703600,7.13770361328125,-0.10758242284059524,-0.0008532832279335707,0.005746105903945863
1746729181053721600,7.1477216796875,-0.10473697028160095,-0.007811751463171094,0.016661431139335034
1746729181063738600,7.157738525390625,-0.10997603997886181,0.0036029929280281064,0.007784278934355825
1746729181073755400,7.16775537109375,-0.09126900142133236,0.004049366722349077,0.0030849421369843182
1746729181083773700,7.177773681640625,-0.10458324102461337,-0.004521039354708045,0.0050095535240136085
1746729181093790500,7.18779052734375,-0.10383096135258674,0.0027904161698184904,0.00017027853298932314
1746729181103808800,7.197808837890625,-0.11444880147874355,-0.007696701115602627,0.011589900028705595
1746729181113825500,7.207825439453125,-0.10502513957321644,-0.006821763178287073,0.005514178577903658
1746729181123842800,7.2178427734375,-0.10293255120813846,-0.006094709279062226,0.008835048362612724
1746729181133860600,7.227860595703125,-0.10607377184331417,-0.0052421384371817105,0.0037808702455833553
1746729181143877600,7.237877685546875,-0.11789455801844596,-0.00014747304613701997,0.004337499481346458
1746729181153895700,7.247895751953125,-0.10008885221481323,-0.005939564383123069,0.0051350795998238025
1746729181163912400,7.257912353515625,-0.10098258618414402,-0.0015280863501131534,0.00885852056974545
1746729181173930800,7.2679306640625,-0.10187924276292323,-0.00043089309739880263,0.004437196996156126
1746729181183947500,7.277947509765625,-0.10426993729174136,0.002928061941685155,-0.004870254651177674
1746729181193964500,7.287964599609375,-0.10486614961922168,-0.0015112904789391904,0.008727496334910392
1746729181203982600,7.297982666015625,-0.10621054996550082,-0.012781685362849383,0.009857961669564246
1746729181213999600,7.30799951171875,-0.10336275931894778,-0.0036047282273881137,0.014193817183095961
1746729181224016600,7.3180166015625,-0.09214110808074474,0.000038797640427947044,0.009515285711735487
1746729181234034400,7.328034423828125,-0.09931962140798568,0.004106704666465521,-0.00031109350947663186
1746729181244051700,7.3380517578125,-0.10335574505627154,-0.005549743081629276,0.006642232759762555
1746729181254069500,7.348069580078125,-0.10829261693656445,-0.0028183636226691306,0.012016235681995748
1746729181264086500,7.35808642578125,-0.10185527736544608,0.00000864909733645618,0.002254007738176733
1746729181274104600,7.3681044921875,-0.10320026223361492,-0.007605159507784992,0.009601648820936679
1746729181284121600,7.37812158203125,-0.10409458072483539,-0.007336516900546848,0.0026111323464661834
1746729181294138600,7.388138671875,-0.10588672483861446,-0.009009382016211747,0.0019288857033476232
1746729181304156400,7.398156494140625,-0.10349252317845821,-0.002525244161300361,-0.00102289504064247
1746729181314173700,7.408173583984375,-0.09989712903499602,-0.012804801376955582,0.00478043920956552
1746729181324191500,7.41819140625,-0.10782616846859454,-0.008099829423241316,0.0051856590095907444
1746729181334208500,7.42820849609375,-0.096003044205904,-0.003383788086241111,0.010404032978694886
1746729181344225500,7.4382255859375,-0.10497954686582088,-0.005643558844923973,0.005522727210540324
1746729181354243600,7.44824365234375,-0.09944587813615799,-0.0035784430086612698,0.006507737926207483
1746729181364260600,7.458260498046875,-0.10618366195857525,-0.003307069588219747,0.0117087406354025
1746729181374278700,7.468278564453125,-0.0966086088836193,-0.00595634198798798,0.0018567155162803827
1746729181384295700,7.478295654296875,-0.10154664980769157,-0.00399642182555981,0.006213595551531762
1746729181394312700,7.488312744140625,-0.09989771355688572,0.00018244389481842516,0.0010194792408496141
1746729181404330500,7.49833056640625,-0.10558335797786712,-0.00027373890746384857,0.011367599047534167
1746729181414347800,7.50834765625,-0.09914835649430752,-0.0020518910285085437,0.012167115394771099
1746729181424365600,7.518365478515625,-0.09690086982846259,0.0005353946514893323,0.012076423170324414
1746729181434382600,7.528382568359375,-0.10602642557024955,-0.009097909683035687,0.008714070597756654
1746729181444399600,7.538399658203125,-0.10108546203672886,-0.00017342033814638852,0.00895781622575596
1746729181454417700,7.548417724609375,-0.10212766456604003,-0.0031096747194416818,0.006306735461391508
1746729181464434700,7.5584345703125,-0.09793898070454597,-0.008358087633782997,0.012389215446542947
1746729181474452500,7.568452392578125,-0.10856325057148933,-0.015135107488045469,0.013093125932198017
1746729181484469800,7.5784697265625,-0.0992839655727148,-0.007509243118949234,0.00914475363260135
1746729181494486500,7.588486572265625,-0.10736322713196277,0.0007744275717530399,0.010195504794549197
1746729181504504600,7.598504638671875,-0.11574234842061996,-0.005032231146702542,0.0008777874815277754
1746729181514521600,7.608521484375,-0.10002864646017551,-0.006851893455069512,0.008858337906654924
1746729181524539600,7.61853955078125,-0.10556582232117652,-0.006843655349686741,0.008405552637856454
1746729181534556700,7.628556640625,-0.09808628022074699,0.0007604173127096146,0.014190109122358262
1746729181544573400,7.638573486328125,-0.10572072062194347,-0.004571344769839197,0.013583448466099797
1746729181554591700,7.648591796875,-0.10856500413715839,-0.006759612061735242,0.011468191611487417
1746729181564608500,7.6586083984375,-0.09734276837706565,-0.007898269835999235,0.009451536293141544
1746729181574626600,7.66862646484375,-0.10423135884702205,0.0008228241575881838,0.00578625525124371
1746729181584643600,7.6786435546875,-0.09675123222470283,-0.0020503840580116954,0.006146028474345803
1746729181594660600,7.68866064453125,-0.111566524040699,-0.0074601250139065085,0.008329217732325195
1746729181604678700,7.6986787109375,-0.10288988111019134,-0.002578408253798261,0.0069140354384668165
1746729181614695400,7.7086953125,-0.10259294399023056,-0.0033330899454653263,0.003152381350006908
1746729181624713700,7.718713623046875,-0.09675590839982032,-0.005104045140743255,0.006431695281621068
1746729181634730500,7.72873046875,-0.10992051039934157,-0.002098926774319261,0.001862104077450931
1746729181644747500,7.73874755859375,-0.10528232920467853,-0.010271136447181925,0.008976758388243616
1746729181654765600,7.748765625,-0.10887246265113353,-0.003429883117135614,0.002949314792267978
1746729181664782600,7.758782470703125,-0.10677870524227619,-0.004933200352173298,0.0030430757566355165
1746729181674800600,7.768800537109375,-0.09645020345151424,0.0005949245526921003,0.004516125717572868
1746729181684817700,7.778817626953125,-0.11380524287819861,-0.008030198253132403,0.007975472391210495
1746729181694835700,7.788835693359375,-0.11021043325662612,-0.0031123050679452715,0.016947061413992194
1746729181704852500,7.7988525390625,-0.10422200649678706,-0.006538187863398343,0.008484864951763302
1746729181714869500,7.808869384765625,-0.09748539171814918,-0.010565945542138069,0.011382778350356965
1746729181724887600,7.818887451171875,-0.10002747741639613,-0.005853685331111773,0.010977083626296371
1746729181734904600,7.828904541015625,-0.10856149700582027,-0.0011858487837016582,0.009371968250907957
1746729181744922600,7.838922607421875,-0.11035481016337871,-0.008701886969618499,0.015588175884634256
1746729181754939600,7.848939697265625,-0.10376958655416965,-0.011343642783211543,0.004897581049520522
1746729181764956700,7.858956787109375,-0.10960837571024894,-0.0011511427965015173,0.006408533601742238
1746729181774974500,7.868974365234375,-0.09853343946635723,-0.0025554566364735364,0.004664411614462733
1746729181784991500,7.878991455078125,-0.0977852514475584,-0.0010996135386638342,0.011365461889375001
1746729181795009500,7.889009521484375,-0.10511690950989723,-0.007618457380775362,0.007843772302940488
1746729181805026600,7.899026611328125,-0.10451952813863753,-0.0035206301405094564,0.015760116651747376
1746729181815043600,7.909043701171875,-0.10526830067932605,0.00036461379500105973,0.013251622695848345
1746729181825061600,7.9190615234375,-0.09793313548564911,-0.0027285755805205552,0.005549030695576221
1746729181835078700,7.92907861328125,-0.10676000054180622,-0.0034111144845839587,0.00857815099209547
1746729181845096700,7.9390966796875,-0.10541209306418894,-0.009662831823108717,0.003933393926173448
1746729181855113500,7.949113525390625,-0.10077040473818778,-0.007792069515166804,0.0015307349649257957
1746729181865130800,7.959130859375,-0.10151859275698662,-0.0035701044385787095,0.008443309098668396
1746729181875148500,7.9691484375,-0.1043599536627531,-0.005345397882256657,0.012034666387829929
1746729181885165600,7.97916552734375,-0.1007698202162981,-0.00763296083016321,0.0008899345770478248
1746729181895183600,7.98918359375,-0.10271569358706474,-0.0046957840002607555,0.002920874149072915
1746729181905200400,7.999200439453125,-0.09688041156232356,-0.008210897715436294,0.014329791587684302
1746729181915217700,8.0092177734375,-0.10555471640527248,-0.005640983295347541,0.01100894006928429
1746729181925235500,8.0192353515625,-0.10166472322940825,-0.004349436514312401,0.002957004908379167
1746729181935252700,8.029252685546876,-0.10570610757470131,-0.005874782918067649,-0.0031663185438141226
1746729181945268700,8.039268798828125,-0.10166823036074638,0.005053191736340523,0.009237071558553725
1746729181955285800,8.04928564453125,-0.09673135848045349,-0.00667109352806583,0.003254179490357637
1746729181965303600,8.059303466796875,-0.0971796867698431,-0.0057321413106750695,0.012563969225250184
1746729181975320800,8.06932080078125,-0.0968786579966545,-0.0028550880370195953,0.004051248152181506
1746729181985337900,8.079337890625,-0.1085515601336956,-0.008021028565987944,-0.0022370200707577167
1746729181995355600,8.089355712890624,-0.10121990207135677,-0.012506777411606163,0.005675488353148102
1746729182005372700,8.09937255859375,-0.09897533801496028,-0.00524709774008952,0.012811459446605293
1746729182015390700,8.109390625,-0.10720306813418864,-0.0070187927208840845,0.00783197226729244
1746729182025407700,8.11940771484375,-0.09418284304141998,0.00515066076144576,0.01152916455110535
1746729182035424800,8.1294248046875,-0.10331073687076568,-0.004562951400829479,0.00811146506210789
1746729182045442800,8.13944287109375,-0.09777297648787497,0.0010905169167555867,0.009180427734181285
1746729182055459800,8.1494599609375,-0.10091419712305068,-0.00315668306578882,0.004727722641639411
1746729182065477600,8.1594775390625,-0.103310152348876,-0.003731953069940209,0.011306881836242974
1746729182075494700,8.16949462890625,-0.11184008028507232,-0.000942998204845935,0.0038499534264206884
1746729182085511700,8.17951171875,-0.10555588544905185,0.002079929812904447,0.006397354620601981
1746729182095529700,8.18952978515625,-0.10031973836123943,0.003516766816144809,-0.00048339960277080535
1746729182105546800,8.199546630859375,-0.10241466481387615,-0.0004113755461759865,0.008548888364993035
1746729182115564800,8.209564697265625,-0.1100461826056242,-0.009422912986855953,0.006955408628471195
1746729182125581800,8.219581787109375,-0.10226268912255763,-0.0006124236767645925,0.011236574812699109
1746729182135598600,8.2295986328125,-0.09971884985864161,0.004672476189909502,0.01836754093747586
1746729182145617000,8.239616943359374,-0.09747370128035544,-0.004917555258469656,0.005226283280923962
1746729182155633700,8.249633544921876,-0.10166355418562889,-0.0032908034400083125,0.01074762225197628
1746729182165651700,8.259651611328126,-0.10959317814111709,-0.009410373165691271,0.0034780148414894937
1746729182175668700,8.269668701171875,-0.0994189901292324,-0.0035603684958536177,0.0014757533746771513
1746729182185686800,8.279686767578125,-0.1016629696637392,-0.003596563187241554,0.005834752301778644
1746729182195703800,8.289703857421875,-0.09881459449529648,-0.0054630237794015555,0.00813332983404398
1746729182205720600,8.299720458984375,-0.1036018287718296,0.004928432845510542,-0.001600420933961868
1746729182215739000,8.30973876953125,-0.10659458084702492,-0.012682462772075086,0.008312266597524284
1746729182225755600,8.319755615234374,-0.09791326174139976,-0.006004455446032807,0.014970281448308377
1746729182235772700,8.329772705078126,-0.0944692587673664,-0.005067338992701843,0.01014003001395613
1746729182245790700,8.339790771484376,-0.09327274245917797,-0.003976127956202253,0.01269201605170965
1746729182255807700,8.349807861328125,-0.10164835661649703,-0.007821998862549662,0.00855458745341748
1746729182265825800,8.35982568359375,-0.10987667125761508,-0.0016487901203334331,0.008045925545226783
1746729182275842600,8.369842529296875,-0.09999591323435306,-0.003171615773439407,0.007496730697248131
1746729182285860900,8.37986083984375,-0.10074059412181377,-0.006912510201660916,0.008859415618889033
1746729182295877600,8.389877685546875,-0.10942191322743892,-0.0050919437109958375,0.005012823193334043
1746729182305894700,8.399894775390624,-0.10657938327789306,-0.0015743823104072362,0.010793141894135624
1746729182315912700,8.40991259765625,-0.10598200190663337,-0.0011700666926801205,0.008165094945486635
1746729182325929700,8.4199296875,-0.10224047729074955,0.0002791822675615549,0.007664415414351969
1746729182335947800,8.42994775390625,-0.09999649775624275,-0.005487518899841234,0.0031719628333114086
1746729182345964500,8.439964599609375,-0.0947574280589819,-0.014034343171911313,0.007278119510505348
1746729182355981800,8.44998193359375,-0.10164309591948985,-0.009854509337153285,0.012804061591438948
1746729182365999600,8.45999951171875,-0.10000058940947056,-0.003439281133143231,0.011358812952879816
1746729182376016600,8.4700166015625,-0.11272153929471969,0.0014475227940361946,0.010445881092734635
1746729182386034700,8.48003466796875,-0.10762860006988048,-0.004334193279407918,0.016458839505631477
1746729182396051700,8.4900517578125,-0.10164192687571048,-0.010563662253506481,0.012362108243908732
1746729182406068700,8.50006884765625,-0.10134031358063221,-0.003629999665962532,0.00313038871390745
1746729182416086800,8.510086669921876,-0.1119628298819065,0.00022972623580135403,0.01321264239232987
1746729182426103800,8.520103759765625,-0.09205693692862987,0.0019897673114202914,0.011805990464799106
1746729182436121600,8.53012158203125,-0.10207856472730636,-0.000312107289629057,0.010165127922594547
1746729182446138600,8.540138671875,-0.10402034644484519,0.002787703622924164,0.006109075731132179
1746729182456156000,8.550156005859375,-0.10701309852004051,-0.003935759413195774,0.0015366897816769779
1746729182466173700,8.560173583984374,-0.08965279839634895,-0.003933887116517871,-0.002846183211356401
1746729182476190700,8.570190673828124,-0.10027648374140262,-0.003483923992468044,0.00555584402885288
1746729182486208800,8.580208740234376,-0.09533961186110973,-0.009193917403416707,0.0051888190810568625
1746729182496225800,8.590225830078126,-0.10117314032018183,-0.002043141466472298,0.01680142413191497
1746729182506242800,8.600242919921875,-0.10311842916905879,-0.010094035447761416,0.00860016189450398
1746729182516260600,8.610260498046875,-0.10371639506220817,-0.003274464226560667,0.01031582497227937
1746729182526278000,8.62027783203125,-0.11030103414952755,-0.006004400647105649,0.010557981431391089
1746729182536295700,8.630295654296875,-0.10670973165929316,-0.002094652458000928,0.014771452674269676
1746729182546312700,8.640312744140624,-0.10969780755937099,-0.004663014241820201,0.010604889313038438
1746729182556330800,8.650330810546874,-0.11044716462194919,-0.0077903981478884814,0.014912413781229405
1746729182566347800,8.66034765625,-0.10116729510128497,0.0029056400473229586,0.010922028970811515
1746729182576364800,8.67036474609375,-0.10640519575476645,-0.005451945262961089,0.013627159743662923
1746729182586382600,8.680382568359375,-0.09817629659175872,-0.003624748102109879,0.015833802942465988
1746729182596399900,8.69039990234375,-0.10895078858435153,-0.00787879795054905,0.011115651846770196
1746729182606417700,8.700417724609375,-0.1093967787861824,-0.01014583870023489,0.005936459110584109
1746729182616434700,8.7104345703125,-0.1104424884468317,-0.0033463238863740115,0.005509867728967219
1746729182626451700,8.72045166015625,-0.10176233838498591,0.0021655166039709,0.001349058255087584
1746729182636469800,8.7304697265625,-0.09921557651162147,-0.00870308341286145,0.009361026731785385
1746729182646486800,8.74048681640625,-0.09353051661252974,-0.006268924201652407,0.012092113929800688
1746729182656504600,8.750504638671876,-0.10235738166868687,-0.009379576168628409,0.014068400705140083
1746729182666521900,8.76052197265625,-0.10205459932982922,-0.005214930769847706,0.01471451658895239
1746729182676538600,8.77053857421875,-0.10849076985716818,-0.005508470356324687,0.006279938786011189
1746729182686557000,8.780556884765625,-0.10460194572508334,0.0026423403354827314,0.005987257716059685
1746729182696573700,8.79057373046875,-0.10774258183836936,-0.005255418043863028,0.005573763278033584
1746729182706591500,8.800591552734375,-0.09891104060709476,-0.00738108669463545,0.01697537419302389
1746729182716608800,8.81060888671875,-0.10579495490193366,-0.003798561165900901,0.011874489123746753
1746729182726625800,8.820625732421876,-0.10564297921061515,-0.005533531732344999,0.009384115346428006
1746729182736643800,8.830643798828126,-0.101305242267251,-0.01111419054204598,0.007570252591185271
1746729182746660600,8.84066064453125,-0.09831482827961445,-0.003972602558555081,0.005128942119982093
1746729182756679000,8.850678955078125,-0.0980155530720949,-0.006378147596633061,0.0055630592209286985
1746729182766695700,8.86069580078125,-0.09890694895386695,-0.01492234152019955,0.010264514910150319
1746729182776712700,8.870712646484375,-0.10414192699790001,-0.007567485245363786,0.004150616873428225
1746729182786730800,8.880730712890625,-0.10219430006146431,-0.0036714733206667004,0.007912508423905819
1746729182796747800,8.890747802734374,-0.10114566779136658,-0.008039075679332017,0.00983118326049298
1746729182806765800,8.900765869140624,-0.11326514465212821,-0.013075444145034998,0.012219247440807521
1746729182816782600,8.910782470703126,-0.11072539704144001,-0.0106500344958622,0.01236479339133948
1746729182826801000,8.92080078125,-0.09935293915569782,-0.002567128807958215,0.00801242513442412
1746729182836817700,8.930817626953125,-0.10967851833701132,-0.006050988868344574,-0.0022880561382509768
1746729182846834700,8.940834716796875,-0.09651391633749008,-0.002704555384116247,0.01278111910726875
1746729182856852700,8.950852783203125,-0.10444529385864734,-0.003101710608694702,0.011582922298647463
1746729182866869800,8.960869873046875,-0.11312310583293438,-0.00886645728102885,0.012804445183929055
1746729182876887800,8.9708876953125,-0.10787994448244571,-0.007907676985161378,0.006039517626259476
1746729182886904800,8.98090478515625,-0.11117255628705024,-0.0004018222665414214,0.009188300513383001
1746729182896921600,8.990921630859376,-0.1032446858972311,-0.006639511079713702,0.0033884916608221826
1746729182906939600,9.000939697265625,-0.10010463430583476,-0.008122296983376145,0.008013886439148335
1746729182916956700,9.010956787109375,-0.11102876390218734,-0.0024907299703452734,0.003702343382965773
1746729182926974700,9.020974609375,-0.1024994204878807,-0.004648574724514037,0.010323825615644454
1746729182936991700,9.03099169921875,-0.10070376924276352,-0.007161050735786557,0.006907824893388897
1746729182947008300,9.04100830078125,-0.10773556757569312,-0.0048255935255438085,0.010282708153966813
1746729182957026600,9.051026611328124,-0.10459668502807616,-0.003721495608007535,0.0084416468645446
1746729182967043300,9.061043212890626,-0.11357727934122085,-0.010993678568070753,0.0012752258338965476
1746729182977061600,9.0710615234375,-0.10325170015990734,-0.008802461267262697,0.009045494509208947
1746729182987078400,9.081078369140625,-0.09472469483315944,-0.004825812721252441,0.008383852262701838
1746729182997095700,9.091095703125,-0.09861527253091334,0.005128120136074722,0.011347962765302508
1746729183007113500,9.101113525390625,-0.10085925206542014,-0.0014331106761936098,0.010032934643980114
1746729183017130500,9.111130615234375,-0.1013099184423685,-0.0015484806841704994,0.008323007187247275
1746729183027148500,9.1211484375,-0.10983809281289576,-0.009543233164586126,0.01163644258417189
1746729183037165300,9.131165283203124,-0.10474866071939468,-0.0002245386040303856,0.015025646631047128
1746729183047183600,9.14118359375,-0.10355155988931655,-0.004560887307906523,0.002465586395934224
1746729183057200400,9.151200439453126,-0.1002601171284914,-0.001308415717445314,0.005257262941077351
1746729183067217700,9.1612177734375,-0.10235796619057655,-0.005712450229516252,0.006370009955950081
1746729183077235500,9.1712353515625,-0.10235738166868687,-0.007827908013528213,0.01386584560405463
1746729183087252500,9.18125244140625,-0.10729776068031788,-0.0036366668687667697,0.00978825743421912
1746729183097270500,9.1912705078125,-0.10430383956134319,-0.0042936512064654375,0.007263597794808447
1746729183107287300,9.201287353515625,-0.1038543422281742,-0.005705015841731801,0.0043521307948976755
1746729183117304600,9.2113046875,-0.09996727166175842,-0.005779779844684526,0.009391988125629722
1746729183127322400,9.221322265625,-0.10445815334022045,-0.009614526568818837,0.013095153492502867
1746729183137339600,9.231339599609376,-0.1020639516800642,-0.0056807216506917025,0.014970738106034696
1746729183147357400,9.241357421875,-0.10026771591305732,-0.005387611322477459,0.0004094027847982943
1746729183157374500,9.25137451171875,-0.09338497066199779,-0.0047000217839609825,-0.0042810748526826495
1746729183167391500,9.2613916015625,-0.10610358245968818,-0.013968209999985992,0.009447828232403845
1746729183177409500,9.271409423828125,-0.10954524734616279,-0.005344895558757707,0.008962492400873451
1746729183187426600,9.281426513671875,-0.10939794782996178,-0.009832882027234882,0.009689308838080614
1746729183197444400,9.2914443359375,-0.10251169544756412,-0.010251335768168791,0.0045003801591694354
1746729183207461400,9.30146142578125,-0.09622223991453648,-0.005101268661767244,0.005946560379490256
1746729183217478400,9.311478515625,-0.10160393295288085,-0.0028087372777983546,0.007991510210558772
1746729183227496400,9.321496337890625,-0.1123772559016943,0.0002508877548389137,0.013281999567802995
1746729183237513500,9.331513427734375,-0.1132744970023632,-0.004712716868752614,0.008429061377607286
1746729183247531500,9.341531494140625,-0.10235270549356937,-0.007379661922529339,0.011954532090015709
1746729183257548500,9.351548583984375,-0.09472352578938006,-0.008879380694683641,0.007202898849826306
1746729183267565600,9.361565673828125,-0.09936346054971218,-0.0063644661311525845,0.010599592083413153
1746729183277583400,9.371583251953124,-0.10504852044880389,-0.006017881183186546,0.008428239393699914
1746729183287600600,9.3816005859375,-0.0954717138081789,-0.005643723241705447,0.010096610997337847
1746729183297618400,9.391618408203126,-0.10235621262490749,-0.0015533669218420981,0.007086944319959729
1746729183307635500,9.401635498046875,-0.09876666370034218,-0.009968317575706168,0.006027772389538586
1746729183317653500,9.411653564453125,-0.09891571678221225,-0.014289121650578454,0.007250939242634922
1746729183327670500,9.42167041015625,-0.10460311476886272,-0.01268430766928941,0.008677300517633556
1746729183337687600,9.4316875,-0.10550094039142131,-0.010336420235736296,0.010304189333412796
1746729183347705300,9.441705322265625,-0.10325637633502482,-0.012267744491342455,0.016374577021971343
1746729183357722600,9.45172265625,-0.10131167200803756,-0.0024505075578112154,0.011505929805990307
1746729183367740400,9.461740478515624,-0.10250760379433631,-0.004487000087788328,0.0077036879788152865
1746729183377757400,9.47175732421875,-0.09682079032957554,-0.005994299378199503,0.006230893746204674
1746729183387774500,9.4817744140625,-0.09876432561278342,-0.003823595142457634,0.00970494479862973
1746729183397792500,9.49179248046875,-0.09127893829345703,-0.0018175616828259079,0.013563118064124136
1746729183407809500,9.5018095703125,-0.09905834012329578,-0.006428599142236635,0.0008478490009903907
1746729183417827300,9.511827392578125,-0.09785773216187954,-0.00455273140091449,0.009119272131472825
1746729183427844600,9.5218447265625,-0.10668810434937477,-0.01102291379570961,-0.0020352686872705814
1746729183437861400,9.531861328125,-0.09411971467733382,-0.004154845523973927,0.013903748195338994
1746729183447879700,9.541879638671874,-0.10833704060018062,-0.004500188362924382,0.008118223596457391
1746729183457896400,9.551896484375,-0.10295300947427749,-0.009055056921998038,0.00907784414254129
1746729183467914500,9.56191455078125,-0.10864040746092796,-0.008785720195015893,0.010193659897334874
1746729183477931500,9.571931640625,-0.10131050296425818,-0.006834339532069861,0.008309928509965538
1746729183487949300,9.58194921875,-0.10295593208372593,-0.01047306136060506,0.017810546375531703
1746729183497966600,9.591966552734375,-0.10834405486285686,-0.003507058272883296,0.012410605294443666
1746729183507983400,9.6019833984375,-0.10071370611488818,-0.008574625594448299,0.01709883617591113
1746729183518001700,9.612001708984375,-0.10490180545449257,-0.003778586956951767,0.009011062516644597
1746729183528018400,9.622018310546874,-0.10669804122149944,0.0005779551515821367,-0.00020666502062231302
1746729183538036500,9.632036376953126,-0.10594868415892124,-0.007714565565856173,0.006405866720620542
1746729183548053500,9.642053466796876,-0.10280337187051772,-0.004636792955175042,0.01503227730123326
1746729183558070500,9.652070556640625,-0.09577157353758811,-0.004263986720563844,0.007224069502018392
1746729183568088600,9.662088623046875,-0.10400105722248554,-0.013683282978227362,0.016761603578180073
1746729183578105300,9.672105224609375,-0.10968202546834944,-0.007212726124096662,0.008860438532195985
1746729183588123600,9.68212353515625,-0.1095318033427,-0.0001568710621446371,-0.001286934537999332
1746729183598140400,9.692140380859374,-0.0980114614188671,-0.004760693329479545,0.00777857984593138
1746729183608157400,9.702157470703124,-0.100708445417881,-0.013476572291832417,0.01905660091387108
1746729183618175500,9.712175537109376,-0.11223054090738296,-0.011307155830878764,0.008182776732649654
1746729183628192500,9.722192626953126,-0.10235445905923843,-0.006187858322076499,0.007150912934262305
1746729183638210600,9.73221044921875,-0.10684300265014171,-0.002030254585435614,0.007597560723219067
1746729183648227300,9.742227294921875,-0.09786240833699703,-0.003298785817064345,0.018753453248832375
1746729183658244400,9.752244384765625,-0.09501754029989241,-0.002580134420003742,0.014468049280904232
1746729183668262400,9.762262451171875,-0.10533668974041938,-0.004711027235165238,0.0117009774540551
1746729183678279400,9.772279541015624,-0.09815525380373001,-0.010666656837100162,0.006883804696984588
1746729183688297500,9.78229736328125,-0.10907646079063416,0.00008946838174015283,0.0009927921633236109
1746729183698314500,9.792314453125,-0.09904664968550204,-0.009339088894613087,0.004837466626428068
1746729183708332500,9.80233251953125,-0.111165542024374,-0.008941869737952947,0.013728282030578702
1746729183718349600,9.812349609375,-0.09725158296227454,-0.0032311274083331224,0.004800824410468339
1746729183728366300,9.822366455078125,-0.10563128877282142,-0.007066312523884699,0.005879194231703877
1746729183738384400,9.83238427734375,-0.10009294386804103,-0.007506731501454487,0.011337112577725201
1746729183748401400,9.8424013671875,-0.10682488247156142,-0.006295940072741359,0.001331376467924565
1746729183758419500,9.85241943359375,-0.10218670127689838,-0.0064892067556735124,0.005612378255371004
1746729183768436500,9.8624365234375,-0.09934241776168345,-0.015094218355230987,0.005042195418290794
1746729183778453500,9.87245361328125,-0.11191022291183471,-0.005784099826775491,0.009330430664122103
1746729183788471600,9.882471435546876,-0.09499708203375339,-0.0032553759336005897,0.009632518883235752
1746729183798488300,9.89248828125,-0.10023732077479362,-0.011659704728750511,0.010170626081619411
1746729183808506400,9.90250634765625,-0.09769231246709822,-0.00912919987044297,0.009771616826672106
1746729183818523400,9.9125234375,-0.10681845273077488,-0.004947703801561147,0.00998909550225362
1746729183828540700,9.922540771484375,-0.10337795688807963,-0.007523198579065501,0.010164579933322966
1746729183838558500,9.932558349609375,-0.10128069234788417,-0.011153554438054561,0.007758176378719508
1746729183848575500,9.942575439453124,-0.10876140349209308,-0.005309641582285985,0.014183478452172129
1746729183858593500,9.952593505859374,-0.11265198118984698,-0.010169895429257303,0.01093118039164692
1746729183868610300,9.9626103515625,-0.10636778635382652,-0.012403791961167006,0.01511834814948961
1746729183878628600,9.972628662109376,-0.10517419265508651,-0.01047451353217475,0.008299425382260233
1746729183888645400,9.982645263671875,-0.10083411762416362,-0.009652301295939832,0.01074857210004702
1746729183898662700,9.99266259765625,-0.09664894089400768,-0.008496728919493034,0.013738584228884429
1746729183908680400,10.002680419921875,-0.0964998878121376,0.0017583514420315622,0.006108235480915754
1746729183918697500,10.012697509765625,-0.11056406899988651,-0.00743057012585923,0.004229965719953179
1746729183928715500,10.022715576171874,-0.11415244888067244,-0.0061971467402298,0.02570076990239322
1746729183938732300,10.032732177734376,-0.10652151561081409,-0.010019043115945533,0.012314122650027274
1746729183948749300,10.042749267578126,-0.10427519798874854,-0.011132858709897846,0.004575034564267844
1746729183958767000,10.05276708984375,-0.10247954674363136,-0.00995967761152424,0.004406290401238948
1746729183968784400,10.062784423828125,-0.10607143375575542,-0.008012753927987068,0.005123882352374494
1746729183978802200,10.07280224609375,-0.0990402199447155,-0.009708260133722797,0.010262542148772626
1746729183988819200,10.082819091796875,-0.09425357019007205,-0.007399544799933209,0.007375661600846797
1746729183998836200,10.092836181640624,-0.1023380924463272,-0.010409138412075117,0.009504362458921969
1746729184008854300,10.102854248046874,-0.10024784216880797,-0.006659795815916731,0.013861224227864295
1746729184018871300,10.112871337890626,-0.11671090119183063,-0.00995644447482191,0.01103109710216522
1746729184028889000,10.12288916015625,-0.10773498305380344,-0.007402887534489855,0.012881729937531053
1746729184038906400,10.13290625,-0.10294774877727031,-0.003982329368125647,0.01103756337556988
1746729184048923100,10.142923095703125,-0.10534428852498531,-0.008491258159931748,0.006357661931030452
1746729184058941200,10.152941162109375,-0.11073182678222655,-0.0018780596984084694,0.004250369187165051
1746729184068958200,10.162958251953125,-0.09606734161376952,-0.0026618396203964946,0.007361724407039583
1746729184078976300,10.172976318359375,-0.11088380247354507,-0.007671329212328419,0.008643653976358473
1746729184088993300,10.1829931640625,-0.09771627786457537,-0.0010599847811739891,0.018525599309708922
1746729184099011000,10.193010986328124,-0.10385317318439483,-0.008087965455511584,0.012165416628029196
1746729184109028400,10.2030283203125,-0.10041092377603053,-0.007011413132026791,0.0023962292204611
1746729184119045400,10.21304541015625,-0.09951251363158226,-0.002063152208039537,0.013492829306889324
1746729184129063200,10.223063232421875,-0.10549684873819351,-0.010954999658651649,0.014100567675381898
1746729184139080200,10.233080078125,-0.09996084192097186,-0.012838621448166668,0.007983710496593266
1746729184149098200,10.24309814453125,-0.10190613076984882,-0.005619118523411452,0.010901479373127222
1746729184159115300,10.253115234375,-0.09517126955687999,-0.011276797225233167,0.01555147886974737
1746729184169132300,10.26313232421875,-0.09801438402831554,-0.009474140850594266,0.0054422641191631555
1746729184179150000,10.273150146484374,-0.09831424375772475,-0.009889324922207742,0.012478903023991733
1746729184189167400,10.28316748046875,-0.1125298161149025,-0.009010121801728383,0.007221877544932067
1746729184199185200,10.29318505859375,-0.09831541280150413,-0.003095107337972149,0.015606423927377908
1746729184209202200,10.3032021484375,-0.10385200414061546,-0.004589775475673377,0.0023619250920601186
1746729184219219200,10.31321923828125,-0.09756839382648468,-0.005744124009413644,0.010860215780977159
1746729184229237200,10.3232373046875,-0.10550094039142131,-0.0073354026556946336,0.007067527233436704
1746729184239254300,10.333254150390625,-0.1040069024413824,-0.007905914286337792,0.009076656832452863
1746729184249272000,10.34327197265625,-0.10071838229000568,-0.005941911603836342,0.014764675873611122
1746729184259289300,10.353289306640624,-0.10341361272335052,-0.007679631249792873,0.016286807406973094
1746729184269306000,10.36330615234375,-0.10700549973547457,-0.007488857918046415,-0.00047271381197497243
1746729184279324400,10.373324462890626,-0.09683014267981052,-0.016564491837192327,0.00015500789862126112
1746729184289341200,10.383341064453125,-0.10550737013220786,-0.004368734869826585,0.008436422700155526
1746729184299359200,10.393359130859375,-0.09877192439734934,-0.005268588052690029,0.006319558410346508
1746729184309376300,10.403376220703125,-0.09592647183835507,-0.013065068881493062,0.010457133139111102
1746729184319394000,10.41339404296875,-0.10131108748614788,-0.011537713183742016,0.007068294418416917
1746729184329411300,10.423411376953124,-0.10160802460610865,-0.010258066903054714,0.006836239228211343
1746729184339428000,10.433427978515626,-0.10474866071939468,-0.005487984690722078,0.008557199535612016
1746729184349446400,10.4434462890625,-0.10474924524128436,-0.011597836739988997,0.008376016016118228
1746729184359463200,10.453463134765625,-0.1077449199259281,-0.009668540044687687,0.0015141856889240443
1746729184369481200,10.463481201171875,-0.09383271442949771,-0.01015317262331955,0.006261489813867956
1746729184379498200,10.473498291015625,-0.09907178412675857,-0.009824461258761585,0.00423624933026731
1746729184389515300,10.483515380859375,-0.09922025268673897,-0.0033199199366383252,0.004251355567853898
1746729184399533300,10.493533203125,-0.09398176751136779,-0.001692684060987085,0.0049024581540375945
1746729184409550000,10.503550048828124,-0.09413432772457599,-0.012854832797450944,0.009676960813160985
1746729184419568400,10.513568359375,-0.09593348610103129,-0.006684327468974516,0.011260905536357313
1746729184429585200,10.523585205078126,-0.10267302348911761,-0.007717159381741658,0.010334748868457972
1746729184439602200,10.533602294921875,-0.10386953979730605,-0.007481615326507016,0.001424936502892524
1746729184449620200,10.5436201171875,-0.09758242235183716,-0.008639443592121824,0.0069230407288298
1746729184459637200,10.55363720703125,-0.10326982033848763,-0.011930548426229506,0.01123193517019972
1746729184469655300,10.5636552734375,-0.11269815841913222,-0.004712369808880612,0.004383128721360117
1746729184479672300,10.57367236328125,-0.09892857626378536,-0.008952637727139516,0.006575195405539125
1746729184489689000,10.583689208984374,-0.10760405015051364,-0.006661092723859474,0.006367891064099967
1746729184499707100,10.59370703125,-0.09593348610103129,-0.013356891434919088,0.006800492061395198
1746729184509724200,10.60372412109375,-0.10745616611242294,-0.013908068177429959,0.008948354277666657
1746729184519742200,10.6137421875,-0.10760697275996207,-0.010506077714217826,0.01518463658504188
1746729184529759200,10.62375927734375,-0.09623451487421988,-0.0078084635275416075,0.008506309598591178
1746729184539777300,10.63377734375,-0.10191782120764255,-0.013931567784026265,0.011998316432815044
1746729184549794300,10.643794189453125,-0.0989221465229988,-0.010447862987266852,0.021273783772997556
1746729184559811000,10.65381103515625,-0.09278992737829685,0.0003893555106129497,0.005850917985290288
1746729184569829000,10.6638291015625,-0.09428981054723262,-0.0011653265854809432,0.017940328501351178
1746729184579846100,10.67384619140625,-0.09922843599319457,-0.002515645215893164,0.01170373566672206
1746729184589864200,10.6838642578125,-0.10476619637608528,-0.00919649295299314,0.0077747439210303125
1746729184599881200,10.693881103515626,-0.10611468837559222,-0.006496540678758174,0.005779003526549786
1746729184609898200,10.703898193359375,-0.09264671951532363,-0.0014863478339277208,0.011295885518193244
1746729184619916300,10.713916259765625,-0.09623626843988894,-0.008430513549176975,0.013499021585658192
1746729184629933000,10.72393310546875,-0.10506605610549449,-0.006212389975134283,0.01044611855475232
1746729184639951000,10.733951171875,-0.10027940635085106,-0.0010285484632942825,0.009902969855070113
1746729184649968000,10.743968017578124,-0.10536883844435214,-0.002176174995303154,0.005641951409727335
1746729184659985400,10.7539853515625,-0.10087971033155918,-0.009650337667716667,0.007160429681278765
1746729184670003200,10.764003173828126,-0.1080628998339176,-0.005409393896022811,0.0025240020522847772
1746729184680020200,10.774020263671876,-0.10851473525464535,-0.014427699004206805,0.0036437633298337458
1746729184690038300,10.784038330078126,-0.11419745706617832,-0.0069477915775962166,0.012485752889886497
1746729184700055000,10.794054931640625,-0.10581775125563143,-0.008045560219045728,0.001312562169600278
1746729184710073300,10.8040732421875,-0.10087561867833136,-0.005221497507952154,0.00432279510255903
1746729184720090000,10.814090087890625,-0.10147066196203232,-0.00505179436369799,0.015252642053645103
1746729184730107400,10.824107421875,-0.10670447096228598,-0.005414572394639253,0.013715860940422863
1746729184740125200,10.834125244140624,-0.10041793803870677,-0.007859846654906869,0.012577413228712975
1746729184750142200,10.84414208984375,-0.10640344218909739,-0.009898028818471356,0.004686915707215666
1746729184760160300,10.85416015625,-0.11164134284257889,-0.006088078608876094,0.007897420452628284
1746729184770177000,10.864177001953125,-0.1055056165665388,-0.012629316945886239,0.001593169209267944
1746729184780194300,10.8741943359375,-0.10266308661699294,-0.012760414245957507,0.004117682718206197
1746729184790212000,10.884212158203125,-0.09308744902014732,-0.0060059624165296555,0.007955799576360731
1746729184800229400,10.8942294921875,-0.10850187577307224,-0.007857682097284123,0.011078187646903097
1746729184810247200,10.9042470703125,-0.10745441254675388,-0.008038089298643171,0.005229169357754289
1746729184820264400,10.914264404296874,-0.09952478859126568,-0.010027116824546827,0.007101319905184209
1746729184830281200,10.92428125,-0.10281681587398052,-0.003065652914624661,0.00668992609269917
1746729184840299000,10.934299072265626,-0.11105039121210575,-0.0018916772318072616,0.0063068633255548776
1746729184850316300,10.94431640625,-0.10057575894892215,-0.010441926436824723,-0.0035835393088869748
1746729184860334000,10.954333984375,-0.09518938973546028,-0.0074067599920090285,0.00376200114833191
1746729184870351400,10.964351318359375,-0.10177402882277965,-0.006100289636477828,0.0034737405251711604
1746729184880369200,10.974369140625,-0.10357201815545558,-0.00981362933749333,0.008929960104450583
1746729184890386200,10.98438623046875,-0.09968144045770168,-0.011986516397166996,0.005965265079960227
1746729184900403200,10.9944033203125,-0.1086602812051773,-0.007662607049755752,0.010213734570983797
1746729184910421200,11.004421142578124,-0.09788578921258449,-0.004890000531263649,0.006973583605978637
1746729184920438300,11.014438232421876,-0.10985679751336574,-0.009770164655102416,0.006627510114666074
1746729184930456000,11.0244560546875,-0.11524725838005542,-0.001725033694319427,0.007152995293494314
1746729184940473300,11.034473388671875,-0.10716682777702807,-0.003856100039416924,0.00728387339785695
1746729184950490600,11.04449072265625,-0.108211368393898,-0.004000979269668459,0.01256873673191294
1746729184960509000,11.054509033203125,-0.10701251399815082,-0.001468008459638804,-0.00038837826307862994
1746729184970525700,11.064525634765625,-0.10027882182896136,-0.005859831944108009,0.002058832225948572
1746729184980543500,11.07454345703125,-0.0995323873758316,-0.015500095742382109,0.006364950188342482
1746729184990560800,11.084560791015624,-0.09354805226922035,-0.008326285989722236,0.011555285373050719
1746729185000577800,11.094577880859376,-0.09938508785963057,-0.009941246905690058,0.012872560250386595
1746729185010595800,11.104595947265626,-0.09848960032463074,-0.004693226716993376,0.012398220736905932
1746729185020612600,11.114612548828125,-0.0886094268232584,-0.0025865641607902942,-0.0001467515269294381
1746729185030631000,11.124630859375,-0.10177695143222808,-0.007871902418881655,0.008982165215723216
1746729185040647700,11.134647705078125,-0.10042904395461082,-0.005222739616967737,0.01447276198863983
1746729185050665700,11.144665771484375,-0.10536825392246246,-0.009720690357033162,0.01203811872024089
1746729185060682800,11.154682861328125,-0.10791209318637847,-0.0045752720262855285,0.0029862127365544435
1746729185070699800,11.16469970703125,-0.108211368393898,-0.0052967181686311956,0.0014384901042096315
1746729185080717800,11.1747177734375,-0.09519055877923965,-0.0045949083085171875,0.0047290560822002585
1746729185090734800,11.18473486328125,-0.1104553479284048,-0.010008083330513909,0.005843647994287312
1746729185100753000,11.1947529296875,-0.10611878002882003,-0.0026213797458447515,0.008893263089563697
1746729185110769700,11.204769775390625,-0.1113572652041912,-0.0051084473212249576,0.009760931035876273
1746729185120786700,11.21478662109375,-0.10642156236767768,-0.011879740687599404,0.01696119953719899
1746729185130804700,11.2248046875,-0.10687105970084666,-0.01338268346330151,0.015439396797399967
1746729185140821800,11.23482177734375,-0.11195698466300964,-0.0046961310601327565,0.0005484093966893851
1746729185150839800,11.24483984375,-0.1068693061351776,-0.002446945627545938,0.007663794359844178
1746729185160856800,11.25485693359375,-0.10477321063876151,-0.006757593634584919,0.010576119876280427
1746729185170875000,11.264875,-0.10342647220492363,-0.0062699379818048325,0.014257913661561905
1746729185180891600,11.2748916015625,-0.09849193841218948,-0.0023735698640812188,0.009938278630468993
1746729185190908700,11.28490869140625,-0.10462532660067081,-0.0075024663182906804,-0.008722272170521319
1746729185200926700,11.2949267578125,-0.10402502261996269,-0.0047329924718011165,0.008446615300606936
1746729185210943700,11.30494384765625,-0.1043248823493719,-0.004044279555277899,0.012586254122294485
1746729185220961800,11.3149619140625,-0.10163140548169612,0.0026961802814155817,0.0034609358425252137
1746729185230978800,11.324978759765624,-0.09699147072136402,-0.006051746920170262,0.005272880635317415
1746729185240995600,11.33499560546875,-0.10836568217277526,-0.012293783114897086,0.009399860904831438
1746729185251013600,11.345013671875,-0.1041769983112812,0.0012676179161760955,0.0066347618393599985
1746729185261030700,11.35503076171875,-0.10387304692864417,-0.008121913390886039,0.010150186081789433
1746729185271048700,11.365048583984375,-0.10626783311069012,-0.0048785292891785495,0.006355561305489391
1746729185281065700,11.375065673828125,-0.09549392563998699,-0.0051594103234820065,0.0053128290532156825
1746729185291082500,11.38508251953125,-0.10312368986606597,-0.004902723015518859,0.00230387476189062
1746729185301100800,11.395100830078125,-0.09474398405551909,-0.010222803793428464,0.012803184808604418
1746729185311117600,11.40511767578125,-0.09998305375277995,-0.005943582971114665,0.010534417892713099
1746729185321135900,11.415135986328124,-0.10147416909337043,-0.007332059921137988,0.004225965398270637
1746729185331152600,11.425152587890626,-0.1052139401435852,-0.012260730228666215,0.014915464254841207
1746729185341170000,11.435169921875,-0.10042436777949333,-0.0035018158421851694,0.008356124005559832
1746729185351187700,11.445187744140625,-0.10566168391108512,-0.0065853514733724295,0.011674874898418784
1746729185361204700,11.455204833984375,-0.10146773935258388,-0.015105315137980505,0.002736457492876798
1746729185371222800,11.465222900390625,-0.09892390008866786,-0.012388703989889472,0.01320783835304901
1746729185381239600,11.475239501953125,-0.09413491224646568,-0.004338905987143516,0.00887329801376909
1746729185391257900,11.4852578125,-0.10475567498207092,0.00016032339455559848,0.009194419726915657
1746729185401274600,11.495274658203124,-0.10220949763059616,0.00405366843813099,0.010635083521902561
1746729185411292000,11.5052919921875,-0.10071370611488818,-0.00551071711233817,0.010857475834619254
1746729185421309700,11.515309814453126,-0.10116144988238811,-0.009994319666642696,0.004921674311161041
1746729185431326700,11.52532666015625,-0.10175766220986843,-0.0006836348826065659,0.0067736040544696145
1746729185441344800,11.5353447265625,-0.10489654475748539,0.0063523647014051676,0.0072231379202567034
1746729185451361500,11.545361572265625,-0.10489186858236789,0.002878770306706428,0.00493908210368827
1746729185461378800,11.55537890625,-0.09321721287965774,-0.0036759759658481924,0.0028428587431088086
1746729185471396600,11.565396728515625,-0.09665537063479424,-0.004558256959402933,0.011292159191146492
1746729185481414000,11.575413818359374,-0.1083294418156147,-0.00782310397424735,0.007166019171848893
1746729185491431700,11.585431640625,-0.1036889225333929,-0.00869001386873424,0.006287939429376274
1746729185501448700,11.59544873046875,-0.09365969595015049,-0.005863603936927393,0.008305361932702362
1746729185511465700,11.6054658203125,-0.10233633888065814,-0.0019876392864156514,0.0021236776230856777
1746729185521483800,11.61548388671875,-0.1057803418546915,-0.00847715656934306,0.007362984782364219
1746729185531500800,11.625500732421875,-0.10114391422569752,-0.011271664392389356,0.006767082982137799
1746729185541518600,11.6355185546875,-0.09620645782351493,-0.010199559915158897,0.012443192389793693
1746729185551535600,11.64553564453125,-0.09995148957073688,-0.011943170445784926,0.008557400465011597
1746729185561553700,11.6555537109375,-0.11042787539958954,-0.009764383368287236,0.00014094284065067767
1746729185571570700,11.66557080078125,-0.10190145459473132,-0.011032275279099122,0.008141293944790958
1746729185581587700,11.675587646484376,-0.10070727637410164,-0.0029826873389072715,0.012559384381677955
1746729185591605800,11.685605712890625,-0.0975631331294775,-0.013485997707303613,0.00961218848126009
1746729185601622800,11.695622802734375,-0.10504501331746578,-0.006619765199627727,0.00812017809152603
1746729185611640600,11.705640625,-0.09771043264567851,-0.010978490132093429,0.006026146688032895
1746729185621657600,11.71565771484375,-0.1080371808707714,-0.00765520006143488,0.0066335745292715725
1746729185631675000,11.7256748046875,-0.09292553645670414,-0.010166150835901498,0.018844602131005375
1746729185641692700,11.735692626953124,-0.10100596705973147,0.0007834237289614975,0.007268237437307834
1746729185651709700,11.745709716796876,-0.09022913697957992,-0.0018191599848680197,-0.0016000921403989195
1746729185661727700,11.755727783203126,-0.09815876093506812,0.0008392181699629872,0.007105557688884437
1746729185671744800,11.765744873046875,-0.10384206726849078,-0.0026106756887398657,0.005953647707402706
1746729185681762800,11.7757626953125,-0.10159867225587367,-0.0068320471102837465,0.008430559214949607
1746729185691779600,11.785779541015625,-0.10324585494101048,-0.002772825714200735,0.005997377251274884
1746729185701796900,11.795796875,-0.10563947207927703,-0.005471590678347274,0.0003314239114522934
1746729185711814700,11.805814697265625,-0.10249415979087352,-0.001678189744753763,0.003180438400711864
1746729185721831700,11.815831787109374,-0.10189502485394478,0.0010472257643006741,0.004260908847488463
1746729185731849700,11.825849609375,-0.09785305598676204,-0.007625590374460443,0.00875690509248525
1746729185741866800,11.83586669921875,-0.10264087478518485,-0.007230663639586419,0.01482583147631958
1746729185751883800,11.8458837890625,-0.09111702573001385,-0.005851529906643554,0.0027876214245334268
