time,seconds_elapsed,z,y,x
1746735746531661800,0.024661865234375,-0.04056581914424896,0.0027299364205449817,-0.0116132261053659
1746735746541628000,0.0346279296875,-0.018713468298316,0.016229323332384228,-0.0082485719778575
1746735746551593700,0.04459375,-0.009876666370034218,0.018607304510101674,-0.009661818042956292
1746735746561559800,0.054559814453125,-0.052367900618910786,0.014130707085318862,-0.0017873948734253645
1746735746571526000,0.06452587890625,-0.009863222366571426,0.02223229007422924,0.013619067768752574
1746735746581492000,0.074491943359375,-0.026461890468001365,0.00287405759897083,0.021446108132600783
1746735746591457800,0.084457763671875,-0.05907353573739528,0.007477532806433737,0.006403601698298007
1746735746601423600,0.094423583984375,-0.052474283602833745,0.00542582444101572,0.009245291397627442
1746735746611390000,0.104389892578125,-0.013849661654233932,0.01273852207455784,-0.004659004786983132
1746735746621355800,0.114355712890625,0.024171733704209327,0.025690065845288334,-0.001113477667234838
1746735746631321900,0.12432177734375,-0.0014098667979240416,0.03696538349948823,-0.0009960618326440452
1746735746641287700,0.13428759765625,-0.023701778104901313,0.010552081413567066,-0.003536649693548679
1746735746651254000,0.14425390625,-0.060954527178406714,0.003380217022821307,0.001168294860702008
1746735746661219800,0.1542197265625,-0.03609422668814659,0.0015270269041880965,-0.009130560710467398
1746735746671186000,0.16418603515625,-0.042964112457633014,0.010861220427975058,-0.012397179557289927
1746735746681151700,0.17415185546875,-0.018108488142490387,-0.001093786586076021,-0.013856748982146382
1746735746691117800,0.184117919921875,0.045941082441806794,0.01198039718363434,0.0029277422812767325
1746735746701084000,0.194083984375,0.04564180723428726,0.04833912002686411,-0.0021446473458781837
1746735746711050800,0.20405078125,-0.014065350231528282,0.047787075634673236,0.02263708974914625
1746735746721016800,0.214016845703125,-0.020505027890205384,0.01290101915989071,0.005635521668940782
1746735746730982700,0.223982666015625,-0.03442366312742233,-0.00979026672821492,0.003497486726939678
1746735746740949000,0.233948974609375,-0.011677578312158585,-0.0195127654498443,-0.022609215361531824
1746735746750914800,0.243914794921875,-0.04953939919471741,0.022257643711194396,-0.01981750228377059
1746735746760881000,0.253880859375,-0.022455577436089516,0.029123657023161647,-0.0017691468306817114
1746735746770846700,0.2638466796875,-0.012586509850621222,0.029238405976630747,0.016946988348755986
1746735746780812800,0.273812744140625,-0.002109539499878883,0.01619100061599165,0.030082674781046807
1746735746790779000,0.28377880859375,-0.045205753904581064,0.0021566665772348643,0.0187938035255298
1746735746800744700,0.29374462890625,-0.042812136766314506,-0.0017345687076449393,-0.010182279986795037
1746735746810710800,0.303710693359375,-0.02964753476679325,0.024947905708476898,-0.019892996939085424
1746735746820676900,0.3136767578125,-0.001516249781847,0.023608546863496303,-0.003249357184767723
1746735746830643000,0.323642822265625,-0.03802607153356075,0.02071786692328751,0.008158062416501343
1746735746840608800,0.33360888671875,-0.0091454294860363,0.015456658459454774,0.027516294891759753
1746735746850574800,0.343574951171875,-0.02215864031612873,0.005495346013270318,0.012065828711073845
1746735746860541000,0.353541015625,-0.02619359492063522,0.011562062173709272,-0.005195358419697731
1746735746870506800,0.3635068359375,-0.024844518399238586,0.012585085078515112,-0.008097655732464045
1746735746880472800,0.373472900390625,-0.00045300446450710294,0.018421938005834818,-0.01514609467294067
1746735746890439000,0.38343896484375,-0.014371639701724052,0.020117270681634544,-0.012486136482376604
1746735746900405000,0.393405029296875,-0.00988309611082077,0.007119257420673966,0.01681510559739545
1746735746910370800,0.403370849609375,-0.02963876693844795,0.009592223405465483,0.01824853593399748
1746735746920337000,0.4133369140625,-0.02395546060502529,0.0139986416708678,0.022380575971119105
1746735746930303000,0.423302978515625,-0.040859249132871624,0.011681012378260493,-0.0038598172333091495
1746735746940268800,0.433268798828125,-0.0015004676908254623,0.024160920049250124,-0.0009481310376897454
1746735746950235000,0.44323486328125,-0.019753332740068436,0.02547393887657672,-0.014023849177360534
1746735746960200700,0.45320068359375,-0.018707623079419134,0.009613631519675253,0.020943857698887586
1746735746970167000,0.4631669921875,-0.013472060513496397,0.011733327087387443,0.004630381480697542
1746735746980132900,0.4731328125,-0.0025502690047025677,0.010853986969590187,0.001070332645252347
1746735746990099000,0.483098876953125,-0.033678397718071934,0.022151370325125753,0.006293035729601979
1746735747000064800,0.493064697265625,-0.006748305216431617,0.013108086039312183,0.0005974727028049528
1746735747010030800,0.50303076171875,-0.02291501164138317,0.015012019964493811,-0.008274400538858025
1746735747019997000,0.512996826171875,-0.015435469540953635,0.006231697463802993,-0.00037509865639731284
1746735747029962800,0.522962646484375,-0.05045417595207691,-0.0001258548693731427,0.020103041226882487
1746735747039928800,0.5329287109375,-0.00855506237745285,0.0024190803730860353,0.018849808029085396
1746735747049895000,0.54289501953125,-0.009155950880050659,0.012052074180357157,0.0057901825076900415
1746735747059861000,0.552861083984375,-0.017688801425695417,0.026789989911206066,-0.00441177029395476
1746735747069826800,0.562826904296875,-0.03863689690828323,0.016435732624679802,-0.00634975261921063
1746735747079794000,0.5727939453125,-0.035492753663659095,0.002783566303923726,0.003402392322011292
1746735747089759700,0.582759765625,-0.012896306452155112,0.015046031831949948,-0.013536924176942557
1746735747099726000,0.59272607421875,-0.021276596784591675,0.004431041250005364,0.010849968381598591
1746735747109692000,0.60269189453125,-0.030255437532067296,0.023006598914973437,0.007985317931789904
1746735747119657700,0.61265771484375,-0.012745499804615973,0.015205825503543019,0.012534962326474487
1746735747129623800,0.622623779296875,-0.010953355690836906,0.0007694134699180722,0.005313705836050212
1746735747139590000,0.63258984375,-0.030555881783366202,0.020809636859968304,0.00011069383285939693
1746735747149556000,0.642555908203125,-0.03998421986401081,0.0091636592624709,-0.008122552711702882
1746735747159521800,0.652521728515625,0.0016138649374246596,-0.004895443891361356,-0.013043441571574657
1746735747169488000,0.66248779296875,-0.0007815057665109634,0.006941014776937663,-0.011807944959867745
1746735747179454000,0.672453857421875,-0.02352759058177471,0.014890001020021736,0.008818389488756656
1746735747189419800,0.682419677734375,-0.0399848043859005,0.016517419558763503,0.02236103102043271
1746735747199385900,0.6923857421875,-0.01035538979768753,0.011416991147212684,0.01965027422439307
1746735747209351700,0.7023515625,-0.014097498935461044,0.017447028559073804,0.011199439406394958
1746735747219318000,0.712318115234375,-0.020379940205812453,0.02638564689401537,-0.003793309602048248
1746735747229283800,0.722283935546875,-0.021577625557780266,0.016034494880028068,-0.014907061752676963
1746735747239250000,0.73225,-0.001675239735841751,0.004801043606176972,-0.009346377151925116
1746735747249215700,0.7422158203125,-0.011397007805109024,0.009205160316638648,-0.0038166722113266585
1746735747259181800,0.752181884765625,-0.02680968099236488,0.016402524474821985,0.010826934565883128
1746735747269148000,0.76214794921875,-0.021721417942643165,0.009395422191731631,0.008024206903763115
1746735747279113700,0.77211376953125,-0.014988310295343399,0.002682188288681209,0.01530871962243691
1746735747289079800,0.782079833984375,-0.01468845056593418,-0.0041951866675168275,-0.003278400616161525
1746735747299046100,0.792046142578125,-0.03548983105421066,0.014690569457784294,-0.016615326975286004
1746735747309012000,0.802011962890625,-0.021124036571383474,0.021239771905541417,-0.019389486130047588
1746735747318978000,0.81197802734375,-0.014544073659181594,0.008608619195595383,0.001826411709561944
1746735747328943900,0.82194384765625,-0.009606032735109328,0.016999467454664408,-0.004516290114354342
1746735747338910200,0.83191015625,-0.034739889469742775,0.02347465481813997,-0.002938373273145407
1746735747348877000,0.841876953125,-0.0443155270665884,-0.0006762187611311673,0.01736559735331684
1746735747358843100,0.851843017578125,-0.006006546938419342,0.025637458875216543,0.0035620763957500455
1746735747368809000,0.86180908203125,-0.014384499183297157,0.013801657794043421,-0.01501370046492666
1746735747378775000,0.871775146484375,-0.030395138263702392,0.015736242585815487,0.00010167027618736028
1746735747388741000,0.8817412109375,-0.020520225459337234,0.02415054478570819,0.02294937056871131
1746735747398707000,0.89170703125,-0.026211130577325818,-0.000748443747125566,0.02246533164512366
1746735747408673000,0.901673095703125,-0.028301965376734732,0.0033587723759934303,-0.0006985767234116792
1746735747418638800,0.911638916015625,-0.02066927854120731,0.019663827825710176,-0.007020144427753985
1746735747428605200,0.921605224609375,-0.004355857121944427,0.03142641754020005,0.007658533662836998
1746735747438571000,0.931571044921875,-0.016328618988394737,0.016931041860952973,0.012332608154788613
1746735747448537000,0.941537109375,-0.013037176227569579,0.007201090485230088,-0.0007773410480469465
1746735747458503000,0.9515029296875,-0.024562194326519966,0.010839848846383391,-0.013191362142283468
1746735747468469000,0.961468994140625,-0.03458557569086552,0.014983889848552643,-0.0006121953479014336
1746735747478435000,0.97143505859375,-0.004662731114029884,0.005039053613133729,0.0007307254273444414
1746735747488401000,0.98140087890625,-0.011098901641368866,0.015132358408533036,0.008412968759331852
1746735747498367000,0.991366943359375,-0.03054594491124153,0.01683821247834712,0.005656856717914343
1746735747508333000,1.0013330078125,-0.042508769905567165,0.020436090839840472,0.007175773380883038
1746735747518299100,1.011299072265625,-0.002855389431118965,0.012646021485514938,0.009769187407568096
1746735747528265000,1.021264892578125,-0.012134089908003807,0.004876227734237909,0.0008192256947048008
1746735747538231000,1.03123095703125,-0.030236732831597328,0.023526458070613442,-0.012654442253988235
1746735747548197000,1.041197021484375,-0.026792729857563972,0.025863632313907144,0.012238262668531388
1746735747558163000,1.051162841796875,-0.020357143852114675,0.015073029436729847,0.00489520642934367
1746735747568129000,1.06112890625,-0.0053892918229103085,0.0248756807224825,-0.0075346698211506006
1746735747578094800,1.0710947265625,-0.01871054568886757,0.015509703820943832,-0.0022919833946973083
1746735747588061200,1.081061279296875,-0.03996083898842334,0.003569492517225444,0.007291106856241822
1746735747598027000,1.091027099609375,-0.023352234014868734,0.005541413644701242,0.0030790969180874523
1746735747607993000,1.1009931640625,-0.003153495594859123,0.008260646008141338,-0.008716865343041717
1746735747617960000,1.1109599609375,-0.026046879926323888,0.02155212579034269,-0.01468196602622047
1746735747627926000,1.120926025390625,-0.031136896541714667,0.00856883517447859,-0.013765289572719483
1746735747637892000,1.13089208984375,0.005969137537479401,0.00532287552319467,0.0014210457790642976
1746735747647858000,1.14085791015625,-0.018572014001011848,0.016668043543212115,0.00439934920379892
1746735747657824000,1.150823974609375,-0.020215105032920837,0.012732274996861815,0.004530044645071029
1746735747667789800,1.160789794921875,-0.022008418190479277,0.009852299113757908,0.01901615930562839
1746735747677756200,1.170756103515625,-0.012878770795464515,0.013130042142793535,0.009696743225865065
1746735747687722000,1.180721923828125,-0.025296353819966314,0.0061997679555788636,-0.010171813391707836
1746735747697688000,1.19068798828125,-0.03383037340939045,0.013305837101116776,0.0029980858374387023
1746735747707654000,1.20065380859375,-0.01916530371904373,0.009090630558878182,-0.004738682427071035
1746735747717620200,1.2106201171875,-0.013031331008672714,0.010004384402930735,0.003822225169278681
1746735747727586000,1.2205859375,-0.007635024923086166,0.015991130662336945,-0.004766520282067358
1746735747737552000,1.2305517578125,-0.033517654198408124,0.022944128138013182,-0.0038567667596973478
1746735747747518000,1.24051806640625,-0.014660393515229225,0.020820998504199086,-0.013652202853374183
1746735747757484000,1.250484130859375,-0.01735153229534626,0.008209865668974817,-0.0049812772776000195
1746735747767450000,1.2604501953125,-0.03710252694785595,0.015363975207321344,-0.0035985176823101934
1746735747777416000,1.270416015625,-0.03425999699831009,0.016716997251473367,0.004806560031510889
1746735747787382000,1.280382080078125,-0.036354338929057116,0.009668503512069583,-0.004319561965856701
1746735747797348000,1.29034814453125,-0.027978724771738052,0.004646547164209187,-0.0028190577424131334
1746735747807314000,1.30031396484375,-0.009721183547377586,0.01657788104172796,-0.012642331691086292
1746735747817280000,1.310280029296875,-0.02168985376060009,0.03296520794741809,0.003453154394868761
1746735747827245800,1.320245849609375,-0.028123101678490636,0.013624912987649439,0.00546376356491819
1746735747837212200,1.330212158203125,-0.018999884024262427,-0.0008157002970576285,-0.001721617894526571
1746735747847178000,1.340177978515625,-0.015257190364599226,0.0042324864706024526,0.0005574512196704745
1746735747857144000,1.35014404296875,-0.03351414706707,0.014850838053412734,0.007363898097816854
1746735747867110000,1.36010986328125,-0.014661562559008598,0.025207104633934795,0.006331303647067398
1746735747877077000,1.370076904296875,-0.016460720935463906,0.01778941225595772,0.011254019137844443
1746735747887043000,1.38004296875,-0.0219943896651268,0.008910342088527977,0.0206661550023593
1746735747897009200,1.390009033203125,-0.02782791812419891,0.009456066337786614,-0.00023614684343338012
1746735747906975000,1.39997509765625,-0.03874854058921337,0.0008802534332498907,-0.007881784492079168
1746735747916940800,1.40994091796875,-0.007770049479603767,0.009937529711797833,-0.005749229442793876
1746735747926907100,1.4199072265625,-0.017045827347040174,0.029208851088583468,0.012814436854980885
1746735747936873000,1.429873046875,-0.010758709901571272,0.014809738858044147,0.013983023976627736
1746735747946839000,1.439839111328125,-0.010303367349505424,0.010981887665577231,0.010458393514435737
1746735747956804900,1.449804931640625,-0.030505028378963468,0.016532872856222094,0.004923026018030941
1746735747966771200,1.459771240234375,-0.008805237746238708,0.02439947804547846,-0.0017432452044449747
1746735747976737000,1.469737060546875,-0.025265374159812927,0.025593181342072783,0.0017156996103934942
1746735747986702800,1.479702880859375,-0.015987842726707457,0.0151159187303856,0.002013330850098282
1746735747996669000,1.4896689453125,-0.01598725820481777,0.0011854469249024987,-0.0015517229540273547
1746735748006635000,1.499635009765625,-0.011350830575823784,0.016154285334795713,0.003174173056706786
1746735748016601000,1.50960107421875,-0.035739421901106835,-0.0012472235821187495,-0.0016096271537244318
1746735748026567000,1.51956689453125,-0.021826047360897063,0.008066730871237814,0.013396693722344933
1746735748036533000,1.529532958984375,0.0006190086811780929,0.017347513707354663,0.006843381355050951
1746735748046499000,1.5394990234375,-0.021380641680955884,0.010502543183416127,-0.010174169745575636
1746735748056465000,1.54946484375,-0.03769406310021877,-0.0014240779863670468,-0.01285233944626525
1746735748066431000,1.559430908203125,-0.02497194417119026,-0.01014510804787278,-0.003134937024861574
1746735748076397000,1.56939697265625,-0.014496727386116981,0.015452274545282125,-0.012923541518952697
1746735748086363100,1.579363037109375,-0.014798925203084946,0.025359957108087836,0.0010277173462323844
1746735748096329000,1.589328857421875,-0.03739186528325081,0.025443543738313017,0.001405811677314341
1746735748106295000,1.599294921875,-0.026473580905795095,0.009662000706046819,0.01762223899550736
1746735748116261000,1.60926123046875,-0.005227379259467125,0.005372267622873187,0.002479121730942279
1746735748126227200,1.619227294921875,-0.028420623320341107,0.013565803211554884,-0.008238342844787985
1746735748136193000,1.629193115234375,-0.02617372117638588,0.023418942575529216,0.002804919619206339
1746735748146160000,1.63916015625,-0.01614683268070221,0.007843589639849961,-0.001402651605848223
1746735748156126000,1.6491259765625,-0.02303308506309986,0.012967216263897716,0.004624883321672678
1746735748166092000,1.659092041015625,-0.02063888340294361,0.006824073866382241,-0.014059121420141308
1746735748176058000,1.66905810546875,-0.021087796214222906,0.002491305359080434,-0.000027837854996323582
1746735748186024000,1.67902392578125,-0.01869943977296352,0.011297200692445039,0.008876165824290365
1746735748195990000,1.688989990234375,0.002557283267378807,0.013856383655965327,0.006919880657363682
1746735748205956000,1.6989560546875,-0.031410452786087985,0.010718779749982059,-0.004482552241533994
1746735748215922200,1.708922119140625,-0.044129649105668065,0.010458923237398266,-0.0026547157598659395
1746735748225888000,1.718887939453125,0.010042670586705207,0.007574125048704445,-0.0004518902196548879
1746735748235853800,1.728853759765625,-0.02826981667280197,0.00528290883898735,0.002201309436559677
1746735748245820200,1.738820068359375,-0.010311550655961036,0.010927380999363958,0.012700053227692841
1746735748255786000,1.748785888671875,-0.03140519208908081,0.016379326262325047,-0.011266275831218808
1746735748265752000,1.758751953125,-0.03469371224045753,-0.000623282997496426,-0.0035410518740303814
1746735748275718000,1.7687177734375,-0.0055085342884063715,0.0031483810283243654,0.0005707490926608443
1746735748285684200,1.778684326171875,-0.032142274191975594,0.011641045694053172,0.011673340528458356
1746735748295650000,1.788650146484375,-0.04590893373787403,0.022387407570704815,0.010404489636421203
1746735748305616100,1.7986162109375,-0.02405833645761013,0.0254488044353202,0.0001468063258565962
1746735748315582000,1.80858203125,-0.008491934013366698,0.00023176292926073072,-0.0010429697142913938
1746735748325548300,1.81854833984375,-0.013877718704938887,0.01081924444977194,-0.006691186468023806
1746735748335514000,1.82851416015625,-0.04455108938813209,0.009290829306095838,0.02036635007187724
1746735748345480200,1.838480224609375,0.00019172317981719968,0.014354907762631774,0.016352693983726203
1746735748355446000,1.848446044921875,-0.005339607462286949,0.009933839917369186,-0.0011982333412393926
1746735748365412000,1.858412109375,-0.04260521601736545,0.020963439182192085,-0.022150968466326592
1746735748375378200,1.868378173828125,-0.027940146327018738,0.016161811054125428,-0.010024422543961554
1746735748385344000,1.878343994140625,-0.01582300755381584,-0.01144424448031932,0.013287479460518807
1746735748395310000,1.88831005859375,-0.016874562433362005,0.014206694930978118,0.010452730958629398
1746735748405276200,1.898276123046875,-0.019115034836530684,0.0180444464629516,0.023125220325961707
1746735748415243300,1.9082431640625,-0.05442950932383537,0.022233386052772402,0.006818721837829798
1746735748425209000,1.918208984375,-0.015971476113796235,0.010532682593353092,0.0008634484289214015
1746735748435175200,1.928175048828125,-0.02225099477469921,0.00476801811940968,-0.022066194526012984
1746735748445141000,1.93814111328125,-0.03332008579969406,0.016065912931598723,-0.015934231109637768
1746735748455107300,1.948107421875,-0.01670446656346321,0.02315583465993404,-0.003979333693441003
1746735748465073200,1.9580732421875,-0.021188918501138687,0.008877024340815842,0.019147494067717343
1746735748475039000,1.9680390625,0.0009592004209756851,0.015607355509139597,0.01412325443122536
1746735748485005000,1.978005126953125,-0.017593524357676506,0.013484481603652239,0.007963654089253395
1746735748494971100,1.98797119140625,-0.0452741429656744,0.007746412875689565,0.001100435522571206
1746735748504937200,1.997937255859375,0.003362169909477234,0.010672967846877872,-0.010867211777344345
1746735748514903000,2.007903076171875,-0.009804185655713081,0.008683985986746847,-0.002466463178768754
1746735748524869000,2.017869140625,-0.03299041545391083,0.012914207435026763,-0.007744604511093348
1746735748534835200,2.027835205078125,-0.012334580916166306,0.008624657014943658,-0.0007140848197974264
1746735748544801000,2.037801025390625,0.005917699611186981,0.01991436852067709,0.004953658618312329
1746735748554767000,2.04776708984375,-0.052587096327543256,0.0029636721111834046,0.010119553481508045
1746735748564733000,2.05773291015625,-0.028491934990882872,0.011006474117562174,-0.001928958768583834
1746735748574699300,2.06769921875,-0.00799216779768467,0.02404200637731701,0.001348071874398738
1746735748584665000,2.0776650390625,-0.033275662136077876,-0.0023689576210454105,-0.0006379508436657488
1746735748594631200,2.087631103515625,-0.04000760073959827,-0.002572115510329604,0.011549896811880171
1746735748604597000,2.097596923828125,0.0005506196200847625,0.009120295044779778,-0.0032065226900391277
1746735748614563000,2.10756298828125,-0.03207037799954414,0.01659348046965897,0.006256375247333199
1746735748624529200,2.117529052734375,-0.029225509962439535,0.005014686356857419,-0.0006892426394857465
1746735748634495000,2.127494873046875,-0.004081131833791733,0.0010102730210870504,-0.007219521191064268
1746735748644461000,2.1374609375,-0.03520224628448486,0.02177647259812802,-0.022257387982867655
1746735748654428000,2.147427978515625,-0.025469372299313543,0.018964082058519124,-0.004275375764258206
1746735748664394200,2.157394287109375,-0.00003331774771213531,0.01853504299148917,0.01177645384306088
1746735748674360000,2.167360107421875,-0.011105331382155418,-0.0009550722351297736,0.016466018165089188
1746735748684326100,2.177326171875,-0.03250175515413284,-0.0014312383795157073,0.006731408880557865
1746735748694292000,2.1872919921875,-0.02142272725701332,0.008352489010058342,-0.004522847719304264
1746735748704258300,2.19725830078125,-0.009603110125660896,0.007950666743516922,0.0036692265646532177
1746735748714224000,2.20722412109375,-0.01274608432650566,0.0063024976776912805,0.0026530535257421432
1746735748724190000,2.21718994140625,-0.02995733136832714,0.0025977979408577084,0.0009132606537081301
1746735748734156000,2.227156005859375,-0.032200141859054565,0.006898965733498334,0.018750037449039518
1746735748744122000,2.2371220703125,-0.012747253370285034,-0.004168042932264506,0.022023396563902495
1746735748754088200,2.247088134765625,-0.009906476986408234,0.013381569218449295,0.0003228935451246798
1746735748764054000,2.257053955078125,-0.028762568625807762,0.009380663014017045,-0.012723525434825569
1746735748774020000,2.26702001953125,-0.010506196445226669,0.011026238263957202,-0.00571806711954996
1746735748783986200,2.276986083984375,-0.02173077029287815,0.00878675224147737,0.008253339484520256
1746735748793952000,2.286951904296875,-0.014401450318098067,0.014209288746863603,0.019223938571102914
1746735748803918000,2.29691796875,-0.027868834656476972,0.017225056371465323,0.014086411285866051
1746735748813884000,2.3068837890625,-0.02382686578929424,0.016138357113301752,0.00259348709192127
1746735748823850200,2.316850341796875,0.0016179565906524658,0.00916135770753026,0.008797401499655097
1746735748833816000,2.326816162109375,-0.013191490006446838,0.006569478050805628,0.0013747954845428467
1746735748843782100,2.3367822265625,-0.042813890331983566,0.007958923115208745,-0.0038392493693158026
1746735748853748000,2.346748046875,-0.019469255101680755,0.008678433028794825,0.0006597608166746795
1746735748863715000,2.356715087890625,-0.017224106523394584,-0.0015076646165922284,-0.0018776304401457308
1746735748873681200,2.36668115234375,-0.01587444548010826,0.006983027287758886,-0.0008621515209786593
1746735748883647200,2.376647216796875,-0.026202947270870205,0.00944780996609479,0.004358140410576016
1746735748893613000,2.386613037109375,-0.02874211035966873,0.013402502408623694,0.019921912506315857
1746735748903579000,2.396578857421875,-0.02364917113482952,0.0038949981445446607,0.021240904416702688
1746735748913545200,2.406545166015625,-0.000008183306455612182,0.006755721337907016,-0.009396755632292478
1746735748923511000,2.416510986328125,-0.05073533098101616,0.0071956836577504865,-0.017146620840393006
1746735748933477000,2.42647705078125,-0.0261900877892971,0.016823818626813588,-0.002743398690316826
1746735748943443000,2.43644287109375,-0.003441664886474609,0.012257350961491465,0.00972290058042854
1746735748953409300,2.4464091796875,-0.015855740779638288,0.002280512152612209,0.009280198314227163
1746735748963375000,2.456375,-0.04593231461346149,0.009897489962354301,0.0009018259442411362
1746735748973341000,2.4663408203125,-0.024524200403690338,-0.002795220209099352,-0.013301288790162652
1746735748983307000,2.47630712890625,-0.01673895335495472,0.008067023132182657,-0.009594324031006544
1746735748993273000,2.486273193359375,-0.005962707796692848,0.013392200210317968,-0.00024460414452478287
1746735749003239200,2.4962392578125,-0.020925299128890035,0.010093158664926886,0.0018226305835880338
1746735749013205000,2.506205078125,-0.025708441752195357,0.011224318119324743,-0.01426631616372615
1746735749023171000,2.516171142578125,-0.008196750459074973,-0.004280161537230014,0.00913341025467962
1746735749033137200,2.52613720703125,-0.02091419321298599,0.006597717764601111,0.020696294412296264
1746735749043103200,2.536103271484375,-0.025105215162038803,0.03969970383420587,0.006158047705702483
1746735749053069000,2.546069091796875,0.02921440404653549,0.0601902648076415,0.004910020405985415
1746735749063035100,2.55603515625,-0.023763152903318405,0.022279745945148168,0.02063773262547329
1746735749073002000,2.566001953125,-0.044265842705965036,-0.03422781176175922,0.007587715182639658
1746735749082968000,2.575968017578125,-0.0734381611764431,-0.051116548850946124,-0.015447945430036634
1746735749092934100,2.58593408203125,-0.02315466561615467,-0.00902783098835498,-0.037094361907709386
1746735749102900000,2.59589990234375,0.027128245422244072,0.04774243277534842,-0.01743829726334661
1746735749112866000,2.605865966796875,0.02308919916450977,0.07751037905141711,0.017220544593129307
1746735749122832100,2.61583203125,-0.018057634738087653,0.03212017195802182,0.04187478285096585
1746735749132798200,2.625798095703125,-0.04962883104383945,-0.02375993803292513,0.02550040675839409
1746735749142764000,2.635763916015625,-0.04513970293104648,-0.03825717687569558,-0.005810750371683389
1746735749152730000,2.645730224609375,-0.03541325868666172,-0.018957688850350676,-0.03603131751976907
1746735749162696200,2.6556962890625,-0.031523265510797496,0.026495792737603188,-0.016134996112436056
1746735749172662000,2.665662109375,-0.014316694644093513,0.037745464493893086,0.009459116811398416
1746735749182628000,2.675628173828125,-0.025237901630997657,0.015099880911037325,0.02759736077133566
1746735749192594200,2.68559423828125,-0.03361410031020641,-0.015370879872143268,0.030978582441154867
1746735749202560300,2.695560302734375,-0.040941666719317434,0.011015936065651476,0.016801698126550763
1746735749212526000,2.705526123046875,-0.0352571913421154,0.020758893053419887,-0.020415340312756595
1746735749222492200,2.7154921875,0.0009527706801891326,0.006413849097676574,-0.049982850379589945
1746735749232458200,2.725458251953125,-0.0014443535894155502,0.020828487690910696,-0.018251933467481284
1746735749242424000,2.735424072265625,-0.043940848535299296,0.005370185263641178,0.004911481710709631
1746735749252390100,2.74539013671875,-0.029869068562984463,-0.0016258111035451293,0.026493801709916442
1746735749262356000,2.75535595703125,-0.016701543954014776,-0.015093560768105089,0.03191038339855149
1746735749272322300,2.765322265625,-0.0024818799436092374,0.020583499953895808,0.01368243359485641
1746735749282288000,2.7752880859375,-0.034954993525147436,0.03063121204189956,-0.028322423642873764
1746735749292254200,2.785254150390625,-0.013708207356929777,0.02766757646333426,-0.03804488583188504
1746735749302220300,2.79522021484375,-0.011612111860513686,0.006385974710062146,-0.007039470182731747
1746735749312186400,2.805186279296875,-0.04453121564388275,-0.009653853932209312,0.02859223529389128
1746735749322152200,2.815152099609375,-0.03495440900325775,0.00006849865894764662,0.037584794039465484
1746735749332118300,2.8251181640625,-0.00218026664853096,0.016611746778711675,0.03131440853308886
1746735749342084000,2.835083984375,0.004557517173886299,0.014307269228622316,-0.005509593734331428
1746735749352050400,2.845050537109375,-0.010108137038350104,0.01523223858643323,-0.03083157518589869
1746735749362016300,2.855016357421875,-0.041681086909770966,0.010422134890966116,-0.022723452858347443
1746735749371982300,2.864982421875,-0.018935586616396903,-0.00172309746555984,0.0030696715026162563
1746735749381948200,2.8749482421875,-0.007862403938174247,-0.005184599563665688,0.01329736153371632
1746735749391914200,2.884914306640625,-0.006212883165478706,0.017771365142613647,0.035666612393222746
1746735749401880300,2.89488037109375,-0.037789340168237685,0.017812318207509815,0.015493994795158504
1746735749411846100,2.90484619140625,-0.0032253917872905728,0.030745522603951393,-0.004009783630631864
1746735749421812200,2.914812255859375,-0.0032230536997318268,0.0015230083161965012,-0.015827482799533752
1746735749431778300,2.9247783203125,-0.020582184779644012,-0.005830094392970204,-0.023188604418374597
1746735749441744400,2.934744384765625,-0.044677346116304396,0.006168861360661685,-0.009184391523245721
1746735749451710200,2.944710205078125,-0.008756722429394721,0.011582191646285354,0.02910752787226811
1746735749461676000,2.954676025390625,-0.005316226586699485,0.019533808237873016,0.033740722364559765
1746735749471642400,2.964642333984375,-0.031205870124697683,0.0068434361539781085,0.032583716082852335
1746735749481608200,2.974608154296875,-0.053804070901870726,0.007460325943306088,0.00410352632869035
1746735749491574300,2.98457421875,-0.001880406919121742,0.0046114393182098866,-0.01381954051060602
1746735749501541000,2.994541015625,-0.008165186277031899,0.010319989690743386,-0.004001527258940041
1746735749511507200,3.004507080078125,-0.028066987577080725,0.002693732596002519,0.0024195552971214055
1746735749521473300,3.014473388671875,-0.03868950387835502,-0.0020048735490068794,0.0011603855488821863
1746735749531439400,3.024439453125,0.0020148469537496568,-0.0011527867643162607,0.00981403119629249
1746735749541405200,3.0344052734375,-0.013847323566675186,-0.004552877531386911,0.018248627265542744
1746735749551371300,3.044371337890625,-0.03808803085386753,0.005024586696363985,0.0017518121033906935
1746735749561337300,3.05433740234375,-0.03061082684099674,-0.0037392595935612917,-0.021074662738014012
1746735749571303200,3.06430322265625,-0.0231271930873394,-0.015437259639240801,-0.012109795716963708
1746735749581269200,3.074269287109375,-0.024025018709897993,-0.00016205869391560553,0.01628059686189517
1746735749591235000,3.084235107421875,-0.019986556974053382,0.008532229491136968,0.016333039435185492
1746735749601201400,3.094201416015625,-0.024024434188008308,0.02375920738056302,-0.002246335888374597
1746735749611167200,3.104167236328125,-0.005620177969336509,0.0037134310325607654,0.020829072212800382
1746735749621133300,3.11413330078125,-0.028220716834068297,0.005436638095974922,0.010406097071617841
1746735749631099100,3.12409912109375,-0.03899345526099205,0.011077822320722042,-0.02169783613765612
1746735749641065200,3.134065185546875,-0.020586860954761504,0.0053751536997035144,-0.029020342779159543
1746735749651031300,3.14403125,-0.008020224848389625,0.0006213102361187339,0.001856952978298068
1746735749660997000,3.1539970703125,0.009185176974534987,0.010261793230101466,0.029781755605712532
1746735749670963200,3.163963134765625,-0.026734862190484997,0.021916721319034695,0.01689586094971746
1746735749680929300,3.17392919921875,-0.03751052322685718,0.0060883434703573585,0.00222198689840734
1746735749690895400,3.183895263671875,-0.021796821266412733,0.00349635421577841,0.0018248042743653058
1746735749700861200,3.193861083984375,-0.01595803211033344,0.0016458675108850002,-0.015070508686080574
1746735749710827000,3.203826904296875,-0.02313888352513313,0.005788191480003297,0.005766454572230577
1746735749720793300,3.21379345703125,-0.03226268570125103,0.013036957031860946,-0.00046513329371809955
1746735749730759200,3.22375927734375,-0.007864742025732993,0.011410926732607185,0.009706460902281104
1746735749740726300,3.233726318359375,0.014589081844687461,0.009459536936506628,0.012612868134584277
1746735749750692000,3.243692138671875,-0.03569032206237316,0.0100541052961722,0.0135787357583642
1746735749760658200,3.253658203125,-0.021174305453896522,0.007632979096472263,0.0022087803569622337
1746735749770624300,3.263624267578125,-0.015342530560493468,0.004558649685047567,-0.008695731223467737
1746735749780590300,3.27359033203125,-0.0175894327044487,0.0020452055593952537,-0.012255798325221985
1746735749790556200,3.28355615234375,-0.01698854420185089,0.009341755775734782,-0.011364292845595628
1746735749800522200,3.293522216796875,-0.017588848182559014,0.004560951239988208,0.018165515559352932
1746735749810488300,3.30348828125,-0.0080126260638237,0.008326075927168131,0.023968082624580708
1746735749820454100,3.3134541015625,-0.008913958817720412,0.011647804228402673,0.008336834783200174
1746735749830420200,3.323420166015625,-0.017888123390078545,0.013693923103250563,-0.009826470552757382
1746735749840386000,3.333385986328125,-0.015338438907265663,0.01673424064721912,-0.0002557283267378807
1746735749850352400,3.343352294921875,-0.02117781258523464,0.009150470987334847,0.0009979249961674212
1746735749860318200,3.353318115234375,-0.02416764205098152,0.0025162206046283244,0.0032297026362270117
1746735749870284300,3.3632841796875,-0.03553133210837841,0.001040156702697277,0.025308701844885945
1746735749880250000,3.37325,-0.016369535520672798,0.000778802352771163,0.014883589545544236
1746735749890216200,3.38321630859375,-0.0008083937734365463,0.004721585161797702,0.009248579333256929
1746735749900182300,3.393182373046875,-0.019663900890946388,0.011199475939013064,-0.01608122009858489
1746735749910148000,3.403148193359375,-0.028946108499169346,0.010513649099320172,-0.006452098748832941
1746735749920114200,3.4131142578125,-0.029099253234267233,0.01204783639665693,0.005423541152384132
1746735749930080300,3.423080322265625,-0.0014162965387105942,0.003534567334316671,-0.00016563889048993587
1746735749940046300,3.43304638671875,-0.024315526089072226,0.00407470209300518,0.00744764912482351
1746735749950012200,3.44301220703125,-0.034192192459106444,0.023108451854251325,0.008434723933413624
1746735749959978200,3.452978271484375,-0.01907820995748043,-0.0036793460998684165,0.008414612727146595
1746735749969944300,3.4629443359375,-0.03209960409402847,-0.004530300373397768,0.0037854550891555845
1746735749979910100,3.47291015625,-0.01953179894387722,0.010754143324308097,0.0006784655171446502
1746735749989876200,3.482876220703125,-0.018490765458345413,0.021466712529212235,-0.004049512852821499
1746735749999843000,3.492843017578125,-0.026424481067061422,0.019582798478752373,0.004165631779469549
1746735750009809200,3.50280908203125,0.006499298891425132,0.00561531913112849,0.0038264812192879616
1746735750019775200,3.512775146484375,-0.008612930044531822,0.0016917890118435025,0.02227481404170394
1746735750029741300,3.5227412109375,-0.027018355306982992,0.002770414561405778,-0.006547996871359646
1746735750039707100,3.53270703125,-0.023872458496689796,-0.0026904081277549265,0.0015578969664871692
1746735750049673200,3.542673095703125,-0.001426233410835266,0.02901303625553846,0.0003902231602929532
1746735750059639300,3.552639404296875,-0.02117839710712433,0.005206190340965986,0.011365480155684053
1746735750069605000,3.562605224609375,-0.04212999972105026,0.007195574059896171,0.0049291634978726505
1746735750079571200,3.5725712890625,-0.02626782920062542,-0.004230184915661812,0.005784921810682863
1746735750089537000,3.582537109375,-0.004267594316601753,-0.0008496025666594505,-0.0037742761080153285
1746735750099503400,3.59250341796875,-0.02401683540344238,0.005382460223324596,0.011181191363651305
1746735750109469200,3.60246923828125,-0.02565992643535137,0.01567779039684683,-0.003697941202484071
1746735750119435300,3.612435302734375,-0.001415127494931221,0.01746507567241788,-0.012064349140040577
1746735750129401000,3.622401123046875,-0.0015606734454631805,0.006502879087999462,0.008617113029304891
1746735750139367400,3.632367431640625,-0.01158405480980873,0.006641739569418132,0.00794613669887185
1746735750149333200,3.642333251953125,-0.02743804202377796,0.016853702308423816,0.00414531964380294
1746735750159299000,3.652299072265625,-0.022049919244647026,0.01262841276358813,0.0026848003708757457
1746735750169265200,3.66226513671875,-0.0034971944659948346,-0.006496632010303437,-0.002366747397650033
1746735750179231200,3.672231201171875,-0.02624386380314827,0.021224574336409566,0.01123266582256183
1746735750189197300,3.682197265625,-0.04315291302800178,0.015832980958558618,0.0034556568792089818
1746735750199163100,3.6921630859375,-0.020254852521419522,0.0005145619260147214,0.011686894129775464
1746735750209129200,3.702129150390625,-0.011722001975774764,0.0018180457400158046,0.019398838480282572
1746735750219095300,3.71209521484375,-0.02264437800645828,0.0034445509633049365,0.023296503505948928
1746735750229061000,3.72206103515625,-0.058255789613723755,0.011477781423740088,-0.0015154643305577337
1746735750239027200,3.732027099609375,-0.009175824624300003,0.011171857279725372,-0.010725428686477243
1746735750248993300,3.7419931640625,-0.015311550900340079,0.011465652594529092,-0.007248126231040805
1746735750258959400,3.75195947265625,-0.027879940572381016,-0.0021597718497738242,0.006798939425125718
1746735750268926200,3.76192626953125,-0.01815934154689312,0.009738463475741446,0.03155205321386456
1746735750278892300,3.771892333984375,-0.017563129219412804,0.013698416615277528,0.014569847421254962
1746735750288858600,3.781858642578125,-0.009032032239437103,0.007387845228984951,0.01471046146834269
1746735750298824400,3.791824462890625,-0.01741115352809429,0.007347768946923315,-0.0006292012816295027
1746735750308790800,3.801790771484375,-0.038213118538260454,0.01877213968299329,-0.009493786265980452
1746735750318756600,3.811756591796875,-0.02100362506210804,-0.0011667787570506334,0.0053830082125961775
1746735750328722700,3.82172265625,-0.014569792622327804,-0.004441379980929196,0.0038659547131508587
1746735750338688500,3.8316884765625,-0.01756488278508186,-0.00023033815715461968,0.024259393721353262
1746735750348654600,3.841654541015625,-0.041214638441801066,0.0022485095791518685,0.009858217397890985
1746735750358620700,3.85162060546875,-0.021165537625551224,-0.005320829696580767,0.012945406290888785
1746735750368586500,3.86158642578125,-0.004554010042548179,0.006152092888951301,0.012262428995408118
1746735750378552600,3.871552490234375,-0.03298632380068302,0.01990673320349306,0.012029935413785279
1746735750388518700,3.8815185546875,-0.03642857320904731,0.01974978907611221,0.013742931610438972
1746735750398484700,3.891484619140625,-0.011592822638154029,-0.0013146262625232338,-0.012326543740183115
1746735750408450600,3.901450439453125,-0.023866028755903244,0.008603321965970098,0.0014684103184379636
1746735750418416400,3.91141650390625,-0.03059387570619583,0.01207976590488106,0.02123714155703783
1746735750428382700,3.9213828125,-0.038971243429183955,0.006073949618823826,0.028071170561853796
1746735750438348500,3.9313486328125,-0.020714286726713178,-0.006523702680319547,0.007755582562834024
1746735750448314600,3.941314697265625,-0.00799216779768467,0.016885449153557417,-0.004869067341089248
1746735750458280400,3.951280517578125,-0.011725509107112883,0.015432839192450046,-0.008110350817255675
1746735750468246800,3.961246826171875,-0.04254793287217617,0.0035793197914958,0.0110127211952582
1746735750478212600,3.971212646484375,-0.013814005818963051,0.004265219696424901,0.016826741236262023
1746735750488178400,3.981178466796875,-0.010965630650520324,0.0019559198407456276,0.006426872976031154
1746735750498144500,3.99114453125,-0.010210428369045257,0.00889591170437634,-0.01070730850789696
1746735750508110600,4.001110595703125,-0.02502162853181362,0.01034026529379189,0.002474646485224366
1746735750518076700,4.01107666015625,-0.025176526832580565,-0.0022990341899916528,0.008630977157875894
1746735750528042500,4.02104248046875,-0.022176175972819328,-0.016179419776052237,0.01383506687330082
1746735750538008600,4.031008544921875,-0.03234568780958652,0.018716281309910116,-0.001098700223211199
1746735750547974700,4.040974609375,-0.016778700843453405,0.018790186796337364,0.02434424072690308
1746735750557940700,4.050940673828125,-0.01378828685581684,0.0029468671068549153,0.00912747370423749
1746735750567907600,4.060907470703125,-0.025912439891695976,-0.007900617056712508,0.007608557041268795
1746735750577873700,4.070873779296875,-0.01664133819937706,-0.003463547924719751,0.0018088760528713465
1746735750587839500,4.080839599609375,-0.03609656477570534,0.0007643719686195254,-0.0035574915521778164
1746735750597805600,4.0908056640625,-0.00003565583527088165,-0.004001198465377092,0.0018274346228688955
1746735750607771600,4.100771728515625,-0.010964461606740951,0.00612272066399455,-0.000726652040425688
1746735750617737500,4.110737548828125,-0.024131986215710638,0.017936748304776845,0.0016511099415831268
1746735750627703600,4.12070361328125,-0.03026537440419197,0.009241437206417322,0.015076207774505019
1746735750637669600,4.130669677734375,-0.017096096229553222,0.016850925829447805,0.013143906271364539
1746735750647635700,4.1406357421875,-0.005130933147668838,-0.006123085990175604,0.005902173248492181
1746735750657601500,4.1506015625,-0.0013888240098953247,0.00973093775641173,-0.005817874232213944
1746735750667567600,4.160567626953125,-0.04044073145985603,0.0010350421361625193,-0.00696914489287883
1746735750677533700,4.17053369140625,-0.02577157011628151,0.003517579666897654,-0.00644676498658955
1746735750687499500,4.18049951171875,-0.0021247370690107344,0.010188472265563905,0.011345752541907131
1746735750697465600,4.190465576171875,-0.030401568004488944,0.013259988665394485,0.019538776673935353
1746735750707431700,4.200431640625,-0.044020343512296674,0.02092741802074015,0.0232780910664238
1746735750717397800,4.210397705078125,-0.01513853242099285,-0.0009580313771963119,0.01058127097543329
1746735750727363600,4.220363525390625,-0.024717677149176595,-0.0027275252677500246,-0.008231346848420798
1746735750737329700,4.23032958984375,-0.027107202634215354,0.021260266704298553,-0.008770513492729514
1746735750747295700,4.240295654296875,-0.024857962402701377,-0.0012838657980784774,-0.005891560522932559
1746735750757261600,4.250261474609375,-0.004958499190211295,-0.0019973478296771642,0.02015694510489702
1746735750767227600,4.2602275390625,-0.029648119288682936,0.0008538403503596783,0.00184758236175403
1746735750777193500,4.270193359375,-0.0450607924759388,0.00638809360191226,0.015625968878064302
1746735750787159800,4.280159912109375,-0.008849076887965202,0.014032726603560149,-0.0036796748934313653
1746735750797125600,4.290125732421875,-0.012287234643101691,-0.005038469091244041,-0.005464055825863033
1746735750807091700,4.300091796875,-0.011985621348023414,0.0013586480673402547,-0.009958718630298971
1746735750817057500,4.3100576171875,-0.017521628165245055,0.014655790405347943,0.0056501529824919995
1746735750827023600,4.320023681640625,-0.021418635603785513,0.01248502223752439,0.010097432981245219
1746735750836989700,4.32998974609375,-0.010492752441763877,0.009466843460127711,0.01170260315556079
1746735750846955500,4.33995556640625,-0.025600305202603337,-0.0051460576515644785,0.012575659663043916
1746735750856921600,4.349921630859375,-0.027243980756402015,0.02070544583313167,-0.008532631349936128
1746735750866887700,4.3598876953125,-0.00838905816078186,0.004707739299535751,-0.011588931914325803
1746735750876853800,4.369853759765625,-0.007792261311411857,-0.004215352672711015,-0.002382145896181464
1746735750886820600,4.379820556640625,-0.018266309052705765,-0.004707702766917646,0.01401066090222448
1746735750896786700,4.38978662109375,-0.017665420550107953,0.003764540165290236,-0.0025579956534318624
1746735750906752500,4.39975244140625,-0.03068330755531788,0.012739727650955318,0.01553878378495574
1746735750916718800,4.40971875,-0.015423194581270217,0.00846723796352744,0.010098236698843539
1746735750926684700,4.4196845703125,-0.013477321210503577,0.0041335926733911035,-0.018077636346500364
1746735750936650500,4.429650390625,-0.04265080872476101,0.010780519874580204,-0.021697416012547908
1746735750946616600,4.439616455078125,-0.019902385821938512,0.019087708438187835,0.008254124935809522
1746735750956582700,4.449582763671875,-0.008531681501865387,-0.002418349720723927,0.00911342691257596
1746735750966548700,4.459548828125,-0.02648819395303726,-0.0006068433193489909,0.02059380215220153
1746735750976514600,4.4695146484375,-0.03262859640419483,0.014595767313800752,0.007580335593782365
1746735750986480600,4.479480712890625,-0.007937807261943817,0.016512414590083062,0.006138849814888089
1746735750996446700,4.48944677734375,-0.014217325922846793,-0.001987995479442179,0.005987330781295895
1746735751006412500,4.49941259765625,-0.0011959317862987517,-0.010562529742345214,0.00312856208300218
1746735751016378600,4.509378662109375,-0.03575871112346649,0.009566467909701167,-0.006270184576977044
1746735751026344400,4.519344482421875,-0.026921909195184706,0.008699220088496804,-0.004836772506684065
1746735751036310800,4.529310791015625,-0.0154021517932415,-0.012488273640535771,0.006483900392893701
1746735751046276600,4.539276611328125,-0.0019400281518697738,-0.004626892615668475,0.011598868786450474
1746735751056242700,4.54924267578125,-0.045483401802182195,0.01867006754800677,0.00869797797948122
1746735751066208500,4.55920849609375,-0.018543372428417203,0.011847856845147907,0.00554362386809662
1746735751076174600,4.569174560546875,-0.016595160970091817,0.006862761908955872,-0.00944706104742363
1746735751086140700,4.579140625,-0.013747954845428467,-0.004421579301916063,-0.020705865958239884
1746735751096106500,4.5891064453125,-0.028559739530086517,-0.00024546266105026005,-0.012836977480351924
1746735751106072600,4.599072509765625,-0.010155483311414719,0.00861461054496467,0.02333298132512718
1746735751116038700,4.60903857421875,-0.021827800926566124,0.019722535743005573,0.020559461491182447
1746735751126004700,4.619004638671875,-0.022421090644598005,0.015163593797013163,0.01168760651582852
1746735751135970600,4.628970458984375,-0.03019815438687801,0.006884718012437224,-0.001403272660356015
1746735751145936400,4.638936279296875,-0.02181611048877239,0.0008561053726822138,0.004278060911688954
1746735751155902700,4.64890283203125,-0.011786299383640288,-0.006252046132087707,0.0007106690200045704
1746735751165868500,4.65886865234375,-0.010884382107853889,0.014606982827559113,0.0003232406049966812
1746735751175834600,4.668834716796875,-0.03242985896170139,0.012169416949711739,0.001065419008117169
1746735751185800400,4.678800537109375,-0.02180442005097866,0.003942271352373064,0.008625533797778188
1746735751195766800,4.688766845703125,-0.017314707416296003,-0.001444974643923342,0.014889873155858368
1746735751205732600,4.698732666015625,-0.009981880310177802,-0.004256086541898549,0.0010002813500352204
1746735751215698700,4.70869873046875,-0.020604981133341787,0.010123846064135432,-0.01975008133705705
1746735751225665500,4.71866552734375,-0.021051555857062337,0.003962802683748305,-0.0004880575115792453
1746735751235630600,4.728630615234375,-0.008329436928033828,-0.007011814990825951,0.012372757502086459
1746735751245597700,4.73859765625,-0.013563245928287506,0.01985956959351897,-0.00004539177799597382
1746735751255563500,4.7485634765625,-0.0349608387440443,0.014002842921949922,0.021233013371191916
1746735751265529600,4.758529541015625,-0.023881226325035095,0.008806625985726714,0.018077490216027944
1746735751275495400,4.768495361328125,-0.0036830724269151685,0.00032017186507582663,-0.0028368673937395213
1746735751285461200,4.778461181640625,-0.03346329366266727,0.004570668916404247,-0.006781787360925227
1746735751295427300,4.78842724609375,-0.041240941926836965,0.0140688573628664,-0.006440316979493946
1746735751305393200,4.79839306640625,-0.004123217409849167,0.006615655280090868,-0.0018383761419914662
1746735751315359200,4.808359130859375,-0.026417466804385184,0.002084843450039625,-0.0037532881189137695
1746735751325325300,4.8183251953125,-0.02522036597430706,0.00909917919151485,0.007213383711222559
1746735751335291400,4.82829150390625,-0.026116438031196593,0.009801226513646542,-0.003060465282853693
1746735751345257200,4.83825732421875,-0.01863163523375988,-0.0073059756318107245,0.02237507781209424
1746735751355223300,4.848223388671875,-0.014138999989628791,-0.00828475753609091,0.0017878515311516821
1746735751365189400,4.858189453125,-0.02476151629090309,0.009202895294316112,-0.006017853783722967
1746735751375155200,4.8681552734375,-0.03253974907696247,0.008698124109953641,-0.0027067930069752037
1746735751385121300,4.878121337890625,-0.02176467256247997,0.015984262530133127,0.020713117682933806
1746735751395087400,4.88808740234375,-0.015178279909491539,-0.0012794453512877226,0.0012845599178224801
1746735751405053400,4.898053466796875,-0.0259504338145256,0.0064472399106249205,0.010035290997847914
1746735751415019300,4.908019287109375,-0.03208440652489662,0.0037498905854299663,-0.009013364071585237
1746735751424985000,4.917985107421875,-0.014874913048744201,0.0016420681186020373,-0.0006442527202889323
1746735751434951400,4.927951416015625,-0.01412730955183506,0.00269205209556967,0.007305062316358089
1746735751444917200,4.937917236328125,-0.01846913814842701,0.018277122707664965,0.003149440474249422
1746735751454883300,4.94788330078125,-0.030737083569169044,0.006562025396712124,0.009591364888940006
1746735751464849200,4.95784912109375,-0.009485036703944206,0.002170585504733026,0.012721753602847457
1746735751474815500,4.9678154296875,-0.016069091269373892,0.0027648250708356497,-0.00043276539407670496
1746735751484781300,4.97778125,-0.03941314197778702,0.009221125070750713,-0.009889160525426268
1746735751494747100,4.9877470703125,-0.031027006426453587,0.01343183810096234,0.005868873767089098
1746735751504713200,4.997713134765625,-0.0042407063096761705,-0.006820749398134649,0.012678846042882651
1746735751514679300,5.00767919921875,-0.010373509976267814,-0.0017711378583684563,0.02239701564926654
1746735751524645400,5.017645263671875,-0.00917290201485157,0.007899849871732294,0.013867836631741374
1746735751534611200,5.027611083984375,-0.022790508478879926,0.00686261577848345,-0.004398965611308813
1746735751544577300,5.037577392578125,-0.012765373548865318,-0.001959865363501012,0.012959453082550317
1746735751554543400,5.04754345703125,-0.015604396367073059,0.0060675198780372735,0.0018553272767923771
1746735751564509200,5.05750927734375,-0.007821487405896187,0.007974303347431122,-0.0065261138331145045
1746735751574475300,5.067475341796875,-0.03086041768789291,0.0018942162487655878,-0.003218578454013914
1746735751584441000,5.077441162109375,-0.008562076640129089,0.015594605625420808,0.01481624166406691
1746735751594407400,5.087407470703125,0.006252630653977393,-0.01716499674730003,0.002328881338983774
1746735751604374300,5.097374267578125,-0.03474924181997776,-0.0021586393386125564,0.003012023031245917
1746735751614340400,5.10734033203125,-0.04387245947420597,-0.0004419716138392687,-0.0041740708142519
1746735751624306200,5.11730615234375,0.006560089167952537,0.00847067202962935,0.008806443322636186
1746735751634272300,5.127272216796875,-0.011990882045030593,0.004683518173731863,0.009194218797516078
1746735751644238300,5.13723828125,-0.01977496004998684,0.006221577928587794,0.006658581106364726
1746735751654204400,5.147204345703125,-0.018428221616148946,0.005181567356362939,-0.0029208010838367043
1746735751664170200,5.157170166015625,-0.014687281522154807,-0.004981807000562549,0.01034499626783654
1746735751674136000,5.167135986328125,-0.009447627303004264,0.00008015256412327289,0.01091254875641316
1746735751684102400,5.177102294921875,-0.008097381737828254,0.0013557254578918218,-0.0037439175023697316
1746735751694068200,5.187068115234375,-0.02799801399409771,0.005067841316200792,-0.00999861224927008
1746735751704034300,5.197034423828125,-0.015576923838257789,0.009981368853524327,0.001688227081578225
1746735751714000100,5.207000244140625,-0.01587327643632889,-0.0032419410632923244,0.005892437305767089
1746735751723966500,5.216966552734375,-0.04056231201291084,0.0027062998166307805,0.005647650498151779
1746735751733932300,5.226932373046875,-0.02469429627358913,0.0027685513978824017,0.0022770050212740896
1746735751743898000,5.236898193359375,-0.015566986966133118,-0.008913228165358304,0.006387344683241099
1746735751753864200,5.2468642578125,-0.004645779979228973,0.00532017210945487,0.0057031252787448465
1746735751763830300,5.256830322265625,-0.028738018706440924,0.005619520382210612,0.002279580570850521
1746735751773796400,5.26679638671875,-0.032329321196675295,0.005164579688943923,0.0008001191354356706
1746735751783762200,5.27676220703125,-0.0113806411921978,-0.0007824556145817041,0.007296714613121003
1746735751793728300,5.286728271484375,-0.009584405425190925,-0.009751834413968026,0.008145805723126977
1746735751803694300,5.2966943359375,-0.027393033838272095,0.0013480536080896853,-0.00005848872158676386
1746735751813660400,5.306660400390625,-0.01886252138018608,0.001486146904528141,-0.013269706341810523
1746735751823626200,5.316626220703125,-0.015120996764302253,0.00897449336592108,0.005386405746079981
1746735751833592000,5.326592041015625,-0.013024316745996474,0.008792853188700973,0.01259317705342546
1746735751843558400,5.336558349609375,-0.027084990802407262,0.005573379685543477,-0.001531155090034008
1746735751853524200,5.346524169921875,-0.03366495371460915,-0.0001749547081068158,-0.011579543031472713
1746735751863490300,5.356490234375,0.008080430603027343,-0.009239099118858575,0.002633746037073433
1746735751873456000,5.3664560546875,-0.012270868030190467,-0.0002291325807571411,0.0035979148941114544
1746735751883422500,5.37642236328125,-0.04398936385214328,0.008534457980841398,0.004612772758770734
1746735751893388300,5.38638818359375,-0.023643325915932652,0.0009846271231770515,0.0026577479671686887
1746735751903354000,5.39635400390625,-0.024241876330971718,-0.014865633763745426,0.0009673106621950864
1746735751913320200,5.4063203125,-0.015705518653988837,0.008384856909699737,-0.0036037418466992673
1746735751923286300,5.416286376953125,-0.026030513313412666,0.025297413265891373,-0.007646368301007896
1746735751933252400,5.42625244140625,-0.03321604090332985,0.010651705863140523,0.0038362902272492646
1746735751943218200,5.43621826171875,-0.005834697502851486,-0.002336626254022121,0.01598720340589061
1746735751953184300,5.446184326171875,-0.0000011690437793731689,-0.0033418943064287302,0.012692290046345442
1746735751963150300,5.456150390625,-0.028734511575102803,0.005242796024307608,0.014006496183760464
1746735751973116200,5.4661162109375,-0.018109657186269758,-0.004482223447971046,-0.00995128424251452
1746735751983082200,5.476082275390625,-0.012722703450918197,0.003168547033518553,-0.004325754244625568
1746735751993049300,5.48604931640625,-0.011529109752178192,0.007127806053310632,-0.009150178726390004
1746735752003015200,5.49601513671875,-0.019012158983945846,0.003866356571950018,0.010579572208691388
1746735752012981200,5.505981201171875,-0.015560557225346563,0.011176898781023918,0.002349065610487014
1746735752022947300,5.515947265625,-0.031118191841244695,0.001680208171904087,0.01577641019942239
1746735752032913200,5.5259130859375,-0.023484335961937903,0.00478880517911166,0.008728701911307871
1746735752042879200,5.535879150390625,-0.033356326156854625,0.016563889048993585,0.004585428094118833
1746735752052845300,5.54584521484375,-0.012401800933480263,-0.000136266665533185,-0.000047985593881458044
1746735752062811400,5.555811279296875,-0.012394786670804023,-0.003541508531756699,0.00950538537222892
1746735752072777200,5.565777099609375,-0.015384616136550903,0.0016125862957909703,0.01183525309190154
1746735752082743000,5.575742919921875,-0.03977145389616489,0.012168576699495314,-0.012397362220380454
1746735752092709400,5.58570947265625,-0.025399229672551153,0.004111490439437329,-0.0017719963748939335
1746735752102675200,5.59567529296875,-0.022405308553576468,0.0034866365393623707,-0.003711056412383914
1746735752112641300,5.605641357421875,-0.007590016737580299,0.005163520243018865,0.009770794842764734
1746735752122607000,5.615607177734375,-0.026740707409381864,-0.0038602556247264146,0.006009414748940616
1746735752132573400,5.625573486328125,-0.022700492107868193,0.0048177390126511455,0.01095399501165375
1746735752142539300,5.635539306640625,0.005728899040818214,-0.0008227876249700785,0.005375719955284148
1746735752152505000,5.645505126953125,-0.01312953068614006,0.008370536123402416,0.0014852883880026638
1746735752162471200,5.65547119140625,-0.0433569111675024,0.0013689867982640861,0.002319510722439736
1746735752172437200,5.665437255859375,-0.014326046994328498,-0.008069178556650876,0.00199583172602579
1746735752182403300,5.6754033203125,-0.016419219881296156,0.0006182049635797738,0.011475059743691235
1746735752192369200,5.685369140625,-0.013420622587203978,-0.014429178575240075,0.007072440870571881
1746735752202335200,5.695335205078125,-0.014167057040333747,-0.0030775442818179724,-0.0068748359392397105
1746735752212301300,5.70530126953125,-0.010575170028209686,0.0036543943217024204,0.0017714849182404577
1746735752222267400,5.715267333984375,-0.017909166178107262,-0.0037966888692229986,-0.004525003143772482
1746735752232233200,5.725233154296875,-0.022849545189738273,0.0008662614405155182,0.009594725889805703
1746735752242199300,5.73519921875,-0.015818915900588034,0.016482932767271995,0.01242346477601677
1746735752252165400,5.745165283203125,-0.01581950042247772,0.008125584919005632,-0.0010982252991758286
1746735752262131200,5.755131103515625,-0.03018646394908428,-0.0018444222902879118,0.0033306422600522636
1746735752272097300,5.76509716796875,-0.019414310044050215,-0.004973550628870726,0.023261212996859102
1746735752282063400,5.7750634765625,-0.017319383591413495,0.009085041068308056,0.007438972628023475
1746735752292030200,5.7850302734375,-0.009688450321555138,-0.0006389189580455422,0.013278711632173508
1746735752301996000,5.79499609375,-0.03318038506805897,0.002643938637524843,0.0003807794785127044
1746735752311962000,5.804962158203125,-0.02584814248383045,0.00774286921173334,0.011138868325576185
1746735752321928000,5.814927978515625,-0.01956219408214092,0.0007132263032719493,0.0035834479773417115
1746735752331894300,5.824894287109375,-0.02255728424489498,-0.008376162146590649,0.004334266344644129
1746735752341860000,5.834860107421875,0.0009340659797191619,0.006303009134344756,0.005723072088230401
1746735752351826200,5.844826171875,-0.033336452412605286,-0.005329743655398488,0.009976217754371464
1746735752361792000,5.8547919921875,-0.02750117038786411,0.006793203804083168,-0.010776227291952817
1746735752371758300,5.86475830078125,-0.025700258445739744,0.014039119811728595,0.01253450566874817
1746735752381724200,5.87472412109375,-0.007744330516457557,0.008088906170427798,-0.001891037910990417
1746735752391691300,5.884691162109375,-0.01268120239675045,0.004183057838305831,-0.012697733406443147
1746735752401657000,5.894656982421875,-0.03318213863372803,0.008991882892139256,-0.005529558810126036
1746735752411623000,5.904622802734375,-0.024798341169953345,0.017141140947677193,0.0031625374178402125
1746735752421589200,5.91458935546875,-0.015962123763561247,-0.003185425103083253,0.0016582520684227347
1746735752431555000,5.92455517578125,-0.017304770544171334,0.00572988542150706,0.010460037482250481
1746735752441521200,5.934521240234375,-0.022090835776925086,0.011371909896470606,0.0053693084808066486
1746735752451487000,5.944487060546875,-0.009967851784825324,-0.004056983773224055,0.010095935143902897
1746735752461453300,5.954453369140625,-0.021789807003736495,-0.006731609809957444,-0.004145794567838311
1746735752471419100,5.964419189453125,-0.019250059393048285,0.017874314060434698,-0.005186243531480431
1746735752481385000,5.974385009765625,-0.02628302676975727,0.0011504852093756198,0.00038012189138680695
1746735752491351000,5.98435107421875,-0.017751345267891884,0.003656915072351694,0.01700757769588381
1746735752501317000,5.994317138671875,-0.028072832795977592,0.013885244424268603,0.003173917328380048
1746735752511283200,6.004283203125,-0.004729951131343842,0.01029861810915172,0.012484675177652388
1746735752521249000,6.0142490234375,-0.03151215959489345,0.00784216486774385,-0.004113810260687023
1746735752531215000,6.024215087890625,-0.03300502850115299,0.00019621669184416532,-0.014265585511364042
1746735752541181200,6.03418115234375,-0.012353285616636275,-0.0005765577789396048,-0.0030480259263888
1746735752551147300,6.044147216796875,-0.022522212931513786,0.00783299518059939,0.010888053635973482
1746735752561113000,6.054113037109375,-0.04212356998026371,0.001211677344702184,0.004790558744780719
1746735752571079000,6.064078857421875,-0.005467033234238625,-0.0009627075523138045,0.010972864108905196
1746735752581045200,6.074045166015625,-0.013994038560986518,0.004531579015031457,0.018002707946766165
1746735752591011000,6.084010986328125,-0.03449555931985378,-0.0026161738477647302,0.011531027714628725
1746735752600977200,6.09397705078125,-0.0279155964076519,-0.005396269552968442,-0.00235916687939316
1746735752610943000,6.10394287109375,-0.021031682112812995,0.012872633315622805,-0.01396393568366766
1746735752620909300,6.113909423828125,0.00021159692406654356,0.0026483956169337033,-0.009198767108470202
1746735752630875100,6.123875244140625,-0.034953239959478376,0.005798530210927129,0.0015460421319119632
1746735752640841000,6.133841064453125,-0.004876081603765487,-0.001059153664112091,-0.00330037498595193
1746735752650807000,6.14380712890625,-0.01475508606135845,-0.001873283058591187,0.008415617374144493
1746735752660773000,6.153773193359375,-0.0029302082329988478,0.016236410660296678,-0.004338193601090461
1746735752670739200,6.1637392578125,-0.029867314997315406,0.009731778006628155,0.013200056905392556
1746735752680705000,6.173705078125,-0.0358498965382576,0.006984196331538259,0.012442790530994534
1746735752690671000,6.183671142578125,-0.01639642352759838,-0.00904105579610914,-0.005502889998909086
1746735752700637200,6.19363720703125,-0.011904957327246665,-0.0065417863262817256,0.0021371581591665746
1746735752710603000,6.20360302734375,-0.024625322690606116,0.011735263316147028,-0.011461232147738337
1746735752720569000,6.213569091796875,-0.0077209496408700935,0.03307319836653769,0.007221658349223435
1746735752730535000,6.223534912109375,0.016812603113055227,0.0014690861718729138,0.01770374326650053
1746735752740501200,6.233501220703125,0.02652794144153595,0.001975574389286339,0.014081643779203295
1746735752750467000,6.243467041015625,-0.011790391036868094,0.016397811767086386,0.0031052908052690326
1746735752760433200,6.25343310546875,-0.036490532529354094,0.009995214715786278,-0.012907686362694949
1746735752770399000,6.26339892578125,-0.056254386663436885,-0.018530805207788943,-0.0222033379743807
1746735752780365000,6.273364990234375,-0.02573182262778282,-0.03639755701627582,-0.00027322745081037283
1746735752790331100,6.2833310546875,-0.018705869513750074,-0.002444141749106347,-0.002420377281028777
1746735752800297000,6.293296875,-0.03801204300820827,-0.015712240655720234,0.010891049310658126
1746735752810263000,6.303262939453125,-0.021252046865224836,-0.0036049291567876933,0.00043124929042533035
1746735752820230000,6.31322998046875,0.0017886369824409484,0.0075440221713855855,0.006992452703230082
1746735752830195200,6.3231953125,-0.024700141492486,-0.007218553076684475,0.010858882340416312
1746735752840162000,6.333162109375,-0.02679799055457115,-0.009245382729172706,-0.0025084574232809246
1746735752850128100,6.343128173828125,-0.018120763102173806,-0.0020219342816621064,-0.0019182729777880011
1746735752860094000,6.353093994140625,-0.01528407837152481,-0.007147022210434078,-0.012399499378539621
1746735752870060300,6.363060302734375,-0.025908932760357856,0.007806691695563495,0.0021576894905418155
1746735752880026000,6.373026123046875,-0.008251110994815826,-0.009093480103090405,0.004363145379256457
1746735752889992000,6.382991943359375,-0.023960136780142784,-0.006440262180566788,0.01149345391690731
1746735752899958000,6.3929580078125,-0.012137597039341926,0.004033785560727119,-0.0009668174718506634
1746735752909924000,6.402924072265625,-0.03548164774775505,-0.007017367948777973,-0.014759159448277204
1746735752919890200,6.41289013671875,-0.021714988201856612,-0.01405413471776992,0.011570208947546779
1746735752929856000,6.42285595703125,-0.025906010150909424,-0.008636383985355496,-0.005051803496852517
1746735752939822000,6.432822021484375,-0.013632804033160209,-0.0035975495679304,-0.002087126738671213
1746735752949788200,6.4427880859375,-0.03607493746578693,0.02103993848450482,0.012268493410013615
1746735752959754000,6.45275390625,-0.0374228449434042,-0.007830401364713907,0.01439558683289215
1746735752969720000,6.462719970703125,-0.012734393888711929,-0.006621902357786894,0.0009740326639264822
1746735752979686100,6.47268603515625,-0.009588497078418731,-0.001291829908825457,-0.004578870489168912
1746735752989652200,6.48265234375,-0.03053600803911686,0.00766070735361427,0.008429718964733183
1746735752999618000,6.4926181640625,-0.025741759499907493,-0.008432641574181617,-0.008537599785998462
1746735753009584000,6.502584228515625,-0.0070376435518264766,-0.014998941287212074,-0.005578877844568342
1746735753019550200,6.51255029296875,-0.0007575403690338134,-0.018672113374620675,0.01168660186883062
1746735753029516300,6.522516357421875,-0.043105566754937166,0.008398775837197898,-0.0045615722944959995
1746735753039482000,6.532482177734375,-0.01721416965126991,-0.0018457374645397067,0.019066135927196592
1746735753049448000,6.542447998046875,-0.018112579795718193,-0.007367021636664867,-0.00054661929840222
1746735753059414300,6.552414306640625,-0.015720716223120688,-0.0034753114277496933,0.00016341040078550576
1746735753069380000,6.562380126953125,-0.022453823870420456,0.0004123801931738853,-0.012258793999906628
1746735753079346200,6.57234619140625,-0.021551322072744367,0.00735091075208038,0.005424728462472558
1746735753089312000,6.58231201171875,-0.0076291797041893004,-0.01308788350149989,0.018256646175216884
1746735753099278300,6.5922783203125,-0.02543547002971172,-0.00024096914902329444,0.011245032113790512
1746735753109244200,6.602244140625,-0.02393500233888626,0.01612765305619687,-0.008443455229140818
1746735753119210000,6.6122099609375,-0.010908347505331038,0.011652334273047744,-0.01698328350484371
1746735753129176000,6.622176025390625,-0.015544775134325027,-0.007383388249576091,-0.00624693156555295
1746735753139142100,6.63214208984375,-0.019581483304500578,0.003341930839046836,0.0015151538033038377
1746735753149108200,6.642108154296875,-0.020028058028221128,0.00013403817582875488,0.005456694503314792
1746735753159074000,6.652073974609375,-0.02586509361863136,0.007033515365980565,0.008185425347462296
1746735753169040100,6.6620400390625,-0.03140519208908081,0.0023095555840060115,-0.004846015259064734
1746735753179006200,6.672006103515625,-0.01883154172003269,-0.008666486862674355,0.01110319422399625
1746735753188972000,6.681971923828125,-0.03558335455656052,0.0007926116824150085,0.009562357990164309
1746735753198938000,6.691938232421875,-0.022857143974304196,-0.007257752575911581,-0.0016783632746897638
1746735753208904000,6.701904052734375,-0.003249357184767723,-0.014092238238453864,0.022446864406671374
1746735753218870300,6.711870361328125,-0.0021925416082143783,0.0038492593066766856,0.004023154568858445
1746735753228836000,6.721836181640625,-0.044237201133370395,0.008263605150207876,-0.012092515788599848
1746735753238802200,6.73180224609375,-0.024628829821944236,-0.01939524001739919,-0.00035162644926458594
1746735753248768000,6.74176806640625,-0.010852817925810812,-0.01790248070899397,0.012051507924776524
1746735753258734000,6.751734130859375,-0.027155133429169653,-0.011769202118366956,-0.0031941381325013935
1746735753268701200,6.761701171875,-0.021312252619862554,-0.019992986714839935,-0.010915690561570227
1746735753278667300,6.771667236328125,0.0015934066712856292,0.025749066023528576,-0.008358060234319419
1746735753288632600,6.781632568359375,0.037355040404200554,0.07366272717993706,-0.00761074899835512
1746735753298598400,6.791598388671875,0.03914718451797962,0.04682579285446554,0.005289923101663589
1746735753308564700,6.801564697265625,-0.07308452543318271,-0.03746898564007133,0.01640086224069819
1746735753318530600,6.811530517578125,-0.06963350819647311,-0.07201232962440698,0.019596790471486745
1746735753328496600,6.82149658203125,-0.02892740379869938,-0.038143450835533436,-0.01283147932132706
1746735753338462500,6.83146240234375,0.02165244435966015,0.04890281832423061,-0.008945851793326437
1746735753348428800,6.8414287109375,-0.020097031611204148,0.06224069453142583,0.004033127973601221
1746735753358394600,6.85139453125,-0.02578676768541336,0.002463905895501375,0.02196225922750309
1746735753368360700,6.861360595703125,-0.017250994530320165,-0.04104183915816247,-0.0013853534111753106
1746735753378326500,6.871326416015625,-0.04358253661692142,-0.020170206445269286,-0.013092340480908751
1746735753388292600,6.881292724609375,-0.02861877624094486,0.033716355108283455,-0.0032701807770878074
1746735753398258700,6.8912587890625,0.006094809743762016,0.04425513864886015,-0.020693408335465936
1746735753408224500,6.901224609375,-0.020541852769255638,-0.009455079957097769,0.006135233085695654
1746735753418190600,6.911190673828125,-0.02128945626616478,-0.020268442655354737,0.025215214875154195
1746735753428156700,6.92115673828125,-0.03220890968739986,-0.002409947218559682,0.023801566951256244
1746735753438122800,6.931122802734375,-0.02172901672720909,0.0024517770662903786,0.014039046746492385
1746735753448088600,6.941088623046875,-0.02442600072622299,-0.010052643991447984,0.002201619963813573
1746735753458054700,6.9510546875,-0.01260579907298088,0.0019414163913577794,-0.02415965967392549
1746735753468020700,6.961020751953125,-0.017094927185773847,0.006584675619937479,-0.02356700927671045
1746735753477986600,6.970986572265625,-0.019335984110832212,0.00848802502322942,-0.007467011412419378
1746735753487952600,6.98095263671875,-0.02172726316154003,-0.01770790798496455,0.015322163625899702
1746735753497918700,6.990918701171875,-0.035495676273107526,-0.02439527679439634,0.0269232243694365
1746735753507884800,7.000884765625,-0.04716740936636925,-0.015417458960227667,-0.005367920241318643
1746735753517850600,7.0108505859375,-0.023667291313409805,0.01468845056593418,-0.02648149021761492
1746735753527816400,7.02081640625,0.008054711639881133,0.024279468395002186,-0.03305314195919782
1746735753537782800,7.03078271484375,-0.01588964304924011,0.005905863042920827,-0.0036978498709388076
1746735753547748600,7.04074853515625,-0.043272740015387536,-0.00980466057974845,0.023501506292447447
1746735753557714700,7.050714599609375,-0.016037527087330816,-0.02014689863491803,0.043079628596082324
1746735753567680500,7.060680419921875,-0.010042086064815521,-0.004566942589357495,0.009170728324074298
1746735753577646800,7.070646728515625,-0.009440613040328026,0.03026449762135744,-0.020809125403314827
1746735753587612700,7.08061279296875,-0.010785597908496857,0.01961282829083502,-0.019624884054809808
1746735753597578800,7.090578857421875,-0.02664893747270107,0.011874854449927806,-0.013369549987092614
1746735753607544600,7.100544677734375,-0.011980945172905922,-0.017488821874186395,0.00166760441865772
1746735753617510700,7.1105107421875,-0.02410042203366756,-0.03545505200177431,-0.011406743747834116
1746735753627476700,7.120476806640625,-0.048342298364639276,-0.0010293065151199697,-0.011239533954765646
1746735753637442600,7.130442626953125,-0.017813304588198662,0.023642924057133495,-0.003559372982010245
1746735753647408600,7.14040869140625,0.007023030504584312,0.035824908227473494,0.007354929340071975
1746735753657374700,7.150374755859375,-0.03098550537228584,0.012032894555851817,0.02189264632370323
1746735753667340800,7.1603408203125,-0.010178864187002182,-0.026253435349091886,0.025360596428904682
1746735753677306600,7.170306640625,-0.04280161537230014,-0.0461315269799903,0.005919526242092251
1746735753687272400,7.1802724609375,-0.046235096952319144,-0.028782442370057105,-0.01376512517593801
1746735753697238800,7.19023876953125,0.02185410441160202,0.03534388324487954,-0.012583751637954265
1746735753707204600,7.20020458984375,-0.015255436798930168,0.05107902985215187,0.004672247861046344
1746735753717170700,7.210170654296875,-0.041293548896908755,0.0011297712149098515,-0.0019329225576482712
1746735753727136500,7.220136474609375,-0.008217208725214004,-0.04597253702599555,-0.0037213220780715345
1746735753737102800,7.230102783203125,-0.032302433189749714,-0.037692273001931606,0.0019104367312043904
1746735753747068700,7.240068603515625,-0.043963644888997074,0.004215937194600701,0.01106132784364745
1746735753757034500,7.250034423828125,-0.010592705684900283,0.03175707426667213,-0.009419880779553204
1746735753767001600,7.260001708984375,-0.00476443792283535,-0.008343392388150095,-0.015006978463195264
1746735753776967700,7.2699677734375,-0.028099136281013487,-0.009235774650610982,0.013710728107579052
1746735753786933800,7.279933837890625,-0.041699791610240934,-0.026603271700069306,0.021230894479341803
1746735753796899600,7.289899658203125,-0.019843933632969855,-0.014050079597160219,0.008115903775207697
1746735753806865700,7.29986572265625,-0.001281271982192993,0.01003762908540666,-0.007381525086052715
1746735753816831500,7.30983154296875,-0.0379325480312109,0.014770612424053252,-0.0034213344844989477
1746735753826797800,7.3197978515625,-0.04390694626569747,0.024563655631244182,-0.007800335020013153
1746735753836763600,7.329763671875,-0.022943653213977813,-0.012390475821867584,-0.003774294374324381
1746735753846729700,7.339729736328125,-0.010813654959201812,-0.026505546946637332,0.013547829163447022
1746735753856695600,7.349695556640625,-0.05045768308341503,0.0012700199358165263,0.021280871100910006
1746735753866661600,7.35966162109375,-0.02874035679399967,-0.0028616730414330956,-0.0022602182832546533
1746735753876627700,7.369627685546875,-0.023037176716327667,0.009228431594371795,-0.02161034051729366
1746735753886593500,7.379593505859375,0.04087210861444473,0.006846943285316228,-0.015805672826524824
1746735753896559600,7.3895595703125,0.03983282869458198,0.008649608793109656,-0.003091718937642872
1746735753906525700,7.399525634765625,-0.040816579034924506,-0.001942439304664731,0.019131785041932015
1746735753916491800,7.40949169921875,-0.04694236843883991,-0.020061594971641897,0.02751284255934879
1746735753926457600,7.41945751953125,-0.031522096467018125,-0.00420472168084234,0.017674005715362727
1746735753936423400,7.42942333984375,-0.02567863113582134,0.014061952698044477,-0.01418497628951445
1746735753946389800,7.4393896484375,-0.033899931514263154,-0.01989931708201766,-0.02349038211023435
1746735753956355600,7.44935546875,-0.017733225089311598,-0.019561134636215866,0.0031828130208887157
1746735753966321700,7.45932177734375,0.008755553385615348,-0.008715915494970977,-0.000360376011300832
1746735753976287500,7.46928759765625,-0.01383271051943302,-0.0001726896857842803,0.008507697838079184
1746735753986253800,7.47925390625,-0.027591771280765533,-0.0017590820943936705,0.005553195414040237
1746735753996219600,7.4892197265625,0.004886602997779846,-0.011907551143132149,0.012884963074233383
1746735754006185500,7.499185546875,-0.00798515353500843,0.005042268483527005,-0.0040108065439388154
1746735754016151600,7.509151611328125,-0.0209966107994318,0.005825125956907868,-0.02182750866562128
1746735754026117600,7.51911767578125,-0.03251578367948532,-0.016371362151578066,0.0019593721731565894
1746735754036083700,7.529083740234375,-0.029519524472951888,-0.013627835597097872,-0.003330934520997107
1746735754046049500,7.539049560546875,-0.017243980267643927,-0.03375507968347519,0.005733648281171917
1746735754056015600,7.549015625,-0.023229484418034553,0.0178790633007884,0.009774338506720959
1746735754065981700,7.558981689453125,-0.030859833166003225,0.015601327627152203,0.011006601981725542
1746735754075947800,7.56894775390625,-0.022929040166735647,-0.014330321310646831,-0.001102864941675216
1746735754085913600,7.57891357421875,-0.020379355683922767,-0.023564634656533596,-0.01859965092660859
1746735754095879700,7.588879638671875,-0.05449614481925964,-0.006536854422837496,-0.02124092268301174
1746735754105845800,7.598845703125,-0.025316227564215657,0.015750928698293865,-0.00448677175892517
1746735754115811600,7.6088115234375,-0.006910217779874802,0.01888440441843122,0.010018887852318584
1746735754125777700,7.618777587890625,0.0031160861939191816,-0.011366758797317742,0.006600932634994387
1746735754135743700,7.62874365234375,-0.015135609811544418,-0.00272047447245568,-0.01144707575822249
1746735754145709800,7.638709716796875,-0.04461012609899044,0.008764467344433069,0.000253846896905452
1746735754155675600,7.648675537109375,-0.0013625205248594284,-0.005635740864649415,-0.0011161080157384275
1746735754165641500,7.658641357421875,0.010460603737831115,0.0019565774278715252,-0.011556600547302514
1746735754175607800,7.66860791015625,-0.0417623354524374,-0.0034140096945688126,-0.007732293018791824
1746735754185573600,7.67857373046875,-0.030083003574609756,0.007258738956600427,0.00353517012251541
1746735754195539700,7.688539794921875,-0.005841127243638038,0.0051844899658113714,0.011975118220318107
1746735754205505500,7.698505615234375,-0.02319032145142555,-0.01693272236138582,-0.012836155496444552
1746735754215471900,7.708471923828125,-0.037701661884784694,-0.010998181213252245,0.010027856610063463
1746735754225437700,7.718437744140625,-0.019445289704203606,0.005407119740545749,-0.004667242892365903
1746735754235403500,7.728403564453125,-0.005681552767753601,0.0037839389855042096,-0.008166446652356534
1746735754245369600,7.73836962890625,-0.014807693031430244,0.005700294000841677,0.0000751110628247261
1746735754255336700,7.748336669921875,-0.03261106074750423,-0.0006446180464699864,-0.012357413802482188
1746735754265302800,7.758302734375,-0.012409984239935874,0.0014576879950240255,0.019935794901195913
1746735754275268600,7.7682685546875,-0.011513327661156654,-0.0027090397629886864,0.009145831344835459
1746735754285234700,7.778234619140625,-0.015248422536253928,-0.007416194540634751,-0.0018520028085447847
1746735754295200500,7.788200439453125,-0.01838555151820183,0.006864661605097353,-0.011895659775938839
1746735754305166600,7.79816650390625,-0.008359832066297531,-0.006593224252574146,0.012310140594653785
1746735754315132700,7.808132568359375,-0.008504208973050117,-0.010545213281363248,0.004726535331550985
1746735754325098500,7.818098388671875,-0.012692308312654494,-0.006973748002760112,-0.003098751466628164
1746735754335064300,7.828064208984375,-0.019120295533537862,0.006088745329156518,-0.0023587284879758954
1746735754345030700,7.83803076171875,-0.025254852765798568,-0.014719393693469463,-0.0007323693951591849
1746735754354996500,7.84799658203125,-0.023908698853850364,-0.003768595285899937,-0.00839331421079114
1746735754364962600,7.857962646484375,-0.03228957370817661,-0.013930179544538259,-0.006429978248570114
1746735754374928400,7.867928466796875,-0.037678281009197234,0.004331051474250853,0.004868994275853037
1746735754384894700,7.877894775390625,-0.034680852758884426,0.0020093305284157393,0.018013485069107264
1746735754394860500,7.887860595703125,-0.02464519643485546,-0.014325352874584495,-0.005337452037818729
1746735754404826600,7.89782666015625,-0.02194821243584156,-0.006161006847769022,0.01217988354479894
1746735754414792400,7.90779248046875,-0.0545633648365736,0.009454714630916714,0.002423172026313841
1746735754424758500,7.917758544921875,-0.027621581897139546,-0.010848653207346796,0.0016132986818440257
1746735754434724600,7.927724609375,0.0053033671051263805,-0.0025689737051725384,-0.015843356222100556
1746735754444690400,7.9376904296875,-0.00457271474301815,0.021075155928358433,0.005392963351029903
1746735754454656500,7.947656494140625,-0.038085108244419096,0.010662775246426462,0.010261500969156623
1746735754464622600,7.95762255859375,-0.035389877811074257,-0.006731609809957444,-0.002149597515631467
1746735754474588700,7.967588623046875,-0.01997486653625965,-0.01830145343132317,-0.003917995427642018
1746735754484554500,7.977554443359375,-0.00725099404156208,-0.0062962505999952555,-0.011914528873190283
1746735754494520300,7.987520263671875,-0.008743862947821616,0.006047792264260351,-0.006624130847491323
1746735754504486700,7.997486572265625,-0.02101882263123989,0.007313720546849071,0.0018020627195946871
1746735754514452500,8.007452392578125,-0.02550269004702568,-0.00804853762742132,0.01737957107974216
1746735754524418600,8.01741845703125,-0.03148351802229881,-0.018443199989572168,0.016880992174148558
1746735754534384400,8.02738427734375,-0.041356092739105225,0.00006005962416529655,-0.006791943428758531
1746735754544350700,8.037350830078125,-0.019054244560003278,-0.0015586641514673829,-0.007644322474393993
1746735754554316500,8.047316650390625,-0.00991699838042259,-0.007889620738662778,0.002768971522990614
1746735754564282400,8.057282470703125,-0.03401157519519329,0.013661007214337587,-0.0008235000110231339
1746735754574248400,8.06724853515625,-0.012453823381662368,0.004068199286982417,0.01846340252738446
1746735754584214500,8.077214599609375,-0.014542320093512534,0.0012679010439664124,-0.0002639846984297037
1746735754594180600,8.0871806640625,-0.02246843691766262,-0.0010621858714148402,0.005118201530259102
1746735754604146400,8.097146484375,-0.007947744134068489,-0.009828406781516969,-0.0015061485129408538
1746735754614112500,8.107112548828125,-0.04011456824541092,-0.01769490237291902,-0.023830774779431522
1746735754624078600,8.11707861328125,-0.028586043015122412,-0.004777881926298141,0.0014090630803257225
1746735754634044400,8.12704443359375,0.007628010660409927,-0.008094057269580662,0.004675882856547832
1746735754644010500,8.137010498046875,-0.009279869520664214,0.0035640126245096325,0.010200692426320164
1746735754653976300,8.146976318359375,-0.04175122953653335,-0.004672339192591607,0.010977467218786478
1746735754663942700,8.156942626953125,-0.01720773991048336,-0.0038631782341748476,-0.0020979769262485207
1746735754673908500,8.166908447265625,0.0003039513826370239,0.00430376160852611,0.001913560270052403
1746735754683874600,8.17687451171875,-0.005229132825136184,0.007249277008511126,-0.010841072689089924
1746735754693840400,8.18684033203125,-0.03081833211183548,0.009206365893036127,0.0000925371216610074
1746735754703806700,8.196806640625,0.016916063487529755,0.005316920706443488,-0.005592595842666924
1746735754713772500,8.2067724609375,-0.008523498195409774,-0.017403408613055945,0.009961531641893088
1746735754723738400,8.21673828125,-0.020794950747489927,-0.01124448412451893,0.0033834684258326887
1746735754733704400,8.226704345703125,-0.007479542100429534,-0.005969466331042349,0.011915058596152812
1746735754743670500,8.23667041015625,-0.012117138773202895,-0.019009930494241416,-0.014288491462916135
1746735754753636600,8.24663671875,-0.026181319960951802,-0.019000943470187485,-0.001520597163401544
1746735754763603500,8.256603515625,-0.040996027255058284,-0.016429923938401043,-0.007415372556727379
1746735754773569500,8.266569580078125,-0.02467909870445728,0.007401691091246903,0.0000729008394293487
1746735754783535400,8.276535400390625,-0.0011807342171669005,0.008073562470823525,0.010342603381350636
1746735754793501700,8.286501708984375,-0.015394553008675574,-0.008877572330087423,-0.004298208650574088
1746735754803467500,8.296467529296875,-0.021527356675267218,-0.007721497630141675,-0.008342753067333251
1746735754813433300,8.306433349609375,-0.03409749991297722,-0.0033639234751462934,-0.012855188990477473
1746735754823399400,8.3163994140625,-0.002527472651004791,-0.0022583368534222245,-0.012700674282200633
1746735754833365500,8.326365478515624,-0.008961889612674712,-0.00808196497298777,-0.006448609883803874
1746735754843331600,8.33633154296875,-0.03395136944055557,-0.0031498058004304766,0.015735365802980957
1746735754853297400,8.34629736328125,-0.025876784056425094,0.0033722894446924327,0.005012877992261201
1746735754863263500,8.356263427734374,-0.011661211699247359,0.008635032278485597,-0.0023997546181082725
1746735754873229600,8.3662294921875,-0.025277064597606657,0.00276442321203649,0.0025742526684887704
1746735754883195600,8.376195556640624,-0.02078793648481369,-0.004283266809768975,-0.012805468097236006
1746735754893161500,8.386161376953124,-0.032897476473450656,0.007665310463495552,-0.011364438976068049
1746735754903127600,8.39612744140625,-0.02855740144252777,-0.017941461012512445,0.011524524908605963
1746735754913093600,8.40609375,-0.01853402007818222,-0.011164733419194817,0.008841587701253593
1746735754923059500,8.4160595703125,-0.017184943556785584,0.007795731910131871,0.020669698666315524
1746735754933025500,8.426025634765624,-0.032143443235754965,0.00113408206384629,0.011968999006785452
1746735754942991600,8.43599169921875,-0.0014671499431133269,-0.005785926457680762,-0.009528839313052593
1746735754952957700,8.445957763671874,-0.017924363747239113,-0.01344162884261459,-0.013623963139578699
1746735754962923500,8.455923583984376,-0.021812018835544584,-0.005115297187119722,-0.009150142193771898
1746735754972889300,8.465889404296876,-0.018367431339621543,-0.0035172143407166,0.002374309649597853
1746735754982855700,8.475855712890626,-0.01956044051647186,-0.010139408959448338,0.006763557584490627
1746735754992821500,8.485821533203126,0.0025859248399734496,-0.017172339803539216,0.005716532749589533
1746735755002787600,8.49578759765625,-0.029435937842726707,0.007968385063298045,0.005825016359053552
1746735755012753400,8.50575341796875,-0.01626841323375702,0.017396102089434862,-0.006272011207882315
1746735755022719700,8.5157197265625,-0.015817162334918974,-0.015988682976923883,-0.016212554860673845
1746735755032685600,8.525685546875,-0.018661445850133896,-0.0027851372065022585,-0.013562771004252135
1746735755042651400,8.5356513671875,-0.010722469544410704,-0.007708199757151305,0.009898202348407357
1746735755052617500,8.545617431640625,-0.029423078361153602,-0.008835267558321357,0.011997311785817146
1746735755062583600,8.55558349609375,-0.009223755419254303,0.003007511252909899,0.010979348648618907
1746735755072549600,8.565549560546875,-0.005634206494688988,-0.0040143136752769345,0.005644600024539977
1746735755082515500,8.575515380859375,-0.051131052300333976,-0.004501110811531543,-0.010622004844620824
1746735755092481500,8.5854814453125,-0.001748304972052574,-0.014563801272958516,-0.01241427682256326
1746735755102447600,8.595447509765625,-0.00893149447441101,0.007893420130945742,-0.00989754476128146
1746735755112413400,8.605413330078125,-0.029880759000778197,-0.009925035556405781,-0.0005859101291745901
1746735755122379500,8.615379638671875,-0.023442834907770157,-0.0011561842978000641,0.011230674794875085
1746735755132345300,8.625345458984375,-0.015065467184782027,-0.008289251048117875,0.002998359832074493
1746735755142311700,8.635311767578125,-0.009679097971320152,-0.01532357013169676,0.0170922420383431
1746735755152277500,8.645277587890625,-0.034820553490519525,0.004009637500159442,-0.015216255566012114
1746735755162243600,8.65524365234375,-0.02449438978731632,-0.004243921180069447,-0.022363752700481562
1746735755172209400,8.66520947265625,-0.019850363373756407,-0.01079089513812214,-0.0019658201802521943
1746735755182175700,8.67517578125,-0.014760931280255317,0.00324157573711127,0.015107607559766619
1746735755192141600,8.6851416015625,-0.0077186115533113475,-0.005919562774710357,0.008716518283169716
1746735755202107400,8.695107421875,-0.06263619665503502,-0.0006669760087504983,-0.005972297608945519
1746735755212073500,8.705073486328125,-0.029713001218438145,-0.005378149374388158,-0.0071195862142369145
1746735755222039600,8.71503955078125,-0.008014964151382446,-0.015251345145702361,-0.0058000280482694505
1746735755232005600,8.725005615234375,-0.03150689889788628,-0.005247289536334574,-0.003852346312906593
1746735755241971500,8.734971435546875,-0.03434767528176307,-0.006511427720636129,-0.006312142288871109
1746735755251937500,8.7449375,-0.026571196061372756,-0.006594904753006994,-0.010028404599335045
1746735755261903600,8.754903564453125,-0.004575637352466583,0.0018260098507627844,0.019241620358265935
1746735755271869400,8.764869384765625,-0.011008300748467445,-0.019717713437415657,-0.0008916333437897265
1746735755281836500,8.77483642578125,-0.032710429468750954,0.005642061007581651,0.00016947481539100406
1746735755291802600,8.784802734375,-0.013554478099942207,0.0038138226671144363,0.0010562493209727109
1746735755301768700,8.794768798828125,-0.021634324181079863,-0.005909260576404631,-0.006026073622796684
1746735755311734800,8.80473486328125,-0.007117138528823852,-0.008177863095514475,-0.004581519103981554
1746735755321700900,8.814700927734375,-0.04677461065649986,-0.011237068003043532,-0.0007380319509655237
1746735755331666700,8.824666748046875,-0.03404956911802292,-0.003243658096343279,0.005926339575368911
1746735755341632800,8.8346328125,-0.006066168171167373,0.003047076078318059,0.0052727527711540455
1746735755351598800,8.844598876953125,-0.034951486393809315,0.010926211955584585,0.00119510980239138
1746735755361564700,8.854564697265625,-0.043781274059414864,0.007356061851233243,0.0025464513461105525
1746735755371530800,8.86453076171875,-0.005624854144454002,0.004841740942746401,-0.01782134176418185
1746735755381496600,8.87449658203125,-0.011605682119727134,-0.003931676893122494,-0.005832450746838003
1746735755391463000,8.884462890625,-0.034199206721782685,-0.004542867594026029,0.02074965030103922
1746735755401428700,8.8944287109375,-0.02028466313779354,-0.005389730214327574,-0.002344608631078154
1746735755411394800,8.904394775390625,-0.004721767824888229,0.00042728550136089324,-0.009652502225339412
1746735755421360600,8.914360595703124,-0.04123334314227104,-0.013481266733258963,0.0038046347136609254
1746735755431326700,8.92432666015625,-0.03240413999855518,-0.006606229864619672,-0.0051888373473659155
1746735755441292800,8.934292724609374,-0.02582242352068424,-0.010910831723362206,-0.014442421649303287
1746735755451258600,8.944258544921874,-0.027018939828872678,-0.008076704275980591,-0.007716182134207337
1746735755461224700,8.954224609375,0.0015653496205806732,0.007100370057113468,-0.010796247166674584
1746735755471190800,8.964190673828124,-0.0035199908196926113,-0.009711794664524495,-0.0004198145809583366
1746735755481156900,8.974156982421874,-0.04212941519916057,0.0049801265001296995,0.003834828922525048
1746735755491122700,8.984122802734374,-0.02132861923277378,-0.011980543314106761,-0.0017786818440072238
1746735755501088500,8.994088623046874,0.005754033482074737,0.001206781973876059,0.00306821019789204
1746735755511054800,9.004054931640624,-0.009963760131597518,0.00427669093851,0.008087481398321687
1746735755521020700,9.014020751953124,-0.027167408388853072,0.007773227817378938,0.011104838191810995
1746735755530986800,9.02398681640625,-0.02058569191098213,0.0009186857474967837,0.020570001151505857
1746735755540952600,9.03395263671875,-0.011899696630239485,-0.0069740767963230605,0.012284074571635573
1746735755550919000,9.0439189453125,-0.028657354685664174,-0.011027626503445208,-0.003921867885161191
1746735755560884700,9.053884765625,-0.02312251691222191,-0.009786102009750903,-0.003202869428228587
1746735755570850800,9.063850830078126,-0.013543372184038161,-0.0011302461389452218,-0.003866685365512967
1746735755580816600,9.073816650390626,-0.023267478340864182,-0.0025355098269879816,-0.002602474115975201
1746735755590782700,9.08378271484375,-0.025658757391571998,-0.006038659109733999,0.0016012794504873453
1746735755600748800,9.093748779296876,-0.011593407160043716,0.0016214637219905852,0.008894724394287913
1746735755610714600,9.103714599609376,-0.02521159814596176,-0.00944996539056301,0.011639255595766007
1746735755620680700,9.1136806640625,-0.022367899152636525,-0.00451546813044697,0.011605335059855133
1746735755630646800,9.123646728515626,-0.011146247914433478,-0.007064531558752059,0.01873228259664029
1746735755640612900,9.13361279296875,-0.033743864169716836,0.006863127235136926,0.00384922277405858
1746735755650578700,9.14357861328125,-0.007258008304238319,-0.008840162929147482,-0.005149747445993125
1746735755660544500,9.15354443359375,-0.014292729246616363,-0.0012999766826629637,0.007337941672652959
1746735755670510800,9.1635107421875,-0.009055413115024566,-0.00010989011526107787,0.00016527356430888176
1746735755680476700,9.1734765625,-0.038980595779418946,-0.008830847111530602,0.009896814108919351
1746735755690442800,9.18344287109375,-0.012644962039589881,-0.0015001388972625135,-0.004736179942730814
1746735755700408600,9.19340869140625,0.0024719430714845655,0.0033848201327025887,-0.006256649241968989
1746735755710375000,9.203375,-0.007406476864218712,-0.0016373554108664392,0.0022122692219913006
1746735755720340700,9.2133408203125,-0.01668050116598606,0.003077252020873129,0.00028550241049379106
1746735755730306600,9.223306640625,-0.021019407153129575,-0.007392484871484339,0.0062438993582502
1746735755740272600,9.233272705078125,-0.013385551273822783,-0.005503894645906985,0.004627422338631003
1746735755750238700,9.24323876953125,-0.0377712199896574,-0.004981843533180654,-0.007394841225352138
1746735755760204800,9.253204833984375,-0.037919104027748105,-0.011442637045122682,-0.005748078665323555
1746735755770170600,9.263170654296875,-0.0015618424892425537,0.005353416791930794,0.005591846923995763
1746735755780136700,9.27313671875,-0.017424013009667394,-0.010361892603710293,0.011616404443141073
1746735755790102800,9.283102783203125,-0.024753332984447478,-0.005010302442684769,-0.0015895524800755084
1746735755800068600,9.293068603515625,-0.008144728010892867,0.0014268179327249525,-0.006193758339900523
1746735755810034700,9.30303466796875,-0.013233575582504271,-0.005297668016701936,-0.006430544504150748
1746735755820000800,9.313000732421875,-0.009340075275301932,-0.010595628294348717,-0.001783321486506611
1746735755829967600,9.322967529296875,-0.04106032466292381,-0.003780504919402301,-0.00472136596608907
1746735755839932700,9.3329326171875,-0.016820201897621154,-0.006453085129521786,0.007704984886758029
1746735755849899800,9.342899658203125,-0.009189268627762794,-0.011834010982885956,0.014289751838240772
1746735755859865600,9.352865478515625,-0.006046294426918029,-0.005843355733342468,0.009920761240087448
1746735755869831700,9.362831787109375,-0.023853753796219825,-0.006120528706908226,-0.00448421447565779
1746735755879797800,9.3727978515625,-0.026551322317123413,0.006523300821520387,-0.014077935718465596
1746735755889763800,9.382763916015625,-0.023254618859291077,-0.008485285076871513,0.009459500403888522
1746735755899729700,9.392729736328125,-0.00889057794213295,-0.020407230071537195,-0.012619791065715253
1746735755909695700,9.40269580078125,-0.032682956939935684,0.003249978239275515,0.001561513695679605
1746735755919661800,9.412661865234375,-0.008297872745990753,-0.0029278701454401013,0.01740236743343994
1746735755929627600,9.422627685546875,-0.04406418265402317,-0.01678027174603194,0.008106076500937342
1746735755939593700,9.43259375,-0.019516601374745368,-0.004335362323187292,0.00029889161502942444
1746735755949559800,9.442559814453125,-0.013684241959452628,0.0039362800030037755,-0.01595357513092458
1746735755959526000,9.45252587890625,-0.052739072018861764,-0.0016043299240991473,0.0024493659134954215
1746735755969491700,9.46249169921875,-0.007401800689101219,0.00459269808512181,0.014700360199436545
1746735755979457500,9.47245751953125,0.009801847568154335,0.0001660772819072008,0.016394779559783638
1746735755989423900,9.482423828125,-0.030901334220170974,0.0013837825085967778,0.011938439471740276
1746735755999389700,9.4923896484375,-0.023871873974800107,0.0026722148839384316,0.006452171814069151
1746735756009355800,9.502355712890624,-0.017436287969350813,-0.007647117219679057,0.004447627058625221
1746735756019321600,9.512321533203124,-0.015640636724233627,-0.019296017426624894,-0.012238901989348232
1746735756029288000,9.522287841796874,-0.014597265151143074,0.007276055417582392,-0.00448238784475252
1746735756039253800,9.532253662109374,-0.018042437168955802,-0.010475180252455174,0.001205229337606579
1746735756049219800,9.5422197265625,-0.023133622828125953,-0.006660152008943259,0.0004283997462131083
1746735756059185700,9.552185546875,-0.0029389760613441466,-0.005041282102838158,-0.0042304771766066545
1746735756069151700,9.56215185546875,-0.02089607303440571,-0.005038432558625936,-0.005393694003392011
1746735756079117800,9.572117919921874,-0.018052374041080475,0.003801986098848283,0.004265219696424901
1746735756089083600,9.582083740234374,-0.03481353922784328,-0.010078253356739878,-0.001594338253047317
1746735756099049700,9.5920498046875,-0.01521393574476242,0.006714476012066007,-0.002595569451153278
1746735756109015800,9.602015869140626,-0.023444588473439214,-0.007630019954405725,-0.0008125036929734051
1746735756118982000,9.61198193359375,-0.00519055438041687,-0.0005754618003964424,0.004293422877602279
1746735756128947700,9.62194775390625,-0.022698738542199132,-0.008344488366693258,0.0008623524503782391
1746735756138913500,9.63191357421875,0.00004676175117492675,-0.017197510777413844,-0.010929134565033019
1746735756148880000,9.6418798828125,-0.008487257838249206,0.00037482466176152226,-0.00517435216428712
1746735756158845700,9.651845703125,-0.030632454150915145,0.007863646047189832,-0.011111596726160496
1746735756168811800,9.661811767578126,-0.01970949359834194,-0.0016855054015293717,0.007411938490625471
1746735756178777600,9.671777587890626,-0.020607319220900533,0.00548529954329133,-0.005585727710463106
1746735756188744000,9.681743896484376,-0.022701661151647567,-0.004420446790754795,-0.010449132495746015
1746735756198709800,9.691709716796876,-0.0291354935914278,-0.0005424363136291504,0.015271511150896548
1746735756208675600,9.701675537109375,-0.024048399585485457,-0.005442117988690733,-0.006940229325648397
1746735756218641700,9.7116416015625,0.020097031611204148,-0.010872983931005,-0.006490604128316044
1746735756228607700,9.721607666015625,-0.011179565662145613,0.01118548394627869,-0.004148443182650953
1746735756238573800,9.73157373046875,-0.025250761112570762,-0.002347439908981323,0.00305403554206714
1746735756248539600,9.74153955078125,-0.04335749568939209,-0.011881064995005726,0.005046670664008706
1746735756258505700,9.751505615234375,-0.021664719319343564,-0.006730258103087544,-0.017644542158860712
1746735756268471800,9.761471923828125,-0.030045009651780127,0.007950264884717761,-0.010025755984522402
1746735756278437600,9.771437744140625,-0.02780044559538364,-0.019130780394934117,0.00747755107274279
1746735756288403700,9.78140380859375,-0.025859832921624182,-0.016782427170500158,-0.005142879313789307
1746735756298369800,9.791369873046875,-0.005814239236712456,-0.006372055782563984,-0.005105451646540314
1746735756308335900,9.8013359375,-0.013152911561727524,0.008118680254183708,0.004729238745290786
1746735756318301700,9.8113017578125,-0.025582185024023055,0.005888400451466441,0.0056359965929761524
1746735756328267800,9.821267822265625,-0.034411388167738914,-0.017896306696534157,0.011025270149577408
1746735756338233600,9.831233642578125,-0.010616671082377432,-0.003426576915197074,-0.013480737010296433
1746735756348200000,9.841199951171875,-0.017051088044047355,0.002112279446236789,-0.005873897002078593
1746735756358165800,9.851165771484375,-0.019148937106132507,-0.004565846610814332,-0.005595463653188198
1746735756368131800,9.8611318359375,-0.008827449578046799,-0.017235322037152945,-0.005704440452996641
1746735756378097700,9.87109765625,-0.024994740524888037,-0.006365699107013643,0.005131627267412841
1746735756388064800,9.881064697265625,-0.032926118046045304,0.01577087550777942,0.003844710995722562
1746735756398030800,9.89103076171875,-0.02978431288897991,0.003814041862823069,0.010435359698720276
1746735756407996700,9.90099658203125,-0.017665420550107953,-0.019054098429530857,0.008495843003503978
1746735756417962800,9.910962646484375,-0.0019558102428913113,-0.008094532193616033,-0.013942965960875152
1746735756427928600,9.920928466796875,-0.04101064030230045,-0.0003160071466118097,-0.001375453071668744
1746735756437895000,9.93089501953125,-0.019012743505835532,0.004896393739432096,0.02120453619537875
1746735756447860700,9.94086083984375,-0.02081190188229084,-0.003990750136598944,0.00856830545151606
1746735756457826800,9.950826904296875,-0.019765023177862166,-0.011625957722775637,0.01083835100904107
1746735756467792600,9.960792724609375,-0.020957447832822797,0.004308876175060868,0.010366641844063997
1746735756477759000,9.970759033203125,-0.02469312722980976,0.005573745011724532,-0.006850742677599191
1746735756487724800,9.980724853515625,-0.020800795966386794,-0.013921740509755908,-0.005348174361232668
1746735756497690600,9.990690673828125,-0.008078092515468597,-0.004987834882549941,-0.00794222770873457
1746735756507656700,10.00065673828125,-0.024686112967133522,-0.010405731745436787,-0.014359766600839792
1746735756517622800,10.010622802734375,-0.03201835555136204,0.004243153995089233,-0.0028097967237234113
1746735756527588900,10.0205888671875,-0.011518003836274146,-0.010123772998899222,0.005271967319864779
1746735756537554700,10.0305546875,-0.018697101685404775,-0.0023809403197839855,-0.0066175001773051915
1746735756547520800,10.040520751953125,-0.033059389036893844,0.008641242823563516,0.0037194771808572113
1746735756557486800,10.05048681640625,-0.0200379949003458,-0.0018954218251630663,0.0007391279295086861
1746735756567452700,10.06045263671875,-0.023629297390580176,-0.011919826102815568,-0.015572065000049769
1746735756577418800,10.070418701171874,0.0007587094128131866,-0.01096358482390642,0.005818403955176472
1746735756587384600,10.080384521484374,-0.032309447452425956,0.0004075944202020764,0.014542192229349165
1746735756597351000,10.090350830078124,0.006296469795703887,-0.0013939385764300822,0.015653057814389467
1746735756607316700,10.100316650390624,0.00016425065100193021,-0.0023523718124255537,-0.002720054347347468
1746735756617282800,10.11028271484375,-0.015544775134325027,0.0035801965743303297,-0.005410681670811027
1746735756627248600,10.12024853515625,-0.03544833000004291,-0.00835530202165246,-0.00305093026952818
1746735756637214700,10.130214599609374,-0.010754618248343468,-0.004669891507178545,-0.000968388374429196
1746735756647180800,10.140180908203124,-0.017340426379442213,-0.0025653569759801027,0.0018055150520056484
1746735756657146600,10.150146728515624,-0.018985270977020262,-0.007539674789831042,0.006786682731751352
1746735756667112700,10.16011279296875,-0.03499766362309455,-0.004258497694693506,0.005985248422063887
1746735756677078800,10.170078857421874,-0.02033376297652721,-0.005598002670146525,0.002704290522634983
1746735756687044900,10.180044921875,0.00196633163690567,-0.004457052474096417,-0.00109614293994382
1746735756697010700,10.1900107421875,-0.0022241057902574538,-0.00863722423557192,-0.0021526114566251635
1746735756706976800,10.199976806640626,-0.028263386932015418,-0.008025522078014909,-0.0011523666392080484
1746735756716942800,10.20994287109375,-0.011059154152870178,-0.009171586840599774,0.005932239593192935
1746735756726908700,10.21990869140625,-0.03006488339602947,-0.01901179365776479,0.004864537296444178
1746735756736874800,10.229874755859376,-0.008516483932733535,0.0027017332393676043,0.0070400181720033286
1746735756746840800,10.2398408203125,-0.016751812836527824,0.008168072353862226,0.006944320978876203
1746735756756807000,10.249806884765626,-0.023186229798197743,-0.0009750921098515391,0.011757365550100802
1746735756766772700,10.259772705078126,-0.01330547177493572,-0.018677374071627853,-0.00045939767267555
1746735756776738800,10.26973876953125,-0.007916179952025412,-0.019601174385659396,0.000547550880163908
1746735756786705000,10.279704833984376,-0.03888999488651752,-0.011263334955461323,0.0021056122434325517
1746735756796670700,10.289670654296875,-0.02273205628991127,-0.010348850459046662,0.0038510494049638507
1746735756806636800,10.29963671875,-0.010457681128382683,-0.018642558486573396,0.003215875040274113
1746735756816602600,10.3096025390625,-0.03245090174973011,-0.013905775755643843,-0.015068901250883936
1746735756826569000,10.31956884765625,-0.04292787210047245,-0.004319251438602805,-0.005258030126057565
1746735756836534800,10.32953466796875,-0.0005856909334659576,-0.004391074565798044,0.021720358496718106
1746735756846500900,10.3395009765625,-0.0017874679386615752,-0.00790609694942832,0.01382818047478795
1746735756856466700,10.349466796875,-0.03066752546429634,0.007062193471193313,0.010506927097588777
1746735756866432800,10.359432861328125,-0.03081950115561485,0.00787274266909808,-0.00016876242933794856
1746735756876398800,10.36939892578125,-0.028120179069042205,0.002689385214447975,0.0008507350778207182
1746735756886364700,10.37936474609375,-0.005524900901317596,-0.0027211320595815778,0.0009334266589023173
1746735756896330800,10.389330810546875,-0.0037304186999797817,-0.008119301308691502,0.00252138997009024
1746735756906296800,10.399296875,-0.0366471843957901,0.0037804683867841958,-0.005554985512327403
1746735756916263000,10.409262939453125,-0.00881166748702526,-0.013784049072116613,0.0021034202863462266
1746735756926228700,10.419228759765625,-0.0032768297135829924,-0.020937391425482926,-0.014362031623162328
1746735756936194600,10.429194580078125,-0.02751695247888565,-0.011369864069856702,-0.0007562434610910713
1746735756946161000,10.439160888671875,-0.028262802410125732,-0.0015297668505460022,0.016133242546766995
1746735756956126700,10.449126708984375,-0.009555763852596282,0.0025946926683187484,-0.00357067982731387
1746735756966092800,10.4590927734375,-0.03350654828250408,-0.0015878171807155012,-0.010579955801181495
1746735756976059600,10.4690595703125,-0.008214286115765572,0.0048012628018856045,0.0002918225534260273
1746735756986025700,10.479025634765625,-0.02003331872522831,0.0067073156189173455,0.004313113958761096
1746735756995991800,10.48899169921875,-0.02691606397628784,-0.013948518918827176,-0.011420443479623645
1746735757005958000,10.4989580078125,-0.012998597782850264,-0.00812543878853321,-0.04136356365950778
1746735757015923700,10.508923828125,-0.012252747851610183,0.006269764451868832,-0.006760434045642614
1746735757025889800,10.518889892578125,-0.0531038136780262,-0.013643398492410778,0.03578165360763669
1746735757035856000,10.52885595703125,-0.022277298259735106,0.003998093192838132,0.028283078013174236
1746735757045821700,10.53882177734375,-0.005665186154842377,-0.006839161837659776,-0.02627486172961071
1746735757055787800,10.548787841796875,-0.0029670331120491026,0.01928074679225683,-0.02004508222825825
1746735757065753600,10.558753662109375,-0.07374971134364605,-0.01759896771777421,-0.006296323665231466
1746735757075720000,10.568719970703125,0.02157821007966995,-0.005824906761199236,0.016276742670685053
1746735757085685800,10.578685791015625,-0.0025169512569904328,0.009639533145911991,-0.0203616921630688
1746735757095651800,10.58865185546875,-0.04292670305669308,0.004400828774832189,-0.024133191792108117
1746735757105617700,10.59861767578125,-0.020777999612689016,-0.005393529606610536,0.02350247440682724
1746735757115583700,10.608583740234375,0.0028676643908023833,-0.0106866675786674,0.027123258719872683
1746735757125549800,10.6185498046875,-0.030357144340872763,-0.0019070757303386926,-0.0186975948757492
1746735757135515600,10.628515625,-0.027967618855834004,0.01162888033222407,-0.03675614292928949
1746735757145481700,10.638481689453124,-0.008810498443245888,-0.0069987728461623185,-0.006032759091909975
1746735757155447800,10.64844775390625,-0.025568741020560264,-0.01643902056030929,0.045710178029071534
1746735757165414000,10.658413818359374,-0.009108604606986046,-0.013914251323044299,0.024507724192924796
1746735757175379700,10.668379638671874,-0.021676409757137298,-0.00411108858063817,-0.021608331223297864
1746735757185345800,10.678345703125,-0.02466273209154606,-0.0037551512824371457,0.011257800263818353
1746735757195311900,10.688311767578124,0.016039280652999876,-0.017371223376505075,0.015733794900402425
1746735757205277700,10.698277587890624,-0.01194178220629692,-0.009637450786679982,0.007112407554779201
1746735757215243800,10.708243896484374,-0.03528524839282036,-0.002472235332429409,-0.007190477759670466
1746735757225209600,10.718209716796874,-0.027353286349773406,-0.0051637759713456036,0.005920877948962152
1746735757235176000,10.728176025390624,-0.02510579968392849,-0.003274308962933719,0.030166097014490512
1746735757245141800,10.738141845703124,0.011553659671545029,-0.0023519334210082886,0.002197583109512925
1746735757255107800,10.74810791015625,-0.01597907489836216,-0.006990845268033444,-0.025970417156629264
1746735757265073700,10.75807373046875,-0.027796353942155835,-0.009314758170954883,0.00007819806905463338
1746735757275039700,10.768039794921876,-0.0083393738001585,-0.02030950531810522,0.010398023363016545
1746735757285005800,10.778005859375,-0.0020569325298070906,-0.01756857257951051,-0.004120112137310207
1746735757294972200,10.78797216796875,-0.023453356301784516,0.004714315170794725,-0.005960643703769892
1746735757304938000,10.79793798828125,-0.035569910553097724,0.013924882314912974,0.0011994389176368714
1746735757314904300,10.807904296875,-0.025241408762335774,-0.027013021544739602,0.00828400861741975
1746735757324870100,10.8178701171875,-0.011171966877579688,-0.016757840718515216,0.015199779355246574
1746735757334836000,10.8278359375,-0.03376315339207649,0.002190313118509948,0.017098050724621863
1746735757344802000,10.837802001953126,-0.023885902500152587,0.012172412624396382,0.018222250715270637
1746735757354768100,10.84776806640625,-0.012364976054430007,-0.007126381281204521,0.010019307977426797
1746735757364734200,10.857734130859376,-0.003686579558253288,-0.015485153901576995,-0.030985888964775946
1746735757374700000,10.867699951171875,-0.01654898374080658,-0.004654693938046694,-0.0003773819450289011
1746735757384666000,10.877666015625,-0.0348041868776083,-0.00991915380489081,0.006250182968564331
1746735757394632200,10.887632080078125,-0.00637479572892189,-0.001197100830078125,0.020585856307763606
1746735757404598000,10.897597900390625,-0.001291208854317665,0.004251739160344005,0.007143496812786906
1746735757414564000,10.907564208984375,-0.03914659999608993,-0.00909844853915274,0.009640683923382312
1746735757424530000,10.917530029296875,-0.021631986093521117,-0.007875738343782723,-0.001599617216363549
1746735757434496300,10.927496337890625,0.0009603694647550582,-0.01964563458189368,0.0030404454081319273
1746735757444462000,10.937462158203125,-0.013256956458091735,-0.012902334334142505,-0.015002284021768718
1746735757454428200,10.94742822265625,-0.02298515426814556,0.005537723850272596,0.0011622669787146151
1746735757464394000,10.95739404296875,-0.010862170276045798,-0.00854399299416691,0.029051066710986194
1746735757474360000,10.967360107421875,-0.009817629659175871,-0.0024839988354593513,0.02915262738931924
1746735757484326100,10.977326171875,-0.014159458255767822,0.0052033773293718695,0.020283676757104692
1746735757494292000,10.9872919921875,-0.04079670529067516,-0.014812917195819317,-0.008621113350987433
1746735757504258000,10.997258056640625,-0.02299041496515274,-0.011659238937869668,-0.010870298783574253
1746735757514224000,11.00722412109375,-0.01790390548110008,-0.009392426517046987,-0.0014594232943840324
1746735757524190200,11.017190185546875,-0.01925064391493797,0.0003424932947382331,0.005402005174010992
1746735757534156000,11.027156005859375,-0.025085341417789456,0.01694222084209323,0.02198724753828719
1746735757544122000,11.0371220703125,-0.018805238234996795,0.006867438084073365,0.02360151433451101
1746735757554088200,11.047088134765625,-0.0015986673682928084,-0.009404518813639878,0.024026315617840736
1746735757564054000,11.057053955078125,-0.02643500246107578,-0.0022814254680648444,0.004865834204386919
1746735757574020000,11.06702001953125,-0.04125438593029976,0.005282726175896823,-0.023405790833011267
1746735757583986000,11.07698583984375,-0.02105681655406952,0.001450819862820208,-0.02547846892122179
1746735757593952300,11.0869521484375,-0.008335282146930694,-0.006505071045085787,-0.016100564119871704
1746735757603918000,11.09691796875,-0.017760697618126868,-0.014178564815036952,0.010413878519274293
1746735757613884200,11.10688427734375,-0.03242342922091484,-0.019606910006701946,0.00896422770023346
1746735757623851000,11.11685107421875,-0.020896657556295394,0.002281023609265685,0.023525325559452175
1746735757633817000,11.126817138671875,-0.022987492355704305,-0.0010872472474351524,0.007841909139417111
1746735757643783200,11.136783203125,-0.024783143600821494,0.0034113428134471178,-0.013884184978343546
1746735757653749000,11.1467490234375,-0.012962941947579383,-0.007486519830487668,-0.024536968553718178
1746735757663715000,11.156715087890625,-0.017000819161534307,-0.014711721843667327,0.0113961675548926
1746735757673681000,11.166680908203125,-0.007722118684649467,-0.009063121497444808,0.0193524420552887
1746735757683647200,11.176647216796875,-0.0018880057036876677,-0.010843392510339616,0.0075899619386531406
1746735757693613000,11.186613037109375,-0.03480886305272579,0.006502075370401143,0.0018346315486356614
1746735757703579100,11.1965791015625,-0.008166355320811272,-0.006797843446582555,0.009171806036308407
1746735757713545000,11.206544921875,-0.011306406912207603,-0.0051903717173263425,-0.005356522064469754
1746735757723511300,11.21651123046875,-0.019833412238955496,-0.00942903220038861,-0.009361519922129809
1746735757733477000,11.22647705078125,-0.03210661835670471,-0.007325630180351436,0.002569211167190224
1746735757743443000,11.23644287109375,-0.012803951993584632,-0.0073200406897813075,0.005881367922481149
1746735757753409000,11.246408935546874,-0.0008352817803621292,-0.00533219134081155,0.010376103792153299
1746735757763375000,11.256375,-0.0023287352085113525,0.00404722956418991,-0.0010257080522365868
1746735757773341200,11.266341064453124,-0.020278233397006986,-0.004155841037817299,-0.012097922616079448
1746735757783307000,11.27630712890625,-0.011295885518193244,-0.005103972075507044,0.019576533134747297
1746735757793273000,11.286273193359374,-0.010393383720517157,-0.020440913145430385,0.006219057177938521
1746735757803239200,11.2962392578125,-0.023709961411356926,-0.014465090138837695,-0.004127802253421396
1746735757813205000,11.306205078125,-0.035678631624579425,-0.020376871465891597,-0.011218271971028298
1746735757823171000,11.316171142578124,-0.014130232161283493,0.0008661883752793074,-0.0011975392214953898
1746735757833137200,11.32613720703125,-0.02579728907942772,-0.011496413058973849,0.017380794922448695
1746735757843103200,11.336103271484374,-0.018913374784588814,-0.008517981770075856,-0.003129292735364288
1746735757853069000,11.346069091796876,-0.010825345396995544,-0.019715594545565544,-0.00016719152675941586
1746735757863035100,11.35603515625,-0.02369008766710758,-0.015435725269280373,0.006072543113026767
1746735757873001200,11.366001220703126,-0.01201543196439743,-0.0109944914188236,-0.0057387993803247805
1746735757882967000,11.375967041015626,-0.014858546435832976,0.001694236697256565,0.0009347053005360066
1746735757892933000,11.38593310546875,-0.03490589368641376,-0.0009288418153300881,-0.0035398097650147973
1746735757902899000,11.39589892578125,-0.01858838061392307,-0.00971168506667018,0.0005783661435358226
1746735757912865300,11.405865234375,-0.018738602739572525,-0.016460465207137166,0.011866817273944615
1746735757922831000,11.4158310546875,-0.021283611047267913,-0.008488828740827738,0.018401278810296205
1746735757932797200,11.425797119140626,-0.010803718087077141,-0.009910349443927406,0.0005278963316231966
1746735757942763000,11.435762939453125,-0.022774141865968704,0.014773608098737895,-0.009345646499563008
1746735757952729000,11.44572900390625,-0.010955109256505965,-0.01988634800259024,-0.01371726744621992
1746735757962695200,11.455695068359375,-0.01738601908683777,-0.005589928961545229,0.002602967306319624
1746735757972661000,11.465660888671875,-0.01798456950187683,0.0029264819059520958,0.008320997893251478
1746735757982627000,11.475626953125,-0.001222235271334648,0.005413147622533142,0.012081263742223382
1746735757992593200,11.48559326171875,-0.012297171515226364,-0.009360825802385807,0.010093377860635518
1746735758002559200,11.495559326171875,-0.024871406406164167,0.0022565832877531646,0.0031988325739279386
1746735758012525000,11.505525146484375,-0.031606267619132995,-0.0018980156410485505,-0.0017838512094691394
1746735758022491100,11.5154912109375,-0.030408582267165182,-0.0111774467702955,-0.005107168679591268
1746735758032457200,11.525457275390625,-0.00886485897898674,-0.013217318567447364,0.01124711447302252
1746735758042423000,11.535423095703125,-0.020536592072248457,-0.006350318874791264,-0.0015740626499988139
1746735758052389000,11.54538916015625,-0.017246318355202673,-0.01035842200499028,-0.0011242547895759342
1746735758062355000,11.55535498046875,-0.007668342670798301,-0.005734050139971077,-0.003080320760793984
1746735758072321300,11.5653212890625,-0.020392799687385558,0.005112630305998027,-0.005274415005277842
1746735758082287000,11.575287109375,-0.016055062744021416,-0.009527852932363749,0.005519841133709996
1746735758092253200,11.585253173828125,-0.021287118178606033,0.003990713603980839,-0.009584752485062926
1746735758102219000,11.595218994140625,0.01641688179373741,0.018723733964003623,-0.0024986301490105686
1746735758112185000,11.60518505859375,0.10379822812676429,0.020347024316899477,0.012169764009583741
1746735758122151200,11.615151123046875,-0.05618482855856418,0.018478855824843047,0.006459259141981601
1746735758132117000,11.625116943359375,-0.0756517455726862,-0.01600654742717743,0.00530261818645522
1746735758142083000,11.6350830078125,-0.0339110374301672,-0.03814933258704841,0.007986085116770118
1746735758152049200,11.645049072265625,-0.01955225721001625,-0.048786096609383815,-0.013323043964244425
1746735758162015200,11.65501513671875,-0.04230477176606655,-0.014244725386425851,-0.006123506115283816
1746735758171981000,11.66498095703125,-0.03302548676729202,-0.009339965677447616,-0.01389211255647242
1746735758181947000,11.67494677734375,-0.02165244435966015,0.0008287789743393659,-0.014493475983105599
1746735758191913200,11.684913330078125,0.0009410802423954009,0.006248977392166853,0.009585501403734088
1746735758201879000,11.694879150390625,-0.01462181507050991,-0.008984284107573329,0.030769962925463912
1746735758211845000,11.70484521484375,-0.05009001881480217,-0.011618103209882973,0.003723842828720808
1746735758221811000,11.71481103515625,-0.04754793311655521,-0.02101524243466556,-0.012139186208229511
1746735758231777300,11.72477734375,-0.014477438163757324,-0.01651409509051591,-0.008597147953510284
1746735758241743000,11.7347431640625,0.0018313070803880691,-0.0003337985316291451,-0.0154386113461107
1746735758251709200,11.744709228515624,-0.02091127060353756,0.00890489872843027,-0.005284717203583568
1746735758261676000,11.754676025390625,-0.0533867222726345,-0.027069208711385725,0.02009989942172542
1746735758271642000,11.76464208984375,-0.007150456276535987,-0.024207718333043155,0.018789693605992943
