time,seconds_elapsed,z,y,x
1746576224716265000,0.053264892578125,-0.003925649011135101,-0.0017334498962154612,-0.008694954905332997
1746576224726229000,0.06322900390625,-0.017696400210261344,0.009733321509743108,-0.006447404307406395
1746576224736193800,0.07319384765625,-0.022186697366833687,0.0015337900051148607,-0.014464852676820008
1746576224746157800,0.08315771484375,-0.01724865644276142,0.0032142493387684224,0.0005044697902631014
1746576224756123000,0.093122802734375,-0.013507131826877593,0.010804074280103668,0.009443964908039197
1746576224766087700,0.103087646484375,-0.017398294046521184,-0.00031495683384127914,0.0095292229055427
1746576224776051700,0.1130517578125,-0.01006605146229267,0.00025443598537240174,-0.001090982707636431
1746576224786017000,0.12301708984375,-0.01859539487659931,-0.008252197840204463,-0.008291963595012202
1746576224795981800,0.13298193359375,-0.01500350786447525,0.00084040091347415,0.013218578942772001
1746576224805945900,0.14294580078125,-0.007072714865207672,-0.022441617409395983,0.011203759388485923
1746576224815911000,0.152910888671875,-0.005426116701960563,-0.018653102713474073,-0.0037322270645759998
1746576224825874700,0.162874755859375,-0.015153729990124702,-0.008691950097493828,-0.0046580640720669175
1746576224835839700,0.17283984375,-0.016650106027722357,-0.0019864017439773303,-0.0007363971163053065
1746576224845805000,0.18280517578125,-0.016051555612683295,-0.0013878147963201626,0.004172883504163474
1746576224855768800,0.192768798828125,-0.02817220151722431,-0.0018733926564455032,-0.00775406645918265
1746576224865734000,0.20273388671875,-0.006923661783337593,0.01220837898692116,-0.002094625058537349
1746576224875698000,0.212697998046875,-0.015602642801403999,-0.003335464565642178,0.009459199009789154
1746576224885662700,0.222662841796875,-0.004829319852590561,0.002634599987021647,-0.00488737018276006
1746576224895627800,0.232627685546875,-0.00587678307890892,0.0022793248425237835,-0.010675762592162937
1746576224905592000,0.242592041015625,-0.003632219022512436,0.00030171832635533065,0.009422976918937637
1746576224915556900,0.252556884765625,-0.01500526143014431,0.0002634093096945435,0.018903136518364772
1746576224925521000,0.26252099609375,-0.02682663212716579,-0.011269837761484085,-0.005630288371397182
1746576224935486000,0.27248583984375,-0.016652444115281103,-0.014745286186551675,-0.012029058630950749
1746576224945450800,0.28245068359375,-0.028473814812302586,-0.005014462594571523,-0.00695875136302784
1746576224955414800,0.292414794921875,-0.021440847435593605,0.009016738772182726,0.006421210420224815
1746576224965379800,0.3023798828125,-0.018598317486047743,-0.002072787686064839,0.002601305072195828
1746576224975345000,0.312344970703125,-0.01470890883207321,-0.003692351711913943,-0.007041196348937228
1746576224985309000,0.322308837890625,-0.022790508478879926,-0.007373574675037525,-0.0062619556047488
1746576224995273700,0.332273681640625,-0.011416881549358368,0.002670739879482426,0.007861125296540558
1746576225005237800,0.34223779296875,-0.019946809485554693,-0.00012204634393565356,0.0158012980455067
1746576225015202800,0.352202880859375,-0.01620645391345024,-0.0008130790817085653,-0.0060240003967192025
1746576225025168000,0.36216796875,-0.016356676039099693,0.008409525560075416,0.009398837991524488
1746576225035132000,0.3721318359375,-0.017854221120476722,0.0019872830933891235,-0.005153327642567455
1746576225045097000,0.382096923828125,-0.015011106649041175,-0.0030227042554644866,0.006837609201390296
1746576225055060700,0.392060791015625,-0.010521978536248207,0.0022254985963227228,0.005654253768874332
1746576225065025800,0.40202587890625,-0.017855974686145783,0.012301815724303014,0.010084692230680956
1746576225074990800,0.411990966796875,-0.03566343405544758,0.004599945243238471,0.005159328125091269
1746576225084954600,0.42195458984375,-0.017556699478626252,-0.00017252985558006913,0.005397283333120867
1746576225094920000,0.431919921875,-0.016658873856067655,-0.0008377157660434022,-0.01246906661656685
1746576225104884700,0.441884765625,-0.007231704819202422,-0.0043207127433270215,-0.008464589348714798
1746576225114848800,0.451848876953125,0.004589665877819061,-0.004340280526899732,0.0048534131142310795
1746576225124813800,0.461813720703125,-0.00947568435370922,-0.02116389822431374,0.005737000148883089
1746576225134777900,0.47177783203125,-0.018303718453645704,-0.012656657043960877,0.020053612594585865
1746576225144743000,0.481742919921875,-0.006034603989124298,-0.007384319831337779,0.009510125479428097
1746576225154708000,0.4917080078125,-0.010073650246858596,0.0030255035673268137,0.015279456995334475
1746576225164672000,0.501672119140625,-0.01171907936632633,-0.02319312076328788,0.0020789708316791802
1746576225174636800,0.51163671875,-0.02114507935941219,0.0049899400746682655,-0.0015227434547152368
1746576225184601900,0.521601806640625,-0.014561024793982505,-0.0034243027597200123,0.00832745503350161
1746576225194566000,0.53156591796875,-0.014111527460813521,-0.004063112119911239,0.003249229320604354
1746576225204531000,0.541531005859375,-0.030721886000037193,0.0015030112743610515,0.0006988963838201015
1746576225214495000,0.551494873046875,-0.005282324317097664,0.001826777035742998,-0.010601647043181582
1746576225224459800,0.561459716796875,-0.01755319234728813,-0.0005493683779146522,-0.0042701607330236585
1746576225234424800,0.5714248046875,-0.03655716802477836,0.002891597822238691,0.001666800701059401
1746576225244388900,0.581388916015625,-0.014112111982703209,0.0011947399096330627,-0.005074389787996188
1746576225254353700,0.591353759765625,-0.0045353053420782085,-0.0035594871464418244,-0.004763670737855136
1746576225264317700,0.601317626953125,-0.013662614649534225,-0.0025252578610321505,-0.014251730515947565
1746576225274283000,0.611282958984375,-0.021592823126912117,0.002444050417561084,-0.00150858706519939
1746576225284247800,0.621247802734375,-0.011567688196897507,0.007971161542274058,-0.0020707783920690414
1746576225294211800,0.6312119140625,-0.03550970479846,0.0011995302491821349,-0.004120276534091681
1746576225304177000,0.641177001953125,-0.022042904981970785,-0.0014021036165766418,-0.017114316872833296
1746576225314141700,0.6511416015625,0.0038438159465789793,0.0030977833522483704,-0.01678731340817176
1746576225324105700,0.661105712890625,-0.03117196785509586,0.0033110196775523945,-0.003380573215847835
1746576225334071000,0.671071044921875,-0.028328853383660316,0.002750883310451172,0.0009695756845176219
1746576225344034800,0.681034912109375,-0.020699089157581327,0.0009994410998187958,-0.0043207401427906005
1746576225354000000,0.690999755859375,-0.009177578189969062,-0.004065806400496513,-0.007686892107641324
1746576225363964700,0.700964599609375,-0.0027437457501888274,-0.0034051596678327765,-0.016207622957229613
1746576225373928700,0.7109287109375,-0.005138531932234764,0.00517921100249514,0.006261572012258693
1746576225383894000,0.72089404296875,-0.03850830209255218,0.011393943631765432,0.0033527718934696165
1746576225393858800,0.73085888671875,-0.021897943553328515,0.002789703783765435,0.005570639739185572
1746576225403822800,0.74082275390625,-0.01785772825181484,0.0013264399979030712,0.004357181429350748
1746576225413788000,0.750787841796875,-0.013070493975281714,-0.0019025867848889901,0.011302598386770113
1746576225423752000,0.760751953125,-0.010675707793235779,-0.008820339417248033,0.00128398452908732
1746576225433716700,0.770716796875,-0.021150340056419373,-0.003415160472039133,0.01458232331033796
1746576225443682000,0.78068212890625,-0.02922960161566734,-0.00431744764058385,0.015490597261674701
1746576225453645800,0.790645751953125,-0.01980067901313305,-0.0012336562810698524,-0.005846415340108797
1746576225463611000,0.80061083984375,-0.018004443246126173,0.0014267859666841104,-0.004559471668954938
1746576225473575000,0.810574951171875,-0.0036386487632989882,-0.0000634023587219417,0.00813758588405326
1746576225483539700,0.820539794921875,-0.0007949497699737549,-0.001355341865401715,0.0069011211579665535
1746576225493504800,0.8305048828125,-0.01441138719022274,0.004515888255555182,0.004316940750507638
1746576225503468800,0.84046875,-0.012316460737586021,-0.0009798915825551375,-0.0007968859987333417
1746576225513433900,0.850433837890625,-0.01336392396390438,0.0012946931527694687,0.008289643773762508
1746576225523399000,0.86039892578125,-0.007975801184773444,-0.0020878254249924793,0.005864973910106346
1746576225533363200,0.87036328125,-0.0172539171397686,0.0015352284769527614,0.00006570391366258263
1746576225543328000,0.880327880859375,-0.010520809492468834,0.009921674555540085,0.004581783965462818
1746576225553292000,0.8902919921875,-0.009772621473670005,-0.0008485659536207094,-0.00587107485732995
1746576225563257000,0.900257080078125,-0.02533493226468563,0.0047922255454817785,-0.003636630336148664
1746576225573222000,0.910221923828125,-0.013662614649534225,0.004967422282183542,-0.0017338380552828312
1746576225583186000,0.92018603515625,-0.01830138036608696,-0.01209072112373542,-0.0014567564132623374
1746576225593151000,0.93015087890625,-0.018748539611697194,-0.00012367661201860756,0.014732581968605517
1746576225603116000,0.940115966796875,-0.015305705681443214,0.004492247085063718,0.012084825672488659
1746576225613080000,0.950080078125,-0.021740122643113136,0.0035755112660583108,-0.0030288645681925117
1746576225623044900,0.960044921875,-0.02158990051746368,0.0017710830594412981,0.0008212623881641775
1746576225633009000,0.9700087890625,-0.0018371522992849348,-0.003783176367101259,0.0007931779379956424
1746576225642974000,0.979973876953125,-0.012760112851858138,0.0047267636604141445,0.004337508614500984
1746576225652939000,0.98993896484375,-0.0299678527623415,0.0018101683942368253,0.0014568934105802327
1746576225662903000,0.999903076171875,-0.031015900510549543,-0.002943885131902061,-0.0019407040053047238
1746576225672868000,1.0098681640625,-0.01320844114124775,0.000047711599245667456,-0.017101393459178507
1746576225682832100,1.01983203125,-0.011263152292370796,-0.0019994530217954886,-0.006669668755959719
1746576225692797000,1.029796875,-0.00722352151274681,-0.0009098813865333795,0.010246349065797402
1746576225702762200,1.03976220703125,-0.018296704190969466,-0.011164929782017134,-0.0018791465437971054
1746576225712726000,1.04972607421875,-0.015903087052702904,0.0036757430704077703,-0.00036549057783558965
1746576225722691000,1.059691162109375,-0.019193945291638374,0.003045180948753841,0.0002960877365898341
1746576225732656000,1.06965625,-0.02069032132923603,-0.0023281643863534555,-0.006012456089397892
1746576225742620000,1.079619873046875,-0.009915829336643218,-0.00027880780822597443,-0.017519929398503154
1746576225752585000,1.0895849609375,-0.016650106027722357,0.0004209333923878148,-0.0013061780945863575
1746576225762549000,1.099549072265625,-0.017100187882781028,-0.006326709670340642,0.0027041717916261405
1746576225772514000,1.10951416015625,-0.02862228337228298,0.00357854347336106,-0.00252324400045909
1746576225782479000,1.11947900390625,-0.01949438954293728,0.0017997657312313093,-0.0018348598774988202
1746576225792443100,1.129443115234375,-0.012162146958708762,0.0017882077241782098,-0.007051023623207584
1746576225802408000,1.139407958984375,-0.020092355436086652,-0.0081373575551901,0.006271874210564419
1746576225812373000,1.149373046875,-0.025329087045788762,-0.0024558641529409215,0.001134620919963345
1746576225822337000,1.1593369140625,-0.018446926316618917,0.0034148362450534477,-0.015127344306698069
1746576225832302000,1.169302001953125,-0.014406711015105246,-0.006241538437805138,0.0032533666396047916
1746576225842266000,1.17926611328125,-0.018746786046028138,-0.0034969524373998865,0.007595496630296111
1746576225852231000,1.18923095703125,-0.004082885399460792,0.00043726803925819694,-0.005102337240846827
1746576225862196000,1.199196044921875,-0.014856792870163917,-0.0037202352326828982,-0.004664247217681258
1746576225872160000,1.209159912109375,-0.01979366475045681,-0.0017623243642505258,-0.007759966477006673
1746576225882124800,1.219124755859375,-0.014556348618865012,0.0034114204452605915,0.002821304498426616
1746576225892089000,1.229089111328125,-0.008420622342824936,0.0018981206723256035,-0.013570022728946059
1746576225902054100,1.23905419921875,-0.016948796713352202,0.0016882407813100142,-0.018992531834868712
1746576225912019000,1.24901904296875,-0.004078793746232986,0.004247843869938515,0.0070835467864759265
1746576225921983000,1.25898291015625,-0.009915244814753532,-0.001996722208592109,0.015012723217392339
1746576225931948000,1.268947998046875,-0.003480243331193924,-0.01374317363903392,-0.004595310167316347
1746576225941913000,1.2789130859375,-0.029816461592912673,-0.0016151709785219282,-0.003851962720416486
1746576225951877000,1.288877197265625,-0.005425532180070877,0.0015205058318562804,-0.015036999142123385
1746576225961842200,1.29884228515625,-0.014554010531306266,-0.0015750627304194494,0.005763458897545933
1746576225971806000,1.308805908203125,-0.00677343965768814,0.0006885393865872174,0.006249497981974854
1746576225981771000,1.31877099609375,-0.00976677625477314,-0.0010877084717387333,0.008976210398972034
1746576225991735800,1.32873583984375,-0.017099018839001653,0.001071424057218246,-0.0018347228801809251
1746576226001699800,1.338699951171875,-0.014105682241916656,0.003871142344921827,0.004131181520596146
1746576226011665200,1.3486650390625,-0.02083937441110611,-0.007595893922518007,-0.003063086498202756
1746576226021630000,1.3586298828125,-0.01979308022856712,-0.010850301741738804,-0.000631384105561301
1746576226031594000,1.368593994140625,-0.005128010538220405,-0.009611562860175036,0.009780475986562669
1746576226041559000,1.37855908203125,-0.00976677625477314,-0.012774506703391671,0.00994314660183154
1746576226051523000,1.388523193359375,-0.0010866261929273605,-0.005375199365476146,0.008396255086548626
1746576226061487900,1.39848779296875,-0.008569090902805328,-0.0027794609509641304,-0.008208431763714179
1746576226071453200,1.408453125,-0.007371405550837516,-0.007358532369532622,-0.007445859026536345
1746576226081417000,1.4184169921875,-0.00452829107940197,0.0001980798553675413,0.011746688892459497
1746576226091382000,1.428382080078125,-0.024130817171931267,0.0017396284752525387,0.004106869063246995
1746576226101346000,1.438345947265625,-0.02458031450510025,0.02340362170881126,-0.001630487278662622
1746576226111310800,1.448310791015625,-0.017248071920871733,0.010458722307998686,-0.0018003456865437327
1746576226121276000,1.45827587890625,-0.016350830820202826,0.014770411494653671,-0.006910245179338381
1746576226131240200,1.468240234375,-0.005128595060110092,0.0034607668791664763,-0.0045168563699349755
1746576226141205000,1.478205078125,-0.008420037820935249,0.004155822771508246,-0.007665849319612607
1746576226151170000,1.488170166015625,-0.019044307687878608,-0.0032361963090952483,0.008962693330273032
1746576226161134000,1.498134033203125,-0.027124153769016265,-0.018680360613157972,0.00836471830396913
1746576226171099000,1.508098876953125,-0.02128887174427509,-0.006434736622078344,0.005259984621126205
1746576226181063000,1.51806298828125,-0.018296704190969466,-0.011806940312869846,0.0006698072866536676
1746576226191028200,1.5280283203125,0.0028027824610471724,-0.007268602763488888,0.004434201321471482
1746576226200993000,1.537992919921875,-0.005875614035129547,0.0002772049396065995,0.005946021523373201
1746576226210957000,1.54795703125,-0.02083937441110611,0.002015559339802712,-0.00019524857746437192
1746576226220922000,1.557922119140625,-0.014404957449436187,0.0036075732050230725,0.009763607050152496
1746576226230887000,1.567886962890625,-0.029518355429172513,-0.0004374324360396713,0.010203395840059965
1746576226240851000,1.577850830078125,-0.010664017355442047,0.0005210418991511688,-0.006292496873484924
1746576226250816000,1.58781591796875,-0.01799684446156025,-0.0025613931869156656,-0.005391328516369686
1746576226260780000,1.597780029296875,-0.029519524472951888,-0.0030227088220417496,-0.002040218857023865
1746576226270745000,1.6077451171875,-0.018446926316618917,0.0030070774280698967,0.009947923241648822
1746576226280710000,1.6177099609375,-0.014257657933235168,0.0036026824007742105,0.0013471220263279974
1746576226290674000,1.627673828125,-0.021740122643113136,-0.00012707414550241082,-0.0001204115092754364
1746576226300639000,1.637638916015625,-0.02577975342273712,-0.00018403763028327375,-0.007615763100190087
1746576226310604000,1.64760400390625,-0.014556348618865012,-0.01374919695444405,-0.0035595191124826665
1746576226320568000,1.657568115234375,-0.021589315995573996,0.003468109935405664,0.003918452085368335
1746576226330533000,1.667533203125,-0.020392215165495872,-0.0016220162778394296,0.018261313217179848
1746576226340497000,1.677496826171875,-0.0211404031842947,-0.009332618054631165,0.006246118714800104
1746576226350462000,1.6874619140625,-0.019942717832326887,-0.010290832094918004,-0.008141284811636432
1746576226360427000,1.697427001953125,-0.013656769430637358,0.0007346161511726677,-0.0006948595295194536
1746576226370391000,1.70739111328125,-0.008269815695285797,0.005861905170185491,0.02405996215911582
1746576226380356000,1.717356201171875,-0.009916413858532905,0.003870991647872142,0.005709207959659397
1746576226390321000,1.72732080078125,-0.03251169202625751,0.0002643363248789683,-0.0008263312889263034
1746576226400285000,1.737284912109375,-0.038648002824187275,-0.000291142133413814,-0.004366104521322995
1746576226410250000,1.74725,-0.011712649625539778,0.0002964667625026777,0.008479805184155703
1746576226420214000,1.757214111328125,0.0013064064234495163,-0.0000733666303101927,0.018937038787966595
1746576226430179000,1.767178955078125,-0.016948796713352202,0.003944993032421917,0.005573160489834844
1746576226440144100,1.77714404296875,-0.03834755857288837,0.0024969176825368777,-0.009813538005948067
1746576226450108200,1.787108154296875,-0.034606033957004546,-0.002079792815586552,-0.0069180083606857805
1746576226460073000,1.797072998046875,-0.02263619470000267,0.004586163313058205,0.018582964653288944
1746576226470038000,1.8070380859375,-0.007374328160285949,-0.004900581290782429,0.011903559954604133
1746576226480002000,1.817001953125,0.0025017536878585815,-0.010140815465245395,0.007433456202689558
1746576226489967000,1.826967041015625,-0.010068389549851417,-0.008461639339802787,-0.012148602490546181
1746576226499931100,1.83693115234375,-0.02084229702055454,-0.006646630373666994,-0.0008046126474626361
1746576226509896000,1.84689599609375,-0.009169979405403136,-0.0039035513437585905,0.0006808310041669756
1746576226519861000,1.856861083984375,-0.010667524486780166,0.001977697847713716,0.005250294344173744
1746576226529825000,1.866824951171875,-0.015306874725222587,0.010519348187744616,0.007692244136193766
1746576226539790600,1.87679052734375,-0.023836218139529228,-0.0018160684120608493,-0.0010026742365211248
1746576226549755600,1.886755615234375,-0.018749124133586884,-0.003690072989859618,-0.0010161091068293898
1746576226559719700,1.8967197265625,-0.01770166090726852,0.00982882690662518,0.0036115780932828782
1746576226569684500,1.9066845703125,-0.0238373871833086,0.00984330295654945,0.0036448958409950136
1746576226579648500,1.9166484375,-0.019646949756145476,0.0019254790367092937,0.0004174947597086429
1746576226589613300,1.92661328125,-0.012314707171916961,-0.0032233870598720386,0.006910710970219224
1746576226599578600,1.93657861328125,-0.011118190863728523,-0.0024402784247417003,0.006191328920796513
1746576226609542700,1.946542724609375,-0.023089783686399457,0.0018790278127882628,0.0013233392919413745
1746576226619507500,1.956507568359375,-0.02084580415189266,-0.00032104408133309335,-0.004810770415747538
1746576226629472500,1.966472412109375,-0.003936754927039147,-0.00524933992952574,0.009872821311978622
1746576226639436500,1.9764365234375,-0.016356676039099693,-0.003626218539988622,0.003276299990620464
1746576226649401300,1.9864013671875,-0.0106704470962286,-0.00001992854317650199,0.005527686513448133
1746576226659365400,1.996365478515625,-0.010520224970579146,0.005145418330747634,0.00687135620736517
1746576226669330700,2.00633056640625,-0.01770224542915821,-0.002195048659131862,-0.0006291008169297128
1746576226679295500,2.01629541015625,-0.009772036951780319,-0.003754594160011038,-0.007671758470591157
1746576226689259500,2.026259521484375,-0.007676525977253913,-0.0004522783787222579,-0.00028510968484915793
1746576226699224600,2.036224609375,-0.010518471404910088,-0.0007491515666013583,0.008618108543148264
1746576226709189400,2.046189453125,-0.01770049186348915,0.010544934720150195,-0.006378275460796431
1746576226719153400,2.0561533203125,-0.00677694678902626,0.0001943763612071052,-0.004123190010385588
1746576226729118500,2.066118408203125,-0.015157237121462821,-0.0023023403919301927,-0.008145011138683185
1746576226739083500,2.07608349609375,-0.01889817721545696,0.004772383767273277,-0.011600238759629428
1746576226749047600,2.086047607421875,-0.018448679882287978,0.0017398065717658027,-0.0007203136311843991
1746576226759012400,2.096012451171875,-0.00677694678902626,0.003140937507385388,0.003108231681026518
1746576226768976400,2.105976318359375,-0.019646949756145476,0.011800770866987295,0.00039793154271319504
1746576226778941700,2.115941650390625,-0.023537527453899382,-0.00029842582414858044,0.005780336967110633
1746576226788906500,2.125906494140625,-0.0208440505862236,-0.021374974558572284,-0.008794981213705614
1746576226798870500,2.13587060546875,-0.02054477537870407,0.0006553038372658193,-0.003734875679388642
1746576226808835600,2.145835693359375,-0.031767595660686494,0.000804996239952743,0.00436654291274026
1746576226818800400,2.15580029296875,-0.025482231780886648,0.0050962408602004865,-0.002817167179426178
1746576226828764400,2.165764404296875,-0.010668693530559539,-0.012995825870451517,-0.003553655627276748
1746576226838729700,2.175729736328125,-0.018149989196658133,-0.0032630477834027258,0.0015152451348491012
1746576226848693500,2.185693603515625,-0.02608078219592571,0.0004972728644963354,-0.002421327129099518
1746576226858658600,2.195658447265625,-0.015007014995813368,-0.0038038355626398694,-0.004860062050726264
1746576226868623600,2.20562353515625,-0.02682897021472454,0.011643201118521391,-0.0005004694685805588
1746576226878587400,2.21558740234375,-0.01799976707100868,0.008911670962511562,-0.0026161829809192567
1746576226888552400,2.225552490234375,-0.0045329672545194625,0.008609655808634124,0.005937052765628323
1746576226898517500,2.235517578125,-0.026827801170945166,0.0012696135104401035,-0.015563863427285104
1746576226908481500,2.2454814453125,-0.019047814819216725,-0.002687101925816387,-0.002941168018430471
1746576226918446600,2.255446533203125,-0.009321955096721648,0.00003259622850455344,-0.0076562503742054104
1746576226928410600,2.26541064453125,-0.005730652606487274,-0.002440616351459175,-0.011544855310581624
1746576226938375400,2.27537548828125,-0.019646949756145476,0.0034861616153270005,-0.007300651002721861
1746576226948340500,2.285340576171875,-0.013361585876345634,0.0034966875759186223,-0.005979394070012495
1746576226958304500,2.295304443359375,-0.013960136291384696,0.0039982804225059225,0.0048754148834850635
1746576226968269600,2.30526953125,-0.01904723029732704,0.000464548771828413,0.00847159447823651
1746576226978234600,2.315234619140625,-0.031767011138796805,-0.00008291534336749464,0.002502776601165533
1746576226988198400,2.325198486328125,-0.008723404681682586,0.003586548683303408,0.007766250087320804
1746576226998163500,2.33516357421875,-0.027128829944133757,-0.000006763100926764309,0.0007202040333300828
1746576227008128500,2.34512841796875,-0.019946224963665007,0.001578880389011465,0.0005350567247718572
1746576227018092500,2.355092529296875,-0.0066296472728252405,0.009340381235978565,0.0038305089404340833
1746576227028057600,2.3650576171875,-0.026980945906043052,0.0006285254281945526,-0.005219141154084355
1746576227038021600,2.375021728515625,-0.00019464578926563263,-0.0016993969295639544,-0.011118592722527682
1746576227047986400,2.384986328125,-0.023538111975789068,-0.002909265909669921,0.005943793033668771
1746576227057951500,2.394951416015625,-0.0009428338080644607,-0.0008998303499771281,-0.006259891511825844
1746576227067915500,2.40491552734375,-0.005431377398967743,0.003992252540518529,-0.002219292617822066
1746576227077880600,2.414880615234375,-0.007077391040325165,-0.00017427885467186568,-0.001645812711957842
1746576227087845600,2.424845703125,-0.01560731897652149,0.004624504295759834,0.004242067149700597
1746576227097809700,2.4348095703125,-0.0028881226569414135,-0.0039190548735670745,0.007533382046362384
1746576227107774500,2.4447744140625,-0.016953472888469694,0.00008565072314813733,0.006024310923973098
1746576227117739500,2.454739501953125,-0.029223756396770474,-0.003689406269579194,0.01860587060484104
1746576227127703600,2.46470361328125,-0.022190789020061493,-0.0012578774068737401,0.017805733203096315
1746576227137668600,2.474668701171875,-0.02204056689441204,-0.003957948412117548,-0.0013891254039946942
1746576227147632600,2.484632568359375,-0.021740707165002822,-0.008613455200917088,0.0014316128388512878
1746576227157597400,2.494597412109375,-0.015157821643352507,0.0011224692578660324,0.006465990276867523
1746576227167562500,2.5045625,-0.012314707171916961,0.005164150430681184,-0.00415648949178867
1746576227177526500,2.514526611328125,-0.030719547912478447,0.004431456808536313,-0.002733617081819102
1746576227187491300,2.5244912109375,-0.017850129467248916,-0.0009710643887054175,-0.002940546963922679
1746576227197456600,2.53445654296875,-0.02129062530994415,-0.001780421709944494,0.007495607319241389
1746576227207420700,2.544420654296875,-0.001838321343064308,-0.00287211680363398,0.001548498950479552
1746576227217385500,2.554385498046875,-0.01799801350533962,0.003982475498598068,-0.005687315788259729
1746576227227349500,2.564349609375,-0.027125907334685322,-0.0018426824243506416,-0.0006319686274509877
1746576227237314600,2.574314453125,-0.015004676908254622,0.0018355265977792442,0.002202551545575261
1746576227247279400,2.584279296875,-0.011861702707409858,-0.0003299032412236556,0.009513066355185583
1746576227257243600,2.59424365234375,-0.020689736807346343,-0.0038907923268852755,0.009454732897225766
1746576227267208700,2.604208740234375,-0.015302198550105095,0.004861815616395324,-0.0023444990332238376
1746576227277173500,2.614173583984375,-0.019042554122209548,0.011723180152708663,-0.007433392270607873
1746576227287137500,2.624137451171875,-0.022334581404924392,0.012958457568706944,0.005071649841638282
1746576227297102300,2.634102294921875,-0.00692249273955822,0.002577188977668993,-0.0026766627301927654
1746576227307067600,2.644067626953125,-0.018294950625300406,-0.00007223868572618812,-0.013923147015552967
1746576227317031700,2.65403173828125,-0.031163784548640248,-0.011304379351902753,0.004341326273093
1746576227326996500,2.66399658203125,-0.022035890719294546,-0.00023263057894073425,0.015371208665706217
1746576227336960500,2.67396044921875,-0.010662848311662674,-0.0029642657662276176,0.018804489316325633
1746576227346925600,2.683925537109375,-0.0069219082176685326,-0.013325222221598959,-0.01784117897581309
1746576227356890400,2.693890380859375,-0.004826981765031814,-0.010870664109755308,-0.014945914192032068
1746576227366854400,2.7038544921875,-0.01395429107248783,-0.0022335038062650707,-0.005534947371296584
1746576227376819700,2.71381982421875,-0.004825812721252441,0.0028470462944591417,0.01179944199300371
1746576227386784500,2.723784423828125,-0.01111000755727291,0.0038466654907912015,-0.0020030195186380296
1746576227396748500,2.73374853515625,-0.022631518524885177,0.001175048828474246,0.006320800519362092
1746576227406713600,2.743713623046875,-0.014849194085597992,-0.007153949708142317,0.0014737349475268274
1746576227416677400,2.753677490234375,-0.02756780588328838,0.008257723398692905,-0.008029020076198504
1746576227426642400,2.763642333984375,-0.004224924218654632,0.017870784096210263,-0.008451793799223378
1746576227436607500,2.773607421875,-0.02023673234283924,-0.003057136248028837,0.004473062893981114
1746576227446571500,2.783571533203125,-0.030411504876613614,0.0026766627301927654,0.001351487674191594
1746576227456536600,2.79353662109375,-0.020685645154118536,-0.006259891511825844,-0.0047911067340523006
1746576227466501400,2.80350146484375,-0.010509703576564788,0.002567306904471479,-0.0081334759645164
1746576227476465400,2.81346533203125,-0.019188100072741507,-0.005863361908332444,-0.006652626289613545
1746576227486430500,2.823430419921875,-0.012303601256012917,-0.0012501461915671824,0.0042085210731253025
1746576227496395500,2.8333955078125,-0.0025771570116281508,-0.0016869849725626408,0.017375178032414985
1746576227506359600,2.843359619140625,-0.01604395682811737,-0.012817838955041952,-0.0018061178402043877
1746576227516324600,2.85332470703125,-0.03145604549348354,-0.0035202693809056654,-0.015955036435648797
1746576227526288400,2.863288330078125,-0.00511865818798542,-0.0028307116475887596,-0.016030686354590578
1746576227536253200,2.873253173828125,-0.019932780960202217,0.0035833566457964478,-0.008105601576901971
1746576227546218200,2.88321826171875,-0.030406244179606436,0.008331272692093624,-0.00007351276078261435
1746576227556182300,2.893182373046875,-0.011702128231525421,0.0035534912304952737,-0.004663836225727573
1746576227566147000,2.90314697265625,-0.019332476979494095,-0.004385905200336129,-0.00834933807174675
1746576227576112000,2.913112060546875,-0.006911971345543861,0.001501655000913888,-0.01802759579285048
1746576227586076000,2.923075927734375,-0.015292846199870109,0.0042442591067869215,-0.006001414105575531
1746576227596041200,2.933041259765625,-0.025319150173664092,0.005644928818102925,0.009427461297810077
1746576227606005200,2.943005126953125,-0.016789806759357453,-0.004350390928960405,0.007945241649728268
1746576227615970000,2.952969970703125,0.004907645785808563,-0.010244769030064344,0.00869048879276961
1746576227625935000,2.96293505859375,-0.009606617256999015,-0.010906950132688506,0.002088414513459429
1746576227635899100,2.972899169921875,-0.029658640682697295,-0.010895446924562565,-0.004446339283837006
1746576227645864200,2.9828642578125,-0.007662497451901435,-0.0032724731988739222,0.002975070288032293
1746576227655829200,2.992829345703125,-0.0108054716527462,0.002964877687580883,-0.007140071879839525
1746576227665793300,3.002793212890625,-0.017538579300045966,0.002880318376398645,-0.0072914356498047705
1746576227675758000,3.012758056640625,-0.020381109249591828,0.002587797136651352,-0.0010664145219605415
1746576227685722000,3.02272216796875,-0.020379940205812453,-0.004297258802503347,-0.003085508392564952
1746576227695687200,3.032687255859375,-0.018284429231286047,0.01300320545930881,0.0018493359274230896
1746576227705652200,3.04265234375,-0.010203998628258704,0.004188592529948801,-0.0077876856009941545
1746576227715616300,3.0526162109375,-0.022324060010910033,-0.004463290418637916,-0.007973664026614279
1746576227725581000,3.0625810546875,-0.013794132074713706,0.0019748300371924413,0.008552167167467995
1746576227735546000,3.072546142578125,-0.009154197314381598,-0.003488349005836062,0.0076099635470658535
1746576227745510100,3.08251025390625,-0.007209492987394333,-0.007524413288617506,-0.004334996997006237
1746576227755475000,3.092474853515625,-0.002869417956471443,-0.008227387625933624,0.015197313403524457
1746576227765440300,3.102440185546875,-0.004964344409108161,-0.0010511575873242691,0.0011612897311802954
1746576227775404300,3.112404296875,-0.023069909942150114,-0.011366804463090375,0.002898507053637877
1746576227785369000,3.122369140625,-0.01319441261589527,-0.0031363663635449483,0.0026177995492704213
1746576227795333000,3.1323330078125,-0.017085574835538863,-0.004633043795241974,0.006740998692810535
1746576227805298200,3.142298095703125,-0.014542320093512534,0.0035603867621626702,-0.005762646046793088
1746576227815263000,3.152262939453125,-0.017235796961188314,0.0017207685111556201,-0.010076189263816922
1746576227825227000,3.16222705078125,-0.014393267011642456,0.001136904208594933,-0.017379991204850374
1746576227835192300,3.1721923828125,-0.010801379999518393,-0.003242036961414851,-0.006001423238730058
1746576227845157000,3.1821572265625,-0.026963410249352452,0.008359128813399001,0.01678678368520923
1746576227855121200,3.19212109375,-0.01738601908683777,0.004260022931499407,0.002137185558630153
1746576227865086000,3.2020859375,-0.013344634741544723,-0.0004429716942599043,-0.0043659675240051
1746576227875050000,3.212050048828125,-0.01080021095573902,0.001480141855427064,-0.0050531004047952586
1746576227885015300,3.222015380859375,-0.023968320086598396,0.00034823804893530905,0.0013658723925706
1746576227894980000,3.23197998046875,-0.020377602118253707,0.0029595758913783356,-0.001465679505234584
1746576227904944000,3.241944091796875,-0.019031448206305503,-0.0013410347788361831,0.016945627508731558
1746576227914909200,3.2519091796875,-0.026213468664884564,-0.008384697079495526,0.00614485943056643
1746576227924874000,3.2618740234375,-0.01319441261589527,-0.004705410345131531,0.0011901048337109386
1746576227934838000,3.271838134765625,-0.0286082548469305,-0.0139750050669536,0.0119112774701789
1746576227944803300,3.28180322265625,-0.03145136931836605,0.0023307993014343082,0.0014550759128294883
1746576227954767000,3.29176708984375,-0.01573942092359066,0.005056904363655485,-0.016012620974937452
1746576227964732200,3.301732177734375,-0.01813362258374691,0.017914705436327494,0.01815140483560972
1746576227974697200,3.311697265625,-0.023071663507819175,0.008872339032543823,0.006665019980305806
1746576227984661000,3.321660888671875,-0.02411971125602722,0.014601767796324565,-0.0016706731585785747
1746576227994626000,3.3316259765625,-0.020827683973312378,0.010138157717278226,0.009226294436212628
1746576228004591000,3.341591064453125,-0.01394435420036316,-0.001723175097373314,0.007575303225638344
1746576228014555100,3.35155517578125,-0.01933130793571472,0.0031249316540779546,-0.015044305665744467
1746576228024520200,3.361520263671875,-0.007359715113043785,-0.02230608596280217,-0.017328936871048063
1746576228034484200,3.371484130859375,-0.0037689971446990965,-0.013369138995138927,0.001416890193754807
1746576228044449000,3.381448974609375,-0.018732172998785972,-0.0036647695852443573,0.017551183053292334
1746576228054414000,3.3914140625,-0.01992868930697441,-0.013276259380183182,-0.005640480971848592
1746576228064378000,3.401378173828125,-0.01932955437004566,-0.014004112430429086,-0.014013126853946595
1746576228074343200,3.41134326171875,-0.009901216289401054,0.0002932884247275069,0.006283455050503835
1746576228084308200,3.42130810546875,-0.015887304961681364,-0.004531199989118613,0.016956203701673073
1746576228094272300,3.431272216796875,-0.02217208431959152,-0.003793853024742566,-0.026990197791578248
1746576228104237000,3.441237060546875,0.0002712181568145752,0.016642064285161903,-0.02343243224476464
1746576228114201000,3.451201171875,-0.01618950277864933,0.004735193562041968,-0.003920625776145607
1746576228124166100,3.461166259765625,-0.01648877798616886,0.013284419853752479,-0.0022876634126063433
1746576228134131200,3.471131103515625,-0.01574117448925972,0.00876638074030634,0.003617843437287956
1746576228144095200,3.48109521484375,-0.030406828701496122,-0.0009755533341551199,-0.007676818238198757
1746576228154060000,3.49106005859375,-0.022027122890949248,-0.004862591934530064,0.004892621746612712
1746576228164025000,3.501025146484375,-0.012149871999025345,-0.012831132261455058,0.0016833225775975734
1746576228173989000,3.510989013671875,-0.022325229054689404,-0.01005265312460251,0.004253383128158748
1746576228183954200,3.5209541015625,-0.016490531551837922,-0.006935347654554061,-0.006665714100049808
1746576228193919200,3.530919189453125,-0.018885317733883855,-0.00951094746333547,-0.0019450148542411625
1746576228203883300,3.54088330078125,-0.01095452473461628,-0.01031356908311136,-0.005056424873042851
1746576228213848000,3.55084814453125,-0.0265168355256319,-0.0029591146670747545,0.005526499203359708
1746576228223812000,3.56081201171875,-0.009606617256999015,0.004124902476859278,-0.012528532585687934
1746576228233777200,3.570777099609375,-0.01768704786002636,0.011734363700426183,-0.003708042471390217
1746576228243742200,3.5807421875,-0.03085574151277542,0.014713114649732597,0.00008295644256286322
1746576228253706200,3.590706298828125,-0.01693944436311722,0.031745721755595875,0.006094069958245381
1746576228263671000,3.600671142578125,-0.004371054691076279,0.018451853653485884,-0.004447234332980588
1746576228273636000,3.610635986328125,-0.016342062991857528,0.008131288574007339,-0.01804581643613055
1746576228283600100,3.62060009765625,-0.030108722537755966,-0.00503569261226803,-0.0014235208639409391
1746576228293565000,3.63056494140625,-0.020232640689611434,0.00006556234976742416,0.007963033034745604
1746576228303529000,3.640529052734375,-0.010205752193927765,-0.008791442116326651,0.00924602204998955
1746576228313494300,3.650494384765625,-0.015292846199870109,-0.029007378266309385,-0.0038479349992703643
1746576228323459000,3.660458984375,0.0020657003581523894,-0.027860254057799464,0.011118684054072946
1746576228333423000,3.670423095703125,-0.009756254860758781,-0.011873603207757696,0.01865905296364799
1746576228343388200,3.68038818359375,-0.018435235878825187,-0.004818419432663358,0.00846541133262217
1746576228353353000,3.69035302734375,-0.023822189614176748,-0.00678170516253449,-0.009471382637927309
1746576228363317200,3.700317138671875,-0.030406244179606436,-0.0036997723999666046,0.006296141002140939
1746576228373282300,3.7102822265625,-0.017687632381916046,0.013234196637012063,0.007373716238932683
1746576228383246000,3.72024609375,-0.02053133137524128,0.010435145069588906,-0.00444988294779323
1746576228393211100,3.730211181640625,-0.013349310916662216,-0.0017134482878027482,0.008826380998967214
1746576228403176200,3.74017626953125,-0.016492869639396668,-0.002703952595917508,-0.004152014246070757
1746576228413140000,3.750139892578125,-0.008112579306960105,0.0016038413003319873,0.0022536150125321
1746576228423105300,3.760105224609375,-0.006017652854323386,-0.0026981758756795897,0.0017831388234160839
1746576228433070000,3.770070068359375,-0.009610124388337134,0.0024326202746713533,0.0015462065286934374
1746576228443034000,3.7800341796875,-0.012153963652253151,-0.014160330472025088,0.013992175397463141
1746576228452999200,3.789999267578125,-0.010357727885246276,-0.00798109841439873,0.009059568700334057
1746576228462963200,3.799963134765625,-0.015295184287428855,-0.005970443578576669,0.00664665320655331
1746576228472928000,3.809927978515625,-0.017090251010656355,-0.010347535284794866,0.005747759004915132
1746576228482893300,3.819893310546875,-0.006167290458083153,-0.006879050890053622,0.009360624872986226
1746576228492857300,3.829857421875,-0.010506196445226669,-0.004093297195620835,0.0039810141938738525
1746576228502822100,3.839822265625,-0.014696633872389793,-0.00436847000834532,0.010004201739840209
1746576228512787200,3.849787109375,-0.02621814484000206,-0.0026460757956840095,-0.0021399072386790066
1746576228522751000,3.8597509765625,-0.02576923202872276,-0.003813649137178436,-0.008471978070726617
1746576228532717000,3.869717041015625,-0.019334230545163155,0.010099551873095332,-0.0025184034285601225
1746576228542681000,3.87968115234375,-0.01843640492260456,-0.003131028034724295,0.010102401417307555
1746576228552646000,3.88964599609375,-0.019783727878332137,0.0022450115809682755,-0.00019433526201173662
1746576228562611200,3.899611083984375,-0.011403437545895576,0.0007161763121839612,0.0002543218209408223
1746576228572575000,3.909574951171875,-0.016491116073727607,0.001124300455348566,0.01822530118888244
1746576228582540000,3.9195400390625,-0.019783727878332137,-0.0035026515258243305,0.011252210773248224
1746576228592505000,3.929505126953125,-0.009608955344557761,-0.002215260330098681,-0.022509362583095206
1746576228602468900,3.93946875,-0.004221417087316512,-0.004841996671073138,0.001289108228776604
1746576228612434000,3.949433837890625,-0.006465981143712997,-0.015155346558475866,-0.007055124409589916
1746576228622398000,3.95939794921875,-0.02128068843781948,0.0020763952821027487,-0.016940878268377854
1746576228632363000,3.969363037109375,-0.031306992411613464,-0.00013187818478327244,-0.007772077039908618
1746576228642328000,3.979328125,-0.01739069526195526,-0.0020663259792374445,0.0024318667894229293
1746576228652292000,3.9892919921875,-0.004821721068024635,-0.0021363590081455185,-0.005688393500493839
1746576228662257000,3.9992568359375,-0.013051789274811744,0.003417151499725878,-0.011653430251590907
1746576228672221000,4.009220947265625,-0.021431495085358618,0.0021672793027944864,-0.011051043911650776
1746576228682186200,4.019186279296875,-0.019934534525871277,-0.00492082492779009,-0.0020807426636572928
1746576228692151000,4.029151123046875,-0.015893734702467917,-0.004053307678527199,-0.006732349595474079
1746576228702115000,4.039114990234375,-0.01544482189118862,-0.013684712316910735,-0.005338767212070525
1746576228712080100,4.049080078125,-0.01125555350780487,-0.0040783142556203526,-0.0008164126831106841
1746576228722045000,4.059044921875,-0.004223755174875259,-0.022446129187732002,-0.002408933438407257
1746576228732009000,4.069009033203125,-0.019188100072741507,-0.012645003138785249,0.012266685045417397
1746576228741974000,4.07897412109375,-0.012753098589181899,-0.0023358545024646446,0.013442131166113539
1746576228751939000,4.08893896484375,-0.010209843847155571,-0.00012695541449356823,-0.0096689601697959
1746576228761903000,4.098903076171875,-0.026969839990139004,0.010941130963503383,0.00011873100884258747
1746576228771868000,4.108867919921875,-0.01245499242544174,0.012557470985804684,-0.0013761654577217996
1746576228781832000,4.11883203125,-0.012006079614162444,-0.0006424123896518722,-0.0037414150180295107
1746576228791797000,4.128796875,-0.0054214405268430705,0.003329929873999208,-0.007942994893714785
1746576228801762000,4.138761962890625,-0.0182908589720726,0.010643426658562384,0.009142470343969762
1746576228811726000,4.14872607421875,-0.02068506063222885,0.01983982828001026,0.010340292693255468
1746576228821691100,4.158691162109375,-0.03609773381948471,0.006998192890849895,-0.005544555449858307
1746576228831656000,4.168656005859375,-0.017992752808332443,-0.0008053980987519025,-0.0033567996146157382
1746576228841620000,4.178619873046875,-0.02008767926096916,0.0022361524210777134,0.00947794024287723
1746576228851585000,4.1885849609375,-0.003776595929265022,-0.002278539391234517,0.00781316710212268
1746576228861548800,4.198548828125,-0.013503040173649786,0.002157283065165393,0.0015743092451710253
1746576228871514000,4.20851416015625,-0.01365326229929924,-0.007362327195238321,0.0008259294301271438
1746576228881479000,4.21847900390625,-0.014998831689357757,-0.016066707516042514,-0.007801841990510002
1746576228891443000,4.22844287109375,-0.021882161462306975,-0.013410064660571515,0.004190017302054911
1746576228901408000,4.238407958984375,-0.005721884778141975,-0.00010361107152421027,0.003949778805393726
1746576228911372800,4.248372802734375,-0.01500000073313713,-0.01305966205401346,0.006513510079868137
1746576228921337000,4.258337158203125,-0.008865443500876426,-0.00018226123172789812,-0.00016228702277876436
1746576228931302100,4.26830224609375,-0.005123918884992599,-0.0032724868986057118,0.01023576373970136
1746576228941266200,4.27826611328125,-0.013204934009909628,0.0008085444704862312,0.0006725563661660999
1746576228951231000,4.28823095703125,-0.01949088241159916,0.008327464166656137,-0.01241582945883274
1746576228961196000,4.298196044921875,-0.020987842971086502,0.009908294484158977,0.0009906093393918125
1746576228971159800,4.308159912109375,-0.005126256972551346,-0.001713128627394326,-0.002754340209439397
1746576228981125000,4.318125,-0.007221183425188064,-0.0047404816585127265,-0.002305737925413996
1746576228991089200,4.328089111328125,-0.010364742147922516,-0.014859793111425823,0.005441040276456624
1746576229001054000,4.338053955078125,-0.014554595053195953,-0.007554141706600785,0.009632884209416806
1746576229011019000,4.34801904296875,-0.020090601870417595,-0.011820023556728846,0.010523448974126949
1746576229020983000,4.357983154296875,-0.02024023947417736,-0.02333228720538318,-0.0048836438557133075
1746576229030947800,4.36794775390625,-0.01754676260650158,0.0017997702978085725,0.014718452978553249
1746576229040913200,4.3779130859375,-0.009766191732883452,-0.0069254655813565475,0.004586953330924734
1746576229050877200,4.387877197265625,-0.007371405550837516,-0.0014097982992650941,0.0105437063108664
1746576229060842000,4.397842041015625,-0.004827566286921501,0.002281156040006317,0.0012865326792001724
1746576229070806000,4.407805908203125,-0.024430092379450798,0.0019976537903537974,-0.00406829061852768
1746576229080771000,4.41777099609375,0.003252279794216156,0.009258004748728127,-0.002596829826477915
1746576229090735900,4.42773583984375,-0.021437340304255485,0.021236835596361196,0.004681289684027433
1746576229100700000,4.437699951171875,-0.020689736807346343,0.014843120537837966,-0.009184683784190564
1746576229110665000,4.4476650390625,-0.015153729990124702,-0.00024672303637489676,-0.004543433849606662
1746576229120630000,4.457630126953125,-0.00542670122385025,0.0012391772729810327,0.000947500850027427
1746576229130594000,4.467593994140625,-0.008121347135305405,-0.011827234182227402,-0.005748571855667978
1746576229140558800,4.477558837890625,-0.012610475248098373,-0.007669561946927569,0.0032669750398490577
1746576229150523000,4.48752294921875,-0.01769698473215103,-0.015230535253114066,0.0202859326462727
1746576229160488200,4.49748828125,-0.01964285810291767,-0.017311081553949042,0.019546366325346752
1746576229170453000,4.507452880859375,-0.01829553514719009,-0.013245900774537585,-0.003545910712238401
1746576229180417000,4.5174169921875,-0.006324526846408844,-0.0029377887512557206,0.0028836656775325536
1746576229190382000,4.527382080078125,-0.02069032132923603,-0.013785848303558303,-0.011470821959991008
1746576229200347000,4.537346923828125,-0.020240823996067046,-0.003205755505058914,0.0005066160815767944
1746576229210311000,4.547310791015625,-0.03191255708932876,-0.002486291257245466,-0.005642024474963546
1746576229220276200,4.557276123046875,-0.016200608694553375,0.009210430146800353,-0.004271348043112084
1746576229230240000,4.567239990234375,-0.015452420675754546,0.009630737918103113,-0.011159618852660058
1746576229240205000,4.577205078125,-0.00737082102894783,0.0006009250352159143,-0.02349308552397415
1746576229250170000,4.587170166015625,-0.01590016444325447,-0.00284951681275852,0.004935867233294994
1746576229260134000,4.5971337890625,-0.019941548788547515,-0.0047126118374755605,0.012440114516718313
1746576229270099000,4.607098876953125,-0.01680032815337181,0.0028285973223159087,0.013754000993724912
1746576229280064000,4.61706396484375,-0.019794249272346496,-0.008985795644647441,0.00204278527344577
1746576229290028000,4.627028076171875,-0.016950550279021263,-0.005148450538050383,-0.008197572442982345
1746576229299993000,4.6369931640625,-0.004380407041311264,-0.004186222476349212,0.004999872380215675
1746576229309957000,4.64695703125,-0.020990765580534934,-0.0046745494159869845,0.0007018463927321135
1746576229319922000,4.656921875,-0.020243162083625792,-0.014664019377576186,0.016911359912948683
1746576229329887000,4.666886962890625,-0.019195698857307434,-0.00379906348939985,0.010722277748165652
1746576229339851000,4.67685107421875,-0.038948447075486184,-0.015285398112353868,-0.0006103321843780576
1746576229349816000,4.686816162109375,-0.007075637474656104,-0.005456050615920685,-0.004040827222866937
1746576229359781000,4.696781005859375,-0.02488251232206821,-0.0030456924054073167,0.005089313362492248
1746576229369745000,4.706744873046875,-0.015007599517703056,0.011024617129028774,0.011049025484500452
1746576229379710000,4.7167099609375,-0.025931729114055634,0.01916051794607192,0.002389936476992443
1746576229389674000,4.726674072265625,-0.024734628283977506,0.006046609520749188,-0.009171029718173667
1746576229399639000,4.73663916015625,-0.022041735938191413,0.00012533884614240377,-0.012919111939007416
1746576229409604000,4.74660400390625,-0.020844635108113286,0.000547861407417804,0.009862080722255633
1746576229419568000,4.756568115234375,-0.0048334115058183665,0.0076997972549870605,0.0022203155311290176
1746576229429533000,4.766532958984375,-0.02593231363594532,-0.013650956177781335,-0.01692767172693275
1746576229439498000,4.776498046875,-0.02039630681872368,-0.01604686117125675,-0.0067359389252029354
1746576229449462000,4.7864619140625,-0.0037859482795000073,-0.018484194153663702,-0.0008869480355177074
1746576229459427000,4.796427001953125,-0.01141629702746868,0.0036186973872361704,0.010097177252918482
1746576229469391000,4.80639111328125,-0.018299626800417898,0.0018657208066433667,0.006169710744032636
1746576229479356200,4.816356201171875,-0.006179565417766571,-0.004530816396628506,0.00546055782767944
1746576229489321000,4.826321044921875,-0.015456512328982352,0.0015844516132725401,0.008125831514177843
1746576229499285000,4.836284912109375,-0.01036883380115032,0.007131852040765807,0.00024297844301909206
1746576229509250000,4.84625,-0.013660861083865165,-0.0030889561583986504,-0.003469539274089038
1746576229519213800,4.8562138671875,-0.009919920989871024,0.006541594530036673,-0.011729655559267848
1746576229529179100,4.86617919921875,-0.03191606422066688,0.008992202552547677,-0.005343278990406542
1746576229539143400,4.876143310546875,-0.019496143108606336,0.0076456467818003145,-0.004002285310765728
1746576229549107200,4.886107177734375,-0.012463175731897353,-0.010782734664552844,0.008543454138049855
1746576229559072300,4.896072265625,-0.018448095360398292,-0.0028774322995683177,-0.0062973922443110494
1746576229569037300,4.906037353515625,-0.0033346973806619644,-0.007535939329629764,0.0005871339718811214
1746576229579001000,4.9160009765625,-0.014857377392053603,-0.002457197593501769,0.0017040091725997626
1746576229588966100,4.925966064453125,-0.014707739788293837,0.0026154477619798853,0.003074868267541751
1746576229598930200,4.93593017578125,-0.01605389370024204,-0.004250647748378105,0.014545443632360548
1746576229608895200,4.945895263671875,-0.016054478222131727,-0.002336744985030964,0.015336603143205865
1746576229618860300,4.9558603515625,-0.020692659416794774,-0.0028915384567342697,-0.010372971120150759
1746576229628824300,4.96582421875,-0.016652444115281103,-0.0007843050783732905,-0.006494065593881532
1746576229638789000,4.9757890625,-0.01725041000843048,0.005617771383118815,-0.0065163048251532015
1746576229648754200,4.985754150390625,-0.0045317982107400895,-0.004236769920075312,0.00800821475018747
1746576229658718200,4.99571826171875,-0.022936638951301574,0.0014962573065888136,0.0028122626754455266
1746576229668683300,5.005683349609375,-0.028623452416062352,-0.0034629405699437483,-0.0035825711945071813
1746576229678647300,5.015647216796875,-0.020241993039846418,-0.0035072409359738228,0.004834242622880265
1746576229688612000,5.025612060546875,-0.015004676908254622,0.0019990328966872765,0.010556556659284979
1746576229698577200,5.0355771484375,-0.016650690549612043,0.0012994971920503302,0.006778545091068372
1746576229708541200,5.045541259765625,-0.01575286492705345,-0.008668509856401942,0.010183695625746622
1746576229718506200,5.05550634765625,-0.009917582902312278,-0.009983528844569808,0.00779332989049144
1746576229728471300,5.06547119140625,-0.02473229019641876,-0.0001051363083301112,0.006206097231665626
1746576229738435300,5.075435302734375,-0.004679682248830795,-0.004803358860849403,0.013037495887978002
1746576229748400000,5.085400146484375,-0.010964461606740951,-0.0055516747438115995,-0.0031552400273736564
1746576229758364200,5.0953642578125,-0.034308512315154076,-0.00010378460146021098,-0.004192236658604815
1746576229768329200,5.1053291015625,-0.0048310734182596205,0.001894718572264537,0.015491811971226706
1746576229778294300,5.115294189453125,-0.015154899033904075,0.0028083810847718267,-0.005085513970209285
1746576229788258300,5.12525830078125,-0.005727729997038841,-0.0015060297819320112,-0.005401320187421515
1746576229798223400,5.135223388671875,-0.008869535154104232,0.002497292141872458,-0.0006586191723588853
1746576229808188200,5.145188232421875,-0.029519524472951888,-0.003214075808832422,0.0016099468141328544
1746576229818152200,5.155152099609375,-0.01680032815337181,0.004812939539947546,0.0034415461554657668
1746576229828117200,5.1651171875,-0.010066635984182358,-0.015429350327420979,0.010498962986841796
1746576229838081000,5.1750810546875,-0.012610475248098373,-0.007850686100916937,-0.01209729242841713
1746576229848046300,5.18504638671875,-0.005726560953259467,-0.009927574573364108,0.0005537796915508806
1746576229858011100,5.19501123046875,-0.005426116701960563,-0.0009908194019459188,0.003210303816013038
1746576229867975200,5.20497509765625,-0.004229015871882439,-0.0052147618064889685,0.005019682192383333
1746576229877940200,5.214940185546875,-0.014853285738825796,-0.007968348530679941,0.000552857242943719
1746576229887905000,5.224905029296875,-0.013058219015598296,-0.002641189558012411,-0.004987633953150362
1746576229897869000,5.234869140625,-0.01590191800892353,0.003077430117386393,0.004317022948898375
1746576229907834400,5.24483447265625,-0.01605272465646267,0.001956942754052579,0.008253960539028047
1746576229917798400,5.25479833984375,-0.022337504014372823,-0.0038326597983250393,0.0018368874378036706
1746576229927763200,5.26476318359375,-0.020094109001755713,-0.004672878048708662,-0.001553567851241678
1746576229937728300,5.274728271484375,-0.010068389549851417,-0.0001846678179455921,-0.0009556750233285129
1746576229947692000,5.284692138671875,-0.0036339725881814953,0.00047695616225246337,0.0014106339829042553
1746576229957657300,5.2946572265625,-0.004681435814499855,-0.0021615436817519367,-0.015570128771290182
1746576229967622400,5.304622314453125,-0.01485620834827423,-0.008288675659382716,0.008609231116948649
1746576229977586200,5.314586181640625,-0.020542437291145323,-0.003968405874050222,0.00011642032074742019
1746576229987551200,5.32455126953125,-0.018747370567917823,-0.00544698596005328,0.003883125043660402
1746576229997515300,5.334515380859375,-0.017250994530320165,-0.0008523699124809354,-0.0017166037926916033
1746576230007480000,5.34447998046875,-0.009020926323533058,0.0018870238895760847,-0.003543846619315445
1746576230017445400,5.3544453125,-0.013209610185027122,-0.0039782559812068935,0.010313441218947991
1746576230027409400,5.364409423828125,-0.013508300870656966,0.010809558739396742,0.008785857192333787
1746576230037374200,5.374374267578125,-0.019942717832326887,-0.0008825001892633736,0.005811115697864443
1746576230047338200,5.384338134765625,0.003250526228547096,-0.0005705161972204223,0.009573189911432564
1746576230057303300,5.39430322265625,-0.009168225839734078,-0.002561731113633141,0.00727320587337017
1746576230067268000,5.40426806640625,-0.024133155259490013,-0.0012874368614982812,0.009838919042376802
1746576230077232000,5.414232177734375,0.001454290461540222,0.0020415568641619754,-0.00011857574521563946
1746576230087197200,5.424197265625,-0.013359832310676573,-0.00024103308110497891,-0.0010111589370761067
1746576230097162200,5.434162353515625,-0.01739946309030056,0.00367245056820102,-0.0019953842014539987
1746576230107126300,5.444126220703125,-0.01784779137969017,-0.002069385586003773,0.0005631685744039714
1746576230117091000,5.454091064453125,-0.017099603360891343,0.0027433347582351414,0.0003989179234020412
1746576230127055000,5.46405517578125,-0.021290040788054465,-0.00401821809883695,0.010082609871448949
1746576230137020200,5.474020263671875,-0.01126432133615017,-0.0017038950081681831,-0.006434499160060659
1746576230146985200,5.483985107421875,-0.00497837293446064,0.0034727541444823143,-0.0015407357691321522
1746576230156949200,5.49394921875,-0.024430676901340483,0.002055676721059717,-0.0012605488545726984
1746576230166914300,5.503914306640625,-0.014405541971325873,-0.001685126375616528,0.0061161995916627345
1746576230176879000,5.513879150390625,-0.014704232656955718,0.002942008268646896,-0.007102452416345477
1746576230186843100,5.523843017578125,-0.031463644278049464,-0.003314083850895986,0.005004557688487694
1746576230196808400,5.533808349609375,-0.01649929938018322,-0.0025130696663167324,-0.0010617474799975751
1746576230206772200,5.543772216796875,-0.013206687575578689,0.009285002353508025,-0.0111165194964502
1746576230216737300,5.5537373046875,-0.018743278914690017,0.012114453625772148,0.0019188666328322141
1746576230226702300,5.563702392578125,-0.007670680758357047,-0.00452962908654008,0.010327972067799418
1746576230236666000,5.573666015625,-0.0144043729275465,0.0038516567597398532,0.008988604089664294
1746576230246631200,5.583631103515625,-0.004078793746232986,0.0037380448840092866,-0.006490293601062148
1746576230256596200,5.59359619140625,-0.0239811795681715,0.009348847670224494,0.010283329208474606
1746576230266560300,5.603560302734375,-0.01500350786447525,-0.0036855246789054942,-0.004870492113195359
1746576230276525300,5.613525390625,-0.019044307687878608,-0.011574140770570375,-0.015489820943539961
1746576230286489300,5.6234892578125,-0.01724865644276142,-0.0014142963778693229,-0.010081358629278838
1746576230296454100,5.6334541015625,-0.02173778455555439,-0.0018826171425171195,-0.006619527737610042
1746576230306419200,5.643419189453125,-0.01664952150583267,0.0019522894118214026,0.011151316815195605
1746576230316383200,5.65338330078125,-0.013506547304987907,0.00031277400990948077,0.014411469388613476
1746576230326348300,5.663348388671875,-0.009018003714084625,-0.004623412883793935,-0.0058905741422437125
1746576230336313300,5.673313232421875,-0.012609890726208686,-0.0022189729574136436,0.010904191920021547
1746576230346277000,5.683277099609375,-0.011712065103650093,0.00005953446778003126,-0.01065489333407022
1746576230356242200,5.6932421875,-0.02069032132923603,-0.0038251112461090086,-0.0019904979637823997
1746576230366206200,5.703206298828125,-0.01934358289539814,0.002219173886813223,-0.007396503459475934
1746576230376171000,5.7131708984375,-0.00871931302845478,-0.00020975659342948347,0.006823334080865606
1746576230386136300,5.72313623046875,-0.013059972581267357,-0.006015022505819798,-0.0017411902446765452
1746576230396100400,5.733100341796875,-0.017100187882781028,-0.003425796030485071,0.008692288024211303
1746576230406065200,5.743065185546875,-0.009020926323533058,-0.002872002639202401,0.0011211951828096062
1746576230416030200,5.7530302734375,-0.0037841947138309477,-0.0017254949186230077,-0.004871323230257257
1746576230425994200,5.762994140625,-0.00827449187040329,-0.0037301766713848336,-0.0005152286462951452
1746576230435959300,5.772959228515625,-0.01710311049222946,0.0018611405296484007,-0.014910879411268979
1746576230445923300,5.78292333984375,-0.014259996020793914,-0.013152610167628153,0.0024723083976656195
1746576230455888400,5.792888427734375,-0.0063292030215263365,-0.002876943675801158,0.016116538007138297
1746576230465853200,5.802853271484375,-0.021442601001262662,-0.000768194193788804,-0.0012140976306516677
1746576230475817200,5.812817138671875,-0.01590659418404102,0.004053714103903621,-0.006297428776929155
1746576230485782300,5.8227822265625,-0.008724573725461959,0.002017395103862509,-0.016146138560958204
1746576230495746000,5.83274609375,-0.01905073742866516,0.0005991303703514858,-0.003486207281099632
1746576230505711400,5.84271142578125,-0.018752046743035315,0.0006603681714506819,-0.0066375291851814835
1746576230515676200,5.85267626953125,-0.01486146904528141,-0.003398259569588117,-0.013388546948507427
1746576230525640200,5.86264013671875,-0.017403554743528366,0.0029715905561577527,-0.001522332462761551
1746576230535606000,5.87260595703125,-0.013511808001995087,0.003818092416855506,0.0035115791843738403
1746576230545570800,5.88257080078125,-0.021144494837522506,0.004628184957033954,-0.0018434998416807502
1746576230555534800,5.892534912109375,-0.0202472537368536,-0.0005844716573366895,-0.00567516869273968
1746576230565500000,5.9025,-0.010671031618118285,-0.004209114728169516,-0.0002278174065053463
1746576230575463700,5.912463623046875,-0.020846388673782346,0.003188882002071477,0.0005108629984315484
1746576230585429000,5.922428955078125,-0.014711831441521644,-0.0015328036244260147,-0.011741957918414845
1746576230595393800,5.932393798828125,-0.0269832839936018,-0.0018882705651689319,-0.003606911051319912
1746576230605357800,5.94235791015625,-0.017555530434846877,0.0024086137779988346,0.0005569397630169988
1746576230615323000,5.952322998046875,-0.007080898171663284,0.010620744469296187,0.00234161295639351
1746576230625287700,5.96228759765625,-0.020846388673782346,-0.002994396043010056,0.00455148015874438
1746576230635251700,5.972251708984375,-0.003488426637649536,0.0025414372442755847,0.007844137629121542
1746576230645217000,5.982217041015625,-0.023091537252068518,-0.0008861032187240198,0.0008785090007353574
1746576230655181000,5.99218115234375,-0.015758710145950316,-0.004375739999348298,0.01119091817322187
1746576230665145900,6.002145751953125,-0.005883212819695473,-0.0013527982818661256,0.00030708405463956295
1746576230675111000,6.01211083984375,-0.009175240102410316,-0.0001383033589925617,0.006691396530577913
1746576230685074700,6.02207470703125,-0.029227263528108595,-0.0029551737108966334,0.003580434036348015
1746576230695039700,6.032039794921875,-0.0257850141197443,-0.003121063763136044,0.010718734084209426
1746576230705005000,6.042005126953125,-0.009923428121209143,-0.0031944532263325524,-0.012210342615144327
1746576230714968800,6.05196875,-0.006631400838494301,-0.004345490991557017,-0.000715135132567957
1746576230724934000,6.061933837890625,-0.021295301485061643,-0.00562946638748981,0.005048068036651239
1746576230734898000,6.07189794921875,-0.019947978529334068,0.0013750512128695846,0.0073769402424804864
1746576230744862700,6.08186279296875,-0.03176993374824524,-0.0008401725846109912,0.00861984384250827
1746576230754827800,6.091827880859375,-0.012317045259475707,-0.02036144556789659,-0.012659109295951201
1746576230764792000,6.1017919921875,-0.004984802675247192,0.004317068614671006,-0.006087676750076934
1746576230774756900,6.1117568359375,-0.0162082074791193,-0.0005529668407980353,0.009909746655728668
1746576230784722000,6.121721923828125,-0.016657120290398595,0.012085140766319818,-0.005809663526294752
1746576230794686000,6.13168603515625,-0.015460019460320471,-0.003134110474376939,-0.0008300393496640026
1746576230804650800,6.141650634765625,-0.017554361391067502,-0.009486548241018317,-0.015616424731584266
1746576230814614800,6.15161474609375,-0.02054652894437313,-0.0016958578321849926,0.005394013663800433
1746576230824579800,6.161579833984375,-0.009324877706170081,-0.002720520138228312,0.0044270135288592425
1746576230834545000,6.171544921875,-0.005285831448435783,-0.003034878750448115,0.005194244174845516
1746576230844509000,6.181509033203125,-0.01740589283108711,-0.0027228445260552687,0.009066902623418718
1746576230854473700,6.1914736328125,-0.016208792001008988,-0.00014502079414669422,-0.004170381019823253
1746576230864437800,6.201437744140625,-0.014562778359651564,-0.00018312888140790165,0.0021440993566066028
1746576230874402800,6.21140283203125,-0.007679448586702347,-0.011255032917996868,0.019512884180853143
1746576230884368000,6.221367919921875,-0.02069850463569164,0.0033432688461849463,-0.0014453491032589225
1746576230894332000,6.231331787109375,-0.011271920120716095,-0.001009848329401575,-0.0061695372140966355
1746576230904297000,6.241296875,-0.009176993668079376,-0.009007669549738057,0.0006865209594368935
1746576230914261800,6.25126171875,-0.02758358797430992,-0.0017415099050849675,-0.005271254933811724
1746576230924225800,6.261225830078125,-0.006185410636663437,0.002567485000984743,0.010620479607814922
1746576230934190800,6.27119091796875,-0.00842997469305992,0.0019090439251391216,0.007134043997852131
1746576230944154600,6.281154541015625,-0.023992285484075546,-0.002411677951342426,0.004434977639606222
1746576230954120000,6.291119873046875,-0.009327215793728827,-0.0001493453428149223,-0.0019466770883649588
1746576230964084700,6.301084716796875,-0.021146832925081252,0.002445013965363614,-0.0038235860093031077
1746576230974048800,6.311048828125,-0.017854221120476722,0.00452994418037124,-0.0011884699990507214
1746576230984013800,6.321013916015625,-0.00902560249865055,-0.0009551590000977739,0.003873051174217835
1746576230993978600,6.330978515625,-0.01725683974921703,0.004345988748478703,-0.004007600806700065
1746576231003943000,6.34094287109375,-0.031173136898875235,-0.0017032191547332331,-0.017193948847148567
1746576231013908000,6.350907958984375,-0.004239537265896797,0.004964266777294688,0.005418271322222426
1746576231023872000,6.3608720703125,-0.020699673679471016,0.003351406486867927,0.009136278065200894
1746576231033836800,6.3708369140625,-0.018005612289905548,0.000045875835185870526,-0.004657470417022705
1746576231043801900,6.3808017578125,0.005037994167208671,0.003812306563463062,-0.0031334483206737784
1746576231053766000,6.390765869140625,-0.006932429611682891,0.003824088332802057,-0.01288859806973487
1746576231063731000,6.40073095703125,-0.01486322261095047,-0.0017529948469018563,-0.004035758322104811
1746576231073696000,6.410696044921875,-0.02907937949001789,-0.002933861494809389,-0.007276996132498607
1746576231083659800,6.42065966796875,-0.017258593314886092,0.0007510695290518924,-0.000885641994420439
1746576231093624800,6.430624755859375,-0.005735913303494453,0.001787052380130626,-0.00617335487268865
1746576231103588900,6.4405888671875,-0.009625321957468985,0.006185497401631437,-0.00005577617469243705
1746576231113553700,6.4505537109375,-0.02414016952216625,-0.002486108594154939,-0.011586338098440318
1746576231123519000,6.46051904296875,-0.023391981503367423,0.003655864759581163,-0.00264256866434589
1746576231133483000,6.47048291015625,-0.008428221127390861,0.004096562298364006,0.0021440993566066028
1746576231143447800,6.48044775390625,-0.014414309799671171,0.008688703261059708,0.01040116516817361
1746576231153411800,6.490411865234375,-0.012020108139514922,-0.000944939000182785,0.018826829012297094
1746576231163377000,6.500376953125,-0.01650982077419758,-0.012287960728886537,-0.006322024362068623
1746576231173341700,6.510341796875,-0.009326631271839142,0.005664007977908477,0.006680774671863764
1746576231183305700,6.5203056640625,-0.014113865548372267,-0.006630103930551559,0.00734422528296709
1746576231193271000,6.53027099609375,-0.017705752560496328,0.001818032040284015,-0.009901755145518108
1746576231203235800,6.54023583984375,-0.015759294667840002,0.0029956564183346926,-0.006076516035245731
1746576231213200000,6.550199951171875,-0.0048363341152668,0.0015207889596465973,-0.014300565493199973
1746576231223164700,6.56016455078125,-0.004089315140247345,0.005658902544528246,-0.007920755662443116
1746576231233128700,6.570128662109375,-0.005436638095974922,-0.0019751131649827585,0.004072263540746644
1746576231243093800,6.58009375,-0.023393735069036484,0.002128860688279383,0.0005181969215162098
1746576231253058800,6.590058837890625,-0.010525485667586326,0.002763998520351015,-0.0072494779379107055
1746576231263022800,6.60002294921875,-0.01591360844671726,0.0023669848596677185,-0.008077279664715751
1746576231272988000,6.60998779296875,-0.01352116035223007,-0.003967561057256534,0.000870115631725639
1746576231282952700,6.61995263671875,-0.019357611420750615,-0.001457811292610131,0.007983765295520424
1746576231292916700,6.629916748046875,-0.006488777497410773,0.000026691644103266297,0.006650890990253538
1746576231302882000,6.639882080078125,-0.00604103372991085,0.005807133642490953,-0.005139134720433503
1746576231312845800,6.649845703125,-0.02175298212468624,0.005672168451477774,0.004714095975086092
1746576231322811000,6.659810791015625,-0.02833645216822624,-0.01248296727775596,-0.00534761723880656
1746576231332776000,6.66977587890625,-0.0228004453510046,0.002074851778987795,0.006507162537472322
1746576231342739700,6.67973974609375,-0.023549217891693112,-0.001302081874781288,0.0035258725712075827
1746576231352704800,6.689704833984375,-0.01726560757756233,0.004915705794678069,0.0005995093962643295
1746576231362669800,6.699669921875,-0.009633505263924598,0.0011835746282245962,-0.00843543631946668
1746576231372633900,6.7096337890625,-0.006789806270599365,-0.0008158464275300503,0.001176268104603514
1746576231382599000,6.719598876953125,-0.004246551528573036,-0.000446871551242657,0.012854677533823996
1746576231392563000,6.72956298828125,-0.019359364986419676,0.0058262767343781885,-0.003370408014860004
1746576231402527700,6.73952783203125,-0.030881460475921628,0.002429505868977867,-0.00011280359155498444
1746576231412492800,6.749492919921875,0.003835632640123367,0.0025723392726154995,-0.0021253946561366316
1746576231422456800,6.759456787109375,-0.010530161842703818,-0.002030834540748037,0.009714224083628506
1746576231432422000,6.769421875,-0.017114800930023193,-0.0014341290229232982,0.009621540831495076
1746576231442386000,6.779385986328125,-0.04060790472030639,-0.0119035142888315,0.00241583810322918
1746576231452351000,6.78935107421875,-0.03013151889145374,0.0010274935839464888,0.0053425848706625395
1746576231462315800,6.799315673828125,-0.01801145750880241,0.0012443968707928433,0.006529904092242941
1746576231472279800,6.80927978515625,-0.008135960182547568,0.006364219535980373,-0.007640797076746821
1746576231482244600,6.81924462890625,-0.01307458562850952,-0.002051607900718227,-0.0036745329274330287
1746576231492210000,6.8292099609375,-0.021754151168465612,0.001280523063521832,-0.003937567777791992
1746576231502174000,6.839174072265625,-0.013375029879808426,0.0029146773037267847,-0.0025351901665795593
1746576231512138800,6.849138671875,-0.006791559836268424,0.0035639395592734218,0.018432304136222228
1746576231522102800,6.859102783203125,-0.008587795603275298,0.003104149160953238,0.00034869470666162665
1746576231532067800,6.86906787109375,-0.009486205747723579,0.00012732530725188552,-0.005414252734230831
1746576231542032100,6.8790322265625,-0.021158523362874982,0.0004622243840014562,0.006132210011547431
1746576231551996200,6.88899609375,-0.01846563101708889,-0.001601813740027137,-0.0024899262527469544
1746576231561961500,6.89896142578125,-0.009488543835282325,-0.0012161114912247284,-0.016692812658287585
1746576231571926300,6.90892626953125,-0.019213819035887716,0.00513291960877832,-0.0014368552695494144
1746576231581890300,6.918890380859375,-0.03627367490828037,0.004289860947337001,0.003118278151005506
1746576231591855400,6.92885546875,-0.018766075268387795,0.005296462440304458,0.004168773584626615
1746576231601819400,6.9388193359375,-0.018315408891439438,0.00460704627088271,0.005441624798346311
1746576231611784400,6.948784423828125,-0.02205634898543358,0.0006532123448792844,0.009628801689343526
1746576231621749500,6.95874951171875,-0.01023380924463272,-0.0014901061270153149,0.0252937143383082
1746576231631713300,6.96871337890625,-0.021757073777914047,0.0013167405877960844,-0.0016748104775790125
1746576231641678300,6.97867822265625,-0.013977087426185607,-0.011304804043588228,0.0068841974226292214
1746576231651643400,6.988643310546875,-0.030437223839759824,-0.009951530837686733,0.010048570604529232
1746576231661607200,6.998607177734375,-0.026996143475174903,-0.0007469413432059809,0.0028659382245969024
1746576231671572500,7.008572509765625,-0.018317746978998184,0.006532803868805058,-0.004472825431963428
1746576231681536500,7.01853662109375,-0.02116086145043373,-0.00020661022169515488,-0.004168024665955454
1746576231691501300,7.028501220703125,-0.01667231785953045,-0.0012460591049166395,-0.017010847365204244
1746576231701466400,7.03846630859375,-0.007993921363353728,-0.001328115931758657,-0.010424810905242337
1746576231711430400,7.048430419921875,-0.01891688191592693,0.006446760420012287,-0.0007085775276180356
1746576231721395200,7.058395263671875,-0.02909282349348068,0.004853764740680344,-0.00592150813662447
1746576231731359200,7.068359130859375,-0.027447394374012946,0.0035753240363905203,-0.001267764046648517
1746576231741324500,7.078324462890625,-0.016224574092030524,0.004925848162779584,0.004966600298276171
1746576231751289300,7.088289306640625,-0.012333411872386933,0.00010839684449601917,0.0061600752660073334
1746576231761253400,7.09825341796875,-0.006947042658925056,0.000577936885273084,-0.005953702506329864
1746576231771218200,7.10821826171875,-0.030141455763578413,0.0020826560595305636,-0.01428359609209001
1746576231781183200,7.118183349609375,-0.012184358790516853,0.0013551637688884511,0.01344571136268787
1746576231791147300,7.128147216796875,-0.011885083582997322,0.0023940372633747754,0.00643464529053308
1746576231801112300,7.1381123046875,-0.008742693904042243,0.0038655163217335936,-0.012538222862640395
1746576231811076400,7.148076416015625,-0.02355681667625904,0.003530073822289705,-0.006273709974624216
1746576231821041400,7.15804150390625,-0.016224574092030524,0.006730984188872389,0.008691630437085405
1746576231831006200,7.168006103515625,0.0059200376987457275,0.0027319000487681477,-0.0006441705218981951
1746576231840970200,7.17797021484375,-0.019816461104154585,0.005376596738118678,-0.006519674959173426
1746576231850935600,7.187935546875,-0.02655015327334404,-0.001911464211088605,-0.00540857191211544
1746576231860900400,7.197900390625,-0.01487842018008232,0.0014654648761032148,0.004935437975032255
1746576231870864400,7.207864501953125,-0.021163784059882163,0.00639361459382344,-0.002007631761673838
1746576231880829400,7.217829345703125,-0.011586977419257164,0.002668237395142205,-0.0015640344463288783
1746576231890793200,7.227793212890625,0.0033761984348297117,0.0035834023115690794,0.008787692956393584
1746576231900758300,7.23775830078125,-0.018919804525375367,-0.0046121836703037844,0.00459863463556394
1746576231910723300,7.247723388671875,-0.02161445043683052,-0.0048620759112993255,0.0055301159325521435
1746576231920687400,7.257687255859375,-0.018620529317855832,-0.004166211734781973,0.005931856000702828
1746576231930652400,7.26765234375,-0.018320669588446616,0.0004686175921699032,-0.00024071342069655654
1746576231940616400,7.277616455078125,-0.017124153280258177,0.0017088680108077823,0.008893016494391486
1746576231950581200,7.287581298828125,-0.01802256342470646,0.004544886021176353,0.00938245311230421
1746576231960546300,7.29754638671875,-0.012036474752426148,-0.009724042224744335,-0.011118181730573997
1746576231970510300,7.30751025390625,-0.019069442129135132,-0.002329424761678092,0.0005978106295224278
1746576231980475400,7.317475341796875,-0.019219664254784583,0.01411632693351712,0.0202633006893564
1746576231990440400,7.3274404296875,-0.006951134312152862,0.005134015587321483,0.01002588384868577
1746576232000404500,7.337404541015625,-0.015479893204569816,-0.002138363735564053,-0.009108266680268571
1746576232010369300,7.347369384765625,-0.028647417813539505,0.0038051370371598747,0.005514918363420293
1746576232020333300,7.357333251953125,-0.0026098902374505997,0.0013801338133634998,0.014877242003148421
1746576232030298000,7.367298095703125,-0.011737784066796302,-0.0020470413234550504,0.020597574145020916
1746576232040263400,7.377263427734375,-0.027000819650292395,-0.01437111911191605,0.006868753258325159
1746576232050227500,7.3872275390625,-0.025803134298324582,-0.010202445991989224,-0.0018617570175789295
1746576232060192300,7.397192138671875,-0.015775661280751228,0.0003707649745745584,-0.0020135226463433354
1746576232070157300,7.4071572265625,-0.009639350482821465,-0.002279936763877049,-0.003825092979799956
1746576232080121300,7.417121337890625,-0.01502571969628334,0.006118519412912428,0.010442958483286201
1746576232090086400,7.42708642578125,-0.01337912153303623,0.004815674919728189,-0.0022021770862396804
1746576232100050400,7.437050537109375,-0.023403671941161153,0.0014264069407712667,-0.005543285941379144
1746576232110015500,7.447015380859375,-0.017567805394530296,0.010852817925810812,0.002240700732031837
1746576232119980300,7.456980224609375,-0.01457388427555561,-0.002579951756913215,-0.007334388875542208
1746576232129944300,7.4669443359375,-0.03387830420434475,0.0024115592203335836,0.009609612931683659
1746576232139909400,7.476909423828125,-0.008738602250814437,0.0012082980775274335,0.008993481194181367
1746576232149874400,7.48687451171875,0.004430091401934623,0.00583786670747213,0.002071235049795359
1746576232159838500,7.49683837890625,-0.019212065470218656,-0.0012857106952928006,0.01685389410466887
1746576232169803300,7.50680322265625,-0.01921148094832897,-0.0028374290827428922,-0.00528824260123074
1746576232179767300,7.516767333984375,-0.007240472647547722,0.0004162206846522167,0.019587693849578498
1746576232189732400,7.526732421875,-0.022055179941654204,0.0017023332387441769,0.018885272068111227
1746576232199697200,7.536697265625,-0.003500701597332954,-0.007936400756146758,-0.004048599537368864
1746576232209661200,7.5466611328125,-0.014722937357425688,0.003697909236443229,-0.001683413909142837
1746576232219626500,7.55662646484375,-0.005445405924320221,0.005467955682845786,-0.003476790998782962
1746576232229591300,7.56659130859375,-0.019811200407147407,0.0021506158623611554,0.00755127389607951
1746576232239555300,7.576555419921875,-0.009486790269613266,-0.003249147122213617,-0.013490737814502789
1746576232249520400,7.586520263671875,0.004279869276285171,0.010616310322773641,-0.012397754946025089
1746576232259484400,7.596484375,-0.009487374791502952,-0.0034899199084145946,0.011660325783258303
1746576232269449200,7.60644921875,-0.0035018706411123275,-0.0019398957211291417,0.003819192961975932
1746576232279414500,7.61641455078125,-0.014126140508055687,0.0003280720437411219,0.0006663823537062853
1746576232289378300,7.62637841796875,-0.004549333867430686,-0.01175708698888775,-0.005617858148086816
1746576232299343400,7.63634326171875,-0.01592237627506256,0.002580942704179324,0.00748423654185608
1746576232309307400,7.646307373046875,-0.007243979778885841,0.005276940322504378,0.010943345753476023
1746576232319272200,7.656272216796875,-0.021460136657953263,0.0054575849858811126,0.00111875663055107
1746576232329237500,7.666237548828125,-0.017868834167718887,-0.0071686769198160616,-0.0027482575285248455
1746576232339201500,7.676201416015625,-0.010983750829100608,-0.0010403758984059094,0.0018971023255959151
1746576232349166300,7.686166259765625,-0.011581716722249984,-0.0010360741826239972,0.010097944437898694
1746576232359131400,7.69613134765625,-0.013677812218666076,0.005793178182374686,0.0043650085427798324
1746576232369095400,7.706095458984375,-0.028492519512772558,-0.0006282788330223411,0.00814427135316655
1746576232379060200,7.716060302734375,-0.019065350475907326,-0.003154294745880179,0.009492398026492446
1746576232389024300,7.726024169921875,-0.01861585314273834,-0.001482137449691072,0.0005238046783953904
1746576232398989300,7.7359892578125,-0.009338321709632873,0.005291188043565489,0.008011868011998012
1746576232408954400,7.745954345703125,-0.010835866791009903,0.0029323225582716986,-0.005517073787888511
1746576232418918400,7.75591845703125,-0.017269699230790136,-0.0009274079100694507,-0.0052924347191583366
1746576232428883200,7.76588330078125,-0.012031798577308654,0.010898543063946999,0.008115940307825803
1746576232438848300,7.77584814453125,-0.021009470281004906,0.005624831311567686,-0.016177136487420647
1746576232448812300,7.785812255859375,-0.013975918382406234,-0.007842881820374167,-0.002896123300306499
1746576232458777300,7.79577734375,-0.009037877458333968,-0.0030298372491495682,0.019997324963239953
1746576232468741400,7.805741455078125,-0.006794482445716858,0.005399986746860668,0.02095112768989056
1746576232478706400,7.81570654296875,-0.005447744011878967,-0.002591317967721261,-0.015079568775370715
1746576232488671200,7.825671142578125,-0.00978723452091217,0.0022211968805408103,-0.007151807983405888
1746576232498635300,7.83563525390625,-0.014126140508055687,-0.002859713979787193,-0.0016527995751705019
1746576232508600300,7.845600341796875,-0.010236147332191466,0.013490687582152895,-0.0019660850417334585
1746576232518565400,7.8555654296875,-0.027443887242674825,0.004931939976848662,0.010735265093902125
1746576232528529400,7.865529296875,-0.0292401230096817,0.0033270711966324595,-0.004669261319516226
1746576232538494700,7.87549462890625,-0.02564823599755764,0.0029723075087880716,-0.0037820666888263074
1746576232548458800,7.885458740234375,-0.02235679323673248,0.0035680814448511224,0.0007482884834986179
1746576232558423800,7.895423828125,-0.004251812225580215,0.004061810645391233,0.0018984631656203419
1746576232568388600,7.905388671875,-0.009638765960931777,0.0037023022837704045,-0.003918123291805386
1746576232578352600,7.9153525390625,-0.03627367490828037,-0.0012744540823390706,-0.0010958963447716087
1746576232588317700,7.925317626953125,-0.02220832467675209,0.0015726561442017555,0.004040452763531357
1746576232598281700,7.93528173828125,-0.0014081132322549819,0.004290550500503741,0.007872633071243763
1746576232608246800,7.945246826171875,-0.012331073784828185,0.0004923135615885258,0.005009352594614029
1746576232618211800,7.9552119140625,-0.00499883120059967,-0.0022437238061800598,-0.002367962107202038
1746576232628175600,7.965175537109375,-0.012779986596107483,-0.003259782680659555,0.010631494192173704
1746576232638140700,7.975140625,-0.01921498807966709,0.0029059962403494865,-0.005944669816503301
1746576232648105700,7.985105712890625,-0.016373627173900604,-0.001857391369715333,0.0020928897591773418
1746576232658069500,7.995069580078125,-0.0070960957407951355,0.0019807072221301493,0.0025825547059532255
1746576232668034800,8.005034912109375,-0.01846913814842701,0.0032597963803913444,0.005424701063008979
1746576232677998800,8.014998779296874,-0.028943185889720915,-0.0013167177549097686,0.00003432239471003413
1746576232687963600,8.024963623046874,-0.013230652973055838,0.00389386106680613,-0.013451867108838632
1746576232697928700,8.0349287109375,-0.03178688488304615,0.00006921104500070214,-0.0006426087524741888
1746576232707892700,8.044892822265625,-0.002009001734852791,0.006816954572428949,0.0056332749129272995
1746576232717857800,8.05485791015625,-0.022059856116771696,0.0018054008875740691,0.00802529374915175
1746576232727822800,8.06482275390625,-0.03163607823550701,0.0032313283377327024,-0.015197349936142563
1746576232737787000,8.074786865234374,-0.013081015369296073,0.0024615404084790495,-0.013362654455425216
1746576232747751700,8.084751708984374,-0.009191022193431854,-0.0001707123578293249,0.008434669134486466
1746576232757715700,8.0947158203125,0.001433247673511505,0.005801366055407561,-0.005181558223208412
1746576232767680800,8.1046806640625,-0.01876782883405685,0.0014522720343898982,0.006362685166019946
1746576232777645800,8.114645751953125,-0.022359715846180916,0.0046770153677091,0.0030262433528434485
1746576232787609900,8.12460986328125,-0.009192191237211227,0.0023418869510293005,0.009796806066855788
1746576232797574700,8.13457470703125,-0.007995090407133101,-0.0009017574455821887,0.010808485593739897
1746576232807538700,8.14453857421875,-0.00500233833193779,-0.00803488356140442,-0.006703689756570383
1746576232817503700,8.154503662109375,-0.023258125990629194,0.005404384360765107,0.000004813172435387969
1746576232827468500,8.164468505859375,-0.015027473261952399,0.0016964058214565738,-0.00019277349258773027
1746576232837432600,8.1744326171875,-0.009640519526600838,0.00039339693149086086,0.014263822812540456
1746576232847398000,8.18439794921875,-0.00455225647687912,0.005642499398998916,-0.005667241114610806
1746576232857362700,8.19436279296875,-0.01697276211082935,0.0019313288221834226,0.009760675307549536
1746576232867326700,8.20432666015625,-0.0314881941974163,-0.0018913712711306288,-0.01566985368556343
1746576232877291800,8.214291748046875,-0.0259504338145256,-0.0014737988796085118,-0.00195478732958436
1746576232887255600,8.224255615234375,-0.012333411872386933,0.0038545063039520755,0.004245345952175557
1746576232897220600,8.234220703125,-0.015625439155101777,0.0007353605032665655,0.010685982592077925
1746576232907186000,8.24418603515625,-0.012184358790516853,0.005950715964799747,0.007744293983839452
1746576232917149700,8.254149658203126,-0.03044014644920826,0.001641205035499297,0.016569469406409187
1746576232927114800,8.26411474609375,-0.007995090407133101,-0.0057788025971502064,-0.00409140663263388
1746576232937079600,8.27407958984375,-0.016374796217679975,0.0050970445777988056,0.0035027474239468573
1746576232947043600,8.284043701171875,-0.015627192720770833,0.0018387460347497834,-0.004123929795902222
1746576232957009000,8.2940087890625,-0.01966682350039482,0.003289862725092098,0.0018403763028327375
1746576232966973000,8.303972900390624,-0.0271487036883831,0.005274067945405841,-0.014647323971102013
1746576232976937700,8.313937744140626,-0.01592588340640068,0.0027866578767308963,0.0038512503343634307
1746576232986902800,8.32390283203125,-0.02116261501610279,0.0026429613899905235,-0.004090940841753036
1746576232996866800,8.33386669921875,-0.021013561934232712,0.0030054334602551535,0.00007250811378471553
1746576233006831600,8.34383154296875,-0.014429507368803024,-0.0015359043303877114,0.014244752785889431
1746576233016797000,8.353796875,-0.007397124513983726,-0.002387968282192014,0.0075377933599986135
1746576233026760700,8.3637607421875,-0.010689151796698569,-0.0011846112412633373,-0.003077452950272709
1746576233036725800,8.373725830078126,-0.010987842482328414,0.006270440305303782,-0.004175276390649378
1746576233046689800,8.383689697265625,-0.01921849521100521,0.006490745692211203,0.003159834004100412
1746576233056654600,8.393654541015625,-0.00590074847638607,0.0054117639496224,0.016349232518160714
1746576233066619600,8.40361962890625,-0.01398001003563404,0.0029415196448797356,0.005986755392560735
1746576233076583700,8.413583740234374,-0.009640519526600838,0.0006986132560297847,-0.00783352490356192
1746576233086548700,8.423548828125,-0.012183774268627165,-0.0026083558674901723,-0.012173307673539966
1746576233096512800,8.4335126953125,-0.022808044135570523,-0.0000711198742967099,-0.00737294905395247
1746576233106477800,8.443477783203125,-0.005001753810048103,0.0023043359861942008,0.009733997363178058
1746576233116442600,8.453442626953125,-0.01697334663271904,0.004556827620719559,-0.002336772384494543
1746576233126406700,8.46340673828125,-0.016974515676498412,0.005816714321589097,-0.002749691433785483
1746576233136371700,8.473371826171874,-0.034929859083890916,-0.002762834043148905,0.0030614242640789597
1746576233146336800,8.483336669921876,-0.013382628664374351,0.0018440249980660153,-0.00529563132324256
1746576233156300800,8.49330078125,-0.013681319350004195,0.00887491001554299,-0.0005089907017536462
1746576233166265600,8.503265625,-0.012186112356185913,-0.002497388039994985,-0.0044748895248863845
1746576233176229600,8.513229736328125,-0.01173661502301693,0.004264100884995423,-0.00139652325916104
1746576233186194700,8.523194580078124,-0.030143209329247474,-0.008113488055835477,-0.00521870276266709
1746576233196159700,8.53315966796875,-0.004105681753158569,-0.003058620385639369,-0.0012168558433186263
1746576233206123800,8.543123779296875,-0.02131342166364193,-0.0008807374904397874,0.009115217010863125
1746576233216088800,8.5530888671875,-0.013831541475653648,-0.0011357031987747177,-0.001817333353962749
1746576233226053600,8.5630537109375,-0.019368132814764974,0.004216845943476074,-0.011559623621450736
1746576233236017700,8.573017578125,-0.02161269687116146,-0.0025074025439331305,-0.009291404694830998
1746576233245982700,8.582982666015624,-0.019667408022284505,-0.01050248838448897,0.005875677967211231
1746576233255946800,8.59294677734375,-0.012633271601796149,-0.0007051114954752847,0.007015860978281125
1746576233265911800,8.602911865234375,-0.01816986294090748,0.014083479543263092,0.00790562202539295
1746576233275876900,8.612876953125,-0.007097849306464195,-0.0018935449619079008,-0.0009928286959417164
1746576233285840600,8.622840576171875,-0.014130232161283493,0.0011891001867130398,-0.002197656174749136
1746576233295805700,8.6328056640625,-0.018618775752186775,0.0032324471491621807,0.008422120180167258
1746576233305769700,8.642769775390626,-0.014279869765043259,0.003049062539427541,0.011764462011167778
1746576233315734500,8.652734619140626,-0.017570728003978728,0.004044316087896004,0.005430418417742475
1746576233325699800,8.662699951171875,-0.018768997877836226,0.0028585358028532936,0.0011593626355752347
1746576233335663900,8.672663818359375,-0.011436170771718025,-0.0022807267817435786,0.0025000823205802588
1746576233345628700,8.682628662109375,-0.020562311035394666,0.00821352349736262,-0.0056320876028388735
1746576233355593700,8.69259375,-0.019514847809076308,0.0019388545415131373,-0.013461283391155302
1746576233365557800,8.702557861328126,-0.03507598955631256,0.005834058182034641,-0.011926767300255596
1746576233375522600,8.7125224609375,-0.021608605217933653,0.005141486507724039,-0.015704623604845255
1746576233385486800,8.72248681640625,-0.006045709905028343,0.00036913470649160444,0.007758276843419298
1746576233395452000,8.732451904296875,-0.008290858483314513,-0.00017204123181290923,0.011946951571758836
1746576233405416700,8.742416748046875,-0.02639583949446678,0.003646562641696073,-0.000228146200068295
1746576233415380700,8.752380615234374,-0.016220482438802718,-0.0005154432754265144,-0.021364996587252244
1746576233425345500,8.762345458984376,0.005327917024493217,-0.015131956549733877,0.007437273861281573
1746576233435310800,8.772310791015625,-0.003799392282962799,-0.01247363776040729,0.012937716174777597
1746576233445275000,8.78227490234375,-0.030434885752201078,-0.007966106341243721,0.004411551098246127
1746576233455239700,8.79223974609375,-0.027142858469486233,-0.00467865476894658,0.01052304711532779
1746576233465203700,8.80220361328125,-0.012778233030438423,0.001823073541582562,-0.0021878654330968854
1746576233475168800,8.812168701171874,-0.014274024546146392,0.0012154173714807256,0.0019627149077132344
1746576233485133600,8.822133544921876,-0.019061843344569205,0.0031462073375470934,-0.005232402494456619
1746576233495097600,8.83209765625,-0.014124386942386626,0.012116531418426894,-0.006619135011965409
1746576233505063000,8.84206298828125,-0.022056933507323264,0.012977381464885546,0.0054301078904885796
1746576233515027700,8.85202783203125,-0.022056933507323264,0.023987540810299104,-0.009573619169695301
1746576233524991700,8.86199169921875,-0.00544715948998928,0.001464642892195843,-0.009090329164778813
1746576233534956800,8.871956787109376,-0.015173603734374045,-0.00019081899751909075,-0.002079509687796235
1746576233544919800,8.881919921875,-0.02609656428694725,0.0032776014651404693,-0.006021214784588664
1746576233554884900,8.891884765625,-0.013676058652997015,0.013607879654457792,0.007388795077055693
1746576233564850000,8.901849853515625,-0.006944120049476623,0.0031057063637999816,0.009855678380932658
1746576233574814000,8.91181396484375,-0.00634556963443756,-0.00921946740320418,-0.0013414320710580796
1746576233584778800,8.92177880859375,-0.004400280785560607,-0.0002891602388815954,0.0017275270455051213
1746576233594742800,8.93174267578125,-0.013230068451166152,-0.006552741545136086,0.008376226078672335
1746576233604707800,8.941707763671875,-0.014427753803133964,-0.0019536137192277237,0.0017943817366380243
1746576233614673000,8.9516728515625,-0.004103343665599822,0.0009606708588544278,0.014086877076746895
1746576233624637000,8.961636962890625,-0.01487842018008232,0.0024510372807737438,0.014896229831408708
1746576233634601700,8.971601806640624,-0.010837620356678962,0.005216150045976974,0.0072906593316700305
1746576233644566800,8.98156689453125,-0.015177695387601851,-0.005229023227281868,-0.0015218301392626017
1746576233654530800,8.99153076171875,-0.0183212541103363,-0.006345994326123036,-0.00026876133824698626
1746576233664495900,9.001495849609375,-0.006499883413314819,-0.001447166601009667,-0.00023426541360095141
1746576233674460000,9.0114599609375,-0.009194529324769973,0.007131276652030646,0.002977992897480726
1746576233684425000,9.021425048828124,-0.013982348123192786,0.0013923631072742864,0.0008708188846241682
1746576233694389800,9.0313896484375,-0.013084522500634193,0.0030206264628097413,0.002072130098938942
1746576233704353800,9.041353759765625,-0.017274959927797318,0.005734584429510869,-0.010135837896028533
1746576233714318800,9.05131884765625,-0.004257072922587394,0.0006909505393821745,-0.0029338249621912835
1746576233724284000,9.061283935546875,0.004721183302998542,0.005963726143422536,0.000179722214769572
1746576233734248000,9.071248046875,-0.008896423161029815,0.004491900025191717,-0.002612410988099873
1746576233744213000,9.081212890625,-0.02311199551820755,0.0028376939442241564,0.008920589487906545
1746576233754176800,9.0911767578125,-0.01607961266338825,0.00047680546520277855,0.010125398700404912
1746576233764141800,9.101141845703125,-0.00485679238140583,0.006622285950277001,0.008183543917629868
1746576233774106600,9.111106689453125,-0.022664251750707624,-0.006520939901075325,-0.005695033303834498
1746576233784070700,9.121070556640625,-0.015630699852108954,0.004945383980311453,-0.012888433672953396
1746576233794036000,9.131035888671875,-0.009045476242899895,-0.0023707796853734177,-0.001965317856753245
1746576233804000000,9.141,-0.01622866574525833,-0.002076893039024435,0.00015021299249492583
1746576233813964800,9.15096484375,-0.00620353081524372,0.00039131913883611556,0.004966079708468169
1746576233823929900,9.160929931640625,-0.02086801598370075,-0.0018379423171514643,0.00703122294419445
1746576233833894000,9.170893798828125,-0.022963526958227155,0.005392305763904005,-0.0038610045433975755
1746576233843859000,9.18085888671875,-0.0068026657521724695,0.006124323532613925,-0.0012972732689231633
1746576233853824000,9.190823974609375,-0.005157236632704735,-0.0000013060410972684622,0.011786655576666817
1746576233863787800,9.200787841796876,-0.01892564974427223,-0.0032266201965743674,-0.0041328437547199426
1746576233873752800,9.2107529296875,-0.020122750574350357,-0.002044566238578409,0.011164587288722395
1746576233883716900,9.220716796875,-0.023266309297084807,-0.0007855426208116114,0.01193266731807962
1746576233893681700,9.230681640625,-0.010248422291874885,-0.0018307773574255406,-0.005667451177164912
1746576233903647000,9.24064697265625,0.005910100826621055,0.004948178725596517,0.010224630424333735
1746576233913611000,9.250611083984374,-0.0045651159584522245,-0.010425500458409077,-0.006644753510411828
1746576233923575800,9.260575927734376,-0.007409399473667144,0.0021868059871718287,0.0006087978144176303
1746576233933540900,9.270540771484375,-0.021175474497675893,-0.0018723195107886567,0.006586228256206959
1746576233943505000,9.2805048828125,-0.01982932058572769,0.00656718106244225,0.005104958456195891
1746576233953469700,9.2904697265625,-0.02716097864806652,-0.008715673466376028,0.004761040389351547
1746576233963433700,9.300433837890624,-0.005014613291621208,0.004658269568043761,0.005904283007187768
1746576233973399000,9.31039892578125,-0.019229601126909256,0.00362704965705052,0.008408292584214359
1746576233983363800,9.32036376953125,-0.0036678748577833173,0.006803862195415422,0.0019829631112981585
1746576233993327900,9.330327880859375,-0.019978958189487455,0.009804249587794765,0.004285321769537404
1746576234003292700,9.340292724609375,-0.025814824736118316,0.009490164970210753,0.007588637631246819
1746576234013256700,9.350256591796875,-0.021924831560254095,0.00213592974988278,0.0068795303806662555
1746576234023221800,9.3602216796875,-0.018033669340610504,-0.011853651831694878,-0.00255331947831437
1746576234033186800,9.370186767578126,-0.027460838377475736,0.0030447973562637344,0.003561829800577834
1746576234043150800,9.38015087890625,-0.008605915781855582,0.005125051396153867,0.009966819738363846
1746576234053116000,9.390115966796875,-0.02536532740294933,0.002011979143228382,-0.0031075010286644097
1746576234063080700,9.400080810546875,-0.019079379001259802,-0.0064049123059725386,-0.008130562488222495
1746576234073044700,9.410044677734374,-0.0027688801914453505,0.0035784841078566384,0.010764966112421824
1746576234083010000,9.420010009765624,-0.011148586001992224,0.00688142094365321,0.013315847038477659
1746576234092973800,9.429973876953126,-0.017581833919882772,-0.00007592848015483468,-0.001996297516906634
1746576234102939000,9.43993896484375,-0.02581365569233894,-0.006192694327398203,0.0005023691647220403
1746576234112904000,9.449904052734375,-0.013842647391557692,-0.0021501637712121008,-0.0021589589990209787
1746576234122867700,9.45986767578125,-0.011597498813271523,-0.0020433423958718775,-0.004424757639691234
1746576234132832800,9.469832763671874,-0.0020206921726465222,0.006888467172370292,-0.005484130499511957
1746576234142797800,9.4797978515625,-0.012046411624550819,-0.0008368983487132936,0.011705151305673643
1746576234152761900,9.489761962890626,-0.017732056045532227,0.0025370807295665146,-0.006429348060907796
1746576234162727000,9.499726806640625,-0.01818155337870121,0.0001845719198230654,-0.00983023341242224
1746576234172691000,9.50969091796875,-0.017433949881792067,0.006295761976228095,-0.000337004268867895
1746576234182655700,9.51965576171875,-0.018033084818720818,0.005293439366156235,0.0033002653880976137
1746576234192620800,9.529620849609374,-0.012047580668330192,0.0008142115928698331,0.012122490801755339
1746576234202584800,9.539584716796876,-0.02222352224588394,-0.0049644677066942675,-0.004482607040461152
1746576234212550000,9.5495498046875,-0.01833236002624035,-0.008876558549934998,-0.008683949454128741
1746576234222515000,9.559514892578125,-0.005613748228549957,0.0007121805570786819,0.0001424680774565786
1746576234232479000,9.56947900390625,-0.02222352224588394,0.004524587585241533,0.010144587458064779
1746576234242443800,9.57944384765625,-0.017734394133090973,-0.00032966121262870726,0.010390397178987041
1746576234252407800,9.58940771484375,-0.012346271353960037,0.000020522198220714925,-0.003109574254741892
1746576234262372600,9.59937255859375,-0.021472996139526367,-0.0012500137608265503,-0.0006128072692546993
1746576234272338000,9.609337890625,-0.014590250888466834,0.009993771677371114,-0.007608703171741217
1746576234282302000,9.619302001953125,-0.007707505637407302,0.002196190303447656,-0.002451868397835642
1746576234292266800,9.629266845703125,-0.02386953588724136,0.003588512311526574,-0.0010447324131149798
1746576234302230800,9.639230712890624,-0.021176059019565582,-0.0007073354186024517,0.002634211827954277
1746576234312195800,9.64919580078125,-0.008455693656206131,0.003786089843395166,0.010055210407869889
1746576234322161000,9.659160888671876,-0.011299392649531365,-0.0006306214871583506,0.010204053427185862
1746576234332125000,9.669125,-0.017733225089311598,0.005953286947798915,-0.0008164035499561577
1746576234342090000,9.679090087890625,-0.022072131076455115,0.006280737937032245,0.010796365897683426
1746576234352054800,9.6890546875,-0.011745967373251915,-0.013677675221348181,0.007883912517083808
1746576234362018800,9.699018798828124,-0.01728138966858387,0.0037337249019183216,0.004252131885988638
1746576234371984000,9.70898388671875,-0.023715222108364103,0.006811483812867663,-0.00592083228318952
1746576234381947600,9.71894775390625,-0.009500818794965744,0.003985411807778291,0.010603345809923484
1746576234391913000,9.728912841796875,-0.016833645901083945,0.0050539132555481045,0.011269974758801982
1746576234401877800,9.738877685546875,-0.01414075355529785,-0.0009107079370180145,0.0024962646619882435
1746576234411841800,9.748841796875,-0.0068096800148487084,0.0033586171123664824,-0.0022599990875460207
1746576234421806800,9.758806884765624,-0.01818155337870121,0.0012185957092558965,-0.013928407712560147
1746576234431771600,9.768771728515626,-0.013842062869668006,0.011730381645052693,-0.0029068273574113846
1746576234441735700,9.778735595703125,-0.027308862686157225,0.010386999645503237,0.021299721931852398
1746576234451701000,9.788700927734375,-0.014440028762817383,-0.0022740504457848146,0.001581003847438842
1746576234461665000,9.7986650390625,-0.020873861202597616,-0.0017414048738079145,-0.0018340378935914486
1746576234471629800,9.8086298828125,-0.009052490505576133,-0.00804862439238932,0.004422483484214172
1746576234481595000,9.818594970703124,-0.004264087185263633,-0.003305932510481216,0.019150590207101775
1746576234491559000,9.828558837890625,-0.018628712624311445,-0.010412613577372394,0.011222528021037579
1746576234501523700,9.838523681640625,-0.01698328350484371,-0.009547484648018143,0.007230417044414207
1746576234511488000,9.848488037109375,-0.019078794479370116,0.006369420867483131,-0.0045937575310468675
1746576234521452800,9.858452880859375,-0.020126257705688474,-0.009121870513935574,-0.011360237724985926
1746576234531417900,9.86841796875,-0.007856558719277382,0.00029106450160034,-0.0050986383132636546
1746576234541382700,9.878382568359376,-0.019229016605019567,0.0004021145274862647,0.0010809636371210216
1746576234551347500,9.888347412109376,0.005759294179081917,0.0009407012164825573,0.002025085219973698
1746576234561312500,9.8983125,-0.021027590459585188,0.0008166729780146851,0.007375972128100693
1746576234571276500,9.908276611328125,-0.02836100208759308,0.015468956252024508,-0.0014625742326956242
1746576234581241600,9.91824169921875,-0.012349193963408469,0.0069517097008880225,-0.0062319075263570995
1746576234591205600,9.92820556640625,-0.01519172391295433,0.0068446325972210615,-0.001559805795783177
1746576234601170400,9.93817041015625,-0.015042086309194564,0.0006988370183156802,0.0221027636767365
1746576234611135500,9.948135498046875,-0.015641805768013,0.0025711976282997056,0.0026764800671022384
1746576234621099500,9.958099609375,-0.018784779968857763,-0.0035251419188454744,0.0075021101252641526
1746576234631064300,9.968064208984375,-0.016539046868681906,0.004685449835914187,0.008892495904583483
1746576234641029600,9.978029541015625,-0.016089549535512924,0.0007418541761348024,0.0075134535031858825
1746576234650993700,9.98799365234375,-0.004566869524121284,0.0029015712269814683,0.005444876201357692
1746576234660958500,9.99795849609375,-0.022225275811553,0.003089097722293809,-0.0009252068198285997
1746576234670922500,10.007922607421875,-0.018933248528838157,-0.008715303573617711,0.010314683327963575
1746576234680887600,10.017887451171875,-0.00022854805886745453,0.0024682852430967612,0.005387611322477459
1746576234690852400,10.027852294921875,-0.003969488152861595,0.0025240340183256193,0.012108480542711913
1746576234700816600,10.037816650390624,-0.0065127428948879235,0.006848404590040445,0.011754433807497843
1746576234710781700,10.04778173828125,-0.006063830083608627,0.002077253798628226,0.01204445712948218
1746576234720745500,10.057745361328125,-0.015790274327993393,0.004438950561825186,-0.001560764777008444
1746576234730710500,10.06771044921875,-0.021176643541455268,0.006457724772021174,0.011795642600720748
1746576234740675300,10.07767529296875,-0.01593991193175316,-0.011306511943484657,-0.008245174444373697
1746576234750639400,10.087639404296874,-0.005165419939160347,-0.0021469763002824036,-0.010249134677927941
1746576234760604700,10.097604736328124,-0.014143676164746283,0.000743552942876704,0.008425289384787902
1746576234770569500,10.107569580078126,-0.011150924089550972,-0.0077617383089847855,0.004351884199725464
1746576234780533500,10.117533447265625,-0.020578093126416206,-0.008949331525200978,-0.006428498677536845
1746576234790498600,10.12749853515625,-0.037486557829380034,-0.007160936571354978,0.00895238199881278
1746576234800462600,10.137462646484375,-0.019679682981967924,-0.01115562309755478,0.0077566876745317126
1746576234810427400,10.147427490234374,-0.021625556352734564,-0.011444915767177008,-0.002382748684380203
1746576234820392700,10.157392822265624,-0.005464695146679878,0.004396609257441014,0.0012014573447871953
1746576234830356500,10.1673564453125,-0.02012918031513691,0.005450356094073504,0.004359190723346546
1746576234840321500,10.177321533203125,-0.022222353202104566,0.007062056473875418,0.005996244740113616
1746576234850286600,10.18728662109375,-0.019379238730669022,0.0027954531045397742,-0.008546605076361447
1746576234860250400,10.19725048828125,-0.018031915774941443,0.0008382454890059306,0.00020624489551410077
1746576234870215400,10.20721533203125,-0.021024083328247067,0.016177835173741915,0.008163469243980944
1746576234880179500,10.217179443359376,-0.019378069686889647,0.00358823375031352,0.006088169940421357
1746576234890144500,10.22714453125,-0.007257423782348633,0.003310152027872391,0.011275746912462636
1746576234900109600,10.237109619140625,-0.014440613284707068,-0.0002359961463836953,0.0014210457790642976
1746576234910073600,10.247073486328125,-0.021023498806357382,0.010003388889087363,-0.005358750554174185
1746576234920038400,10.257038330078124,-0.019826397976279258,-0.00016679880111478268,0.01215295900525525
1746576234930002400,10.26700244140625,-0.012194295662641524,-0.010052086869021877,-0.015428099085250868
1746576234939967700,10.2769677734375,-0.01339139649271965,0.004918249378213659,0.001466145296115428
1746576234949932500,10.2869326171875,-0.019525953724980352,0.001595004973327741,0.010743284003576263
1746576234959896600,10.296896484375,-0.007405892342329025,0.005569310865201987,0.007357276560785248
1746576234969861600,10.306861572265625,-0.015336685341596603,0.006034019467234611,0.000022750687925145028
1746576234979826400,10.316826416015624,-0.010101122775673866,0.0060204658659175035,-0.013534449092065914
1746576234989790500,10.32679052734375,-0.028655601119995114,0.006892161533376202,-0.0051888190810568625
1746576234999755500,10.336755615234376,-0.01907762543559074,-0.0005144797276239842,0.006462053887266665
1746576235009719600,10.346719482421875,-0.017730302479863166,0.006619431839487515,-0.0031301055861171333
1746576235019684600,10.3566845703125,-0.02745674672424793,0.0007942602168070152,-0.00046102337418124075
1746576235029649400,10.3666494140625,-0.009800094002485275,0.0036868033205391835,-0.006750168379954994
1746576235039613400,10.376613525390624,-0.00920037454366684,0.00023135193730704486,-0.006582785056950524
1746576235049578500,10.38657861328125,-0.005307458758354187,0.0036872965108836067,-0.0007038922193460166
1746576235059543600,10.39654345703125,-0.01772737987041473,0.004281805505044758,-0.0051998336654156445
1746576235069507600,10.406507568359375,-0.020571078863739965,0.005787944884831086,0.001300396807771176
1746576235079472600,10.41647265625,-0.01892564974427223,-0.000608373122732155,0.008661244431976228
1746576235089436400,10.4264365234375,-0.010247253248095512,0.007575472188997082,-0.0035439836166333404
1746576235099401500,10.4364013671875,-0.02027297269999981,0.0002220406862674281,-0.0053343924310524015
1746576235109366500,10.446366455078126,-0.021619711133837698,-0.0026562364300945773,0.0003777838038280606
1746576235119330300,10.456330322265625,-0.007403554254770278,0.005848470299877226,0.011729253700468689
1746576235129295600,10.466295654296875,-0.013688333612680435,0.0005926458306377753,-0.0004145173513330519
1746576235139259600,10.476259765625,-0.0036626141607761383,-0.012116321355872787,0.010383181986911221
1746576235149224400,10.486224365234374,-0.006056815820932388,-0.011089983115973881,0.01100823681638576
1746576235159189500,10.496189453125,-0.01338964292705059,-0.009973043983173556,0.003802588887047022
1746576235169153500,10.506153564453125,-0.0021662381231784818,-0.01700368240547832,-0.0031312289641238747
1746576235179118600,10.51611865234375,-0.008900514814257621,-0.00841283632859122,-0.006400697355158627
1746576235189083600,10.526083740234375,-0.021769933259487152,0.006125081584439612,0.006157207455486059
1746576235199047700,10.536047607421875,-0.02625847685039043,-0.0011186881318921223,0.0020684220382012424
1746576235209012500,10.546012451171874,-0.019973697492480277,0.012204428897588514,-0.002559648754401132
1746576235218976500,10.5559765625,-0.0048597149908542634,0.004964326142799109,-0.0010406042272690682
1746576235228941600,10.565941650390625,-0.013839140260219573,0.005506333198165521,-0.011319101996999233
1746576235238906600,10.57590673828125,-0.04152385052144527,0.010064197431923822,0.010142916090786457
1746576235248870700,10.58587060546875,-0.0044137247890233995,0.014682788010127842,-0.0022247451110742984
1746576235258835500,10.59583544921875,-0.0066582888454198835,-0.0022797769336728377,-0.0038323903702665117
1746576235268800500,10.605800537109374,-0.006957564052939414,-0.0013839240724919362,0.02023092365656048
1746576235278764500,10.6157646484375,-0.0048620530784130095,0.005183101726323366,0.00583536422313191
1746576235288729300,10.625729248046875,-0.013541034096479415,-0.0035692641883622853,0.0016749657412059604
1746576235298693400,10.635693359375,-0.02596095520853996,-0.00851763927678112,0.009038434580760077
1746576235308658700,10.64565869140625,-0.01653320164978504,-0.013360859790560788,0.008141202613245696
1746576235318623500,10.65562353515625,0.010400982505083084,-0.002474203527229838,0.0038537345523945985
1746576235328587500,10.66558740234375,-0.005461188015341759,-0.007907001131726429,-0.0012366382560227065
1746576235338552600,10.675552490234375,-0.01847965954244137,0.004337426416110247,0.0008903547021560371
1746576235348516400,10.685516357421875,-0.012345102310180663,0.003171022118395194,-0.002836365070240572
1746576235358481400,10.6954814453125,-0.015787351718544958,0.01530327169576194,-0.0029270846941508353
1746576235368446500,10.705446533203125,-0.025214520755410193,0.011247653329139575,-0.0020221717436797915
1746576235378410500,10.715410400390626,-0.005313303977251053,0.004850586402905173,0.0002529335814528167
1746576235388375600,10.72537548828125,-0.021025836893916128,0.005951158922794275,0.0030873167571611702
1746576235398340400,10.73534033203125,-0.012497078001499176,0.0065520017596194515,-0.00013929887283593417
1746576235408304400,10.745304443359375,-0.015040332743525503,-0.0027519290566444393,0.010160004222905262
1746576235418269400,10.75526953125,-0.010700842234492301,0.006252123763901181,-0.0060184839713852845
1746576235428233700,10.765233642578124,-0.019229601126909256,-0.003476032946957275,0.013522849985817447
1746576235438198500,10.775198486328126,-0.0002262099713087082,0.005036035105562769,0.022109595276322214
1746576235448163600,10.78516357421875,-0.004864975687861442,-0.013708965408755465,0.00836171349612996
1746576235458127600,10.795127685546875,-0.010251929423213004,-0.0028073399051558225,0.010791954584047197
1746576235468092400,10.805092529296875,-0.008157002970576286,0.003751306224381551,-0.0035621768604498353
1746576235478057700,10.8150576171875,-0.020726561686396597,0.005490692671039141,0.017434826664626597
1746576235488021500,10.825021484375,-0.011000117442011832,0.02331174217427615,-0.01312129258075729
1746576235497986600,10.834986572265626,-0.023120763346552848,0.010480084756435826,-0.012838703646557405
1746576235507950600,10.84495068359375,-0.012048165190219878,0.0003380180490203202,0.010966982357390223
1746576235517915400,10.854915283203125,-0.02237199080586433,0.005099898688588291,0.0019312146577518431
1746576235527880400,10.86488037109375,-0.02237199080586433,-0.0021992773096775635,-0.0005044149913359434
1746576235537844500,10.874844482421874,-0.010100538253784179,0.004255680116522126,0.01466438470375724
1746576235547809500,10.8848095703125,-0.02431611061096191,-0.006218637052830309,-0.010642636640695854
1746576235557773600,10.894773681640626,-0.013541618618369103,0.0023971608022227884,0.00026131781730800866
1746576235567738600,10.904738525390625,-0.009500234273076056,0.004459650856559165,-0.004906540674110874
1746576235577703400,10.914703369140625,-0.02027414174377918,0.006390212493762373,-0.002975408214749768
1746576235587667500,10.92466748046875,-0.019973112970590592,-0.0187927121135639,0.01110629949653521
1746576235597632500,10.934632568359374,-0.0138379712164402,0.002348755083233118,0.011382860548747703
1746576235607597600,10.94459765625,-0.013090367719531058,-0.0027341742042452095,0.00021793533330783247
1746576235617561600,10.9545615234375,-0.02595803259909153,0.0016996663576224818,0.009457701172446832
1746576235627526400,10.9645263671875,-0.027304771032929418,0.0044988549223635346,-0.005063028143765405
1746576235637490400,10.974490478515625,-0.020870938593149185,0.004853184785367921,-0.0026308599602431057
1746576235647455500,10.98445556640625,-0.015483984857797622,0.0002755975044099614,0.0018291607890743762
1746576235657420300,10.994420166015624,-0.007104863569140434,0.006290437347139232,0.00841400080579333
1746576235667384600,11.004384521484376,-0.027904490491747855,0.0009301021906547248,0.0018328779829666017
1746576235677349600,11.014349609375,-0.013836802172660827,0.0010254934231052175,0.0041151802338659765
1746576235687314400,11.024314453125,-0.007401800689101219,0.00423732704250142,-0.00010620032083243131
1746576235697278500,11.034278564453125,-0.012190204009413718,0.00227815579874441,-0.014776028384687378
1746576235707243500,11.044243408203124,-0.00949614261984825,0.004525030543236061,0.00855739133185707
1746576235717207600,11.05420751953125,-0.011890928801894187,-0.00038876642214599993,0.005414471929939464
1746576235727172600,11.064172607421876,-0.030295185020565985,-0.005871033758134581,0.00988292258088477
1746576235737137700,11.0741376953125,-0.021017653587460515,-0.014447581881610676,0.001996790707251057
1746576235747101400,11.084101318359375,-0.009794833305478095,-0.009272165704821237,0.0016963555891066789
1746576235757066500,11.09406640625,-0.01862111383974552,0.004158256757189519,0.00791393319601193
1746576235767030500,11.104030517578124,-0.027149872732162475,0.00517764466649387,0.016083375523053108
1746576235776995300,11.113995361328126,-0.012634440645575522,-0.002023728946526535,-0.004269850205769762
1746576235786960600,11.123960693359376,-0.006947042658925056,0.0005086710413452237,-0.015846050502685827
1746576235796924700,11.133924560546875,-0.013380875098705291,0.011099098004191182,-0.004783781944122165
1746576235806889500,11.143889404296875,-0.010688567274808883,-0.003029987946199253,-0.003551984259998426
1746576235816854500,11.1538544921875,-0.019366379249095917,0.009211439360375516,0.002990468786563724
1746576235826818600,11.163818603515624,-0.012632102558016776,-0.0026632141601527107,-0.0016680793426930903
1746576235836783400,11.173783447265626,0.003677811729907989,0.0043160320016322655,0.002893593416502699
1746576235846747400,11.183747314453125,-0.020562895557284355,-0.0034955048324074593,0.0024001473437529055
1746576235856712700,11.193712646484375,-0.010087678772211074,-0.022103384731244295,-0.002730283480416983
1746576235866677500,11.203677490234375,-0.008142974445223808,-0.0015949182083597406,0.008105482845893129
1746576235876641500,11.2136416015625,-0.01697100854516029,-0.00011927899811416863,0.019025739984726533
1746576235886606300,11.2236064453125,-0.00978898808658123,0.0018202650965657085,0.0093540307354182
1746576235896570400,11.2335703125,-0.013681319350004195,-0.008612688015936874,0.010824541679397224
1746576235906535700,11.24353564453125,-0.02879530185163021,-0.0065578469785163174,0.004885086894128471
1746576235916500500,11.25350048828125,-0.004554010042548179,0.005201536998734809,0.008238927366677671
1746576235926464500,11.263464599609375,-0.018619944795966147,-0.0018294302171329036,0.010200062238657846
1746576235936429600,11.2734296875,-0.020715455770492552,-0.00211360375364311,-0.004580660587456077
1746576235946394400,11.283394287109376,-0.030890812826156615,0.0036285155283519994,0.0015241499605122952
1746576235956358400,11.2933583984375,-0.011437924337387084,0.002263086093775928,0.0073718713417183605
1746576235966323700,11.30332373046875,0.005770400094985962,0.0027676837482023984,0.008981717691151424
1746576235976287500,11.31328759765625,-0.018619944795966147,-0.0008617679284885525,0.0011775924120098352
1746576235986252500,11.32325244140625,-0.014879004701972006,-0.008496833950770086,-0.00407460162830539
1746576235996217600,11.333217529296874,-0.0015624270111322402,0.004103617660235613,0.006913578780740499
1746576236006181400,11.343181396484376,-0.013532850790023802,0.005432582975365221,0.01035581905595027
1746576236016146400,11.353146484375,0.006218143862485885,-0.006820827029948123,-0.0008133439431898295
1746576236026111500,11.363111572265625,-0.02505786888897419,0.00014791143755428493,-0.005932002131175249
1746576236036075500,11.373075439453125,-0.013985855254530905,0.0006241186811355874,0.008673729454213753
1746576236046040600,11.38304052734375,-0.0050064299851655955,-0.013222227638005278,-0.0018578754269052296
1746576236056004600,11.393004638671876,-0.036729601982235904,0.002030469214566983,0.011005935261445119
1746576236065969400,11.402969482421875,-0.03328852161765098,0.005193330859392881,-0.0001660955482162535
1746576236075934500,11.4129345703125,-0.020271219134330748,-0.0030885132004041223,0.0009474643174093216
1746576236085898500,11.4228984375,-0.005906593695282936,-0.0004963778153527528,-0.011302991112414746
1746576236095863600,11.432863525390625,-0.013837386694550513,0.001726613730052486,-0.008276656428026035
1746576236105827600,11.44282763671875,-0.030447745233774182,0.006515962331858464,-0.006738633205788209
1746576236115792600,11.452792724609376,-0.011593991681933402,0.009612174781528302,0.0023801092027220874
1746576236125757400,11.46275732421875,-0.012043489015102386,0.006290012655453756,0.0019009565168060362
1746576236135721500,11.472721435546875,-0.004861468556523323,-0.00044759307045023883,-0.011669194076303391
1746576236145686500,11.4826865234375,-0.016533786171674728,0.0027017423725221304,-0.0044466406779363745
1746576236155651600,11.492651611328125,-0.030898996132612228,0.0013923950733151285,0.006896170988213271
1746576236165615600,11.50261572265625,-0.021024083328247067,-0.01216191406326834,0.010105707619246096
1746576236175580400,11.512580322265626,-0.009203297153115271,-0.000742493496951647,0.006087201826041564
1746576236185544400,11.52254443359375,-0.019527122768759727,-0.030867966240108943,0.006492905683256685
1746576236195509500,11.532509521484375,-0.012943068203330039,-0.00935138668718282,0.0008184311102610081
1746576236205474600,11.542474609375,-0.005910685348510742,0.0034009401504416018,0.006688364323275163
1746576236215438600,11.5524384765625,-0.01563829863667488,-0.001493526493385434,0.010055520935123786
1746576236225403600,11.562403564453126,-0.015039748221635818,-0.0005528618095209821,-0.006884170023165643
1746576236235368400,11.572368408203126,-0.005762216788530349,0.0021643018944188953,-0.0034760420801118012
1746576236245332500,11.58233251953125,-0.009352934756875037,0.004109809939004481,-0.004887032256042584
1746576236255297500,11.592297607421875,-0.013842647391557692,0.00477628362425603,-0.02462586154672317
1746576236265261300,11.60226123046875,-0.0038169279396533962,-0.0021854816797655073,-0.0023407544398680326
1746576236275226600,11.6122265625,-0.01713409015238285,-0.0015688978511141612,0.005518672089930623
1746576236285191400,11.62219140625,-0.012795184165239334,-0.00025963731687515975,0.0182324615820311
1746576236295155500,11.632155517578125,0.0020177695631980893,0.004759241157909855,-0.0007627462671138345
1746576236305120500,11.64212060546875,-0.012348609441518783,0.002689983436069451,-0.0026187128647230562
1746576236315084500,11.65208447265625,-0.01624094070494175,0.0018998833711491897,-0.0029686314140912142
1746576236325049300,11.66204931640625,-0.009509002101421356,-0.019984200620185584,0.0017565248111262915
1746576236335014700,11.6720146484375,0.013982348123192786,0.0019860638172598554,-0.002313601571461186
1746576236344978700,11.681978759765625,0.006499883413314819,-0.018552080891258083,-0.0022758633769582957
1746576236354943500,11.691943603515625,-0.022977555483579635,-0.01546075011268258,0.006961144249513745
1746576236364908500,11.701908447265625,-0.0775946963340044,-0.0014050399257568643,0.016201129284361376
1746576236374872300,11.711872314453124,-0.015496844339370727,0.01570182885956019,0.012403216572431847
