time,seconds_elapsed,z,y,x
1746739373630488300,0.02248828125,-0.018693594554066658,-0.021926585125923156,-0.02676774154677987
1746739373640568600,0.032568603515625,-0.12265256620049476,-0.051794484645128244,-0.058244318371638654
1746739373650647300,0.042647216796875,-0.24858780733346938,-0.038407179805636404,-0.045687071148119866
1746739373660727600,0.0527275390625,-0.3017787147730589,-0.002323474511504173,-0.000005626023188233375
1746739373670807600,0.0628076171875,-0.3131184394329786,0.007541501420736312,0.008958601677045226
1746739373680887600,0.072887451171875,-0.2127326500982046,0.0053664954692125314,0.03679342446606606
1746739373690966500,0.082966552734375,-0.10212649552226066,0.034573885253071784,0.02258976174239069
1746739373701046500,0.093046630859375,0.00020575170516967773,0.052876434662938114,0.0021126813050359487
1746739373711126500,0.10312646484375,0.13605623765289782,0.039521278527379036,0.009718881992436946
1746739373721206500,0.11320654296875,0.22111352495253084,0.014692542219161987,0.05098835589401424
1746739373731285500,0.123285400390625,0.2662339386612177,0.014667407777905463,0.060131081966310736
1746739373741365500,0.133365478515625,0.2656844880849123,0.02577975342273712,0.05364741903543472
1746739373751445500,0.143445556640625,0.18760346953868864,-0.007416413736343383,0.010166406564228236
1746739373761524500,0.1535244140625,0.1026473045259714,-0.002022445738315582,-0.011145699925161897
1746739373771604500,0.1636044921875,-0.0012415244936943054,0.004129647150635719,0.013542093542404472
1746739373781684500,0.1736845703125,-0.06261749195456505,0.0040104046851396555,0.02308919916450977
1746739373791764500,0.183764404296875,-0.12497428714632987,0.022498247534036633,0.010505246597155928
1746739373801843500,0.193843505859375,-0.18786533534526823,0.026798575076460836,0.0012326470674946903
1746739373811923500,0.20392333984375,-0.1972644473314285,0.02381692891716957,-0.007867920363508165
1746739373822003700,0.214003662109375,-0.1595931805849075,0.014496142864227294,-0.0016917890118435025
1746739373832083500,0.22408349609375,-0.1284510233461857,0.03305588190555572,0.02330627598129213
1746739373842162700,0.23416259765625,-0.06608136867284774,0.03360416343808174,0.04082691776584833
1746739373852242400,0.244242431640625,0.02657178058326244,0.02836041756570339,0.04720120203811675
1746739373862322700,0.25432275390625,0.08383154489696025,-0.0061859951585531234,0.034818617261759936
1746739373872402400,0.26440234375,0.09418693469464778,-0.00885083045363426,0.007014920263364911
1746739373882482200,0.274482177734375,0.1007698202162981,-0.0037602293163537977,0.0004803308628499508
1746739373892562000,0.28456201171875,0.11807459076046943,-0.0212754277408123,-0.008999993133358657
1746739373902642000,0.294641845703125,0.11606968067884445,0.0004839841246604919,0.010271912765316665
1746739373912721000,0.304720947265625,0.08605798877477645,0.011689268749952316,0.004975523390248418
1746739373922801000,0.31480078125,0.05640694687664508,0.025524317356944083,-0.012767382842861115
1746739373932881000,0.324880859375,0.004436521142721176,0.020104045873880386,0.012612740270420909
1746739373942961000,0.3349609375,-0.03743044372797012,0.01127776533961296,0.035671653894521295
1746739373953040000,0.345039794921875,-0.06577741729021072,0.012784078249335288,0.025741649902053177
1746739373963119900,0.355119873046875,-0.08469488372802735,0.018664368459582328,0.03732015175390988
1746739373973200100,0.3652001953125,-0.1253735155969858,-0.00006546645164489745,0.0018154884567484258
1746739373983279900,0.37527978515625,-0.09985562798082828,0.0015741174489259718,-0.014117372679710386
1746739373993359000,0.385359130859375,-0.03337210824787617,0.006121113228797912,-0.008923749559372663
1746739374003438800,0.39543896484375,0.030185294905304905,0.007082651737332343,-0.011306808771006762
1746739374013519000,0.40551904296875,0.08399345746040343,0.020620178702473638,0.0265417873037979
1746739374023598000,0.41559814453125,0.12046703885495662,0.018533435556292534,0.0561471634292975
1746739374033678000,0.425677978515625,0.07707856350541115,0.0071639002799987785,0.06381510424129665
1746739374043757800,0.4357578125,0.006562427255511283,0.017343933510780334,0.008368746025115252
1746739374053838000,0.445838134765625,-0.025298107385635375,-0.010000000488758086,-0.0017937150163576006
1746739374063916800,0.455916748046875,-0.03337269276976585,-0.019602526092529295,-0.038943186378479
1746739374073997000,0.4659970703125,-0.05694704510271549,-0.01007306572496891,-0.06531765429135411
1746739374084076800,0.476076904296875,-0.061925418037176126,0.00044774376749992365,-0.013252280282974243
1746739374094157000,0.486156982421875,-0.01374386319220066,0.027301848423480986,0.046633375554904336
1746739374104235800,0.49623583984375,0.037332244050502776,0.044590836876630784,0.08944638910405338
1746739374114316000,0.50631591796875,0.03114624889194965,0.0404682039886713,0.06956435195039957
1746739374124396000,0.51639599609375,0.019991233149170874,0.014222586619853973,0.03312902020700276
1746739374134476000,0.52647607421875,0.013127192598581314,0.008534019589424133,-0.01620429848898202
1746739374144555000,0.536554931640625,0.030813071414828298,-0.03145663001537323,-0.06411291814409197
1746739374154635000,0.546635009765625,-0.018556816431879997,-0.04545125309824943,-0.061000814005546265
1746739374164715000,0.556715087890625,-0.014535890352725981,-0.002865326303243637,-0.026409575758874416
1746739374174794000,0.5667939453125,-0.02841010192632675,0.029634675285220145,0.062213514263555404
1746739374184874000,0.5768740234375,-0.016665303596854208,0.052718613752722736,0.10451781110558658
1746739374194954000,0.5869541015625,-0.003509469425678253,0.06289923150539398,0.11806059876773506
1746739374205034000,0.597033935546875,-0.014143091642856598,0.04136778317689895,0.08119608182683587
1746739374215113000,0.607113037109375,0.019085808742046354,0.018076339438557625,0.006898892668262124
1746739374225193000,0.61719287109375,0.06322364115417003,-0.005729483562707901,-0.05671126358546316
1746739374235273000,0.62727294921875,0.10522972223460673,-0.0018874211817979812,-0.05182988475207239
1746739374245353000,0.63735302734375,0.10193126521110533,-0.013859014004468918,-0.017189217873103915
1746739374255432000,0.647431884765625,0.12468494881093502,-0.002686462604999542,0.025951274064742028
1746739374265512000,0.657511962890625,0.1158493159264326,0.03494388760924339,0.07208795214388519
1746739374275592200,0.66759228515625,0.06134674136638641,0.006353752940893173,0.06635412119962275
1746739374285671000,0.6776708984375,-0.002444470542669296,0.012574234890937805,0.06087214612457901
1746739374295751200,0.687751220703125,-0.08862170178294182,-0.0022018939584493636,0.005197020653821527
1746739374305831000,0.697830810546875,-0.16189619683027268,-0.019309680625796317,-0.02778071798160672
1746739374315911200,0.7079111328125,-0.2405734277039766,-0.030401568004488944,-0.03622632863521576
1746739374325990000,0.717989990234375,-0.23038638021051883,-0.020419103172421453,-0.024122305071912705
1746739374336070100,0.728070068359375,-0.1690104127496481,-0.003993453550338745,-0.02958294509798288
1746739374346150000,0.73814990234375,-0.06259177299141884,0.022930793732404708,0.002203172600083053
1746739374356230100,0.748230224609375,0.04701309558749198,0.036651276049017904,0.022700930499285458
1746739374366308900,0.758308837890625,0.16774726094603537,0.05686638108193874,0.03924998730532825
1746739374376389000,0.76838916015625,0.2278817039132118,0.04723287581801414,0.06693429570775479
1746739374386468900,0.77846875,0.21225860284566878,0.022103110736608506,0.048119011002779
1746739374396548900,0.788548828125,0.17812193996608255,-0.006267828223109245,0.02045844880212098
1746739374406627800,0.7986279296875,0.09175181650221348,-0.033009704676270485,-0.022120061871409413
1746739374416708000,0.8087080078125,-0.03313245427310466,-0.022417583513259887,-0.025767770723998544
1746739374426788000,0.8187880859375,-0.14029869752824306,-0.01866027680635452,0.002271707791648805
1746739374436867000,0.8288671875,-0.19628829577565193,0.01916881085038185,0.03034066813010722
1746739374446947000,0.838947021484375,-0.2081447377860546,0.03756546828448772,0.029507286045886573
1746739374457027000,0.849027099609375,-0.1554945130944252,0.03399403953850269,0.03659172788150608
1746739374467107000,0.859107177734375,-0.10890344231128692,0.04976327107846737,0.031020028696395453
1746739374477186000,0.86918603515625,-0.04672901794910431,0.03825520411431789,0.007959617234952747
1746739374487266000,0.87926611328125,0.017891045999526976,0.006497545325756073,-0.029475831461697816
1746739374497346000,0.889345947265625,0.17331775455474852,0.019798340925574302,-0.005256970680132508
1746739374507426000,0.899426025390625,0.14462065238058566,0.030333178943395614,0.06056647770889103
1746739374517505000,0.909505126953125,0.1570113473981619,0.007715688943862915,0.03699866471458226
1746739374527585000,0.9195849609375,0.16378069540262222,0.011795067211985588,0.04489822232536971
1746739374537664800,0.929664794921875,0.1126777001529932,-0.005938742399215698,0.04410294376183301
1746739374547744000,0.939743896484375,0.027065701580047605,-0.01974924108684063,0.05608425426091999
1746739374557824000,0.949823974609375,-0.048936172604560846,0.020323826104402542,0.026633082316443322
1746739374567904000,0.959904052734375,-0.09110884242355823,0.024240122765302657,0.021912081676535307
1746739374577984000,0.96998388671875,-0.10560089363455771,0.028358079478144643,0.014636647313460706
1746739374588063000,0.98006298828125,-0.10570610757470131,0.02770458400547504,0.016971994925849138
1746739374598143000,0.99014306640625,-0.10464403130114078,0.02671557296812534,0.022672544655017553
1746739374608223000,1.000222900390625,-0.05553600926101208,-0.0006213467687368392,0.001879603201523423
1746739374618303000,1.010302978515625,-0.0041582887232303615,-0.009397358420491218,-0.02420165391843766
1746739374628382000,1.0203818359375,0.025696751314401627,-0.008325929796695709,-0.011501308429799973
1746739374638462000,1.0304619140625,0.01701777029633522,-0.011626140385866164,-0.0019618381248787046
1746739374648542000,1.0405419921875,0.049936289557814595,-0.00874853912293911,0.003127228642441332
1746739374658621200,1.05062109375,0.040595045238733286,0.017600538620352744,0.026757000957056878
1746739374668701000,1.060700927734375,0.0372007266253233,0.014544073659181594,0.057291876485012466
1746739374678781000,1.070781005859375,0.034714170506596566,0.04095920237600803,0.06513846179954708
1746739374688861000,1.08086083984375,-0.002186111867427826,0.0401326884239912,0.03625011136960238
1746739374698940200,1.090940185546875,-0.021485855621099472,0.033355157113075254,0.03468625958636403
1746739374709020000,1.10102001953125,-0.03148702515363693,0.008121347135305405,0.038146848369017244
1746739374719100000,1.111099853515625,-0.06009937165379524,-0.002454991936683655,0.014686989261209964
1746739374729180200,1.12118017578125,-0.055742930009961125,-0.010732990938425063,-0.03989413042776287
1746739374739259000,1.1312587890625,-0.025834113958477973,-0.020218612164258954,-0.03647040305677801
1746739374749339100,1.141339111328125,-0.028750293666124343,-0.01246200668811798,-0.02066284880042076
1746739374759419000,1.1514189453125,-0.007286649876832961,-0.012038812839984894,0.003775865276902914
1746739374769498000,1.161498046875,-0.005894318735599518,0.008302548921108245,0.020774857807531952
1746739374779577900,1.171577880859375,-0.032495909935235975,0.02237199080586433,0.04200589841734618
1746739374789658000,1.181658203125,-0.019811200407147407,0.018743863436579702,0.04621931486129761
1746739374799737900,1.19173779296875,0.01600128673017025,0.020918284866213797,0.03592066021952778
1746739374809817000,1.201817138671875,0.02035305219888687,0.011480594435334205,0.03160067812856287
1746739374819896800,1.211896728515625,0.0009603694647550582,0.017844868770241735,0.012013495735637843
1746739374829977000,1.22197705078125,0.018438743010163305,0.002026537391543388,0.02844130078218877
1746739374840056800,1.232056884765625,0.015662848556041716,0.008397825989127158,0.03463536964934319
1746739374850136000,1.242135986328125,0.015580430969595908,0.01418868435025215,0.02465619275290519
1746739374860215800,1.2522158203125,0.029761516535282133,0.011008300748467445,0.02082169262394309
1746739374870296000,1.262296142578125,0.027319384080171583,0.016536124259233474,0.023403671941161153
1746739374880374500,1.27237451171875,0.025776830813288687,0.0023047698110342024,0.013326258834637702
1746739374890454500,1.28245458984375,0.008206687331199645,-0.010727145719528198,-0.003960245400480926
1746739374900534300,1.2925341796875,-0.03186813342571258,-0.0026198271095752715,-0.008553491474874317
1746739374910614500,1.302614501953125,-0.06833353151381015,0.0037479543566703794,-0.019157047347351908
1746739374920693500,1.312693603515625,-0.08014613438248634,0.008142974445223808,0.018549108049459754
1746739374930773500,1.3227734375,-0.05166004461050033,0.009054828593134879,0.03605495412368327
1746739374940853500,1.332853515625,-0.01970774003267288,0.024901217022538183,0.04054521474763751
1746739374950932500,1.342932373046875,0.013767244067788124,0.009038461980223655,0.032764388145692644
1746739374961012500,1.353012451171875,0.023376783934235573,0.010178864187002182,0.02961092908345163
1746739374971092500,1.363092529296875,0.05710661957859993,-0.0018283844709396362,0.02046133487895131
1746739374981172500,1.37317236328125,0.06075578973591327,-0.009594342297315596,0.03075341364946216
1746739374991251500,1.38325146484375,0.03342646878361702,-0.01374912388920784,0.017830621049180626
1746739375001331500,1.39333154296875,-0.0026888006925582884,0.007474281403422356,-0.009226312702521682
1746739375011411500,1.403411376953125,-0.02500467739701271,0.0048643911659717555,-0.0037242812201380726
1746739375021491500,1.413491455078125,-0.0037643209695816036,-0.0028723405659198758,0.021990772935934363
1746739375031570400,1.4235703125,-0.01788870791196823,0.035358898150920866,0.004221636283025145
1746739375041650400,1.433650390625,-0.00009527706801891326,0.045585693132877345,0.04390544842835516
1746739375051730400,1.44373046875,0.016503391033411027,0.03820551975369453,0.028139906682819127
1746739375061809700,1.4538095703125,0.05602466956079006,0.014831658428907393,0.01961107472516596
1746739375071889400,1.463889404296875,0.07925240041315555,0.012466682863235472,0.014963431582413613
1746739375081969400,1.473969482421875,0.08306348313391208,-0.018194412860274314,-0.0030341435315087437
1746739375092049700,1.484049560546875,0.024562778848409652,-0.03267302006781101,0.008377879179641603
1746739375102128400,1.49412841796875,-0.060709612506628034,-0.02648994751870632,-0.00044635552801191805
1746739375112208600,1.504208740234375,-0.12390461208820343,0.010014029014110564,0.030637934043630955
1746739375122288400,1.514288330078125,-0.15794249076843261,0.01707739152908325,0.06189842043239623
1746739375132368600,1.52436865234375,-0.15668226157426834,0.03048749272227287,0.028570333989337084
1746739375142447400,1.534447265625,-0.08705459859669208,0.032817981496453284,0.015277977424301207
1746739375152527600,1.544527587890625,-0.030194062733650207,0.026405191844701765,0.02304894021935761
1746739375162607400,1.554607421875,0.028496611166000364,0.0382896909058094,0.0452552190694958
1746739375172686600,1.5646865234375,0.08538403503596782,0.024544658669829366,0.030751331290230152
1746739375182766300,1.574766357421875,0.10590952119231223,0.015979659420251844,0.015006722734868526
1746739375192846600,1.5848466796875,0.09693652566373348,0.0064876084536314,0.005472988050989806
1746739375202926300,1.59492626953125,0.11404840398430824,0.0007785831570625305,0.01894482936877757
1746739375213005600,1.605005615234375,0.08808394164443016,-0.004176993423700332,0.01989993813652545
1746739375223085300,1.615085205078125,0.044692543685436244,0.0003524666994810104,-0.0016329714966937898
1746739375233165600,1.62516552734375,0.003921557357907295,0.004015665382146835,-0.0025581235175952313
1746739375243244300,1.635244384765625,-0.05076163446605205,-0.007646130838990211,0.022838220078125596
1746739375253324500,1.645324462890625,-0.06555939062535762,0.012556699234247208,0.029087453198619186
1746739375263404500,1.655404541015625,-0.06223872177004814,0.019382161340117453,0.04012487044371664
1746739375273484500,1.665484619140625,-0.06022036768496036,0.004252981269359589,0.03000931728389114
1746739375283563500,1.6755634765625,-0.03073416095972061,0.009810030874609946,-0.011407200405560433
1746739375293643500,1.6856435546875,-0.014622399592399596,0.01320142687857151,-0.00047083238214254376
1746739375303723500,1.6957236328125,0.016255553752183915,-0.008626374047994613,0.014831110439635812
1746739375313803500,1.705803466796875,0.01588847400546074,0.018757307440042496,0.03203410110976547
1746739375323882500,1.715882568359375,0.03346154009699821,0.006503390544652939,0.029370179130136963
1746739375333962500,1.72596240234375,0.03950082026124,0.022292495828866957,0.008954473491199315
1746739375344042500,1.73604248046875,0.039022681355476374,0.008874211329221724,0.03567355359066277
1746739375354121500,1.74612158203125,0.03583528349101543,0.007934300130605696,0.007270210198685526
1746739375364201500,1.756201416015625,0.022032968109846115,0.01686521008312702,0.014676687062904238
1746739375374281500,1.766281494140625,0.036759412598609924,0.01257657297849655,-0.006265197874605655
1746739375384361500,1.776361572265625,0.04095978689789772,0.01073357546031475,0.01761624764613807
1746739375394440400,1.7864404296875,0.029125556719303128,0.002920271360874176,0.0005429477702826261
1746739375404520400,1.7965205078125,0.0031102409750223157,-0.0028501287341117856,0.002452726914361119
1746739375414600700,1.8066005859375,-0.008415946167707442,-0.020609657308459282,0.007489077113755047
1746739375424680400,1.816680419921875,-0.03863105168938637,0.0006014730244874954,0.010053411176428198
1746739375434759400,1.826759521484375,-0.04974398185610771,0.013200257834792136,0.0032234190259128807
1746739375444839400,1.83683935546875,-0.013859014004468918,0.015321487772464752,0.013591595239937304
1746739375454919700,1.846919677734375,0.029760932013392447,0.024251228681206702,0.05277143991850316
1746739375464998400,1.856998291015625,0.011368950754404068,0.0022848960667848587,0.036529476300254465
1746739375475078700,1.86707861328125,0.005261866050958633,0.007095511218905448,0.03219685392342508
1746739375485158400,1.877158447265625,-0.008181552889943123,0.021625556352734564,0.03204809310249984
1746739375495238700,1.88723876953125,0.00727671300470829,0.003940262058377266,0.012927980232052504
1746739375505317400,1.8973173828125,-0.0027899229794740676,-0.006907879692316055,0.008609130652248859
1746739375515397600,1.907397705078125,0.00436053329706192,-0.011907879936695098,0.0049149888420477504
1746739375525477400,1.917477294921875,-0.006157938107848167,-0.005735913303494453,-0.01817797318212688
1746739375535556600,1.927556640625,-0.02021802764236927,0.0051256724506616586,-0.030780922710895536
1746739375545636400,1.93763623046875,-0.039185178440809244,0.0015618424892425537,0.008035568547993898
1746739375555716600,1.947716552734375,-0.03896422916650772,0.011250292810797691,0.016833499770611524
1746739375565796600,1.957796630859375,-0.023509470403194427,0.02460954059958458,0.018544249211251734
1746739375575875600,1.96787548828125,0.016155600509047508,0.01868950290083885,0.03697429745830595
1746739375585955300,1.977955322265625,0.030600305446982383,0.03744154964387417,0.0372365651236847
1746739375596035600,1.98803564453125,0.049803018566966055,0.016794482934474945,0.037056349718570705
1746739375606115600,1.998115478515625,0.06318389366567134,0.023412439769506452,0.019179368777014313
1746739375616194600,2.008194580078125,-0.0014747487276792525,-0.017971710020303726,-0.005886756483651698
1746739375626274600,2.018274658203125,-0.055607320931553836,-0.0071107087880373,-0.006687624537758529
1746739375636354600,2.0283544921875,-0.095915365922451,-0.013457447466254234,0.013425846751593053
1746739375646433500,2.03843359375,-0.07941840462982654,0.016117022064328194,0.03436367656849325
1746739375656513500,2.048513427734375,-0.057818567240238185,0.017827917635440824,0.026158779335580765
1746739375666593500,2.058593505859375,-0.018587796092033385,0.013144143733382223,0.03559712735358626
1746739375676673500,2.068673583984375,0.019505495458841324,0.004855623337626457,0.01913187637347728
1746739375686752500,2.07875244140625,0.0690589231789112,0.015122165808081626,0.018068777186609805
1746739375696832500,2.08883251953125,0.10299334148466587,-0.0037818566262722013,-0.002228928095847368
1746739375706912500,2.09891259765625,0.11396481735408305,0.01052840827703476,-0.004886602997779846
1746739375716992300,2.1089921875,0.08259235849082469,0.004534720820188522,0.034686697977781296
1746739375727071500,2.119071533203125,0.0716471861064434,0.0012274959683418274,0.009661854575574398
1746739375737151500,2.1291513671875,0.06107903034090995,0.0032429274439811705,0.002056055746972561
1746739375747231500,2.1392314453125,-0.004203296908736229,0.007847790890932082,0.009866108443401753
1746739375757310500,2.149310546875,-0.050936991032958026,-0.0007885200291872024,0.0212220901183784
1746739375767390500,2.159390380859375,-0.10472001914680004,-0.010265373426675797,0.00006539338640868664
1746739375777470500,2.169470458984375,-0.11311199991703033,0.0022650223225355146,-0.0047820101121440525
1746739375787550500,2.179550537109375,-0.10576806689500808,0.011398761370778084,0.0318459581265226
1746739375797629700,2.189629638671875,-0.09780804780125617,0.023867782321572304,0.038488209152594204
1746739375807709400,2.19970947265625,-0.0713508335083723,0.019013912549614907,0.03276939311437309
1746739375817789400,2.20978955078125,-0.05440554392635822,0.020371172377467155,0.024693090697191653
1746739375827869400,2.219869384765625,0.003982932156324386,0.02296761861145496,-0.012414441219344735
1746739375837948700,2.22994873046875,0.06530979977846145,0.0047451487004756925,0.010285064507834613
1746739375848028400,2.2400283203125,0.0973451064646244,-0.0020464111357927322,-0.0003201353324577212
1746739375858108400,2.2501083984375,0.08944938477873801,-0.0038432314246892928,0.0029743031030520796
1746739375868187400,2.2601875,0.09658873513936996,0.01024608420431614,0.02063822581581771
1746739375878268000,2.270267822265625,0.08513444418907165,-0.005492167675495148,0.014494316233322023
1746739375888348000,2.280347900390625,0.06427168890237808,0.012452069815993309,0.02306596441939473
1746739375898428000,2.290427978515625,0.0188572606831789,0.01170563536286354,0.03501315345317125
1746739375908507000,2.3005068359375,-0.028573768055438993,0.0008306056052446365,0.024716435040161012
1746739375918587000,2.3105869140625,-0.03690495854914188,0.0007628010660409927,0.0006454948293045163
1746739375928667000,2.3206669921875,-0.06364975761175155,0.007235796472430229,0.007054704284481704
1746739375938745900,2.330745849609375,-0.08479717505872249,0.010265957948565482,0.012069792500138283
1746739375948825900,2.340825927734375,-0.10810966158509254,0.0014531214177608488,-0.010114237985573708
1746739375958905900,2.35090576171875,-0.10831892042160034,0.008522329151630401,-0.013309855689108372
1746739375968985900,2.36098583984375,-0.052901569104194635,-0.0012929624199867248,0.02719550197217613
1746739375979064800,2.37106494140625,-0.0072808046579360955,0.02507131289243698,0.0358283057609573
1746739375989144800,2.381144775390625,0.038328853872418404,0.026200024661421774,0.033595980131626124
1746739375999224800,2.391224853515625,0.04841711716651916,0.012159808871150016,0.021893961497955024
1746739376009305000,2.40130517578125,0.07338204707503318,0.005747019219398498,0.04551346814688295
1746739376019383800,2.4113837890625,0.07237550038099289,-0.01175707328915596,0.021721600605733693
1746739376029464000,2.421464111328125,0.05143734177052974,0.005824760630726814,0.01343636814560741
1746739376039543800,2.431543701171875,0.030765725141763685,0.022419921600818633,0.03486366197988391
1746739376049623000,2.441623046875,0.035901918986439706,0.027743746972084045,0.029110066889226436
1746739376059702800,2.451702880859375,0.010413841986656189,0.007427519652247428,0.013681319350004195
1746739376069783000,2.461782958984375,-0.005587444743514061,0.010083002597093582,-0.012858056800998746
1746739376079862800,2.47186279296875,-0.022875264152884482,-0.0018488427370786666,0.002496858317032456
1746739376089942000,2.48194189453125,-0.024928105029463767,0.0024970775127410886,0.016643347493372856
1746739376100021800,2.492021728515625,-0.05932312658429145,-0.003122515934705734,0.00830379103012383
1746739376110102000,2.50210205078125,-0.09406243153214454,0.010561726024746894,-0.004251446899399161
1746739376120180700,2.5121806640625,-0.07188742460310459,-0.014296820899844168,0.008728336585126817
1746739376130261000,2.522260986328125,-0.05284136334955692,0.023791794475913047,0.004948598850704729
1746739376140340700,2.5323408203125,-0.0496831915795803,0.03704875093400478,0.00007043488770723343
1746739376150421000,2.5424208984375,-0.027057518273591992,0.030868016472458838,0.035141054149158295
1746739376160499700,2.552499755859375,0.013287351596355437,0.02675999663174152,0.052310507875867183
1746739376170580000,2.562580078125,0.051880993884801864,0.025804303342103957,0.0433123413734138
1746739376180660000,2.572659912109375,0.06124386551380157,0.013589549413323401,0.029536548672989008
1746739376190739000,2.582739013671875,0.06812135006785393,0.003183306211233139,0.01033405474871397
1746739376200819000,2.59281884765625,0.08491700204610825,-0.015148469293117523,-0.004186455371789634
1746739376210899000,2.60289892578125,0.05600187320709228,-0.007768295913934707,0.01159727961756289
1746739376220979000,2.61297900390625,0.01331248603761196,0.0018459201276302337,0.0012335603829473256
1746739376231058000,2.623057861328125,-0.029637597894668577,-0.0031558336824178694,0.005817819433286786
1746739376241138000,2.633137939453125,-0.04065817360281944,-0.006942366483807564,-0.0076511358076706525
1746739376251218000,2.643218017578125,-0.0629547610849142,-0.012213584885001181,-0.0038699002359062432
1746739376261297000,2.653296875,-0.05309446132779121,0.013915128105878829,0.006076872228272259
1746739376271377000,2.663376953125,-0.054047232007980346,0.03992401410937309,0.029273550355248153
1746739376281457000,2.673456787109375,-0.028806407767534254,0.0524807133436203,0.051492140697687865
1746739376291537000,2.683536865234375,0.02976853079795837,0.03341886999905109,0.06125522715803235
1746739376301615900,2.693615966796875,0.06581599573493004,0.02841185549199581,0.03883665726408362
1746739376311696000,2.70369580078125,0.06685702922046184,0.00414484471976757,0.017491927146725355
1746739376321775900,2.71377587890625,0.05734101285636425,-0.01625263114273548,0.00199650757946074
1746739376331854800,2.723854736328125,0.03673077102601528,-0.03560907351970673,-0.01390453364662826
1746739376341934800,2.733934814453125,-0.015702011522650716,-0.011781038686633109,0.000466411935351789
1746739376352015000,2.74401513671875,-0.03978197529017925,-0.009952654215693474,0.02074891964867711
1746739376362094800,2.7540947265625,-0.061090720778703686,-0.016340893948078153,0.033822847690060734
1746739376372174000,2.764174072265625,-0.08138765887618064,-0.00646715018749237,0.0023912425180897113
1746739376382253800,2.77425390625,-0.06819383078217506,0.007898059773445128,0.00008734948989003896
1746739376392334000,2.784333984375,-0.036465982609987256,0.004010989207029343,0.021634360713697967
1746739376402413800,2.794413818359375,-0.02474924133121967,0.026876316487789154,0.041438766053877765
1746739376412493000,2.8044931640625,0.010793196693062782,0.028510639691352844,0.022339257580041884
1746739376422572800,2.81457275390625,0.04666238245368003,0.025536592316627502,0.022633345155790446
1746739376432653000,2.824653076171875,0.0799906515598297,0.005451835665106773,0.00010536007061600685
1746739376442731800,2.834731689453125,0.09175590815544128,-0.014091653716564177,0.014579364168271422
1746739376452812000,2.84481201171875,0.09210954389870166,0.011640753433108329,0.0014368278700858353
1746739376462891800,2.854891845703125,0.03258884891569614,0.014796002593636512,0.02918247453831136
1746739376472971000,2.864970947265625,0.005955109012126922,0.0017833762854337692,0.030025939625129103
1746739376483050800,2.87505078125,-0.04465922593772411,0.008221884900331497,0.01069901560358703
1746739376493131000,2.885131103515625,-0.045243747827410696,0.02084580415189266,0.03225008194800466
1746739376503211000,2.8952109375,-0.05016834474802017,-0.0019160627543926237,0.012257058700546622
1746739376513290000,2.9052900390625,-0.08164894016087054,0.023357494711875915,0.009584551555663347
1746739376523370000,2.915369873046875,-0.09598901568055153,0.033520576807856556,0.019647680408507586
1746739376533450000,2.925449951171875,-0.06832359464168548,0.022146365356445312,0.02419058453515172
1746739376543530000,2.935530029296875,-0.0269482126802206,0.026112930899858472,0.018415727460756898
1746739376553609000,2.94560888671875,0.04870177932679653,0.017567805394530296,0.02248809146620333
1746739376563689000,2.95568896484375,0.060603229522705075,0.0047463177442550655,0.010627594335190952
1746739376573769000,2.96576904296875,0.06137655198276042,0.010749357551336288,-0.00596683598253876
1746739376583848000,2.975847900390625,0.07389759538173675,0.012854220876097678,0.02357943036686629
1746739376593928000,2.985927978515625,0.053070495930314064,0.016328034466505048,0.016353716897033153
1746739376604008000,2.996008056640625,0.03611468495428562,0.007967617878317833,0.02421670535709709
1746739376614087000,3.0060869140625,-0.024804770910739897,-0.0003454524368047714,0.0013772797025740145
1746739376624167000,3.0161669921875,-0.07322948686182498,-0.0016068506747484207,-0.003042436435818672
1746739376634247000,3.026246826171875,-0.08746668652892112,0.021820786663889882,0.01134703118354082
1746739376644327000,3.036326904296875,-0.08088789266049862,0.005227379259467125,0.016642470710538326
1746739376654406000,3.046406005859375,-0.040893151402473446,0.0031090719312429427,0.02586717597786337
1746739376664486000,3.05648583984375,0.01895195322930813,0.028342297387123107,0.03474449257962405
1746739376674566100,3.066566162109375,0.065198740619421,0.03421615785658359,0.06272540930844843
1746739376684644900,3.076644775390625,0.11008826818168163,0.0256891525298357,0.04938636405747383
1746739376694724900,3.086724853515625,0.12155191148221492,0.008902268379926682,0.020438027068600057
1746739376704804900,3.096804931640625,0.0856026462227106,-0.007113631397485732,0.006774462570995092
1746739376714885000,3.106885009765625,0.036895606198906895,-0.007240472647547722,-0.005314180760085582
1746739376724963800,3.1169638671875,-0.017959435060620307,-0.014593173497915267,-0.002837817241810262
1746739376735044000,3.127044189453125,-0.06662146689891815,-0.01610591614842415,0.005297668016701936
1746739376745123800,3.137123779296875,-0.11431319240033626,0.003587795358896255,0.011986753859184681
1746739376755203000,3.147203125,-0.12177578336596488,0.03758183489739895,0.03872629222478717
1746739376765282800,3.15728271484375,-0.10462708016633987,0.025802549776434897,0.004610051078721881
1746739376775363000,3.167363037109375,-0.08672434372901916,0.012165654090046881,0.013291625912673771
1746739376785442800,3.17744287109375,-0.05423486353456974,-0.000820084211230278,0.007521043154597282
1746739376795522000,3.18752197265625,-0.003876549172401428,-0.00604454086124897,-0.005763751158490777
1746739376805601800,3.197601806640625,0.03075286566019058,-0.007746084082126617,0.010130348870158195
1746739376815682000,3.20768212890625,0.08825228394865989,0.014008067086338996,0.008610920750536023
1746739376825760800,3.2177607421875,0.11963058803081512,0.007987491622567176,0.007822985243238509
1746739376835841000,3.227841064453125,0.13186813831329344,-0.0020148469537496568,0.015939035148918628
1746739376845920800,3.237920654296875,0.0829576846718788,0.008201426634192465,0.026554756383225322
1746739376856001000,3.2480009765625,0.047564884251356125,-0.001228080490231514,0.0295749809872359
1746739376866079700,3.258079833984375,-0.019836919370293617,0.014727613532543182,0.024594598758779465
1746739376876159200,3.2681591796875,-0.0677653762370348,0.012020108139514922,0.016418854555115103
1746739376886239000,3.278239013671875,-0.12223814018070697,0.016046294915676117,0.02973678395282477
1746739376896318200,3.288318115234375,-0.1080722521841526,0.014638181683421134,0.019542649131454527
1746739376906398000,3.29839794921875,-0.11138707582056522,0.02002104376554489,0.014686075945757328
1746739376916478200,3.308478271484375,-0.09063362612724303,0.031041619473695752,0.012934519570693373
1746739376926557200,3.31855712890625,-0.03865852421820164,0.005889642560482025,0.001973601627908647
1746739376936637200,3.32863720703125,0.006449030008912086,-0.005909516304731369,0.006609517800249159
1746739376946717200,3.33871728515625,0.06606032588481903,0.012496493479609488,0.014127894073724745
1746739376956797200,3.348797119140625,0.08314239358901977,0.014430676412582397,-0.0024911957612261176
1746739376966876200,3.358876220703125,0.11746727251708507,0.019609540355205533,0.029084640187025067
1746739376976956200,3.3689560546875,0.13926117117404938,0.033089199653267856,0.051851110203191636
1746739376987036200,3.3790361328125,0.10767068564593792,0.011733692413568496,0.027699359841085968
1746739376997115100,3.389115234375,0.04375029439926147,0.011775193467736244,-0.017522687611170113
1746739377007195100,3.399195068359375,-0.028826281511783597,-0.009095160603523254,-0.0006007423721253872
1746739377017275100,3.409275146484375,-0.09787935947179793,-0.004428337836265564,-0.010287439128011465
1746739377027355100,3.419355224609375,-0.12457447417378426,-0.017850129467248916,-0.00814279178213328
1746739377037434000,3.42943408203125,-0.12332827350497245,0.00009936872124671936,0.006196406954713165
1746739377047514000,3.43951416015625,-0.11045242531895637,0.014111527460813521,0.013066584985144436
1746739377057594000,3.449593994140625,-0.056309331721067425,0.0224953249245882,0.028357421891018746
1746739377067673000,3.459673095703125,0.0014309095859527587,0.025507950744032858,0.041587673005275425
1746739377077753000,3.469753173828125,0.034603111347556115,0.0061263739258050915,0.020383118543587625
1746739377087833000,3.4798330078125,0.02091243964731693,0.005773907226324081,-0.015153437729179858
1746739377097912000,3.489912109375,0.027530981004238127,-0.00573649782538414,-0.0052033407967537635
1746739377107992000,3.499991943359375,0.06299567761719227,-0.00009176993668079376,0.008941358281299472
1746739377118072300,3.510072265625,0.05762742858231067,0.025480478215217588,0.0044694004990160465
1746739377128152000,3.520152099609375,0.04262684332728386,0.018379121777415273,-0.0006057473408058286
1746739377138231300,3.530231201171875,0.04881517657339573,0.027702245917916295,0.03930529768913984
1746739377148311000,3.54031103515625,0.04827215573787689,0.025815993779897687,0.031584530711360276
1746739377158391300,3.550391357421875,0.02755436187982559,0.022106617867946623,0.0028405937207862733
1746739377168470300,3.56047021484375,0.01241582945883274,0.006529109507799148,0.002827076652087271
1746739377178550300,3.57055029296875,-0.005903671085834503,-0.006351999375224113,0.023563830938935278
1746739377188630000,3.580630126953125,-0.028932664495706556,-0.0030482816547155378,0.0036164734641090032
1746739377198710300,3.590710205078125,-0.057145198023319244,0.008373276069760321,-0.007059453524835407
1746739377208789000,3.6007890625,-0.04165829055607319,0.00851239227950573,0.00652655222453177
1746739377218869200,3.610869140625,-0.033382045120000835,0.010187047493457793,0.028149697424471376
1746739377228949000,3.620948974609375,-0.027462591943144796,0.024063012632727622,0.03482464514374733
1746739377239028200,3.6310283203125,0.005074819046258926,0.023013795840740203,0.01957406718302518
1746739377249108000,3.64110791015625,0.02521335171163082,0.013010872742533684,0.014426073302701115
1746739377259188200,3.651188232421875,0.037052842587232585,0.004014496338367462,0.012442753998376428
1746739377269268200,3.661268310546875,0.03285772898495197,0.013329437172412872,0.0075670742534101
1746739377279347200,3.67134716796875,0.03440612747073173,-0.0040068975538015365,0.02164955828282982
1746739377289427200,3.68142724609375,0.04152443504333496,0.018750293177366255,0.03305526085104793
1746739377299507200,3.691507080078125,0.027391280272603034,0.01775368335545063,0.018561748335324226
1746739377309586200,3.701586181640625,-0.008701777371764183,-0.004257657444477081,0.02823321098946035
1746739377319666200,3.711666259765625,-0.03049801411628723,-0.01668050116598606,0.012876798034086822
1746739377329746200,3.72174609375,-0.047131753531098365,-0.027120646637678145,-0.024904578023403883
1746739377339826200,3.731826171875,-0.03580839548408985,0.004352349990606308,-0.011060104000940919
1746739377349905200,3.7419052734375,-0.026179566395282745,0.01144026242494583,0.01165277266446501
1746739377359985200,3.751985107421875,-0.020458266139030457,0.025579262414574623,0.03352094213403761
1746739377370065200,3.762065185546875,0.006947627180814743,0.02342296116352081,0.040786476157605646
1746739377380144000,3.77214404296875,0.027198972570896148,0.00019172317981719968,0.02128697204813361
1746739377390224100,3.78222412109375,0.0364203899025917,0.00029459903240203856,0.003429645655117929
1746739377400304000,3.79230419921875,0.059953825703263276,0.011582885766029357,-0.004547324573434889
1746739377410383000,3.802383056640625,0.05852876133620739,0.002241056925058365,0.012046813483349978
1746739377420463000,3.812463134765625,0.04698094688355922,-0.004729366609454154,0.0037089740531519055
1746739377430543000,3.822543212890625,0.040080665975809095,0.004456979408860206,0.025957813403382896
1746739377440623000,3.832623046875,-0.009984218397736548,0.008610591956973076,0.013719788196869193
1746739377450702000,3.8427021484375,-0.030466449934244154,0.014713585007190704,0.01736848343014717
1746739377460782000,3.852781982421875,-0.05702186390459537,0.009034370326995849,0.022646862224489448
1746739377470862000,3.862862060546875,-0.08537468268573284,0.017676526466012,0.0218026664853096
1746739377480941000,3.872941162109375,-0.07624035911560058,0.0007259761869907379,0.008223419270291923
1746739377491021000,3.88302099609375,-0.06428630194962025,-0.014776713371276855,0.007406549929454922
1746739377501101300,3.893101318359375,-0.06448679295778274,0.0036731355547904966,0.005596724028512835
1746739377511181000,3.90318115234375,-0.059607204222679136,0.013729834666848182,0.016183840222842992
1746739377521260300,3.91326025390625,-0.03821604114770889,0.017008417946100234,0.018699184044636784
1746739377531340000,3.923340087890625,0.008908698120713234,0.015550620353221892,0.01601451153792441
1746739377541420300,3.933420166015625,0.07970072870254516,-0.002620411631464958,0.01964892251752317
1746739377551499000,3.9434990234375,0.10936229199469089,0.005313303977251053,0.003842208511382341
1746739377561579300,3.953579345703125,0.11199439406394958,0.0031102409750223157,0.016212700991146266
1746739377571659000,3.963658935546875,0.08495090431571006,0.021809096226096152,0.004586158746480941
1746739377581738200,3.97373828125,0.043455695366859434,-0.020767478218674657,0.018551811463199556
1746739377591818000,3.98381787109375,-0.01719897208213806,-0.0074181673020124435,0.025229316465742883
1746739377601898200,3.993898193359375,-0.05420563744008541,0.01152268001139164,0.013115611758641899
1746739377611978000,4.00397802734375,-0.1048000986456871,0.027664836516976356,0.013166684358753263
1746739377622057200,4.01405712890625,-0.10096738861501216,0.019534137031435965,0.020815774339810012
1746739377632137000,4.024136962890625,-0.06913783363401889,0.020825930407643318,0.03637147272694856
1746739377642217200,4.03421728515625,-0.009281038564443587,0.02375847672820091,0.012241715000942349
1746739377652296200,4.044296142578125,0.019375147077441215,0.025005261918902396,0.010949483233317733
1746739377662376200,4.054376220703125,0.015102876585721969,0.0023018472015857694,0.008216697268560528
1746739377672456200,4.064456298828125,0.014025018221139907,-0.01340484049618244,-0.0006619345074519514
1746739377682536200,4.0745361328125,0.032417584002017975,-0.022060440638661385,0.001624642059765756
1746739377692615200,4.084615234375,0.0582405920445919,-0.005911854392290115,0.015196034761890768
1746739377702695200,4.094695068359375,0.06743512136936188,-0.008677811974287032,0.03564352377858013
1746739377712775200,4.104775146484375,0.05953998420536518,0.017354454904794692,0.022329284175299106
1746739377722854100,4.114854248046875,0.0343202027529478,0.0035778584867715833,0.010630882270820438
1746739377732934100,4.12493408203125,0.016137480330467222,0.013252280282974243,0.023710436335392295
1746739377743014100,4.13501416015625,-0.03390811482071876,0.0249701906055212,0.025054544420726597
1746739377753093000,4.145093017578125,-0.07253390581309795,0.01009703112244606,-0.003980776731856167
1746739377763173000,4.155173095703125,-0.0757166275024414,0.01913958475589752,-0.009479995202645659
1746739377773253000,4.165253173828125,-0.06902735899686813,0.01239537119269371,0.0004861760817468166
1746739377783333000,4.1753330078125,-0.0719739338427782,0.01613163511157036,0.00551189528927207
1746739377793412000,4.185412109375,-0.06426409011781216,0.00678045392036438,-0.011949417523480952
1746739377803492000,4.1954921875,-0.06903788039088249,0.006591068828105926,0.019581592902354894
1746739377813572000,4.205572021484375,-0.03729366560578346,0.027789924201369283,0.03267473710086197
1746739377823651000,4.215651123046875,0.007151040798425674,0.024959084689617154,0.0472535167472437
1746739377833731000,4.22573095703125,0.06463350795209408,0.02369710192978382,0.029615422595478592
1746739377843811300,4.235811279296875,0.09861001183390616,0.022834347620606422,0.018941943291947243
1746739377853891000,4.24589111328125,0.09117080174386501,-0.0031511575073003765,0.01916219844650477
1746739377863970300,4.25597021484375,0.054452890199422836,-0.0064244800895452495,0.010325834909640253
1746739377874050000,4.266050048828125,0.010619593691825866,-0.007660743886232376,0.00044160628765821456
1746739377884130800,4.276130859375,-0.042216508960723875,0.006935936743021011,0.022515381331928073
1746739377894209500,4.28620947265625,-0.06602934622466564,0.004680266770720482,0.016064159365929663
1746739377904289800,4.296289794921875,-0.08129179728627205,0.00815466488301754,0.011195018959604203
1746739377914369500,4.30636962890625,-0.09280804755687713,-0.004313187023997306,0.006593918372318148
1746739377924448800,4.31644873046875,-0.0676689301252365,0.010301029261946678,0.015930230787955222
1746739377934528500,4.326528564453125,-0.03044190001487732,0.029263503885269163,0.03980232395846396
1746739377944608800,4.33660888671875,0.025768647506833074,0.003551555001735687,0.031106428338214753
1746739377954688500,4.3466884765625,0.04789513911902904,0.0175502697378397,0.039775399418920276
1746739377964767700,4.356767822265625,0.08607143277823924,0.022784078738093374,0.028614611522480845
1746739377974847500,4.366847412109375,0.10486322700977325,0.014879004701972006,0.04776595978140831
1746739377984927700,4.376927734375,0.09101824153065681,-0.00011924246549606323,0.04133000844977796
1746739377995006500,4.38700634765625,0.06809738467037678,0.0002712181568145752,0.011745200188271701
1746739378005086700,4.397086669921875,0.046719081076979634,-0.004785480710864067,-0.00856843331567943
1746739378015166700,4.407166748046875,-0.046179567372798914,-0.006021159985661506,-0.009563216506689787
1746739378025245700,4.41724560546875,-0.08878945956528186,-0.002121229937672615,0.013714417902007699
1746739378035325700,4.42732568359375,-0.10913432845771312,0.014732874229550361,0.025928660374134778
1746739378045405700,4.43740576171875,-0.12829612504541874,0.031814357411861414,0.03499269518703222
1746739378055485700,4.447485595703125,-0.08746201035380363,0.022532734325528145,0.015387319550290704
1746739378065564700,4.457564697265625,-0.02238426576554775,0.024793080472946167,0.011528927089087664
1746739378075644700,4.467644775390625,0.02822539300918579,0.007291326051950454,0.0008361220305785536
1746739378085724700,4.477724609375,0.02890110031366348,-0.010073650246858596,0.015880473362095655
1746739378095803600,4.4878037109375,0.04838263037502765,0.001239186406135559,0.009057824267819523
1746739378105883600,4.497883544921875,0.062006666579842565,-0.0015980828464031219,-0.005256934147514402
1746739378115963600,4.507963623046875,0.03014671646058559,0.0015706103175878523,0.00028089930061250926
1746739378126042600,4.518042724609375,0.01737725125849247,0.005720131212472915,-0.008264701128751039
1746739378136122600,4.52812255859375,0.011944704815745354,0.019289222359657285,0.03073280925285071
1746739378146202600,4.53820263671875,-0.01671323439180851,0.03120470108091831,0.043123723466135556
1746739378156282600,4.54828271484375,-0.06751870799958705,0.022273791128396985,0.028871472360379992
1746739378166361600,4.558361572265625,-0.05907119764983654,0.026774025157094,0.01771236496437341
1746739378176441600,4.568441650390625,-0.046961657661199564,0.006045709905028343,0.024995215448923407
1746739378186521900,4.57852197265625,-0.00972585972249508,0.000007598784565925598,0.010639138642512262
1746739378196600600,4.5886005859375,0.02417816344499588,0.008425298517942428,0.016186580169200895
1746739378206680800,4.598680908203125,0.059036126336455344,0.01652501834332943,0.024334303854778406
1746739378216760600,4.608760498046875,0.04763035070300102,0.0055383449047803875,0.015232969238795338
1746739378226839800,4.61883984375,0.06982347781062126,-0.011162030005455017,0.013987901081144808
1746739378236919600,4.62891943359375,0.07017594451010227,-0.004016249904036521,-0.001577588047645986
1746739378246999800,4.638999755859375,0.04768061958551407,0.026027006182074545,0.0007858531480655073
1746739378257079600,4.64907958984375,0.016876315999031066,0.013905191233754157,0.026377317457087338
1746739378267158800,4.65915869140625,-0.04577332465946674,0.006910217779874802,0.0010332155052572489
1746739378277238500,4.669238525390625,-0.10163491261303424,0.0033627544313669204,0.019794724196381865
1746739378287318800,4.67931884765625,-0.11062310571074485,0.010154898789525031,0.022510193700157104
1746739378297397500,4.6893974609375,-0.10041150829792023,0.021595161214470863,0.032336408524587745
1746739378307477800,4.699477783203125,-0.07229775896966457,0.0076578212767839425,0.010031272409856318
1746739378317557500,4.7095576171875,-0.010313888743519782,0.00912146408855915,0.017618695331551134
1746739378327636700,4.71963671875,0.05439560705423355,0.011081365984678267,0.03181092334575951
1746739378337716500,4.729716552734375,0.0882341637700796,0.006117606097459793,0.01417092949785292
1746739378347796700,4.739796630859375,0.0993143607109785,0.0024538228929042814,-0.028807357615604996
1746739378357876700,4.749876708984375,0.09583937807679176,-0.0025946926683187484,-0.010843648238666355
1746739378367955700,4.759955810546875,0.08118775238990783,-0.00017477204501628875,-0.0003789163149893284
1746739378378035500,4.770035400390625,0.020689736807346343,0.012466682863235472,0.03533697858005762
1746739378388115700,4.78011572265625,-0.0033598318219184875,0.009441782084107399,0.01956427644137293
1746739378398194400,4.7901943359375,-0.04212064737081527,0.025710779839754103,0.03351538917608559
1746739378408274700,4.800274658203125,-0.0867442174732685,0.019185177463293075,0.04060315547995269
1746739378418354700,4.810354736328125,-0.09972995577454566,0.011908464458584785,0.013069361464120447
1746739378428433700,4.82043359375,-0.08401040859520435,0.006945289093255996,0.014852920412644743
1746739378438513700,4.830513671875,-0.0928442879140377,0.0016594576448202133,0.014407039808668195
1746739378448593700,4.84059375,-0.05398994886279106,0.022454992914199827,0.026933124708943067
1746739378458673700,4.850673583984375,-0.014513093999028205,0.008359832066297531,0.026826376398839055
1746739378468752600,4.860752685546875,0.02791208927631378,0.01547054085433483,0.024974355323985217
1746739378478832600,4.87083251953125,0.05936871929168701,0.0065390463799238204,0.018557474019005895
1746739378488912600,4.88091259765625,0.07775251724421978,0.005503273591399192,0.014099252501130104
1746739378498991600,4.89099169921875,0.06484744296371936,0.004841594812273979,0.0032925387393683194
1746739378509071600,4.901071533203125,0.06460895803272723,0.008935586127638817,0.01577825509663671
1746739378519151600,4.911151611328125,0.03397533483803272,0.03458557569086552,0.027233934286423025
1746739378529230600,4.921230712890625,-0.007479542100429534,0.011329787787795066,0.020202939671091734
1746739378539310600,4.931310546875,-0.01816051059067249,0.007983984491229057,0.00987608184814453
1746739378549390600,4.941390625,-0.0352659591704607,-0.005136778366565704,-0.0028957214415073393
1746739378559470600,4.951470703125,-0.0382025971442461,-0.006871639335155486,0.01470978561490774
1746739378569549600,4.961549560546875,-0.02415244448184967,0.004777881926298141,0.010547843629866839
1746739378579629600,4.971629638671875,-0.02028290957212448,0.012232874107360838,0.019544804555922744
1746739378589709800,4.981709716796875,-0.01768003359735012,0.02319558214843273,0.03969765800759196
1746739378599788500,4.99178857421875,-0.005851064115762711,0.007573065602779388,0.03300148483719677
1746739378609868800,5.001868896484375,-0.031389994519948956,0.018532851034402845,0.016328326727449893
1746739378619948500,5.011948486328125,-0.03127659727334976,0.017141688936948774,0.03696366646643728
1746739378630027800,5.02202783203125,0.0031856442987918854,0.00028758476972579955,0.03924213279243558
1746739378640107500,5.032107421875,0.02188449954986572,0.0016436755537986754,0.03095507370140403
1746739378650187800,5.042187744140625,0.055334349209070204,0.008328852406144142,0.0034795857440680263
1746739378660267500,5.052267578125,0.05130231721401214,0.01108954929113388,0.006898710005171596
1746739378670346800,5.0623466796875,0.048611178433895105,-0.01022679498195648,0.022295601101405917
1746739378680426500,5.072426513671875,0.01824994243979454,0.0008937339693307876,0.0244463128618896
1746739378690506800,5.0825068359375,-0.023309563916921613,0.013016717961430549,-0.00011277619209140538
1746739378700585700,5.092585693359375,-0.024175825357437133,-0.005112228447198867,0.007745170766673982
1746739378710665700,5.102665771484375,-0.036978608307242394,-0.002533317869901657,0.032863428073376416
1746739378720745500,5.112745361328125,-0.04431318897902965,0.02433715339899063,0.025359409118816255
1746739378730824700,5.12282470703125,-0.04942892455756664,0.014985972207784653,0.025895707952603698
1746739378740904400,5.132904541015625,-0.039221418797969816,0.026650106516480445,0.026832440813444554
1746739378750984700,5.142984619140625,-0.010204583150148392,0.015037994655966757,0.029427681471034882
1746739378761063700,5.153063720703125,0.011254384464025496,0.018495441633462905,0.01738265808597207
1746739378771143700,5.163143798828125,0.0257195476680994,-0.004983049109578132,0.0018118351949378848
1746739378781223700,5.1732236328125,0.022440379866957662,0.00020399813950061797,0.0035805619005113837
1746739378791303700,5.1833037109375,0.011232757154107093,0.0023801731348037716,0.01721658080406487
1746739378801382700,5.193382568359375,0.026178981873393056,-0.008402502164244652,0.011129552507959306
1746739378811462700,5.203462646484375,0.016517419558763503,0.010536007061600685,0.021164405114389953
1746739378821542700,5.213542724609375,0.020290508356690405,0.015171265646815299,0.026931407675892114
1746739378831621600,5.22362158203125,-0.0026888006925582884,0.011391747108101844,0.03648019379843026
1746739378841701600,5.23370166015625,-0.012673603612184524,0.02107844386398792,0.043005211653001606
1746739378851781600,5.24378173828125,-0.011027005448937416,0.021516250759363174,0.018127119777724146
1746739378861860900,5.25386083984375,-0.029973697981238362,0.002269113975763321,0.0030732699654996394
1746739378871940600,5.263940673828125,-0.026491116562485692,-0.01831482436954975,0.003650193070620298
1746739378882020600,5.2740205078125,-0.007625088050961494,0.009911737683415413,0.012669950350373983
1746739378892099600,5.284099609375,0.0031540801167488095,-0.0025695582270622254,0.012369981023110448
1746739378902179800,5.294179931640625,0.013645078992843626,0.011450199297070503,0.019190584290772677
1746739378912259600,5.304259521484375,0.021306991922855376,0.014586159235239027,0.04642667400166392
1746739378922339600,5.314339599609375,0.022058687072992324,0.024230185893177984,0.008169131799787283
1746739378932418600,5.32441845703125,0.03520984506905079,0.021959318351745603,0.010486541896685957
1746739378942498600,5.33449853515625,0.012156301739811897,-0.010542436802387237,-0.0007670753823593258
1746739378952578600,5.34457861328125,-0.02644844646453857,-0.008151742273569107,0.00683824852220714
1746739378962657800,5.35465771484375,-0.058356327378749843,0.0024368717581033706,0.006062661039829254
1746739378972737500,5.364737548828125,-0.05883212819695472,0.0023696517407894133,0.005803681310079992
1746739378982817500,5.374817626953125,-0.03267944980859756,-0.00909223799407482,0.00391403163857758
1746739378992896500,5.384896484375,-0.02028992383480072,0.03107844435274601,0.025244258306547997
1746739379002976800,5.394976806640625,0.027882278659939766,0.02654430805444717,-0.004071341092139482
1746739379013056500,5.405056396484375,0.04095861785411835,0.004480944806337356,0.014218969890661537
1746739379023136500,5.415136474609375,0.027721535140275953,0.0033230069428682326,0.01479585646316409
1746739379033215500,5.425215576171875,0.024615385818481442,-0.008708207112550735,-0.0021062150316312907
1746739379043295700,5.435295654296875,0.011019406664371489,0.02163490870296955,-0.005338182690180838
1746739379053375700,5.445375732421875,0.002619242587685585,0.023604162949323652,0.00255136498324573
1746739379063454700,5.455454833984375,0.040187048959732054,0.019610124877095222,0.03274097073748707
1746739379073534700,5.46553466796875,0.005694412249326705,0.012388941451907156,0.023256372424960134
1746739379083614500,5.475614501953125,0.004224924218654632,-0.00948445218205452,0.02394965191874653
1746739379093693700,5.485693603515625,-0.04177168780267238,0.023496026399731636,0.022000965536385773
1746739379103773700,5.495773681640625,-0.036053894677758214,0.028674305820465085,0.06085577951166778
1746739379113853700,5.505853759765625,-0.03332651554048061,-0.0014940379500389099,0.05585340464711189
1746739379123932700,5.5159326171875,-0.026763503763079642,0.014345336216688155,0.015867979206703603
1746739379134012700,5.5260126953125,0.0016308160722255706,0.002827332380414009,0.007191190145723521
1746739379144092700,5.5360927734375,0.00954933411180973,0.00998246483206749,-0.023182649601623414
1746739379154172700,5.546172607421875,0.028868367087841032,0.01040156702697277,0.010086400130577385
1746739379164251600,5.556251708984375,0.024605448946356773,0.0011702128231525421,-0.0003739478789269924
1746739379174331600,5.56633154296875,0.004310264414548874,0.013380875098705291,0.018305143225751816
1746739379184411600,5.57641162109375,0.014730536141991614,0.023913959550857542,0.03238287801481783
1746739379194490600,5.58649072265625,0.027013094609975814,0.007888122901320457,0.008989106413163243
1746739379204570600,5.596570556640625,0.028161095601320265,0.0024117373168468475,0.008363193067163228
1746739379214650600,5.606650634765625,-0.01258358724117279,0.017236381483078003,-0.0019571984823793173
1746739379224729600,5.6167294921875,-0.015900748965144155,-0.010461188259720802,0.0019602306896820665
1746739379234809600,5.6268095703125,-0.022637363743782044,0.009055413115024566,0.02435037820674479
1746739379244889900,5.636889892578125,-0.017435118925571442,0.010359481450915337,0.022013057832978664
1746739379254969600,5.646969482421875,0.02702770765721798,0.00554302107989788,0.007489953896589577
1746739379265048600,5.657048583984375,0.06706453449130058,0.008030746242403984,0.021822795957885683
1746739379275128600,5.667128662109375,0.05611643949747085,0.016205869391560553,0.015193367880769073
1746739379285208600,5.67720849609375,0.0427425786614418,0.006046294426918029,0.011475333738327025
1746739379295287600,5.68728759765625,0.01830488749742508,0.008296119180321693,0.015217881267517804
1746739379305367800,5.697367919921875,-0.02054945155382156,-0.0059247138738632195,0.022298231449909507
1746739379315447600,5.707447509765625,-0.07143091300725936,0.0070709612995386115,-0.0026816037667915225
1746739379325526800,5.71752685546875,-0.11477554921507835,0.006152677410840988,0.009536474630236625
1746739379335606500,5.7276064453125,-0.09767886846363544,0.012803951993584632,0.03303772519435733
1746739379345686800,5.737686767578125,-0.07157119826078415,0.005914777001738548,0.02143021644372493
1746739379355765500,5.747765625,-0.021086042648553845,0.023153496572375296,0.015449351935833692
1746739379365845800,5.757845703125,0.03460954108834267,0.015067220750451088,0.01912215869706124
1746739379375925500,5.767925537109375,0.09571896656751633,0.007031798332929611,0.024418949930928645
1746739379386004700,5.778004638671875,0.08355623508691787,0.015933482190966606,-0.01108724773619324
1746739379396084500,5.78808447265625,0.10144728108644485,-0.001110007068514824,0.002422441373951733
1746739379406164700,5.798164794921875,0.06319792219102383,-0.007017185285687446,0.015064955728128552
1746739379416244500,5.808244384765625,0.01687397791147232,-0.00575870965719223,-0.00554572449363768
1746739379426323700,5.81832373046875,-0.008354571369290352,-0.0015799626678228377,0.003921484292671084
1746739379436403500,5.828403564453125,-0.06369885745048523,0.021429741519689557,-0.0009621960956603288
1746739379446483700,5.838483642578125,-0.08169803999960422,0.024115619602799416,0.026456958564557133
1746739379456562400,5.8485625,-0.10058043512403965,0.009651625442504882,0.048769328137673436
1746739379466642700,5.858642578125,-0.07071779630184173,0.038867783054709434,0.015582476796209811
1746739379476722700,5.86872265625,-0.04702946220040321,0.015305705681443214,0.04001432274132967
1746739379486801700,5.8788017578125,0.00830196439921856,0.0035077158600091934,0.03713745213076472
1746739379496881700,5.888881591796875,0.029490298378467557,0.015896657311916352,0.0047357598176226015
1746739379506961700,5.898961669921875,0.04808686229884624,0.0047165071278810495,-0.011180917369015515
1746739379517040600,5.90904052734375,0.06816051303446292,-0.01582125398814678,-0.022983035376295445
1746739379527120600,5.91912060546875,0.08063947085738181,-0.008332359537482261,-0.0003784048583358526
1746739379537200600,5.92920068359375,0.07886661596596241,-0.0006061491996049881,0.008287424417212605
1746739379547280600,5.93928076171875,0.06305822145938873,0.021789807003736495,0.018647965314052998
1746739379557359600,5.949359619140625,0.03368775006830692,0.028155250382423398,0.024833558613806962
1746739379567439600,5.959439697265625,0.022497663012146948,0.0072153382062911985,0.031958807383850214
1746739379577519600,5.96951953125,0.008561492118239403,0.018312486281991003,0.030522308307327328
1746739379587598600,5.9795986328125,-0.05181903456449508,0.015468202766776084,-0.009184336724318563
1746739379597678600,5.9896787109375,-0.08775602486431598,-0.02191080303490162,0.007118928627111018
1746739379607758600,5.999758544921875,-0.09279577259719371,0.0065425535112619395,0.028820326695032417
1746739379617837600,6.009837646484375,-0.10174071107506752,0.016111761367321013,0.010627959661372005
1746739379627917600,6.01991748046875,-0.04570785820782184,-0.006246200913190841,0.020661935484968124
1746739379637997600,6.02999755859375,-0.031465397843718525,0.014246552017331122,0.018259440920501947
1746739379648076500,6.04007666015625,0.04117430643141269,0.016643676286935805,-0.003496317683160305
1746739379658156500,6.050156494140625,0.0599661006629467,0.009057166680693627,0.009968545904569328
1746739379668236800,6.06023681640625,0.09374328258037566,-0.0014560440272092818,0.009359547160752118
1746739379678316500,6.070316650390625,0.08745031991600989,0.008113163828849792,0.013424239316396415
1746739379688395800,6.080395751953125,0.08577215757071971,0.013104396244883536,0.00749652976784855
1746739379698475500,6.0904755859375,0.05511690706610679,0.011491115829348563,0.0013600728394463656
1746739379708555800,6.1005556640625,0.016371289086341858,-0.0029711247652769086,0.020401384852640328
1746739379718634500,6.110634521484375,-0.011878069320321082,0.014379823008179663,0.0229273596663028
1746739379728714800,6.12071484375,-0.06807751092612743,0.019064765954017637,0.019903226072154938
1746739379738794500,6.13079443359375,-0.0692249273955822,0.006060322952270507,0.018573000381700695
1746739379748873700,6.140873779296875,-0.05097381591200828,0.020735329514741895,0.024815365369990468
1746739379758953500,6.150953369140625,-0.08035422417521476,-0.009790741652250289,0.0248405728764832
1746739379769033700,6.16103369140625,-0.04722819964289665,0.0050040918976068495,0.02502984837088734
1746739379779112700,6.17111279296875,-0.05350830282568931,0.011296470040082931,0.02224876628499478
1746739379789192700,6.181192626953125,-0.06207388659715652,-0.002896305963397026,0.016466894947923718
1746739379799272400,6.1912724609375,-0.011117606341838835,0.010496844094991683,0.01762534426804632
1746739379809351700,6.2013515625,0.024848610052466392,0.024556933629512785,0.009335983622074127
1746739379819431400,6.211431396484375,0.045728316473960876,0.014700141003727912,0.02424775808248669
1746739379829511700,6.22151171875,0.052418169501423834,0.014730536141991614,0.02293357021138072
1746739379839591400,6.23159130859375,0.05106675489246845,0.005195230555534363,0.007664141419716179
1746739379849670700,6.241670654296875,0.05462240154743194,0.013842062869668006,0.014548859432153402
1746739379859750400,6.25175048828125,0.04671966559886932,-0.006134557232260703,-0.013381898012012243
1746739379869830700,6.26183056640625,0.03392974213063717,-0.017788170146942138,0.005942139932699501
1746739379879909600,6.27190966796875,-0.0010720131456851958,-0.005465864190459251,0.01787128185313195
1746739379889990000,6.281989990234375,-0.04569032255113124,0.01283317808806896,0.0326945743124932
1746739379900069600,6.292069580078125,-0.05924655421674251,0.017382511955499648,0.025239253337867557
1746739379910148900,6.30214892578125,-0.02796002007126808,0.008781272348761558,0.028021431402303277
1746739379920228600,6.312228515625,-0.011761164942383766,0.017532149559259413,0.03614771044105291
1746739379930308900,6.322308837890625,-0.006139817929267883,0.024428338813781737,0.02799775826577097
1746739379940387800,6.332387939453125,-0.036082536250352855,0.02735562443733215,0.014654000307060776
1746739379950467800,6.3424677734375,-0.013141805645823477,0.010289338824152946,0.010578129170276224
1746739379960547600,6.352547607421875,-0.0015700257956981658,-0.00301028773188591,0.013977050893567503
1746739379970626800,6.362626708984375,0.02345920152068138,0.0013917466193437576,0.010770254208892584
1746739379980706800,6.372706787109375,0.04932780227065086,0.007870002722740172,0.021507482931017875
1746739379990786800,6.382786865234375,0.056747723138332366,0.011126958692073821,0.008530841251648961
1746739380000866600,6.392866455078125,0.04800970540940761,0.005428454789519309,0.021709252580814062
1746739380010945800,6.40294580078125,0.019366379249095917,0.020100538742542265,0.02496010760292411
1746739380021025500,6.413025634765625,0.0024380408018827436,0.0181470665872097,0.030813436741009354
1746739380031105800,6.423105712890625,-0.0069517188340425485,0.003068155398964882,0.024557956542819736
1746739380041184800,6.433184814453125,-0.013875965139269829,-0.005229717347025871,0.0011995485154911874
1746739380051264800,6.4432646484375,-0.03551204288601875,0.010883797585964201,0.004748948092758655
1746739380061344800,6.4533447265625,-0.03288403246998787,0.009565116202831268,0.031228045423887667
1746739380071423700,6.463423828125,-0.046530865028500554,0.015211013135313986,0.027037425333634017
1746739380081503700,6.473503662109375,-0.04196516454815864,0.0054500820994377135,0.014543744865618645
1746739380091583700,6.483583740234375,-0.0007049333989620208,-0.002530395260453224,-0.003264262492954731
1746739380101662700,6.493662841796875,0.023756723162531853,0.00033668460845947266,0.004091908956132829
1746739380111742700,6.50374267578125,0.03143324913978576,0.005681552767753601,0.025604871779866516
1746739380121822700,6.51382275390625,0.047132922574877736,0.016943536016345025,0.02619472743179649
1746739380131901700,6.523901611328125,0.000675122782588005,0.009404372683167458,0.04195365677345544
1746739380141982000,6.53398193359375,-0.00851239227950573,0.014093991804122925,0.027869126917421817
1746739380152061700,6.544061767578125,-0.007149871754646301,0.0012134674429893494,0.021471169508621095
1746739380162141000,6.554140869140625,-0.0026180735439062116,-0.006923661783337593,0.029849487079679965
1746739380172220700,6.564220703125,-0.0058604164659976955,0.01753624121248722,0.02852141681369394
1746739380182301000,6.574301025390625,0.011983867782354354,-0.009196867412328719,0.023750549150072037
1746739380192380700,6.584380615234375,-0.004293313279747963,-0.015019874477386473,-0.003696699093468487
1746739380202460000,6.5944599609375,-0.020418518650531767,0.00040448914766311644,-0.02124850320126861
1746739380212539600,6.60453955078125,0.017951251754164694,0.0029892449438571928,-0.002489990184828639
1746739380222619600,6.61461962890625,0.034354105022549625,-0.00760521430671215,0.027714593942835927
1746739380232698600,6.62469873046875,0.043565585482120514,0.0111801501840353,0.026587854935228823
1746739380242779000,6.63477880859375,0.0398147085160017,0.027076807495951653,0.02161269687116146
1746739380252858600,6.644858642578125,0.03083820585608482,-0.004302081108093261,0.007078560084104538
1746739380262937900,6.654937744140625,-0.00029050737917423245,0.006510989329218864,0.023049670871719715
1746739380273017600,6.665017578125,0.006579962912201881,0.00987608184814453,0.04214665859490633
1746739380283097900,6.675097900390625,0.0035498014360666272,0.0020645313143730164,0.014929967704229056
1746739380293176600,6.685176513671875,-0.03429389926791191,-0.008590718212723732,0.01659267675206065
1746739380303256800,6.6952568359375,-0.05678045636415481,-0.0005734159737825394,0.006216792155615985
1746739380313336800,6.7053369140625,-0.06328267786502838,-0.012488894695043563,-0.001580254928767681
1746739380323415800,6.715415771484375,-0.05014028769731521,-0.0009562778115272521,0.026559724819287655
1746739380333495800,6.725495849609375,-0.01652443382143974,-0.003760813838243484,0.0006127616034820676
1746739380343575800,6.735575927734375,0.035599721169471736,0.008795300874114035,-0.002893492951802909
1746739380353655800,6.74565576171875,0.0681833093881607,0.00670329703092575,0.013989910375140607
1746739380363734800,6.75573486328125,0.09264613499343395,0.020716624814271927,0.01923172001875937
1746739380373814800,6.765814697265625,0.08675941504240035,0.017405308309197426,-0.0024638328302651643
1746739380383894800,6.775894775390625,0.07263444357812404,0.0012993921607732772,-0.00814056329242885
1746739380393973800,6.785973876953125,0.06297989552617073,0.015201660785079002,0.0019836846305057404
1746739380404053800,6.7960537109375,0.036432080340385434,0.015622516545653341,0.029327509032189843
1746739380414133800,6.8061337890625,-0.016523849299550055,0.019369886380434034,0.028422084625065326
1746739380424212700,6.816212646484375,-0.04028115698397159,0.010627192476391791,0.0025692294334992765
1746739380434292700,6.826292724609375,-0.06768295865058899,-0.006722586253285407,-0.0005453954556956887
1746739380444372700,6.836372802734375,-0.12262275558412074,0.01187865384221077,0.007525536666624247
1746739380454451700,6.84645166015625,-0.12528408374786376,0.006529694029688835,0.0040108065439388154
1746739380464531700,6.85653173828125,-0.0926134017676115,0.009646364745497703,0.02369151243921369
1746739380474611700,6.86661181640625,-0.025025720185041424,0.015283493849635123,0.03891374108828604
1746739380484690700,6.876690673828125,0.05583236185908317,0.024639351215958595,0.043686325784958895
1746739380494770700,6.886770751953125,0.10894494336545467,0.030915947267413136,0.04208404168747365
1746739380504851000,6.896850830078125,0.1183154137790203,0.008616437175869941,0.03746763393320143
1746739380514929700,6.9069296875,0.13463058876395226,0.015548866787552833,0.028224479693733154
1746739380525009700,6.917009765625,0.10755144318044185,0.012084990069270133,0.02603939073961228
1746739380535089700,6.927089599609375,0.06901216142773628,-0.005670446851849555,0.01591284126173705
1746739380545168600,6.937168701171875,0.009106851041316985,0.003751461488008499,0.022096498332731425
1746739380555248600,6.94724853515625,-0.06334814431667328,0.00736731389760971,0.0001780965132638812
1746739380565329000,6.957328857421875,-0.10136778610944747,-0.024512509965896604,-0.021348091118223965
1746739380575408600,6.96740869140625,-0.15066227063238619,-0.006960486662387848,-0.007722739739157259
1746739380585488000,6.97748779296875,-0.1597077468752861,-0.009524199670553207,0.0020003435043618083
1746739380595567600,6.987567626953125,-0.1075017588198185,0.005901332998275757,0.010730908579193055
1746739380605648000,6.99764794921875,-0.05941840365231037,0.02037175689935684,0.02985160597153008
1746739380615726600,7.0077265625,0.023498364487290382,0.005011106160283088,0.03909768282044679
1746739380625806800,7.017806884765625,0.09604279169440269,0.016155600509047508,0.024749825853109357
1746739380635886600,7.027886474609375,0.13952829767763614,0.016850597035884856,0.028166612026654183
1746739380645965800,7.0379658203125,0.15537176349759102,0.01526362010538578,0.024127492703683674
1746739380656045600,7.048045654296875,0.13916297149658202,0.00317453838288784,0.03986205478906631
1746739380666125800,7.058125732421875,0.0816512782484293,0.012495908957719803,0.03796827693171799
1746739380676204800,7.068204833984375,-0.0031119945406913757,0.016555998003482817,0.0067218556009232995
1746739380686284800,7.078284912109375,-0.08040975375473498,-0.0192798700094223,0.007163023497164249
1746739380696364500,7.088364501953125,-0.12627075669765472,-0.023728666111826894,-0.012347696126066147
1746739380706443800,7.09844384765625,-0.14809972666800023,-0.0038549218624830245,-0.0041222310291603205
1746739380716523500,7.1085234375,-0.13537877678275106,0.001710311049222946,0.012583075784519313
1746739380726603800,7.118603759765625,-0.08514730367064476,0.013132453295588492,0.017159662985056636
1746739380736682800,7.128682861328125,-0.022265607821941376,0.02377075168788433,0.026803360849432644
1746739380746762800,7.1387626953125,0.05051087457537651,0.025804303342103957,0.010901369775272906
1746739380756842800,7.1488427734375,0.11566519153118134,0.025734160715341566,0.025911636174097655
1746739380766922800,7.1589228515625,0.12783844440579414,0.017572481569647788,0.02978836800958961
1746739380777002000,7.169001953125,0.13870821346640586,0.008974164572358131,0.024729257989116012
1746739380787081700,7.179081787109375,0.10400982505083084,-0.017716273954510687,0.03132540485113859
1746739380797161700,7.18916162109375,0.06024784021377563,0.03874152632653713,0.035965485741943116
1746739380807240700,7.19924072265625,-0.04199439064264297,-0.014554595053195953,-0.034755890756472944
1746739380817320700,7.20932080078125,-0.1408107387036085,-0.0442021298199892,-0.1016772173848003
1746739380827400700,7.219400634765625,-0.11435703154206275,-0.030988427981734273,0.011154029362089932
1746739380837480000,7.22947998046875,-0.07720482023358345,0.007093173131346702,0.08976089841332285
1746739380847559700,7.2395595703125,-0.06579495294690131,0.03064706719815731,0.07008355351891368
1746739380857639700,7.2496396484375,-0.015289923590421675,0.026359014615416527,0.016085640545375646
1746739380867718700,7.25971875,0.0477010778516531,0.019260580787062644,0.014221600239165126
1746739380877799000,7.269798828125,0.06827332575917243,0.03164659962952137,0.03442337086647749
1746739380887882000,7.279882080078125,0.07381459327340126,0.018275076881051063,0.05079392930045724
1746739380897961000,7.2899609375,0.0708107352823019,0.006411620607972145,0.03436758555863052
1746739380908041000,7.300041015625,0.016229834789037705,-0.004001636856794357,0.010392981861717998
1746739380918121200,7.310121337890625,0.0047393034815788266,-0.011731938847899435,0.011786153253167867
1746739380928200000,7.320199951171875,-0.002610474759340286,-0.007028875723481178,0.021829992883652446
1746739380938280200,7.3302802734375,-0.0374181687682867,0.010551789152622223,-0.007760952857695519
1746739380948360000,7.34035986328125,-0.02678746916055679,-0.006421557480096817,-0.013008315459266305
1746739380958439200,7.350439208984375,-0.049970776349306106,0.006190086811780929,0.02496730452869087
1746739380968519000,7.360518798828125,-0.029997663378715515,0.012291910818219185,0.035205424622260034
1746739380978599200,7.37059912109375,0.009394435811042785,0.01861409957706928,0.039083288968913256
1746739380988679000,7.380678955078125,0.05262625929415226,0.02643324889540672,0.027374511800892648
1746739380998758100,7.390758056640625,0.0999590883553028,0.009158873489499092,0.0232034731939435
1746739381008838000,7.400837890625,0.09238894536197186,0.009122048610448836,0.01171184590794146
1746739381018918100,7.410918212890625,0.03668810092806816,0.004399111741781234,0.004407295048236846
1746739381028996900,7.420996826171875,0.015024550652503967,-0.014189853394031523,0.014601210673898458
1746739381039077000,7.4310771484375,-0.0236544318318367,0.0037841947138309477,0.01113653023801744
1746739381049156900,7.441156982421875,-0.060014031457901,0.0015396306574344634,-0.012632760145142674
1746739381059236000,7.451236083984375,-0.06873509805202484,-0.005510872375965118,0.005510835843347012
1746739381069315800,7.46131591796875,-0.0670066668242216,-0.003300210589170456,0.025309103703685103
1746739381079396000,7.47139599609375,-0.05659516292512416,0.016527356430888176,0.03465820253565907
1746739381089474800,7.481474853515625,-0.046999651584029196,-0.00026771102547645565,-0.013919767748378217
1746739381099555000,7.49155517578125,-0.004453472277522087,0.009552256721258163,-0.012574709814973176
1746739381109635000,7.501635009765625,0.014154197558760642,-0.0015624270111322402,-0.004678695868141949
1746739381119714000,7.511714111328125,0.050963879039883614,0.012731471279263495,0.0012248290872201324
1746739381129793800,7.521793701171875,0.06210837338864803,0.019568039301037787,0.018964118591137228
1746739381139874000,7.5318740234375,0.07995791833400726,0.02679623698890209,0.03522986494377255
1746739381149952800,7.541952880859375,0.07477905439138412,0.022524551019072532,0.03184245099518448
1746739381160033000,7.552032958984375,0.03318681480884552,0.005742927566170692,0.008028444687463342
1746739381170113000,7.562113037109375,0.025489830565452575,0.003263385710120201,0.024691410196758804
1746739381180192000,7.57219189453125,-0.0172147541731596,0.0022229367464780807,0.005389036094583571
1746739381190272000,7.58227197265625,-0.037003158226609226,0.00604103372991085,0.023151596876233815
1746739381200352000,7.59235205078125,-0.07794482494592667,0.012523381486535071,0.023733378819562494
1746739381210432000,7.602431884765625,-0.11587795749902724,0.02277647995352745,0.04446421482227742
1746739381220511000,7.612510986328125,-0.12510580457150935,0.025804887863993643,0.03055328796748072
1746739381230591000,7.622591064453125,-0.081485858553648,0.015493921729922294,0.023258052925392982
1746739381240671000,7.6326708984375,-0.022215338939428328,0.03502279806435108,0.00547470508404076
1746739381250750000,7.64275,0.012084405547380446,0.0007084405303001403,-0.014636976107023655
1746739381260830000,7.652829833984375,0.052008419656753534,0.005737082347273826,-0.021030257340706883
1746739381270910000,7.662909912109375,0.10626724858880042,-0.011819032609462737,-0.007254829966463148
1746739381280989000,7.672989013671875,0.12888181597888468,-0.014847440519928931,0.010638042663969099
1746739381291069000,7.68306884765625,0.09732523272037505,0.006583470043540001,0.02506214320529252
1746739381301149000,7.69314892578125,0.06784954738914967,0.013410685715079307,0.03532112342379987
1746739381311228200,7.703228271484375,0.04977846864759922,0.0041740708142519,0.020356267069280145
1746739381321308000,7.713307861328125,-0.008926818299293518,0.0050075990289449685,0.028168511722795664
1746739381331388000,7.723387939453125,-0.06999766533374786,0.009173486536741255,0.010298508511297403
1746739381341467000,7.733466796875,-0.10788169804811477,-0.014456395375728607,0.041863567337207495
1746739381351547000,7.743546875,-0.13185060265660284,0.00831014770567417,-0.008685629954561591
1746739381361627100,7.753627197265625,-0.13801613954901695,-0.006412205129861831,-0.005776427976973354
1746739381371706000,7.7637060546875,-0.09330489116311073,0.00158814597427845,0.021808109845407306
1746739381381786000,7.7737861328125,-0.012934884896874428,0.0034399113208055496,0.014926898964308202
1746739381391865900,7.783865966796875,0.045455929273366925,0.011321604481339453,0.03189166043177247
1746739381401945000,7.793945068359375,0.07865618808567523,0.014418401452898978,0.03646119683701545
1746739381412025000,7.804025146484375,0.11480126817822456,0.022173253363370893,0.029974867025017737
1746739381422105000,7.81410498046875,0.11041326235234737,0.01054360584616661,0.01523209245596081
1746739381432184000,7.82418408203125,0.09956336703598499,-0.002940729627013206,0.016946970082446933
1746739381442264000,7.83426416015625,0.07582593309581279,-0.00020516718327999114,-0.00611826368458569
1746739381452344000,7.844343994140625,0.023208441630005835,0.009703647890686989,0.01514298940040171
1746739381462424000,7.854424072265625,-0.031979192584753034,-0.006754734957218169,0.007294796650670468
1746739381472503000,7.8645029296875,-0.0584498508810997,0.007964110746979712,0.01060801285188645
1746739381482583000,7.8745830078125,-0.0882780029118061,0.004841010290384292,-0.002348134028725326
1746739381492662800,7.884662841796875,-0.08504735042750836,0.004955576580762863,0.005981522095017135
1746739381502742000,7.894741943359375,-0.07196458149254321,0.020148469537496567,0.003274966550059616
1746739381512822000,7.904822021484375,-0.058849663853645325,0.0022030630022287366,-0.005601181007921696
1746739381522902000,7.914902099609375,-0.024936872857809066,0.010129764348268509,-0.0006852057851850986
1746739381532981000,7.92498095703125,0.0006049801558256149,0.005514379507303237,0.030213242358155548
1746739381543061000,7.93506103515625,0.0170621939599514,0.009123802176117897,0.03813797094281762
1746739381553141000,7.94514111328125,0.04004325657486915,0.014677344650030136,0.03604045067429543
1746739381563220000,7.955219970703125,0.05632219120264053,0.02939911296367645,0.040404856428876514
1746739381573300000,7.965300048828125,0.07692308068275451,0.010371756410598754,0.02239686951879412
1746739381583380000,7.9753798828125,0.06511749207675456,-0.00030979660153388974,0.038857992313057185
1746739381593459000,7.985458984375,0.028510639691352844,0.013241758888959884,0.030126769651100036
1746739381603539000,7.9955390625,0.006343231546878814,0.01802723959982395,0.03364749112315476
1746739381613619200,8.005619140625,-0.013400164321064948,0.024639351215958595,0.009511961243487894
1746739381623698000,8.015697998046875,-0.04065642003715038,0.00981470704972744,-0.01086319318935275
1746739381633778200,8.025778076171875,-0.05365209521055221,-0.027529811960458755,0.012223046833090483
1746739381643858000,8.03585791015625,-0.03609305764436722,0.0016536124259233474,0.010637458142079413
1746739381653937200,8.045937255859375,-0.0008265139520168304,0.02276420499384403,0.011809241867810487
1746739381664017000,8.056016845703125,0.019537644162774086,0.030262451794743538,0.02662044203057885
1746739381674097200,8.06609716796875,0.06746142485439777,0.02493278120458126,0.025077267709188163
1746739381684176000,8.07617578125,0.07055997539162635,0.025145547172427177,0.0194081360315904
1746739381694256000,8.086256103515625,0.05971826338171959,0.01403144796192646,0.015353636476397514
1746739381704336000,8.0963359375,-0.007740823385119438,-0.008455109134316444,0.011308671934530138
1746739381714415000,8.1064150390625,-0.06042553486824035,0.0028109657675027848,0.009710114164091645
1746739381724494800,8.116494873046875,-0.10767945347428322,-0.004472176977992058,0.011261727520264685
1746739381734575000,8.1265751953125,-0.10501695626676082,-0.0036772272080183026,0.0014362433481961488
1746739381744653800,8.13665380859375,-0.08445464523136616,0.0026718495577573776,0.029283341096900402
1746739381754734000,8.146734130859375,-0.052792263510823244,0.018723405170440674,0.03408529801853001
1746739381764813800,8.156813720703125,0.01005903719961643,0.01471592309474945,0.024242314722388983
1746739381774894000,8.16689404296875,0.06303659414947033,0.028124855244159697,0.034032325722277164
1746739381784972800,8.176972900390625,0.10301029261946677,0.0219943896651268,0.004314136872068048
1746739381795053000,8.187052978515625,0.09440203875005244,0.007663666495680808,-0.014989662002213298
1746739381805133000,8.197133056640626,0.09353811539709568,0.008857260194420813,0.003155614486709237
1746739381815212000,8.2072119140625,0.06268646553754806,0.008047112855315208,-0.003226743494160473
1746739381825292000,8.2172919921875,0.015129764592647551,-0.0025754034459590913,0.014927154692634939
1746739381835372000,8.2273720703125,-0.04568155472278595,0.0278197348177433,0.042064131410606206
1746739381845450800,8.23745068359375,-0.0678565616518259,0.02594926477074623,0.026840733717754483
1746739381855531000,8.247531005859376,-0.07882394586801529,0.01772737987041473,0.017399499622918663
1746739381865611000,8.257611083984376,-0.07563304087221621,0.013697101441025733,0.014520911979302763
1746739381875690000,8.26768994140625,-0.05081131882667541,0.0005599719703197479,0.003570369300059974
1746739381885766400,8.277766357421875,-0.026098902374505996,-0.005895487779378891,0.015722981245443225
1746739381895846700,8.2878466796875,0.006725508862733841,0.002010170778632164,0.03781188079360872
1746739381905925600,8.297925537109375,0.047238721036911006,0.0076852938055992125,0.03576156066767871
1746739381916005600,8.308005615234375,0.054931029105186456,0.005533084207773208,-0.0002157616425305605
1746739381926085400,8.31808544921875,0.053444005417823785,0.004534720820188522,0.008161569547839462
1746739381936164400,8.328164306640625,0.04687281033396721,0.007286065354943275,0.004610526002757251
1746739381946244400,8.338244384765625,0.015678046125173567,0.00997194343805313,0.020678703956678507
1746739381956324600,8.34832470703125,0.03795242177546024,-0.0037023616492748257,0.023196020539849996
1746739381966403600,8.358403564453125,0.03258241917490959,0.00625146161019802,0.03646824763230979
1746739381976483600,8.368483642578125,-0.018191490250825882,0.007549100205302238,0.007173033434525132
1746739381986563300,8.378563232421875,-0.049506081447005267,-0.009772036951780319,0.016474749460816382
1746739381996642600,8.388642578125,-0.06489946541190147,0.00897767170369625,0.025722799071110785
1746739382006722600,8.39872265625,-0.09005378041267395,0.011524433577060698,-0.012245222132280468
1746739382016802600,8.408802490234375,-0.07078793892860412,0.015126841983199118,0.0033274273896589874
1746739382026881500,8.418881591796875,-0.018420622831583022,0.013503624695539474,0.022976642168127
1746739382036961500,8.42896142578125,0.04151800530254841,0.012429273462295531,0.03543667609486729
1746739382047041500,8.43904150390625,0.08731003466248512,0.028913959795236584,0.024203444016724824
1746739382057120500,8.44912060546875,0.10736322713196277,0.00509469279050827,0.03077843849286437
1746739382067200500,8.459200439453125,0.10213000265359878,0.004093406793475151,0.0270217893730849
1746739382077280500,8.469280517578126,0.07535773106217383,-0.010966799694299697,0.0046325917040929195
1746739382087360300,8.4793603515625,0.02581716282367706,-0.01256312897503376,-0.00015606734454631804
1746739382097439500,8.489439453125,-0.01607785909771919,0.007025368592143058,0.005464768211916089
1746739382107519500,8.49951953125,-0.051266076856851577,0.002482464465498924,0.018455182688310742
1746739382117599500,8.509599609375,-0.07272504447102546,0.007462006443738937,0.013632584837451577
1746739382127678500,8.519678466796876,-0.12229133167266845,0.01665478220283985,0.017184103306569158
1746739382137758500,8.529758544921876,-0.11141922452449798,0.012161562436819076,0.014814122772216796
1746739382147838700,8.539838623046874,-0.09213643190562724,0.018089783442020415,0.02924706420712173
1746739382157917400,8.54991748046875,-0.027128829944133757,0.015423779103159903,0.012867884075269103
1746739382167997700,8.559997802734374,0.023391981503367423,0.01442483119368553,0.014876337820850311
1746739382178077400,8.570077392578124,0.07191840426325798,0.019710078120231626,0.016294643653556703
1746739382188156700,8.58015673828125,0.12189034965634345,-0.0077817399173974984,-0.007558087229356169
1746739382198236400,8.590236328125,0.12050035660266875,0.002723287484049797,0.010507913478277623
1746739382208316700,8.600316650390624,0.11212649601101875,0.019683190113306045,0.004148242253251374
1746739382218395400,8.6103955078125,0.06686579704880714,-0.0012719196319580077,0.010332556911371648
1746739382228475600,8.6204755859375,0.0024327801048755642,0.010965630650520324,0.012095803724229335
1746739382238555400,8.630555419921874,-0.06428221029639243,0.009550503155589102,0.021620222590491175
1746739382248634600,8.640634521484374,-0.08852993184626103,0.0019388591080904006,0.01527110929209739
1746739382258714400,8.65071435546875,-0.1036322239100933,0.003347556862235069,0.02362670357469469
1746739382268794600,8.660794677734375,-0.10845160689055919,-0.004601940837502479,0.0028889994397759437
1746739382278873300,8.670873291015624,-0.10948971776664257,0.00979249521791935,-0.016171565263159573
1746739382288953600,8.68095361328125,-0.058169280374050135,-0.0005149637848138809,-0.0065814242169260975
1746739382299033300,8.691033447265625,0.015259528452157974,0.012909165933728216,0.017375278497114777
1746739382309112600,8.701112548828124,0.06056465107798576,0.02042377934753895,0.03424070777595043
1746739382319192300,8.7111923828125,0.0994148984760046,0.02030044522881508,0.02896576304771006
1746739382329272600,8.7212724609375,0.1317395434975624,0.03955634984076023,0.005300773289240897
1746739382339351300,8.731351318359375,0.12397650828063488,0.03164133893251419,0.015144158444181084
1746739382349431600,8.741431640625,0.09336568143963814,0.010249006813764571,0.04270491353217512
1746739382359511600,8.751511474609375,0.034765023910999296,-0.011010054314136505,0.032497261642105875
1746739382369590500,8.761590576171875,-0.027211832052469253,-0.008476736444234847,0.0043819414112716915
1746739382379670300,8.771670166015625,-0.09269523483216761,0.010330839878320694,-0.0030446283929049965
1746739382389750500,8.78175048828125,-0.12178981189131736,0.007288403442502022,-0.0012640651190653442
1746739382399829500,8.79182958984375,-0.12358312504887581,0.005889642560482025,0.01730582999009639
1746739382409909500,8.801909423828125,-0.0862830297023058,0.01085866314470768,0.029545170370861885
1746739382419989500,8.811989501953125,-0.03230184866786003,0.006815525233745574,0.03789638073928654
1746739382430068500,8.822068359375,0.04190963496863842,0.017764789271354674,0.025086035537533462
1746739382440148500,8.8321484375,0.08032090642750263,-0.006936521264910698,0.02203848453518003
1746739382450228500,8.842228515625,0.09817454302608966,0.010275310298800468,0.027350290675088762
1746739382460307700,8.8523076171875,0.1340624334871769,0.011647767695784569,-0.006937069254182279
1746739382470387500,8.862387451171875,0.1132744970023632,-0.011653028392791748,0.012218187994882463
1746739382480467500,8.872467529296875,0.049697220104932785,0.013496610432863234,-0.004350084968283772
1746739382490546400,8.88254638671875,-0.025640052691102026,0.0063590136379003525,0.012397563149780034
1746739382500626700,8.892626708984375,-0.08595511292219161,0.015515549039840697,0.025856289257667957
1746739382510706400,8.90270654296875,-0.10040566307902335,0.0016115268498659134,0.024603768445923924
1746739382520786400,8.912786376953125,-0.10055763877034186,0.021368951243162154,0.0437200819240883
1746739382530865400,8.922865478515625,-0.06781096894443035,0.02182487831711769,0.026959574324451386
1746739382540945400,8.9329453125,-0.014658639949560164,0.020305705925822256,0.010189056787453592
1746739382551025400,8.943025390625,0.029420155751705167,0.028672552254796025,0.00043115795888006687
1746739382561104600,8.953104736328125,0.07238368368744849,0.0174281046628952,0.0163344642072916
1746739382571184400,8.963184326171875,0.08625380360782146,0.004191606470942497,0.017273681286163627
1746739382581264400,8.973264404296875,0.08160510101914405,-0.0037982232391834255,0.001915989689156413
1746739382591343400,8.98334326171875,0.051827217870950695,0.00902735606431961,-0.00033138737883418797
1746739382601423600,8.993423583984375,0.02879822446107864,-0.0001461304724216461,0.0174976262351498
1746739382611503600,9.003503662109376,-0.0015887304961681365,0.009810615396499633,0.04211111235748976
1746739382621582600,9.01358251953125,-0.05394318711161613,0.02987842091321945,0.03932860549949109
1746739382631662600,9.02366259765625,-0.05172200393080711,0.023927403554320333,0.02997888561300933
1746739382641742600,9.03374267578125,-0.026703298008441925,0.017787585625052452,0.00605122633036226
1746739382651821600,9.043821533203126,0.006938274830579757,-0.01619827060699463,-0.005221497507952154
1746739382661901600,9.053901611328126,-0.05883621985018253,0.001883329528570175,0.026184827092289923
1746739382671981600,9.063981689453126,-0.042480128332972523,-0.0025128596037626264,0.021491372046433387
1746739382682060500,9.074060546875,-0.02872866635620594,0.004679097726941108,0.004137830457091331
1746739382692140500,9.084140625,-0.004077624702453613,0.008662029883265495,0.004805719781294465
1746739382702220500,9.094220458984376,0.05259118798077106,0.010939327165484427,0.020281375202164054
1746739382712299500,9.104299560546876,0.07145897005796432,0.02488251232206821,0.03061338412426412
1746739382722379500,9.114379638671876,0.057846039769053455,0.011496376526355743,0.014870894460752605
1746739382732459500,9.12445947265625,0.05784370168149471,-0.0016945289582014082,0.019806487699411807
1746739382742538500,9.13453857421875,0.052397711235284805,0.013327099084854126,0.02388349134735763
1746739382752618500,9.144618408203126,0.02010287683010101,-0.02053776111602783,0.010734342645294964
1746739382762698500,9.154698486328124,-0.03040039896070957,-0.017412322571873664,-0.003031878509186208
1746739382772777500,9.164777587890624,-0.06612462329268455,0.010973813956975937,-0.009043466948904096
1746739382782857500,9.174857421875,-0.07643442038297653,0.00642272652387619,0.025062216270528733
1746739382792937500,9.1849375,-0.0548638090878725,0.005093523746728897,0.02570420396849513
1746739382803016400,9.195016357421874,-0.05445172115564346,0.025921207720041275,0.014774850207753478
1746739382813096400,9.205096435546874,-0.03264145588576794,0.014276362633705138,0.021649740945920346
1746739382823176400,9.215176513671874,0.0056885670304298395,0.02088204450905323,0.009189268627762794
1746739382833255400,9.22525537109375,0.06436988857984542,0.016178396862745283,0.027207338540442286
1746739382843335400,9.23533544921875,0.07036766768991946,-0.00010053776502609253,0.013648220798000692
1746739382853415400,9.24541552734375,0.06700842038989066,0.008122516179084778,0.013011420731805265
1746739382863494400,9.255494384765624,0.04229951106905937,0.004375146344304084,0.015575279870443045
1746739382873574400,9.265574462890624,0.05122516032457351,-0.009035539370775222,0.027959727810323236
1746739382883654100,9.275654052734374,0.022553192591667173,-0.00820259567797184,0.017039361073635517
1746739382893733000,9.285733154296874,-0.025628362253308296,0.005354220509529113,0.002314597085304558
1746739382903813000,9.295813232421875,-0.04863222122192382,0.007436287480592727,-0.008262801432609558
1746739382913893000,9.30589306640625,-0.06829904472231864,-0.001993219643831253,0.005783588370122015
1746739382923972000,9.31597216796875,-0.08987140958309173,-0.011374211451411247,-0.007542049410007893
1746739382934052400,9.32605224609375,-0.0553998156607151,0.0021796821266412735,0.005593582223355769
1746739382944132000,9.336132080078125,-0.014231938970088958,0.003084522011876106,0.032335239480808374
1746739382954212000,9.346212158203125,0.06164426300823688,0.01589315018057823,0.038726438355259594
1746739382964291000,9.356291015625,0.10287468354105948,0.015120996764302253,0.029275998040661215
1746739382974371000,9.36637109375,0.0968617068618536,0.013210779228806495,0.032682299352809786
1746739382984451000,9.376451171875,0.09540683187842368,0.015310966378450393,0.0108378760850057
1746739382994530300,9.3865302734375,0.041268414455652234,0.008021978414058686,-0.0038348654551431534
1746739383004610000,9.396610107421875,0.015230302357673644,-0.005658756414055824,0.038894269202835854
1746739383014690000,9.40668994140625,-0.006119944185018539,0.0210053786277771,0.026190599245950578
1746739383024769000,9.41676904296875,-0.023201427367329597,0.01803717647194862,0.02427208880614489
1746739383034849300,9.426849365234375,-0.03672492580711841,0.011617372557520865,-0.010875870007835327
1746739383044929000,9.436928955078125,-0.04824935938417911,-0.001786298894882202,-0.022935835233703253
1746739383055008300,9.44700830078125,-0.04191606470942497,-0.0016647183418273925,0.00017776771970093248
1746739383065088000,9.457087890625,-0.05838029277622699,-0.002434533670544624,0.03045344432219863
1746739383075168300,9.467168212890625,-0.04092179297506809,0.0034060090512037277,0.030309505806863306
1746739383085247000,9.4772470703125,-0.01730652410984039,0.008490764969587325,0.019556750722043215
1746739383095327200,9.4873271484375,0.019729951864480972,0.005147884282469749,0.034029110851883884
1746739383105407200,9.4974072265625,0.04223229105174541,0.0064782561033964155,0.014056801598891616
1746739383115486200,9.507486328125,0.03456161029338836,-0.012734978410601614,-0.01663121866416186
1746739383125566000,9.51756591796875,0.051395840716361996,-0.006889759513735771,-0.005284735469892621
1746739383135646200,9.527646240234375,0.02593874337673187,0.004275777623057365,0.0027955124700441954
1746739383145725000,9.537724853515625,0.0013256956458091735,0.003653261810541153,0.016798866848647592
1746739383155805200,9.54780517578125,-0.038136546170711515,0.018757307440042496,0.013781089930050075
1746739383165885200,9.55788525390625,-0.05982406184375286,0.015123919373750686,0.02148044879361987
1746739383175964200,9.567964111328125,-0.06777122145593166,0.004554594564437866,0.029787856552936136
1746739383186044200,9.578044189453125,-0.05120879371166229,0.01885901424884796,0.009174107591249049
1746739383196124200,9.588124267578126,-0.012193126618862151,0.0038426469027996062,0.01513137202784419
1746739383206203100,9.598203125,0.03364274188280105,-0.0009206219762563705,0.0021435513673350214
1746739383216283100,9.608283203125,0.0476268435716629,-0.003103226712346077,0.013067863626778125
1746739383226363100,9.618363037109376,0.07673311106860638,0.0021036942809820173,0.01931994629148394
1746739383236442000,9.628442138671875,0.06850128929615021,0.01881985128223896,0.013037943412549793
1746739383246522000,9.638522216796876,0.04541092108786106,0.013602408894896506,0.02719583076573908
1746739383256602000,9.64860205078125,0.02783551690876484,0.017106033101677895,0.031698841273412104
1746739383266681000,9.65868115234375,-0.02174596786201,0.011264905858039855,0.025965302590094504
1746739383276761000,9.668760986328126,-0.03915186069309711,0.0025181203007698058,0.0090880367429927
1746739383286841000,9.678841064453126,-0.05716682533323764,0.008216624203324318,0.010129143293760716
1746739383296920000,9.688920166015626,-0.07381108614206314,0.015353051954507826,-0.012631883362308144
1746739383307000000,9.699,-0.05354454318284988,-0.001295300507545471,-0.004821100013516843
1746739383317080000,9.709080078125,-0.0016986206114292144,0.003759644794464111,0.003307334449701011
1746739383327159000,9.719158935546876,0.0253057061702013,0.0031587562918663024,0.011295702855102717
1746739383337239000,9.729239013671876,0.06711071172058582,-0.005143792629241943,-0.010175722381845116
1746739383347319000,9.739319091796874,0.08283259698748588,-0.01991290721595287,-0.001541639951430261
1746739383357398000,9.74939794921875,0.06682312695086003,0.010896657067537308,0.016138905102573334
1746739383367478000,9.75947802734375,0.07348375388383865,0.01564823550879955,0.030367410006560385
1746739383377558300,9.769558349609374,0.030699089646339415,0.02555529701709747,0.03339355289470404
1746739383387637200,9.77963720703125,-0.006836568021774292,0.014617723417282104,0.028538623676821587
1746739383397717200,9.78971728515625,-0.05557341866195201,0.015580430969595908,0.03199428055603057
1746739383407797000,9.799796875,-0.040107553982734676,0.016915478965640066,0.02492982206251472
1746739383417876000,9.8098759765625,-0.05127484468519687,0.0074240125209093085,0.0038724940517917274
1746739383427956200,9.819956298828124,-0.05003156662583351,0.017494155636429785,0.009141082104481757
1746739383438036200,9.8300361328125,-0.06190320620536804,0.007117723050713539,0.0005877002274617552
1746739383448115200,9.840115234375,-0.05046878899931907,0.007219429859519004,-0.0016916794139891862
1746739383458195200,9.8501953125,-0.009555763852596282,0.004484451937675476,-0.011195713079348206
1746739383468275000,9.86027490234375,0.02577157011628151,-0.016401099702715874,-0.008640694834291935
1746739383478355200,9.870355224609375,0.05065583600401878,0.00029401451051235195,0.02177413451056927
1746739383488434200,9.88043408203125,0.06083236210346222,0.014997078123688697,0.028988742064498363
1746739383498514200,9.89051416015625,0.03494447213113308,0.03242401374280453,0.03141556735262275
1746739383508594000,9.900593994140625,0.01825344957113266,0.02150456032156944,0.02420161738581955
1746739383518673200,9.910673095703125,-0.0002659574598073959,0.005645896932482719,-0.00517502801772207
1746739383528753200,9.920753173828125,-0.02041150438785553,-0.005635960060358047,0.014695245632901787
1746739383538833200,9.930833251953125,-0.04765373157858848,0.002229366487264633,0.033154519974440334
1746739383548912000,9.940912109375,-0.05737082347273826,0.011975099954009055,0.014453728494606912
1746739383558992100,9.9509921875,-0.04144610911011696,-0.0037894554108381267,0.00869837983828038
1746739383569072000,9.961072021484375,-0.021236849296092986,0.0005664017111063003,0.02122621830422431
1746739383579151000,9.971151123046875,0.008109656697511673,0.028451018458604812,0.023516119339689612
1746739383589231000,9.981231201171875,0.018868951120972633,0.026654782691597937,0.02989076893813908
1746739383599311000,9.99131103515625,0.02759410936832428,0.012575403934717178,0.031809936965070666
1746739383609390000,10.00139013671875,0.03502279806435108,0.016104747104644775,0.024518245586939155
1746739383619470000,10.011469970703125,0.013556231665611266,0.005272971966862678,0.0022857728496193884
1746739383629550300,10.02155029296875,-0.022210662764310836,0.0015197569131851195,0.0071251391721889375
1746739383639629000,10.031629150390625,-0.05427636458873748,0.004934533792734146,0.0026732743298634883
1746739383649709300,10.041709228515625,-0.06605448066592216,0.009249474382400513,0.035233956597000356
1746739383659789000,10.0517890625,-0.03139291712939739,0.017682371684908865,0.03266943987123668
1746739383669868300,10.061868408203125,0.0005810147583484649,0.02855389431118965,0.017288659659586845
1746739383679948000,10.071947998046875,0.031335049462318416,0.013906944799423218,0.015982034040428698
1746739383690028300,10.0820283203125,0.04910919108390808,0.023353987580537795,0.0014965587006881833
1746739383700107000,10.09210693359375,0.06086100367605686,0.00040974984467029567,-0.012120353643596172
1746739383710187300,10.102187255859375,0.047616322177648544,0.0016050971090793608,0.0011073401873931289
1746739383720267000,10.11226708984375,0.030559388914704323,0.013369769182801246,0.0034924817582592366
1746739383730346200,10.12234619140625,0.030696167036890983,-0.005349544334411621,0.019792751435004172
1746739383740426000,10.132426025390625,0.03388590298891067,0.019124971708655358,0.023133476697653532
1746739383750506200,10.14250634765625,0.008126023310422897,0.018551555734872816,0.023948263679258525
1746739383760585000,10.1525849609375,-0.038086861810088156,0.02521159814596176,0.04179941605981439
1746739383770665200,10.162665283203125,-0.04055237514078617,0.02366612226963043,0.02296159072946757
1746739383780745000,10.172744873046875,-0.040840544432401656,0.009115618869662284,0.02345682690050453
1746739383790824200,10.18282421875,-0.07857377049922942,-0.022375497937202452,-0.01115914392862469
1746739383800904000,10.192904052734375,-0.06006663842797279,-0.019811784929037093,-0.00011299538780003785
1746739383810984200,10.202984130859376,-0.05685469064414501,-0.013964227944612502,-0.004885397421382367
1746739383821063200,10.213063232421876,-0.029503742381930348,-0.0020335516542196275,-0.003079991967231035
1746739383831143200,10.22314306640625,0.013265139764547348,0.01608838049173355,0.020781104885227976
1746739383841223200,10.23322314453125,0.08971183510720729,0.012283142989873885,0.010243965312466024
1746739383851302100,10.24330224609375,0.12249649885594845,0.03250643132925033,0.010483728885091841
1746739383861382000,10.2533818359375,0.12863573226332664,0.016491116073727607,0.006239150117896497
1746739383871462100,10.263462158203126,0.11988660861849784,0.01140109945833683,0.018604272302798926
1746739383881541000,10.273541015625,0.06223813724815845,0.009264087429642676,0.02002772923465818
1746739383891622000,10.283621826171874,-0.008296119180321693,-0.0015910685837268828,0.013747662584483622
1746739383901701600,10.29370166015625,-0.07222995443046093,0.00807926155924797,-0.00044094870053231714
1746739383911780900,10.30378076171875,-0.12229717689156532,0.01303016196489334,0.036696795691177245
1746739383921860600,10.313860595703124,-0.12710019325911998,0.031441432446241376,0.0143382123561576
1746739383931940900,10.32394091796875,-0.09502163195312023,-0.0035369419544935225,0.0218998797820881
1746739383942019600,10.33401953125,-0.0651163230329752,0.011771101814508437,0.022557539973221716
1746739383952099800,10.344099853515624,-0.020504443368315695,0.011029928058385848,-0.007019888699427246
1746739383962179600,10.3541796875,0.052826165780425066,-0.006961655706167221,-0.011310754293762148
1746739383972258800,10.3642587890625,0.10073007272779941,0.02423077041506767,0.016721929154917596
1746739383982338600,10.374338623046874,0.1276741937547922,0.027411154016852377,0.03750504333414137
1746739383992418800,10.384418701171874,0.11505027450323105,0.027909166666865347,0.042998599249124525
1746739384002497800,10.394497802734374,0.09929624053239822,0.015754033970832824,0.04401614226121455
1746739384012577800,10.404577880859375,0.0637047026693821,0.013123100945353508,0.04539857306294143
1746739384022657500,10.414657470703125,0.02462473816871643,0.013361001354455946,0.012115092946588992
1746739384032736800,10.42473681640625,-0.057553194302320476,-0.00537350973188877,-0.013155614975467323
1746739384042816500,10.43481640625,-0.1442091489702463,-0.018285598275065422,0.008091244257986544
1746739384052896800,10.444896728515625,-0.17935177402198313,0.0022515783190727233,0.03404723103046417
1746739384062975700,10.454975830078125,-0.1551326940447092,0.024532968232035636,0.03572422433197498
1746739384073055700,10.4650556640625,-0.07428980956971645,0.02073649855852127,0.024156280406750736
1746739384083135700,10.4751357421875,0.021259061127901074,0.01473813492655754,0.017869309091754257
1746739384093214700,10.485214599609375,0.10543605846166611,0.006187748724222183,0.0037498540528118607
1746739384103295000,10.495294921875,0.16971593067049978,-0.0005605564922094345,-0.015972462494485078
1746739384113374700,10.505374755859375,0.1790916617810726,-0.0038338790744543074,-0.0063534972125664346
1746739384123454000,10.515453857421875,0.18066694827377794,-0.004417816442251205,0.025514599680528043
1746739384133533700,10.52553369140625,0.11574994720518589,-0.007917348995804787,0.03392510248813778
1746739384143613700,10.53561376953125,0.00934767405986786,-0.006998480585217476,0.007701587353274226
1746739384153693700,10.545693603515625,-0.09719137720763683,0.0030611411362886426,0.011367562514916062
1746739384163773000,10.55577294921875,-0.14441197806596756,0.006772855135798454,0.027658589439280328
1746739384173852700,10.565852783203125,-0.1698731670588255,0.025845804396271703,0.021429778052307665
1746739384183932700,10.5759326171875,-0.14139701415896413,0.02305354332923889,0.036531010670214886
1746739384194011600,10.58601171875,-0.1076671785145998,0.019878420424461363,0.02378331890851259
1746739384204092000,10.596091796875,-0.046342648980021474,0.013823942691087722,0.02793207261841744
1746739384214171600,10.606171630859375,0.018355740901827813,-0.002444470542669296,0.002980477115511894
1746739384224251000,10.6162509765625,0.060192310634255404,0.0015600889235734938,0.0026363398529589176
1746739384234330600,10.62633056640625,0.10359715259671211,-0.0181862295538187,0.0027163462866097686
1746739384244411000,10.636410888671875,0.1390945824354887,-0.01001987423300743,0.023805201946757733
1746739384254489600,10.646489501953125,0.12228081027865409,0.0025058453410863875,0.028716172200813888
1746739384264569900,10.65656982421875,0.09705343004167079,0.01364800160229206,0.02878145598936826
1746739384274649900,10.66664990234375,0.047374914637207985,0.0075052610635757445,0.029052345352619885
1746739384284728800,10.676728759765625,-0.022435119169950484,0.015001169776916503,0.02138911724835634
1746739384294808800,10.686808837890625,-0.07437398072183132,0.01168342353105545,0.0015919453665614127
1746739384304888800,10.696888916015626,-0.1277788231730461,0.008345219019055366,-0.0005589490570127964
1746739384314967600,10.706967529296875,-0.15848609612584114,-0.0003267477363348007,0.020241298920102416
1746739384325047800,10.7170478515625,-0.13599369381070137,0.007152794364094734,0.025850005647353826
1746739384335127800,10.7271279296875,-0.07168518002927303,0.00750935271680355,-0.002381086450256407
1746739384345206800,10.737206787109375,-0.0031681086421012877,0.0005699088424444198,0.007794087942317128
1746739384355286800,10.747286865234376,0.04461655583977699,-0.0015974983245134354,0.005311879205144941
1746739384365366800,10.75736669921875,0.09318155704438685,-0.01130523786842823,0.010969831901602447
1746739384375445800,10.76744580078125,0.1525841786056757,0.0022550854504108427,0.011339980388246476
1746739384385525800,10.77752587890625,0.16137947947978973,0.014205635485053061,0.01121335833389312
1746739384395605800,10.787605712890626,0.13687339925467967,0.015735329270362853,0.044908634121529754
1746739384405684700,10.797684814453126,0.09560556932091713,0.018495441633462905,0.048726036985218525
1746739384415764700,10.8077646484375,0.017446224841475486,0.02713525968492031,0.017878624909371137
1746739384425844700,10.8178447265625,-0.07141454639434815,-0.00005436053574085235,0.00006473579928278923
1746739384435923700,10.827923828125,-0.15386603510975838,-0.005265373182296753,0.016623692944832145
1746739384446003700,10.838003662109376,-0.20899580165743828,-0.0024018004447221753,-0.012791421305574476
1746739384456083700,10.848083740234374,-0.19299626849293708,-0.0021025252372026443,0.0018897592693567274
1746739384466162700,10.85816259765625,-0.12137012517452239,-0.002554360657930374,-0.0029958938803523777
1746739384476242700,10.86824267578125,-0.024332477223873137,0.002435702714323997,-0.013482362711802124
1746739384486322700,10.87832275390625,0.06786649852395057,0.01673018552660942,0.031701873480714855
1746739384496401700,10.888401611328124,0.15401801080107688,0.03021569004356861,0.040260150728560984
1746739384506481700,10.898481689453124,0.16058686779737472,0.02183189257979393,0.026028759747743605
1746739384516561700,10.908561767578124,0.1686526853531599,0.007572481080889701,0.024903445512242613
1746739384526640600,10.918640625,0.11238017851114272,-0.0012380173623561857,-0.00044635552801191805
1746739384536720600,10.928720703125,0.04830722705125808,-0.00542319409251213,0.014291815931163727
1746739384546801000,10.93880078125,-0.05499708007872104,-0.001312251642346382,-0.010193513766862452
1746739384556880000,10.9488798828125,-0.10519991161823272,-0.006015899288654327,-0.010654555407352745
1746739384566959900,10.9589599609375,-0.15695698686242102,0.0009995324313640593,0.021813589738123116
1746739384577039600,10.96903955078125,-0.16865911509394646,0.018406594306230543,0.01800995967146009
1746739384587118800,10.979118896484374,-0.14299275891780852,0.015621932023763656,0.02924392240196466
1746739384597198800,10.98919873046875,-0.05693710823059082,0.029665070423483847,0.04758822859432548
1746739384607278800,10.99927880859375,0.01467325299680233,0.014354104045033454,0.028920827927440402
1746739384617357800,11.00935791015625,0.12151625564694404,-0.012542670708894728,0.005941445812955498
1746739384627437800,11.019437744140625,0.1457218916207552,-0.004405541482567787,0.013539024802483618
1746739384637517600,11.029517578125,0.156339731746912,0.007574819168448448,0.012615991673432289
1746739384647596800,11.0395966796875,0.15491232929229734,0.0032779987573623654,0.020317579026706514
1746739384657676800,11.0496767578125,0.10647183125019073,0.0340676892966032,0.04001023108810186
1746739384667756800,11.0597568359375,0.022523381975293157,0.010559972459077834,0.025179157181084155
1746739384677835800,11.069835693359375,-0.05406126053333282,0.0011287117689847946,0.016518990461342035
1746739384687915800,11.079915771484375,-0.10345043760240077,-0.000893149447441101,-0.00010156067833304404
1746739384697995800,11.089995849609375,-0.14007599468827248,0.0012514613658189773,0.0239514785496518
1746739384708074800,11.10007470703125,-0.12979542369246483,0.003206687086820602,0.013503113238885998
1746739384718154800,11.11015478515625,-0.11146014105677604,0.0036491701573133466,0.00452208053432405
1746739384728234800,11.12023486328125,-0.05143091202974319,0.013864274701476097,0.0007709843724966049
1746739384738313700,11.130313720703125,0.006840075153112411,0.021697452545166016,0.009853906548954546
1746739384748393700,11.140393798828125,0.08507306939065457,-0.0031739538609981536,0.009744674020819365
1746739384758473700,11.1504736328125,0.1301613343954086,0.003440495842695236,0.015949812271259724
1746739384768552700,11.160552734375,0.16987550514638422,0.006748305216431617,0.02910316222440451
1746739384778632700,11.1706328125,0.14899229159355162,0.012400047367811202,0.022203904229961335
1746739384788712700,11.180712646484375,0.11794365785717964,0.014160042777657507,0.023225538895279167
1746739384798791700,11.190791748046875,-0.004819967502355575,-0.013923895934224127,0.0009507979188114404
1746739384808871700,11.20087158203125,-0.05419102439284324,-0.01853694268763065,-0.01376256789267063
1746739384818952000,11.210951904296875,-0.11002630886137485,0.003817512461543083,0.015913352718390523
1746739384829030700,11.22103076171875,-0.18947393958568573,0.017881109127402303,0.0335235359499231
1746739384839111000,11.23111083984375,-0.1745569409608841,0.007961772659420966,0.010035144867375492
1746739384849190700,11.241190673828125,-0.11611527338624,0.02495090138316154,0.0217959079509601
1746739384859270000,11.251269775390625,-0.059443538093566894,0.01467325299680233,0.011106938817352056
1746739384869349600,11.261349609375,0.0037561376631259917,-0.009877250891923903,0.012036693948134778
1746739384879430000,11.271429931640625,0.045942251485586165,-0.0040630116552114485,0.005595006995461881
1746739384889508900,11.2815087890625,0.09904138898849486,-0.008906944555044174,0.01655351378545165
1746739384899589000,11.291589111328125,0.11992401801943778,0.008528758892416954,0.015956936131790278
1746739384909668900,11.3016689453125,0.11000935772657394,0.0011877484798431396,0.025427615516819057
1746739384919748000,11.311748046875,0.10877426297366619,0.013809329643845557,0.027606019001826642
1746739384929827800,11.321827880859376,0.061410454252362245,0.003099135059118271,0.03392316625937819
1746739384939908000,11.331908203125,-0.030934651967883108,0.010224456894397735,0.021672610364854336
1746739384949986800,11.34198681640625,-0.0699222620099783,0.0005780921489000321,0.03153382343742996
1746739384960067000,11.352067138671876,-0.08561433666050433,0.009269932648539543,0.02186915585026145
1746739384970146800,11.362146728515626,-0.09018120618462562,0.00753682524561882,0.02825914914831519
1746739384980227000,11.37222705078125,-0.048690088889002794,-0.009134908092021941,-0.01968585699442774
1746739384990305800,11.382305908203126,-0.0019470424145460127,0.001005962172150612,0.015303075332939623
1746739385000386000,11.392385986328126,0.03342179260849953,0.04295417558550835,0.025854535691998897
1746739385010465000,11.402465087890626,0.0919686741232872,-0.022505261796712875,0.04552333195377141
1746739385020545000,11.412544921875,0.08950491435825825,0.0032177930027246474,-0.027536789690516886
1746739385030625000,11.422625,0.09727730192542075,0.012528057661652565,0.024136004803702232
1746739385040705000,11.432705078125,0.07907996645569801,0.0024807108998298644,0.034288127114251256
1746739385050784000,11.442783935546874,0.025724223843216893,0.01321136375069618,0.034899354347772894
1746739385060864000,11.452864013671874,-0.01748188067674637,0.01524140827357769,0.03379500983506441
1746739385070944000,11.462944091796874,-0.07168576455116271,-0.002469604983925819,0.04634476787187159
1746739385081023000,11.47302294921875,-0.08136661608815193,0.004468085324764251,0.027805194835737346
1746739385091103000,11.48310302734375,-0.12539865003824233,0.0031382980257272717,-0.008785035208426415
1746739385101183000,11.493182861328124,-0.0852063403815031,-0.009268179082870483,-0.02177621686980128
1746739385111262200,11.50326220703125,-0.02642155845761299,0.011230419066548347,0.00020355974808335304
1746739385121342000,11.513342041015624,0.03202127816081047,0.014458733463287353,0.014175788336060941
1746739385131422000,11.523421875,0.08066518982052802,0.020260113218426704,0.011100984000600873
1746739385141501000,11.5335009765625,0.12097498837709426,0.016836568510532376,0.030723456902615725
1746739385151581000,11.543580810546874,0.12161562436819076,0.00905307502746582,0.02942903317790478
1746739385161661000,11.553660888671875,0.11437456719875334,0.002315291205048561,0.0232568108163774
1746739385171740200,11.563740234375,0.05281681343019008,-0.0016027590215206145,-0.0006207622468471527
1746739385181820000,11.57381982421875,-0.026090134546160697,-0.009640519526600838,0.0077419193636626
1746739385191900000,11.58389990234375,-0.09208674754500389,0.0047691140979528425,-0.0006075739717110991
1746739385201979000,11.593978759765625,-0.13561959980130195,-0.006276011529564857,-0.0005881020862609148
1746739385212059100,11.60405908203125,-0.14116905062198637,0.0068324763685464855,0.012382986635155975
1746739385222139000,11.614138916015625,-0.11809154189527034,0.014569208100438116,0.01818951748944819
1746739385232218000,11.624218017578125,-0.06714402946829795,0.02392623451054096,0.019800386752188204
1746739385242297900,11.6342978515625,0.0006406359910964965,0.05171265158057212,0.045606078333780165
1746739385252378000,11.644378173828125,0.06565817482471466,0.05870645599067211,0.061062079206109045
1746739385262456800,11.654456787109375,0.09872983882129192,0.015570494097471237,-0.005088737973757088
1746739385272537000,11.664537109375,0.12222235808968543,0.0014466916769742964,-0.012329831675812601
1746739385282617000,11.6746171875,0.1422135912388563,-0.023010288709402082,0.03762647775672376
1746739385292696000,11.684696044921875,0.10380115073621272,-0.013123100945353508,0.02055686767529696
1746739385302776000,11.694776123046875,0.03248772662878036,-0.02197919209599495,-0.01961644502002746
1746739385312856000,11.70485595703125,-0.027930209454894064,0.015069558838009834,0.008426686757430434
1746739385322935000,11.71493505859375,-0.07160977670550346,0.012703998750448225,0.041414216134510934
1746739385333015000,11.72501513671875,-0.10057634347081183,0.034434769043326374,0.027441731818206607
1746739385343095000,11.735094970703125,-0.1126513966679573,0.021989713490009305,0.023815869471244512
1746739385353174000,11.745174072265625,-0.08988719167411327,0.01611059232354164,0.01251877837665379
1746739385363254000,11.75525390625,-0.04819967502355575,0.01058627594411373,0.026307649754360316
1746739385373334000,11.765333984375,0.01312602355480194,0.006415712261199951,0.022562398811429737
1746739385383413000,11.7754130859375,0.0539314966738224,-0.00033610008656978605,-0.0015164689775556326
1746739385393493000,11.785492919921875,0.0954366424947977,0.004849778118729591,-0.00005304536148905754
1746739385403573000,11.795572998046875,0.08069441591501235,0.0183387897670269,0.02084039732441306
1746739385413652000,11.80565185546875,0.09130465725660324,0.005936404311656951,0.04376026780400425
1746739385423732000,11.81573193359375,0.08100538156032562,0.016586977663636208,0.04194927285928279
1746739385433812000,11.82581201171875,0.05925941369831562,0.016549568262696265,0.043746714202687144
1746739385443891000,11.835890869140625,-0.016911387312412263,0.00625146161019802,0.017881364855729043
1746739385453971000,11.845970947265625,-0.05273439584374427,-0.0024199206233024594,-0.008152874784730374
1746739385464051000,11.856051025390625,-0.07973112384080887,-0.0023550386935472485,-0.017405564037524163
1746739385474130000,11.8661298828125,-0.06384966409802437,-0.015758710145950316,0.010995112473331391
1746739385484210000,11.8762099609375,-0.05403554157018661,0.004381576085090637,0.0007852320935577154
1746739385494290200,11.886290283203126,-0.05360416441559791,0.0025976152777671814,-0.013888240098953246
1746739385504369000,11.896368896484375,-0.019345920982956885,0.003534603866934776,0.02241327266432345
1746739385514449000,11.906448974609376,0.020158990931510926,0.018261632877588273,0.044559382292442024
1746739385524529000,11.91652880859375,0.05335515809059143,0.028145898032188414,0.035990985509380694
1746739385534608000,11.92660791015625,0.0640530777156353,0.029463994893431662,0.0144043729275465
1746739385544687900,11.93668798828125,0.058442836618423456,0.016941782450675964,0.040271220111846924
1746739385554768100,11.94676806640625,0.015730068573355675,0.013075170150399208,0.025643559822440147
1746739385564847000,11.95684716796875,0.010516717839241027,0.016277181062102318,0.024534977526031433
1746739385574927000,11.966927001953126,0.007855974197387695,-0.007044073292613029,-0.012821304987184702
1746739385585006800,11.9770068359375,-0.03702478553652763,-0.02742050636708736,0.003217866067960858
1746739385595086000,11.987086181640626,-0.05067337166070938,-0.01279752225279808,-0.015534217207692562
1746739385605166000,11.997166015625,-0.04689736025333404,0.0015478139638900755,-0.010989121123962104
1746739385615246000,12.00724609375,-0.057637365454435346,0.026496377259492873,0.016860095516592264
1746739385625325000,12.017324951171876,-0.016261983492970467,0.02166705740690231,0.04932228584531694
1746739385635405000,12.027405029296874,0.02038695446848869,0.024451135167479515,0.03941551659796387
1746739385645484800,12.03748486328125,0.04344985014796257,0.03350888637006283,0.02466653148382902
1746739385655564000,12.04756396484375,-0.0013327099084854126,0.009264087429642676,0.007445237972028553
1746739385665644000,12.05764404296875,-0.0018938509225845336,0.01128127247095108,0.017663959245383738
1746739385675724000,12.06772412109375,-0.004715922605991363,0.017063363003730774,0.034770540336333214
1746739385685803000,12.077802978515624,-0.010106967994570731,0.009874328282475472,0.024890549498051404
1746739385695883000,12.087883056640624,0.020651742884516714,-0.00620353081524372,0.01959437931869179
