time,seconds_elapsed,z,y,x
1746729092744758000,0.022758056640625,-0.09782499893605709,-0.030503631006320937,-0.01949919358221814
1746729092754774800,0.03277490234375,-0.10007073203623294,-0.031621821381291375,-0.017636176189314574
1746729092764792000,0.0427919921875,-0.09917115284800529,-0.024455071557080373,-0.014065825155563651
1746729092774809900,0.052809814453125,-0.10755319674611091,-0.031448894233489406,-0.01331551824491471
1746729092784827000,0.062826904296875,-0.09902151524424552,-0.03653049921356141,-0.01208119067698717
1746729092794845000,0.072844970703125,-0.1247550914376974,-0.017800764767033978,-0.00988316917605698
1746729092804862000,0.082862060546875,-0.09333002560436725,-0.018425846995972096,-0.014560933462437241
1746729092814880000,0.0928798828125,-0.12086100660860538,-0.026827682439936322,-0.021190544202644376
1746729092824896800,0.102896728515625,-0.08120587256848812,-0.024921492625586687,-0.012703633424267172
1746729092834914000,0.1129140625,-0.12444938648939131,-0.03185099962782115,-0.012428889869805424
1746729092844931800,0.122931884765625,-0.08689327055513858,-0.026455643390305338,-0.01951121281357482
1746729092854948000,0.132947998046875,-0.12250585120618343,-0.02648649518629536,-0.011016155261360109
1746729092864966100,0.142966064453125,-0.08644611130952834,-0.02529771465999074,-0.024754666425008325
1746729092874983200,0.152983154296875,-0.10604863740205764,-0.026590503550041465,-0.010949026575591414
1746729092885000000,0.163,-0.09363397698700428,-0.020400791197596118,-0.010173640022613107
1746729092895018000,0.17301806640625,-0.10470540609955788,-0.02690474799782969,-0.016631803186051546
1746729092905035000,0.183034912109375,-0.09871931742727756,-0.02198352121124044,-0.01780353211285546
1746729092915053000,0.193052978515625,-0.102909170332551,-0.02055967155373655,-0.022478793914895503
1746729092925070000,0.203070068359375,-0.09976385804414749,-0.022702446602936834,-0.024696543029602617
1746729092935088000,0.213088134765625,-0.10500292774140835,-0.03061089990623295,-0.01166641759732738
1746729092945105200,0.223105224609375,-0.10634499000012874,-0.025119408084172755,-0.012609488867409526
1746729092955122000,0.233121826171875,-0.09541793779432774,-0.020314446354703978,-0.018885883989464492
1746729092965140200,0.24314013671875,-0.1060416231393814,-0.0263954650351312,-0.013574662371445447
1746729092975157000,0.253156982421875,-0.09706336691379547,-0.023218953890865666,-0.01685339178116992
1746729092985175000,0.263175048828125,-0.1136748944967985,-0.02668125057341531,-0.009525642708968371
1746729092995192000,0.273192138671875,-0.09601707273125648,-0.02643600710807368,-0.01863992813806981
1746729093005210000,0.283210205078125,-0.09721768069267273,-0.02318243953906931,-0.014020287247095257
1746729093015227100,0.29322705078125,-0.09302958135306835,-0.02302552281115204,-0.014452395054046064
1746729093025244000,0.303243896484375,-0.10664601877331734,-0.015525421979883684,-0.01672923567853868
1746729093035262200,0.31326220703125,-0.0955675753980875,-0.017151187417656182,-0.011999065351486206
1746729093045279000,0.323279052734375,-0.1012532198190689,-0.02448642567656934,-0.013695347875356673
1746729093055297000,0.333297119140625,-0.09990940399467944,-0.018316066478565336,-0.016343323367182163
1746729093065314000,0.34331396484375,-0.11143208400607109,-0.026333971505705267,-0.023061416108440605
1746729093075332000,0.35333203125,-0.08225099770724772,-0.012847297944966703,-0.011225012239068745
1746729093085349000,0.36334912109375,-0.1022989294797182,-0.015859640636621042,-0.01205046674516052
1746729093095366000,0.373365966796875,-0.10214695378839969,-0.024693008498800916,-0.010313980075065047
1746729093105384200,0.38338427734375,-0.0960077203810215,-0.019675052472623064,-0.010614625255763531
1746729093115401000,0.39340087890625,-0.10259002138078212,-0.0143527340718545,-0.010806585897598414
1746729093125419300,0.403419189453125,-0.11321370672583579,-0.026081448916206135,-0.017754249611031264
1746729093135436000,0.41343603515625,-0.10348667795956135,-0.018758138557104394,-0.017957535364478826
1746729093145454000,0.4234541015625,-0.10812135202288627,-0.0221468128810171,-0.010712934531085192
1746729093155471000,0.43347119140625,-0.09779460379779338,-0.025546720984997225,-0.007552863064967095
1746729093165488000,0.443488037109375,-0.10033668949604034,-0.017447329953173173,-0.01061362060876563
1746729093175506200,0.453506103515625,-0.10706921262145042,-0.017090607203682884,-0.013078238890320061
1746729093185523000,0.46352294921875,-0.10467501096129417,-0.013279643213935195,-0.01468541835863143
1746729093195541200,0.473541259765625,-0.10003273811340331,-0.016830230101291088,-0.016688410477805882
1746729093205558000,0.48355810546875,-0.10601473513245582,-0.019359967774618417,-0.003950527724064887
1746729093215576000,0.493576171875,-0.1054185228049755,-0.02405725874537602,-0.014780549296177923
1746729093225593000,0.503593017578125,-0.11005553495585918,-0.01669158881558105,-0.013801292467862367
1746729093235610000,0.513610107421875,-0.10931085406839847,-0.01344814078179188,-0.01710365848150104
1746729093245628200,0.523628173828125,-0.1067693528920412,-0.02550589578426443,-0.017072806685511022
1746729093255645000,0.53364501953125,-0.10976327401101589,-0.02107464447170496,-0.013785419045295566
1746729093265663200,0.543663330078125,-0.109013332426548,-0.022499626640370113,-0.005446885495353489
1746729093275680000,0.553679931640625,-0.1043728131443262,-0.01857374016721733,-0.008786478246841579
1746729093285698000,0.563697998046875,-0.10601941130757331,-0.017602136922394856,-0.018408402670826763
1746729093295715000,0.573715087890625,-0.10332710348367691,-0.02383365172310732,-0.013913082279264926
1746729093305732000,0.583732177734375,-0.10482640213072299,-0.017431082071270792,-0.012855225523095577
1746729093315750100,0.593750244140625,-0.10302841279804706,-0.020543405405525118,-0.010930175744649022
1746729093325767200,0.60376708984375,-0.1004863270998001,-0.01665107414210215,-0.01363159845676273
1746729093335785200,0.61378515625,-0.10437632027566432,-0.01933518952638842,-0.01792427241569385
1746729093345802000,0.623802001953125,-0.1010831239491701,-0.02083819623417221,-0.021033380879554895
1746729093355819000,0.633819091796875,-0.0989876129746437,-0.02130016945642419,-0.011879439293500035
1746729093365837000,0.643837158203125,-0.1016805053204298,-0.022577231054380534,-0.0038069180022925137
1746729093375854000,0.65385400390625,-0.10452303526997565,-0.026310554097499696,-0.0027319091819226742
1746729093385872100,0.6638720703125,-0.09614216041564941,-0.02439986163796857,-0.014824333638977259
1746729093395889200,0.67388916015625,-0.09973580099344254,-0.021552682912768795,-0.006885101604927331
1746729093405907200,0.6839072265625,-0.1046779335707426,-0.014169596057292073,-0.012279763722699134
1746729093415924000,0.693924072265625,-0.09300853856503963,-0.009584259294718503,-0.016371416950505226
1746729093425941000,0.70394091796875,-0.11844576216042041,-0.02054167010616511,-0.01228783743130043
1746729093435959000,0.713958984375,-0.09569967734515666,-0.03063303867280483,-0.010996080587711185
1746729093445976000,0.72397607421875,-0.1081201829791069,-0.018435793001251293,-0.013669884640537202
1746729093455994000,0.733994140625,-0.10422785171568393,-0.014926140912482514,-0.012514778054971247
1746729093466011100,0.74401123046875,-0.09195464559793472,-0.02248073014365509,-0.018623634590394796
1746729093476029200,0.754029296875,-0.11844225502908229,-0.015806860136613247,-0.011907295414805412
1746729093486046000,0.7640458984375,-0.09150690183043479,-0.02321678933324292,-0.017243834137171506
1746729093496063000,0.77406298828125,-0.11125555839538574,-0.02144498475459404,-0.01432937146257609
1746729093506081000,0.7840810546875,-0.09479659102559089,-0.021990800335397943,-0.012609269671700894
1746729093516098000,0.79409814453125,-0.10182663579285144,-0.022143926804186774,-0.010835464932210742
1746729093526116000,0.8041162109375,-0.09149930304586887,-0.01670028357869014,-0.008550258338171988
1746729093536133000,0.814133056640625,-0.10706219835877417,-0.015903717240365222,-0.0101934955005534
1746729093546151200,0.824151123046875,-0.10675883149802684,-0.011931470874836668,-0.004513221374433487
1746729093556168200,0.834168212890625,-0.10301496879458427,-0.017256912814453244,-0.01267932096691802
1746729093566185000,0.84418505859375,-0.08894611143171786,-0.02495128497565165,-0.007118015311658382
1746729093576203000,0.854203125,-0.09927110609114169,-0.014926232244027778,-0.013456241889856755
1746729093586220000,0.864219970703125,-0.09208557850122451,-0.013953724816907197,-0.008650613440107554
1746729093596238000,0.874238037109375,-0.11228607048690319,-0.026263573150616136,-0.0049782085376791655
1746729093606255000,0.884255126953125,-0.08849310696721076,-0.02264953823876567,-0.006725161802861839
1746729093616273200,0.894273193359375,-0.10749182194769381,-0.022742760347016153,-0.015088482734188436
1746729093626290200,0.904290283203125,-0.10614508351385593,-0.021650325467810032,-0.01835789632629603
1746729093636307000,0.914306884765625,-0.10913725106716156,-0.019979378314595668,-0.010535696534346788
1746729093646325000,0.924324951171875,-0.10285130266547203,-0.018165086301090195,-0.01316166112376377
1746729093656342000,0.934342041015625,-0.11108137087225914,-0.015153921786369755,-0.011510624247416853
1746729093666360000,0.944360107421875,-0.1062900449424982,-0.013668797795148565,-0.008982512275595217
1746729093676377000,0.954377197265625,-0.10494213746488093,-0.01952768902434036,-0.010448182647675275
1746729093686395100,0.96439501953125,-0.10628829137682914,-0.024052518638176843,-0.011036467397026717
1746729093696412200,0.974412109375,-0.10045300935208797,-0.023116753891715778,-0.00481885325750336
1746729093706429000,0.984428955078125,-0.10823241118192672,-0.012401189012126996,-0.0003675364044494927
1746729093716447200,0.994447265625,-0.09102700935900211,-0.0170186653454788,-0.006306534531991929
1746729093726464000,1.004464111328125,-0.10733458555936813,-0.015181266451021656,-0.0141839533762075
1746729093736482000,1.01448193359375,-0.09820493816435337,-0.016765457769390195,-0.010109379147365689
1746729093746499000,1.0244990234375,-0.1008960769444704,-0.012644925506971775,-0.012904033100884407
1746729093756517000,1.03451708984375,-0.09894961905181407,-0.018076083710230884,-0.018702490246575325
1746729093766534100,1.0445341796875,-0.10523322936594486,-0.01906819088696502,-0.011584840261097996
1746729093776551000,1.054551025390625,-0.1022381392031908,-0.008840062464447691,0.004113444934505969
1746729093786569200,1.0645693359375,-0.10328326434195041,-0.019506500105839222,-0.008445135729573667
1746729093796586000,1.0745859375,-0.10657470710277557,-0.01363064860869199,-0.015730032040737568
1746729093806604000,1.08460400390625,-0.1110609126061201,-0.018095820457162334,-0.005859393552690744
1746729093816621000,1.09462109375,-0.09160977768301963,-0.020178070091316475,-0.0037531602547504006
1746729093826639000,1.10463916015625,-0.10283376700878143,-0.024327828448219225,-0.010954086343199014
1746729093836656000,1.11465625,-0.10119067597687244,-0.014214750373270362,-0.007747472321614623
1746729093846673000,1.1246728515625,-0.10448270325958728,-0.009578286211658269,-0.014928689062595367
1746729093856691500,1.13469140625,-0.10283668961822987,-0.020530281062470748,-0.011866287550982088
1746729093866708200,1.144708251953125,-0.10598024834096431,-0.018238416398782282,-0.01076610775673762
1746729093876726300,1.154726318359375,-0.0946089594990015,-0.01908331539086066,-0.00977927041016519
1746729093886743300,1.164743408203125,-0.10942483583688735,-0.01143846319350414,-0.017920217295084147
1746729093896761000,1.174760986328125,-0.10134206714630126,-0.019100175194116307,-0.01460601471317932
1746729093906778400,1.1847783203125,-0.09550736964344977,-0.013870969303743912,0.0006947042658925056
1746729093916795100,1.194795166015625,-0.10074643934071063,-0.021814658317202702,-0.008121347135305405
1746729093926813400,1.2048134765625,-0.10837971069812774,-0.016050751895084977,0.00037696181992068884
1746729093936830200,1.214830322265625,-0.0928185689508915,-0.02094607705543749,-0.004655461123026907
1746729093946848500,1.2248486328125,-0.09416706095039844,-0.02014540993073024,-0.010452128170430659
1746729093956865300,1.234865234375,-0.11466390553414821,-0.013523251844616606,-0.0037447942852042613
1746729093966883000,1.244883056640625,-0.10882453185617923,-0.030356514153210445,0.006672152973990887
1746729093976900400,1.254900390625,-0.10538403601348399,-0.016712421541055664,-0.007618420848157256
1746729093986917400,1.26491748046875,-0.10583353334665298,-0.01310941947987303,-0.012040895199216901
1746729093996935400,1.274935302734375,-0.10568506478667258,-0.01741108046285808,0.00044646512586623427
1746729094006952200,1.2849521484375,-0.0950619639635086,-0.020737603670218957,-0.0013333674956113098
1746729094016970500,1.294970458984375,-0.09670973117053508,-0.014751167938066646,0.0019484671866521238
1746729094026987300,1.3049873046875,-0.10853636256456374,-0.013371604946861043,-0.007582673681341111
1746729094037005300,1.31500537109375,-0.10344985308051109,-0.007138245248934254,-0.005033829448744654
1746729094047022300,1.325022216796875,-0.08998539135158061,-0.018313591393688693,-0.010590294532105325
1746729094057039400,1.335039306640625,-0.09642331544458865,-0.01463959732237272,-0.007210515900701284
1746729094067057400,1.345057373046875,-0.10001754054427146,-0.007923696538200601,-0.010965247058030217
1746729094077074200,1.35507421875,-0.11557809776961803,-0.01729427654962055,-0.0032421237263828514
1746729094087092200,1.36509228515625,-0.10810089375674724,-0.010840296370955184,-0.008863726467825472
1746729094097109200,1.375109130859375,-0.07683131074607372,-0.011067666252888738,-0.012088862526789307
1746729094107127300,1.385127197265625,-0.1678068821787834,-0.013723112665116785,-0.01860606240108609
1746729094117144300,1.395144287109375,-0.03583352992534637,-0.00008101108064875006,-0.03369198785200715
1746729094127161300,1.405161376953125,-0.17843582822084425,-0.016816713032592086,-0.0010412709475494922
1746729094137179400,1.415179443359375,-0.0496007739931345,-0.003059177508065477,-0.006313914120849222
1746729094147196400,1.425196533203125,-0.1386328101426363,-0.02340034747291356,-0.0022539164066314697
1746729094157214200,1.435214111328125,-0.07458674668967723,-0.008807146575534715,0.00656368763083592
1746729094167231200,1.445231201171875,-0.12381634928286075,-0.011893202957371249,0.005822988798748701
1746729094177249300,1.455249267578125,-0.08461129709780216,-0.027733225578069686,0.023783994761947543
1746729094187266300,1.465266357421875,-0.11378712269961833,-0.022123167143948373,0.01687019678549841
1746729094197283300,1.475283447265625,-0.10031564670801162,-0.025169092444796114,0.013167488076351583
1746729094207301400,1.48530126953125,-0.10570201592147349,-0.016838102880492804,-0.006270385506376624
1746729094217318400,1.495318359375,-0.10091478164494037,-0.01686826968989335,-0.0050691930230706925
1746729094227336200,1.505336181640625,-0.10585282256901264,-0.01065213512140326,-0.021768271025363356
1746729094237353200,1.515353271484375,-0.10675064819157123,-0.011652206408884376,-0.023677264718152582
1746729094247371300,1.525371337890625,-0.09642623805403709,-0.011043719121720641,-0.020259382566064594
1746729094257388300,1.53538818359375,-0.10824936231672763,-0.021621044574398545,-0.016871639823913574
1746729094267405300,1.5454052734375,-0.09373393023014068,-0.015737247232813386,-0.011279117046482861
1746729094277423400,1.55542333984375,-0.10001461793482302,-0.016819498644722625,-0.006479187685158103
1746729094287440400,1.5654404296875,-0.09851999546289443,-0.01753982140906155,-0.0021077676679007707
1746729094297458200,1.575458251953125,-0.10555354736149311,-0.019470707273250443,0.0025997341696172953
1746729094307475500,1.585475341796875,-0.09911854587793349,-0.01698849853607826,0.0023842830543406306
1746729094317493200,1.5954931640625,-0.1022597665131092,-0.015068380661075935,0.003713211836852133
1746729094327510300,1.60551025390625,-0.11692191359400748,-0.019217463164543733,0.0006840550077147782
1746729094337527300,1.61552734375,-0.11198211910426616,-0.011348118028929457,-0.0036034313194453715
1746729094347545300,1.62554541015625,-0.10659282728135586,-0.016912675087200478,-0.0022732969605363906
1746729094357562400,1.635562255859375,-0.08684124810695648,-0.010225388476159423,-0.008002780523244291
1746729094367580200,1.645580078125,-0.11003332312405109,-0.009558878258289768,-0.017710848860722033
1746729094377597400,1.655597412109375,-0.09881108736395836,-0.004823383302148431,-0.012150785314477979
1746729094387615200,1.665615234375,-0.11273030712306499,-0.009797207925654947,-0.012203520148713141
1746729094397632300,1.67563232421875,-0.10659867250025272,-0.013066594118298962,-0.01749534294651821
1746729094407649300,1.685649169921875,-0.11153437533676623,-0.01332698948699981,-0.006835490309540182
1746729094417667300,1.695667236328125,-0.12110767484605311,-0.02806509701409377,0.01383682043896988
1746729094427684400,1.705684326171875,-0.09462532611191272,-0.02356946609527804,0.021328199107665567
1746729094437702100,1.7157021484375,-0.0995627825140953,-0.01826261012512259,0.01719619560316205
1746729094447719400,1.725719482421875,-0.10958791744410991,-0.01156271976083517,-0.01062394107338041
1746729094457737200,1.7357373046875,-0.09118366122543811,-0.00725750598073937,-0.022129706482589242
1746729094467754200,1.745754150390625,-0.09372925405502319,-0.012894954745285212,-0.017476546914502976
1746729094477771300,1.755771240234375,-0.12844400908350945,-0.017008271815627814,-0.010298289315588773
1746729094487789300,1.765789306640625,-0.0687368516176939,-0.003490317200636491,-0.007491451733931898
1746729094497806300,1.775806396484375,-0.1366670630276203,-0.004734554241225123,-0.01626472343932837
1746729094507824000,1.78582421875,-0.06873451353013516,-0.00658552500330843,-0.02861304061990231
1746729094517841400,1.79584130859375,-0.1431026490330696,-0.014875205309689044,-0.010916841339040547
1746729094527859200,1.805859130859375,-0.07801087591946125,-0.020728150855284184,0.004615129112638533
1746729094537876500,1.81587646484375,-0.13651625638008116,-0.013579950467916204,0.006277070975489914
1746729094547893200,1.825893310546875,-0.08384381985664367,-0.012328470835788174,-0.010674465684220194
1746729094557911300,1.835911376953125,-0.12199790168404578,-0.004808934651687741,-0.003861406402196735
1746729094567928300,1.84592822265625,-0.08653437411487103,-0.005986609262088313,-0.00940884792888537
1746729094577946000,1.855946044921875,-0.11810557042062282,-0.008092440701229497,-0.01950412548566237
1746729094587963400,1.86596337890625,-0.08084171543121338,-0.011260366680240257,-0.0028109109685756266
1746729094597981200,1.875981201171875,-0.11944529459178448,-0.017072898017056286,-0.002467266896367073
1746729094607998500,1.88599853515625,-0.08817045088410377,-0.011796893842890859,-0.004795435849297792
1746729094618015200,1.89601513671875,-0.11031447815299034,-0.017736476492322982,-0.019341263074148445
1746729094628033300,1.906033203125,-0.088020813280344,-0.015944158848607913,-0.013208824733737856
1746729094638050300,1.91605029296875,-0.10343524003326893,-0.017483515511406585,-0.005140376829449087
1746729094648068000,1.926068115234375,-0.09760346513986587,-0.015916549322474747,-0.0002525865215808153
1746729094658085400,1.93608544921875,-0.10014905796945095,-0.01573719243388623,-0.007273991324659436
1746729094668103200,1.946103271484375,-0.09745908823311328,-0.012265570800565182,-0.017032584272976964
1746729094678120400,1.956120361328125,-0.10060264695584774,-0.00873436446711421,-0.004760766394715756
1746729094688137200,1.96613720703125,-0.0947661958873272,-0.008710125075001268,-0.004115235032793135
1746729094698155300,1.9761552734375,-0.10060089339017868,-0.011190799442213028,-0.002092040375806391
1746729094708172300,1.98617236328125,-0.10793196693062782,-0.011631602012272924,0.008435929509811103
1746729094718190000,1.996190185546875,-0.09386603217720985,-0.006577232098998502,-0.005799406993761658
1746729094728207400,2.006207275390625,-0.11002747790515423,-0.0050931492873933166,-0.008755918711796403
1746729094738225200,2.01622509765625,-0.1077799912393093,-0.006341806774772704,-0.010408636088576168
1746729094748242400,2.026242431640625,-0.10807751288115977,-0.01649212985388003,-0.0032837161120958624
1746729094758259200,2.03625927734375,-0.09640577978789806,-0.015827199671743435,-0.0021864589272998273
1746729094768277200,2.04627734375,-0.10942191322743892,-0.009181249718088657,-0.0020311770340427754
1746729094778294300,2.056294189453125,-0.08861702560782432,-0.00786840442069806,-0.014563582077249884
1746729094788312300,2.066312255859375,-0.09819441677033901,-0.011433586088987067,-0.007375935595482587
1746729094798329300,2.076329345703125,-0.09280454042553901,-0.015701244337670506,-0.0033245047802105544
1746729094808347100,2.08634716796875,-0.10626783311069012,-0.013285908557940273,0.005098145122919231
1746729094818364400,2.096364501953125,-0.10641922428011893,-0.0085079809658695,-0.00560695316158235
1746729094828381200,2.106381103515625,-0.09535071777701377,-0.012083419166691601,-0.008258180056419224
1746729094838399200,2.116399169921875,-0.10358546215891837,-0.013838354808930307,-0.003260170839726925
1746729094848416300,2.126416259765625,-0.11196692153513431,-0.013733999385312199,-0.003567702418938279
1746729094858435000,2.13643505859375,-0.08981938713490963,-0.014198639488685875,-0.008305855123046785
1746729094868452000,2.1464521484375,-0.10508066915273666,-0.015308664823509751,-0.009216138368379324
1746729094878470100,2.15647021484375,-0.09086685036122798,-0.0032266795620787886,-0.007438041046261787
1746729094888487200,2.166487060546875,-0.10224047729074955,-0.006830229612533003,-0.004794632131699473
1746729094898504000,2.17650390625,-0.10762450841665268,-0.01476267571276985,-0.01420338872903958
1746729094908522200,2.186522216796875,-0.11151625515818596,-0.011851089981850235,-0.00023883199086412787
1746729094918539000,2.1965390625,-0.10029343487620353,-0.008039331407658756,-0.005967712765373289
1746729094928557000,2.20655712890625,-0.09610007483959197,-0.01122615388338454,0.00005251563852652907
1746729094938574000,2.216573974609375,-0.093254037758708,-0.009316164676751941,-0.005528663760982454
1746729094948592000,2.226592041015625,-0.10253098466992377,-0.014213946655672043,-0.0046651057342067355
1746729094958609200,2.236609130859375,-0.10013502944409847,-0.009944781436491757,-0.006287318374868482
1746729094968627000,2.246626953125,-0.10327800364494323,-0.017421291329618543,-0.0003045724371448159
1746729094978644200,2.256644287109375,-0.1113531735509634,-0.01993044287264347,0.0008915785448625683
1746729094988661000,2.266660888671875,-0.09803893394768237,-0.017127587346360086,-0.006169464148860424
1746729094998679000,2.276678955078125,-0.10252864658236503,-0.00825593330040574,-0.00870155817605555
1746729095008696000,2.286696044921875,-0.10477321063876151,-0.007207648090180009,-0.006671422321628779
1746729095018713900,2.2967138671875,-0.10522153892815113,-0.010456886543938889,0.0007184504676610231
1746729095028731100,2.306731201171875,-0.11120821212232113,-0.016564546636119483,-0.010704020572267473
1746729095038749000,2.3167490234375,-0.1043248823493719,-0.015556730433600022,-0.0036051300861872733
1746729095048766200,2.32676611328125,-0.10298398913443088,-0.01659305121139623,-0.003611669424828142
1746729095058783000,2.336782958984375,-0.10493336963653564,-0.011965437076520175,-0.0042920711707323785
1746729095068801300,2.34680126953125,-0.1023901148945093,-0.008558085451601073,-0.001956522628944367
1746729095078818000,2.356818115234375,-0.10223580111563205,-0.0124643356425222,-0.0021591142626479266
1746729095088835800,2.3668359375,-0.10792027649283409,-0.01495807955386117,-0.00841369941169396
1746729095098853000,2.37685302734375,-0.0978945570409298,-0.010851119159068912,-0.009734956344403327
1746729095108871000,2.386870849609375,-0.10447978065013885,-0.005328720742091536,-0.013812033057585358
1746729095118888200,2.39688818359375,-0.10642623854279518,-0.020028898278437554,-0.007608283046633004
1746729095128905000,2.406905029296875,-0.11360942804515362,-0.020932696984056382,0.0016425065100193024
1746729095138923300,2.41692333984375,-0.10478080942332745,-0.011119734366843477,-0.005040387053694576
1746729095148940000,2.42693994140625,-0.11210954487621784,-0.008440907079027966,-0.0039492308161221444
1746729095158958000,2.4369580078125,-0.10043488917350768,-0.011061556172510608,-0.007298742173425853
1746729095168975000,2.44697509765625,-0.11315350097119807,-0.009262735722772777,-0.003991846115142107
1746729095178993000,2.456992919921875,-0.09474807570874691,-0.017805039083352313,-0.006231569599639624
1746729095189010200,2.46701025390625,-0.09489479070305824,-0.02017457209313288,-0.010882080552913249
1746729095199027000,2.47702685546875,-0.09938333429396153,-0.012355559772113337,-0.004607256333436817
1746729095209045200,2.487045166015625,-0.1080628998339176,-0.0110463038044516,-0.0017315730329602957
1746729095219062000,2.49706201171875,-0.10237842445671558,-0.006227395748021081,-0.010466960413381457
1746729095229080000,2.507080078125,-0.10342354959547519,-0.018267350232321768,-0.003363265888020396
1746729095239097000,2.51709716796875,-0.10506780967116355,-0.01168595341485925,-0.005830952909495681
1746729095249115000,2.527114990234375,-0.09923428121209144,-0.012032118237717077,-0.005262815899029374
1746729095259132200,2.537132080078125,-0.10043313560783862,-0.01272725176187232,-0.012189528155978768
1746729095269149200,2.547149169921875,-0.09774082778394222,-0.010388360485527664,-0.0032226518409326672
1746729095279167200,2.557167236328125,-0.10342413411736488,-0.019229500662209464,-0.00923285204116255
1746729095289184000,2.56718408203125,-0.104621234947443,-0.015993961940240112,-0.005222008964605629
1746729095299202000,2.5772021484375,-0.10462181946933269,-0.014734390333201735,-0.002299655244499445
1746729095309219000,2.587218994140625,-0.1055184760481119,-0.008594508471852167,0.004788220657221972
1746729095319237000,2.597237060546875,-0.0993798271626234,-0.008731094797793775,-0.0007572481080889701
1746729095329254100,2.607254150390625,-0.10551555343866348,-0.01030978795713745,-0.0011816292663104832
1746729095339272000,2.61727197265625,-0.10177285977900027,-0.01815277480878867,-0.0004489128112792969
1746729095349289200,2.627289306640625,-0.10102408723831176,-0.011453633363172412,-0.004489584770519286
1746729095359306000,2.637305908203125,-0.08755670289993285,-0.014736445292970165,-0.009557846211828291
1746729095369324000,2.647323974609375,-0.09788403564691543,-0.01121889302553609,-0.015447707968018948
1746729095379341000,2.657341064453125,-0.10925883162021637,-0.009223180030519142,-0.012888196210935711
1746729095389359000,2.667359130859375,-0.09938099620640277,-0.005969895589305088,-0.0032556042624637483
1746729095399376100,2.677376220703125,-0.10267828418612479,-0.015903479778347537,-0.004788330255076289
1746729095409394000,2.687393798828125,-0.10701894373893737,-0.01575053597264923,-0.0007138656240887939
1746729095419411200,2.6974111328125,-0.10268179131746291,-0.012697852137451992,0.0026686346873641014
1746729095429428200,2.70742822265625,-0.10986498081982135,-0.005279949696920812,0.0017934227554127573
1746729095439446000,2.717446044921875,-0.11226035152375698,-0.012610064256144686,-0.0036316710332408545
1746729095449463000,2.727463134765625,-0.10208499446809291,-0.016659595375275237,-0.0037884142312221225
1746729095459481000,2.737481201171875,-0.10163315904736518,-0.012538807384530082,0.0025258469494991004
1746729095469498000,2.747498046875,-0.10327917268872261,-0.015595034883683547,-0.0035652364672161636
1746729095479516000,2.757515869140625,-0.09939034855663775,-0.0054328204373829065,0.0019889635938219723
1746729095489533200,2.767533203125,-0.09879238266348839,-0.006040202612848952,0.00044363384796306486
1746729095499551000,2.777551025390625,-0.09654431147575378,-0.0075837057278025895,0.004323178695049137
1746729095509568000,2.787568115234375,-0.101031101500988,-0.01791234451588243,-0.0021613427523523568
1746729095519585000,2.7975849609375,-0.10671849948763847,-0.017033643718902022,-0.005525485423207283
1746729095529603000,2.80760302734375,-0.0965431424319744,-0.015432647396204991,-0.0021613792849704623
1746729095539620000,2.8176201171875,-0.10013736753165721,-0.008968675546487793,-0.007573266532178968
1746729095549638100,2.82763818359375,-0.10492927798330783,-0.013885308356350287,-0.0054559455846436315
1746729095559655000,2.837655029296875,-0.1022381392031908,-0.016783760611061006,-0.0061542483134195206
1746729095569673000,2.8476728515625,-0.1032879405170679,-0.014229893143475055,-0.0015389548039995134
1746729095579690000,2.85768994140625,-0.10732990938425063,-0.006452655871259048,-0.003301763225439936
1746729095589707300,2.867707275390625,-0.10209259325265883,0.003381742259627208,-0.006183839734084904
1746729095599725000,2.87772509765625,-0.10134615879952907,-0.006909806787921116,0.00807986434744671
1746729095609742000,2.8877421875,-0.09296762203276157,-0.013907474522385745,-0.00017376739801838994
1746729095619760000,2.897760009765625,-0.09251929374337196,-0.007650012429663911,-0.004619458227884024
1746729095629777000,2.90777685546875,-0.10987667125761508,-0.006450527846254408,-0.0035409788087941703
1746729095639795000,2.917794921875,-0.10134849688708782,-0.008577794799068943,-0.0008305508063174784
1746729095649812000,2.92781201171875,-0.10105039072334766,-0.0054967616522219025,-0.009665982761420309
1746729095659829200,2.937829345703125,-0.09880699571073055,-0.008962830327590926,-0.0007393653915263712
1746729095669847000,2.947846923828125,-0.10090075311958789,-0.009550201761489734,-0.004379712921567261
1746729095679864000,2.957864013671875,-0.1047913308173418,-0.009358880440471694,-0.0019407770705409347
1746729095689882000,2.967882080078125,-0.10898176824450492,-0.01072500856136903,-0.000653458940051496
1746729095699899000,2.97789892578125,-0.10838614043891429,-0.0072761558822821825,0.0009707264619879424
1746729095709917200,2.987917236328125,-0.0938724619179964,-0.018391095342999323,-0.0013524192559532821
1746729095719934000,2.997933837890625,-0.10749006838202475,-0.006751182160107418,0.0009997881596907972
1746729095729952000,3.007951904296875,-0.09297346725165843,-0.010775651903217658,0.0012339622417464851
1746729095739969000,3.017968994140625,-0.09506839370429515,-0.00901260601975955,0.0015101853672415018
1746729095749986000,3.027986083984375,-0.10269932697415352,-0.007017952470667659,-0.0033037542531266805
1746729095760004000,3.038004150390625,-0.10853343995511532,-0.009978464510384947,0.0038293855624273415
1746729095770020900,3.048020751953125,-0.1076361988544464,-0.013249092812044545,-0.0008410174014046788
1746729095780039200,3.0580390625,-0.10239596011340618,-0.00945056817876175,-0.004491283537261187
1746729095790056000,3.068055908203125,-0.10269640436470508,-0.00810255110329017,-0.00730270596249029
1746729095800074000,3.078073974609375,-0.10808218905627727,-0.009582405264349654,0.0006849683231674134
1746729095810091000,3.088091064453125,-0.10852817925810813,-0.014777343558939173,0.0018055881172418593
1746729095820108300,3.0981083984375,-0.09820084651112555,-0.020255555774318052,-0.005636288853920996
1746729095830126000,3.1081259765625,-0.1064338373273611,-0.01380258937580511,-0.006346866542380303
1746729095840142800,3.118142822265625,-0.10583470239043236,-0.01599369707875885,-0.011831417167000471
1746729095850161200,3.1281611328125,-0.10568506478667258,-0.01172446792749688,-0.0005491035164333879
1746729095860177700,3.138177734375,-0.10882686994373798,-0.008214861504500732,-0.005366879061702638
1746729095870195700,3.14819580078125,-0.10613397759795189,-0.012851051671477034,-0.005395977292023599
1746729095880212500,3.15821240234375,-0.09984686015248298,-0.01277300886604935,-0.002794781817682087
1746729095890229800,3.168229736328125,-0.09879822788238525,-0.0062644946217071265,-0.006818137315940112
1746729095900247600,3.17824755859375,-0.11435878510773181,-0.007310788804246112,-0.005410188480466604
1746729095910264800,3.188264892578125,-0.11121873351633547,-0.011315932792378589,-0.008621478677168488
1746729095920282600,3.19828271484375,-0.10598550903797149,-0.015377154349302872,-0.0007091711826622486
1746729095930299600,3.208299560546875,-0.0994020389944315,-0.013894039652077481,-0.0001496010711416602
1746729095940317700,3.218317626953125,-0.10464169321358203,-0.006664234529016539,-0.007831698272656649
1746729095950334500,3.22833447265625,-0.1098801783889532,-0.004484378872439265,-0.005758673124574124
1746729095960352800,3.238352783203125,-0.09731354228258132,-0.005420563744008541,-0.004094831565581262
1746729095970369500,3.24836962890625,-0.09431845211982727,-0.0071039411205332725,-0.008517452047113329
1746729095980386800,3.25838671875,-0.10194880086779594,-0.009926131534948944,-0.0033681977914646268
1746729095990404600,3.268404541015625,-0.11197627388536929,-0.01153344800057821,-0.008504683897085486
1746729096000422000,3.278421875,-0.10150514875352382,-0.008582973297685384,-0.005900967672094702
1746729096010439700,3.288439697265625,-0.1040507415831089,-0.009036726680863649,-0.00018969561951234936
1746729096020456400,3.29845654296875,-0.10046294622421265,-0.012677804863266647,-0.004232157677039504
1746729096030474800,3.308474853515625,-0.0980681600421667,-0.008862009434774517,-0.005360832913406193
1746729096040491500,3.318491455078125,-0.10240589698553085,-0.011195146823767573,-0.010619794621225446
1746729096050508800,3.3285087890625,-0.10539631097316741,-0.002613315170397982,0.00042206133697181937
1746729096060526600,3.338526611328125,-0.09986030415594577,-0.008501395961456,-0.006216335497889668
1746729096070544000,3.3485439453125,-0.10704057104885578,-0.014339655394572763,0.0012831716783344746
1746729096080561700,3.358561767578125,-0.10838614043891429,-0.008865005109459161,-0.0023674963163211942
1746729096090578400,3.368578369140625,-0.11481763479113578,-0.018804133123299104,-0.006919825858436524
1746729096100596700,3.3785966796875,-0.10239537559151649,-0.010732543413853272,0.006347377999033779
1746729096110613500,3.388613525390625,-0.10209317777454853,-0.01865764645785093,-0.00018806991800665856
1746729096120631800,3.3986318359375,-0.09999532871246337,-0.012104489354183897,-0.005099953487515449
1746729096130648600,3.408648681640625,-0.10568623383045196,-0.0030839740226045248,-0.0024972784421406686
1746729096140665900,3.418665771484375,-0.09985270537137984,-0.012004892304074019,-0.0006356127561070024
1746729096150683600,3.42868359375,-0.09072422702014446,-0.008143787295976652,-0.008691201178822666
1746729096160700700,3.43870068359375,-0.1076315226793289,-0.0036490605594590303,-0.0050205315757542845
1746729096170718700,3.44871875,-0.10553601170480251,-0.004648812186531722,-0.0004880940441973507
1746729096180735500,3.458735595703125,-0.10359364546537399,-0.0016894691905938088,-0.009815090642217547
1746729096190753800,3.46875390625,-0.10643968254625796,-0.012820026345551013,-0.0076370342170819635
1746729096200770600,3.4787705078125,-0.09835925194323063,-0.016535850264597682,-0.0004408391026780009
1746729096210787600,3.48878759765625,-0.09656243165433406,-0.007749472482455894,-0.010594952440913767
1746729096220805600,3.4988056640625,-0.10254910484850406,-0.009572833718406035,-0.002792443730123341
1746729096230822700,3.50882275390625,-0.10554361048936843,-0.008223784596472978,0.005212693146988749
1746729096240840700,3.5188408203125,-0.09716390467882156,-0.006657092402176931,-0.009944982365891336
1746729096250857500,3.528857421875,-0.10225158320665359,-0.010224959217896684,-0.014516126206330955
1746729096260875800,3.538875732421875,-0.09312368937730789,-0.01233569516101852,-0.005255198848154396
1746729096270892500,3.548892578125,-0.09491700253486633,-0.015820240207994357,-0.0035341472092084584
1746729096280909600,3.55890966796875,-0.10613923829495907,-0.012277443901449442,-0.010707819964550435
1746729096290927600,3.568927734375,-0.1064385135024786,-0.017872697492083534,-0.006619436406064778
1746729096300944600,3.578944580078125,-0.10599135425686836,-0.011467881084233522,-0.0019723960515111686
1746729096310962700,3.588962646484375,-0.1006084921747446,-0.009515906766243278,-0.006399181251507252
1746729096320979700,3.598979736328125,-0.10165653992295265,-0.009193451612535864,-0.015531879120133816
1746729096330997800,3.608997802734375,-0.11332944205999373,-0.005663313858164474,-0.007910572195146232
1746729096341014500,3.6190146484375,-0.10105915855169295,-0.009254479351080954,-0.0037032018994912503
1746729096351032800,3.62903271484375,-0.10719313126206398,-0.009170509128365666,-0.00002712546894326806
1746729096361049600,3.639049560546875,-0.10569383261501789,-0.011442837974522262,0.0012957023663446306
1746729096371066600,3.649066650390625,-0.0974631798863411,-0.007714008443430066,0.008949632919300347
1746729096381084700,3.659084716796875,-0.10479600699245929,-0.00436246039266698,0.0014823292459361255
1746729096391101700,3.669101806640625,-0.09821136790513992,-0.014808085757074877,-0.008808598747104405
1746729096401119700,3.67911962890625,-0.10180383943915366,-0.0047043691655155265,0.001962934103421867
1746729096411136500,3.689136474609375,-0.10883856038153171,-0.007740923849819227,-0.0031403073197230694
1746729096421154800,3.69915478515625,-0.1015063177973032,-0.010280059539154172,-0.0019363931563682853
1746729096431171600,3.709171630859375,-0.09641980831325053,-0.011529118885332718,0.001659713373146951
1746729096441188600,3.719188720703125,-0.09717325702905655,-0.011598092468315734,-0.008006799111235887
1746729096451206700,3.72920654296875,-0.10016659362614154,-0.016577470049774272,-0.0014541625973768532
1746729096461223700,3.7392236328125,-0.10735036765038966,-0.020625101472763342,-0.00023464900609105824
1746729096471241700,3.74924169921875,-0.09987141007184981,-0.008019311532936989,-0.006682765699550509
1746729096481258800,3.7592587890625,-0.09867781637310981,-0.018751727082626894,-0.00860036282390356
1746729096491276800,3.76927685546875,-0.09224573749899864,-0.010960890543321148,-0.0001711918484419584
1746729096501293600,3.77929345703125,-0.1043687214910984,0.002486108594154939,-0.009166527072992176
1746729096511312000,3.789311767578125,-0.09688508773744106,-0.008040664848219603,-0.0013369294258765876
1746729096521328600,3.79932861328125,-0.1030225675791502,-0.003910113515285775,-0.0024221491130068896
1746729096531345700,3.809345703125,-0.11050795489847659,-0.013191015082411467,0.0029544293588027355
1746729096541363700,3.81936376953125,-0.09285364026427269,-0.014760785149782895,-0.008658595817163587
1746729096551380700,3.829380615234375,-0.11036533155739307,-0.01231220468757674,-0.007799878362286836
1746729096561398800,3.839398681640625,-0.09644844988584518,-0.01003847846877761,0.0030154570973478256
1746729096571415600,3.84941552734375,-0.09600187516212463,-0.006133360789017751,-0.002332151008304208
1746729096581433600,3.85943359375,-0.09869652107357978,-0.010007690604869276,-0.001617938324343413
1746729096591450600,3.86945068359375,-0.10917290690243243,-0.014223308139061554,0.0015732771987095474
1746729096601468700,3.87946875,-0.10857727909684181,-0.007066020262939855,-0.01133062803801149
1746729096611485700,3.889485595703125,-0.0906219356894493,-0.0018313070803880691,-0.005016805248707533
1746729096621502700,3.899502685546875,-0.0990004724562168,-0.0045906339921988545,-0.0026588256794027984
1746729096631520800,3.909520751953125,-0.11052315246760845,-0.011327577564399689,-0.008517981770075856
1746729096641537800,3.919537841796875,-0.1004997711032629,-0.011146348379133269,-0.013088267093989997
1746729096651555600,3.9295556640625,-0.11441548373103141,-0.006495389901287853,-0.009318502764310687
1746729096661572600,3.939572509765625,-0.09301730639338493,-0.005749220309639349,-0.005290324960462748
1746729096671590700,3.949590576171875,-0.09929974766373634,-0.007223704175837338,0.0012635353961028158
1746729096681607700,3.959607666015625,-0.10678221237361431,-0.013027896942570805,-0.0012806509276852012
1746729096691624700,3.969624755859375,-0.10274024350643157,-0.00520861062691547,-0.006501235120184719
1746729096701642800,3.979642822265625,-0.09705109195411205,-0.008988074366701767,-0.0020744499201886353
1746729096711659800,3.98965966796875,-0.09884908128678799,-0.006630524055659771,-0.007578508962877094
1746729096721677600,3.999677490234375,-0.11231412753760814,-0.009449837526399642,-0.0001337641811929643
1746729096731694600,4.009694580078125,-0.10154138911068439,-0.007660068032797425,-0.00781577005116269
1746729096741712600,4.019712646484375,-0.09376315632462501,-0.0058949215237982565,-0.006833937673270702
1746729096751729700,4.029729736328125,-0.11186989090144633,-0.006921853418741374,-0.006642378890234977
1746729096761747700,4.039747802734375,-0.10079729274511337,-0.010458694908535108,-0.007670881687756628
1746729096771764700,4.0497646484375,-0.09930325479507446,-0.006989612292172387,-0.009841120132617651
1746729096781781800,4.05978173828125,-0.1000508582919836,-0.00730891650756821,-0.0033985746634192762
1746729096791799600,4.069799560546875,-0.1030436103671789,-0.013376984374877065,-0.002914097348414361
1746729096801816600,4.079816650390625,-0.10319558605849742,-0.0033763171658385545,-0.006835362445376813
1746729096811834600,4.089834716796875,-0.10304887106418609,-0.008644695155974477,-0.001932557231467217
1746729096821851600,4.0998515625,-0.09377250867485999,-0.004126039554597809,-0.010345251996163278
1746729096831869700,4.10986962890625,-0.10798808103203773,-0.008956784179294481,-0.004695665269251912
1746729096841886700,4.11988671875,-0.10693886424005031,-0.0060989379296079275,0.004419898801483213
1746729096851904500,4.129904541015625,-0.10199965427219868,-0.008337455837707966,-0.007203994828369468
1746729096861921300,4.13992138671875,-0.09945756857395172,-0.005888208655221387,-0.013532448931224643
1746729096871938300,4.149938232421875,-0.10723755492568016,-0.0008090148279443382,0.002394621785264462
1746729096881956000,4.1599560546875,-0.1060416231393814,-0.007697943224618211,-0.002165361340343952
1746729096891973400,4.169973388671875,-0.10454641614556312,-0.005211030912864953,0.002850859386473894
1746729096901991200,4.1799912109375,-0.10633739121556282,-0.010386259859986603,-0.007983144241012633
1746729096912008200,4.19000830078125,-0.10783552081882954,-0.00710740258609876,-0.012311090442724526
1746729096922026200,4.200026123046875,-0.11636720232069492,-0.010051365349814295,-0.010130147940758616
1746729096932043000,4.21004296875,-0.11322773525118827,-0.012185536967450752,-0.0018314714771695433
1746729096942060300,4.220060302734375,-0.10604805288016796,-0.007070148448785766,-0.007674388819094747
1746729096952078000,4.230078125,-0.10155950928926467,-0.012216151301423088,-0.005540226334612816
1746729096962095400,4.240095458984375,-0.10155717120170593,-0.004467875262210146,-0.0018763335322029887
1746729096972113200,4.250113037109375,-0.10200491496920586,-0.0005245444639120251,-0.0032809944320470095
1746729096982130200,4.260130126953125,-0.09811433727145194,-0.007829031391534954,-0.013277268593758345
1746729096992148200,4.270148193359375,-0.10305296271741389,-0.001258101169159636,-0.0044086102224886415
1746729097002165000,4.2801650390625,-0.10185586188733577,-0.0027213147226721047,-0.004073880109097808
1746729097012183300,4.290183349609375,-0.09527472993135452,-0.004172719107381999,-0.001536616716440767
1746729097022200000,4.300199951171875,-0.09048749565482139,-0.003116579384263605,0.0011980141455307603
1746729097032217300,4.31021728515625,-0.1041033485531807,-0.0071858929160982365,-0.0037629692627117036
1746729097042235100,4.320235107421875,-0.10171090045869349,-0.005856059951288625,-0.002983783317450434
1746729097052252400,4.33025244140625,-0.10784370412528514,-0.004292829222558066,-0.0048957909512333565
1746729097062270200,4.340270263671875,-0.1045470006674528,-0.009218248127074911,-0.0052304297330789265
1746729097072287000,4.350286865234375,-0.10304887106418609,-0.004038900127261877,0.000049008507188409566
1746729097082305300,4.36030517578125,-0.10783785890638828,-0.006486302412534132,-0.0003140891841612756
1746729097092322000,4.370322021484375,-0.10155600215792655,-0.0053673174531199035,-0.0027875666256062686
1746729097102340000,4.380340087890625,-0.10679331828951835,-0.002424341070093214,-0.0025040004438720643
1746729097112357000,4.390357177734375,-0.10933832659721374,-0.005896675089467317,0.0005136303442530334
1746729097122374400,4.40037451171875,-0.11427812108695506,-0.007743134073214605,-0.0066041475053876635
1746729097132392200,4.41039208984375,-0.10455459945201873,-0.007379844585619867,-0.007644048479758202
1746729097142409000,4.420408935546875,-0.10036533106863497,-0.007957023419067262,-0.0028480098422616717
1746729097152427300,4.43042724609375,-0.1039589716464281,-0.001643666420644149,-0.008820161320734769
1746729097162444000,4.440444091796875,-0.10201660540699958,-0.001813963219942525,0.001588018110115081
1746729097172462300,4.45046240234375,-0.09154255766570568,-0.008602783109853044,-0.010478230726066975
1746729097182479000,4.46047900390625,-0.09812836579680442,-0.00762306962381117,-0.0008398300913162529
1746729097192496400,4.470496337890625,-0.10590893667042255,0.0002742229646537453,-0.0021896007324568928
1746729097202514200,4.48051416015625,-0.10575813002288341,-0.00473365919208154,-0.003960062737390399
1746729097212531200,4.49053125,-0.10680734681487083,-0.002974650162924081,0.003059424103237688
1746729097222549200,4.50054931640625,-0.10246960987150669,-0.009639615344302728,-0.0016163491554558277
1746729097232566000,4.51056591796875,-0.10471592749357223,-0.0009499759349040687,-0.009521404925268142
1746729097242584300,4.520584228515625,-0.10980360602140427,-0.0014024598096031694,0.0009441489823162555
1746729097252601000,4.53060107421875,-0.09214578425586223,-0.010682575925439596,-0.00560695316158235
1746729097262619100,4.540619140625,-0.098282095053792,0.001888087902078405,0.0033319026353769003
1746729097272636200,4.55063623046875,-0.10022679938077926,-0.00690248199799098,-0.006653484806139021
1746729097282653200,4.560653076171875,-0.1044166522860527,-0.006292661270266398,-0.0037463469214737413
1746729097292671200,4.570671142578125,-0.09842881004810333,-0.012569019859703257,-0.013312668700702487
1746729097302688000,4.58068798828125,-0.10440963802337645,-0.007024592274008318,-0.0004733531327918172
1746729097312706300,4.590706298828125,-0.1071048684567213,-0.004457308202423155,-0.005768664795625955
1746729097322723000,4.60072314453125,-0.1048608889222145,-0.0017397289399523287,-0.003253503636922687
1746729097332741400,4.610741455078125,-0.09857552504241467,-0.006654297656891867,-0.008000990424957126
1746729097342758100,4.620758056640625,-0.10680734681487083,-0.008899701963504775,-0.015547843874245881
1746729097352776200,4.630776123046875,-0.10291910720467567,-0.007459832752961665,-0.003918196357041597
1746729097362793200,4.640793212890625,-0.10187281302213669,-0.008721477586077525,-0.006012757483497262
1746729097372810200,4.650810302734375,-0.096482352155447,-0.005397822189237922,0.002378857960551977
1746729097382828300,4.660828369140625,-0.10052256745696067,-0.004629422499472275,0.00045769890593364834
1746729097392845000,4.670844970703125,-0.0961819079041481,-0.0032245972028467802,-0.00707985699204728
1746729097402863400,4.68086328125,-0.10695523085296153,-0.0011849720008671283,-0.0021637721714563665
1746729097412880100,4.690880126953125,-0.09872750073373317,-0.00484622532161884,0.0010952661571092903
1746729097422898200,4.700898193359375,-0.10082067362070082,-0.00474377872729674,0.00037360081905499096
1746729097432915200,4.710915283203125,-0.1002250458151102,-0.0005555058577563614,-0.007673786030896007
1746729097442933000,4.72093310546875,-0.10292144529223442,0.001010492216795683,-0.007471705853845924
1746729097452950300,4.7309501953125,-0.09858020121753215,-0.0029754721468314527,-0.000856032307446003
1746729097462967000,4.740967041015625,-0.10291735363900661,-0.006897111703129485,-0.007368026283662766
1746729097472985300,4.7509853515625,-0.10441197611093521,-0.01190256444076076,-0.004795435849297792
1746729097483002000,4.761002197265625,-0.10052139841318129,-0.010701664218399673,0.00816986245214939
1746729097493020400,4.7710205078125,-0.10351765761971474,-0.0080504373235628,-0.0062644672222435475
1746729097503037200,4.781037109375,-0.10965455293953418,-0.002806316991848871,-0.006996142497658729
1746729097513055000,4.791054931640625,-0.1093529396444559,-0.01503125438792631,-0.0050680239792913195
1746729097523072300,4.801072265625,-0.10157003068327904,-0.007725096093025058,0.0006206343826837838
1746729097533090000,4.811090087890625,-0.1017196682870388,-0.0033812399361282585,-0.004910166536457836
1746729097543107300,4.821107421875,-0.10082242718636988,-0.00509817252238281,-0.0006797989577054977
1746729097553124000,4.8311240234375,-0.095885555306077,-0.004901745767984539,0.00038326369654387234
1746729097563142400,4.841142333984375,-0.09259528158903121,0.001820593890128657,-0.009263813435006886
1746729097573159200,4.8511591796875,-0.09738076229989528,-0.005731967780739069,-0.0091818890389055
1746729097583177200,4.86117724609375,-0.09723170921802521,-0.010143327082740142,-0.005729574894253164
1746729097593194200,4.8711943359375,-0.10411679255664348,-0.002753235097741708,-0.002671374633722007
1746729097603212000,4.8812119140625,-0.10381810187101363,-0.004906038350611925,-0.012602054479625075
1746729097613229300,4.891229248046875,-0.10755904196500778,-0.0025466888081282376,-0.0070972647845745085
1746729097623247000,4.9012470703125,-0.1014233156889677,-0.01438151264176704,-0.000980992127675563
1746729097633264400,4.911264404296875,-0.1157838494747877,-0.008115492783254012,-0.003287661634851247
1746729097643281200,4.92128125,-0.09587971008718013,-0.0049699795654509216,-0.0064841195886023335
1746729097653299200,4.93129931640625,-0.0981248586654663,-0.0014661361629609018,0.0022715616611763832
1746729097663316200,4.941316162109375,-0.10545710124969482,-0.0037135406304150817,-0.003574734947923571
1746729097673334000,4.951333984375,-0.10919394969046116,-0.00470371157838963,-0.000207286075130105
1746729097683351300,4.961351318359375,-0.10844167001843452,-0.009677070411015301,-0.007368610805552452
1746729097693369000,4.971369140625,-0.10619418335258961,-0.007592126496275886,-0.0015729118725284932
1746729097703386400,4.981386474609375,-0.10110884291231631,-0.0026755028195679185,-0.0037918665636330843
1746729097713404200,4.991404052734375,-0.1039548799932003,0.003320997648872435,-0.007487670607957989
1746729097723421200,5.001421142578125,-0.11637538562715052,0.0017846001281403004,-0.0013108816691674292
1746729097733438200,5.011438232421875,-0.09991408016979694,-0.003893198913102969,0.0012833543414250016
1746729097743456000,5.0214560546875,-0.10156126285493373,-0.011303466036450117,-0.0005250650537200271
1746729097753473300,5.031473388671875,-0.09901567002534865,-0.008454177552554756,0.0009051869451068341
1746729097763491000,5.041490966796875,-0.09632219315767288,-0.004356916567869484,-0.006043134355451911
1746729097773508400,5.05150830078125,-0.10156243189871311,-0.00927322058416903,-0.0007616137559525668
1746729097783526100,5.061526123046875,-0.10874503687918186,-0.0032070250135380774,-0.002448014206625521
1746729097793543200,5.071543212890625,-0.10470189896821976,-0.004474880391731858,-0.002657839298713952
1746729097803560200,5.081560302734375,-0.0972188497364521,-0.005096291092550382,-0.0035209041351452466
1746729097813578200,5.091578125,-0.10020984824597835,-0.007577842242596671,0.0045808249842375515
1746729097823595300,5.10159521484375,-0.10529811129570006,-0.005899917359324172,-0.0026183110059238967
1746729097833613000,5.111613037109375,-0.10320318484306334,-0.005288580527948216,-0.002446644233446568
1746729097843630300,5.12163037109375,-0.09901040932834147,-0.005398224048037081,-0.004581902696471661
1746729097853648100,5.131648193359375,-0.09840835178196429,-0.0032398495709057896,0.001893704792112112
1746729097863665400,5.14166552734375,-0.1088783078700304,0.002628978530410677,-0.003070073361415416
1746729097873683500,5.151683349609375,-0.10393909790217876,-0.005800840899022296,-0.003955843219999223
1746729097883700500,5.161700439453125,-0.10932663615942001,-0.002672196617629379,-0.004789590630400926
1746729097893718500,5.171718505859375,-0.10363865365087985,-0.0021366010367404667,0.0006319229616783559
1746729097903735300,5.1817353515625,-0.10109422986507414,-0.004154909456055611,0.005514616969320923
1746729097913752300,5.19175244140625,-0.10199147096574306,-0.013897912109596655,-0.00494198644682765
1746729097923770400,5.201770263671875,-0.10064414801001548,-0.002479742785450071,-0.0012519362898543477
1746729097933787400,5.211787353515625,-0.10229074617326259,-0.007822026262013242,-0.003933357393555343
1746729097943805400,5.221805419921875,-0.10184241788387298,-0.0124305795033928,-0.0013948336255736648
1746729097953822500,5.231822509765625,-0.10139525863826274,-0.00409876795518212,-0.004803144231718033
1746729097963840500,5.241840576171875,-0.1061854155242443,-0.010940669739199802,0.0029369302347302434
1746729097973857300,5.251857177734375,-0.10618424648046493,-0.010624534728424622,-0.004352459588460624
1746729097983875600,5.26187548828125,-0.10902736095190048,-0.008031823954638093,0.0018178813432343302
1746729097993892400,5.271892333984375,-0.09825520704686641,-0.0023293927956372497,0.0053595177391543986
1746729098003909400,5.281909423828125,-0.10199380905330181,0.0002951378885190934,-0.0028356070184148846
1746729098013927400,5.291927490234375,-0.11156944665014742,-0.008975397548219188,0.0038742293511517343
1746729098023944400,5.3019443359375,-0.11037059225440024,-0.012363907475350424,-0.005233662869781256
1746729098033962500,5.31196240234375,-0.10767711538672446,-0.003419042062712833,-0.011844660241063683
1746729098043979500,5.3219794921875,-0.11186638377010821,-0.0025697500233072784,0.006990114615671336
1746729098053997600,5.33199755859375,-0.10737550209164619,-0.004550238049728796,0.0025516572441905737
1746729098064014300,5.342014404296875,-0.1078238303810358,-0.003703457627817988,0.006440225647948682
1746729098074032400,5.352032470703125,-0.10153963554501533,-0.004533853170508519,0.0006332016033120453
1746729098084049400,5.36204931640625,-0.1061725560426712,-0.00021731427880004048,-0.004161704523023218
1746729098094066400,5.37206640625,-0.10527414589822291,-0.00851995453145355,-0.0022905403562821446
1746729098104084500,5.38208447265625,-0.1027303066343069,-0.006277427168516442,-0.006338756301160901
1746729098114101500,5.3921015625,-0.10153379032611846,-0.0027807532923296093,-0.0012401545205153524
1746729098124119600,5.40211962890625,-0.09944003291726111,0.0005200874845031648,-0.01025466936957091
1746729098134136300,5.41213623046875,-0.0976455507159233,-0.005211524103209376,-0.0029182438005693257
1746729098144154400,5.422154296875,-0.10063245757222175,0.00013665939117781816,-0.010157200344465673
1746729098154171400,5.43217138671875,-0.10092881017029284,-0.0005448200669605285,-0.008290237428806722
1746729098164189400,5.442189453125,-0.09554010286927223,-0.008425234585860744,0.0007091711826622486
1746729098174206500,5.45220654296875,-0.096286537322402,-0.011716147623723373,0.0022723836450837553
1746729098184223500,5.462223388671875,-0.1108043074965477,-0.009553855023300275,0.001461249925289303
1746729098194241300,5.4722412109375,-0.10481880334615706,-0.005122220118250698,-0.011359160012751817
1746729098204258600,5.482258544921875,-0.10960662214457988,-0.0026306224982254206,0.0038556159822270273
1746729098214276400,5.4922763671875,-0.11349369271099567,-0.012670343076018616,-0.00033862083721905947
1746729098224293400,5.50229345703125,-0.09792495217919349,-0.0028871636757161465,0.0003150024996139109
1746729098234311400,5.5123115234375,-0.09343348597884178,-0.0068293254302348935,0.0024879078255966303
1746729098244328400,5.522328369140625,-0.10211305151879786,-0.002949652718985453,-0.0028792086981236933
1746729098254346500,5.532346435546875,-0.09986614937484264,-0.005496935182157904,-0.002864193792082369
1746729098264363300,5.54236328125,-0.10151157849431038,-0.0036225104792509226,-0.004749916207138449
1746729098274380500,5.552380615234375,-0.09821955121159553,-0.0011577460672240704,0.0026868096648715433
1746729098284398300,5.5623984375,-0.10226093555688857,-0.011881165459705516,-0.001155380580201745
1746729098294415400,5.572415283203125,-0.09073942458927631,-0.009350112612126395,-0.0005981302899308503
1746729098304433400,5.582433349609375,-0.09417816686630248,-0.0016403876181691885,-0.008310439966619015
1746729098314450400,5.592450439453125,-0.10495324338078499,-0.006035590369813144,-0.0012594620091840624
1746729098324468500,5.602468505859375,-0.10390753372013568,-0.010663122306298465,-0.0013282529290765523
1746729098334485200,5.6124853515625,-0.10270926384627818,-0.004755925822816789,-0.005727273339312523
1746729098344503300,5.62250341796875,-0.09956628964543342,-0.004660173830762505,0.009935885743983089
1746729098354520300,5.632520263671875,-0.09478080893456935,0.0018042912092991173,-0.00667885670941323
1746729098364537600,5.64253759765625,-0.10196575200259685,0.00525556417433545,-0.002152447059843689
1746729098374555400,5.652555419921875,-0.10211772769391536,-0.0053402285167947405,0.0010545322879217565
1746729098384572400,5.662572509765625,-0.11005085878074168,0.0007637691804207861,0.0017746632560156285
1746729098394590500,5.672590576171875,-0.10870879652202128,0.002768889324599877,0.007239303603768349
1746729098404607200,5.682607177734375,-0.09853168590068817,-0.007206762174190953,0.0007719342205673456
1746729098414625300,5.692625244140625,-0.09658639705181121,-0.009420556632988155,0.007967782275099308
1746729098424642300,5.702642333984375,-0.10107610968649387,-0.0005480075378902256,-0.0042304954429157075
1746729098434660400,5.712660400390625,-0.10930559337139129,-0.004071934747183695,-0.0029366562400944527
1746729098444677400,5.722677490234375,-0.0888052416563034,-0.011718567909672855,0.0014126067442819475
1746729098454695400,5.7326953125,-0.09074643885195255,-0.008942846985487267,-0.004438950561825186
1746729098464712400,5.74271240234375,-0.10645897176861763,-0.0035556923207361248,-0.00507052646363154
1746729098474729200,5.752729248046875,-0.09957856460511684,-0.013530941960727795,0.0032183409919962283
1746729098484747500,5.76274755859375,-0.10556348423361778,-0.011547723121102898,-0.0021333587668836114
1746729098494764300,5.772764404296875,-0.10855623630881309,-0.0034702151275239883,0.003511131659802049
1746729098504782300,5.7827822265625,-0.09373919092714786,-0.0004202529723756015,-0.004784567395411432
1746729098514799400,5.79279931640625,-0.09898059871196746,-0.006135507080331445,-0.0021212116713635624
1746729098524817400,5.8028173828125,-0.10900982529520988,0.002386949935462326,0.005021609287988394
1746729098534834400,5.81283447265625,-0.09658931966125965,-0.0025713574585039165,0.004368333011027425
1746729098544852500,5.8228525390625,-0.09090250619649887,-0.012196515019191428,0.002682681479025632
1746729098554869500,5.832869384765625,-0.10676818384826182,-0.0018237174289766698,0.00460424239244312
1746729098564886300,5.84288623046875,-0.10961538997292518,-0.0075816964338067915,-0.003587247369624674
1746729098574904300,5.852904296875,-0.1030313354074955,-0.010050643830606713,-0.0008421133799478411
1746729098584921300,5.86292138671875,-0.10034136567115783,-0.005547322795679792,-0.004345975048746914
1746729098594939400,5.872939453125,-0.11680267112851142,0.004498800123436376,0.002313044449035078
1746729098604956400,5.882956298828125,-0.10273673637509345,-0.0014599986831191926,-0.00845684443367645
1746729098614974500,5.892974365234375,-0.10333704035580157,-0.005041209037601947,-0.0037337979671545323
1746729098624991500,5.902991455078125,-0.10064239444434642,-0.007961115072295069,-0.0005000950092449784
1746729098635009300,5.91300927734375,-0.10498013138771056,-0.008105491979047655,0.010360595695767551
1746729098645026600,5.923026611328125,-0.09974047716856002,-0.003700936877168715,0.0022918555305339395
1746729098655043300,5.933043212890625,-0.1145510928094387,0.0015925390216056257,-0.003160619455389678
1746729098665061400,5.943061279296875,-0.09779109666645526,-0.00371707516121678,-0.006325915085896849
1746729098675078400,5.953078369140625,-0.10631985555887222,-0.0038819194672629234,-0.006002510084118694
1746729098685096400,5.963096435546875,-0.10018880545794963,-0.0062534709041938185,-0.004669708844088018
1746729098695113500,5.973113525390625,-0.0951011269301176,-0.002869417956471443,-0.004783708878885955
1746729098705131300,5.98313134765625,-0.0989922891497612,0.0073898819224443284,0.005030906839296222
1746729098715148500,5.9931484375,-0.10198562574684619,-0.006387070688605308,-0.010702267006598412
1746729098725166300,6.003166259765625,-0.1030354270607233,-0.006905751667311414,-0.005376194879319518
1746729098735183400,6.013183349609375,-0.09944646265804767,0.0011772636184468864,0.01094069713866338
1746729098745201400,6.023201416015625,-0.10138999794125557,-0.0037077319441363213,-0.004826415509451181
1746729098755218400,6.033218505859375,-0.10857377196550369,-0.0024692944566719233,0.006088380002975464
1746729098765235500,6.0432353515625,-0.10797463702857493,-0.0018290420580655336,0.003291515826061368
1746729098775253200,6.053253173828125,-0.10438216549456118,-0.002697723784530535,-0.009660101009905338
1746729098785270500,6.0632705078125,-0.10168985767066478,-0.0026113150095567104,0.0038076669209636746
1746729098795288300,6.073288330078125,-0.10438508810400962,0.0006742094671353697,-0.00449413308147341
1746729098805305600,6.0833056640625,-0.09929390244483947,-0.005504817094514146,-0.0007754961508326232
1746729098815323400,6.093323486328125,-0.09061550594866276,-0.00036834012204781173,-0.0008588635853491723
1746729098825340400,6.10334033203125,-0.09495207384824753,-0.00879464328698814,0.0022837270230054853
1746729098835358500,6.1133583984375,-0.10168518149554728,-0.003773956447606906,0.005254522994719445
1746729098845375200,6.123375244140625,-0.10602642557024955,-0.003587630962114781,-0.00003755553141236305
1746729098855392500,6.133392578125,-0.10048924970924854,-0.0016313914609607308,-0.008697155995573847
1746729098865410300,6.143410400390625,-0.1058762034446001,-0.01009565201611258,-0.0068551996570080515
1746729098875427600,6.153427490234375,-0.09914601840674876,-0.009551115076942368,0.0014267631337977944
1746729098885445400,6.1634453125,-0.10393675981462001,-0.0049997445160523055,-0.003413041580189019
1746729098895462400,6.17346240234375,-0.10708090305924416,-0.00172940847533755,-0.009392517848592252
1746729098905480400,6.18348046875,-0.10588438675105571,0.0020700020739343014,-0.004584916637465358
1746729098915497200,6.193497314453125,-0.11067629720270633,-0.0035927911944221703,0.005544190123677253
1746729098925515500,6.203515625,-0.09092237994074821,-0.004549553063139319,0.008276263702381402
1746729098935532300,6.2135322265625,-0.10199497809708118,0.001260905047599226,0.0038452772513031955
1746729098945549600,6.223549560546875,-0.10364040721654891,-0.00916035306053236,-0.005626077987160533
1746729098955567400,6.2335673828125,-0.09062427377700805,0.003097491091303527,-0.0010961064073257147
1746729098965584600,6.243584716796875,-0.09915420171320438,0.00031921288385055956,0.009306392201408744
1746729098975602400,6.2536025390625,-0.10364040721654891,-0.004714780961675569,-0.0014168993269093335
1746729098985619200,6.263619140625,-0.10319032536149024,-0.006113194783823564,0.0027602584935724735
1746729098995637500,6.273637451171875,-0.10124562103450298,-0.0035035146089270708,-0.0021115122612565753
1746729099005654300,6.283654296875,-0.09271686214208602,-0.001753583935368806,0.0017020729438401757
1746729099015672300,6.29367236328125,-0.10408639741837977,-0.006840230416739359,-0.0027526597090065477
1746729099025689300,6.303689453125,-0.10588672483861446,-0.003340433001704514,0.0024797062528319654
1746729099035707400,6.313707275390625,-0.10693652615249157,-0.0014160682098474354,-0.0031948322522453963
1746729099045724400,6.323724365234375,-0.0972100819081068,-0.006836915081646293,-0.007555091554671526
1746729099055741200,6.3337412109375,-0.0973579659461975,-0.008252563166385516,0.000779733934532851
1746729099065759500,6.343759521484375,-0.1011006596058607,-0.010068234286224468,0.0005190737043507397
1746729099075776300,6.3537763671875,-0.10274959585666656,-0.00011733363620005547,0.0007328260528855025
1746729099085794600,6.363794677734375,-0.10170914689302443,-0.002623233776213601,-0.001591744437161833
1746729099095811300,6.373811279296875,-0.09932137497365474,-0.003380399685911834,-0.00012596446722745895
1746729099105829400,6.383829345703125,-0.09857552504241467,-0.0016267244189977644,0.00016752032032236455
1746729099115846400,6.393846435546875,-0.09947042805552482,0.0044595823579002165,-0.01079778153663501
1746729099125864400,6.403864501953125,-0.09887304668426514,-0.010950067755207418,-0.000274707021843642
1746729099135881500,6.413881591796875,-0.10141630142629146,-0.01165953119881451,0.005319751984346657
1746729099145899300,6.423899169921875,-0.09917056832611561,-0.0011447587214875965,-0.007611771911662071
1746729099155916500,6.43391650390625,-0.0961772317290306,-0.005428993645636365,-0.006816529880743473
1746729099165933300,6.443933349609375,-0.10290683224499225,-0.0065849496145732695,0.0016171528730541467
1746729099175951400,6.453951416015625,-0.10305413176119327,-0.00798417628747411,-0.003091408410388976
1746729099185968400,6.463968505859375,-0.1047042370557785,-0.011549768947716801,0.0006346629080362618
1746729099195986400,6.473986328125,-0.10156126285493373,-0.0015130257782991975,-0.0054759837256744505
1746729099206003500,6.48400341796875,-0.09871581029593944,0.001771156124677509,0.000008913958817720413
1746729099216021200,6.494021240234375,-0.10469897635877132,-0.003516501954663545,-0.005293722493946552
1746729099226038500,6.50403857421875,-0.10484686039686203,0.0010609254960902035,0.003878028743434697
1746729099236056300,6.514056396484375,-0.09930910001397132,-0.007148501781467348,0.000948405032325536
1746729099246073600,6.524073486328125,-0.1002034185051918,-0.003739533588197082,0.007515508462954312
1746729099256090400,6.53409033203125,-0.10214812283217907,-0.0025093981381971386,-0.0018736301184631883
1746729099266108400,6.5441083984375,-0.09002864597141742,0.002036857856158167,-0.0011708886765874921
1746729099276125400,6.55412548828125,-0.10214870735406875,0.0010858498747926206,0.002100753405224532
1746729099286143200,6.564143310546875,-0.11307517503798008,-0.004531277620932087,0.005157675024121999
1746729099296160500,6.574160400390625,-0.1064905359506607,-0.0029885051583405584,0.0068642780126072465
1746729099306178300,6.58417822265625,-0.10319500153660774,-0.004484625467611476,0.0027373342757113276
1746729099316195600,6.594195556640625,-0.1030441948890686,0.001157992662396282,-0.006968688235152513
1746729099326213400,6.60421337890625,-0.11202186659276485,-0.0008322861056774854,-0.014063066942896694
1746729099336230400,6.61423046875,-0.10333996296525001,-0.003692379111377522,-0.0040759442020207644
1746729099346248400,6.62424853515625,-0.1013970122039318,-0.007864961221441626,0.004321680857706815
1746729099356265200,6.63426513671875,-0.0981073230087757,-0.0047435960642062125,0.002645747002121061
1746729099366282500,6.644282470703125,-0.10454173997044562,0.0010968644591514021,-0.006780563518218696
1746729099376300300,6.65430029296875,-0.10663666642308235,-0.002529984268499538,-0.0053030017789453265
1746729099386317600,6.664317626953125,-0.1049918218255043,0.003447875431552529,-0.0026603783156722784
1746729099396335400,6.67433544921875,-0.09660919340550898,-0.0005539166888687759,0.0014260142151266335
1746729099406352600,6.6843525390625,-0.09855448225438594,-0.00898263100660406,-0.0023404804452322424
1746729099416370400,6.694370361328125,-0.10872867026627063,0.0043156347094103695,0.007874624098930508
1746729099426387200,6.70438720703125,-0.10319149440526962,-0.007048731201421469,-0.002358326629176736
1746729099436405500,6.714405517578125,-0.10169278028011322,-0.006439084003632888,0.0034804990595206616
1746729099446422300,6.72442236328125,-0.09974924499690532,-0.0035275713379494845,0.013680369501933454
1746729099456440600,6.734440673828125,-0.09585574468970298,-0.002357458979496732,0.005017700297851115
1746729099466457300,6.744457275390625,-0.10139408959448337,0.002460298299463466,-0.004772493365127593
1746729099476474400,6.754474365234375,-0.10169804097712039,0.0021755174081772564,-0.007020034829899669
1746729099486492400,6.764492431640625,-0.10424188024103641,-0.0017332535333931445,-0.002100114084407687
1746729099496509400,6.774509521484375,-0.10274959585666656,-0.00012452142881229518,0.009678842242993414
1746729099506527500,6.784527587890625,-0.10694120232760905,-0.0026274076278321444,0.003774111711233854
1746729099516544300,6.794544189453125,-0.09318038800060749,-0.007572344083571806,-0.0064158583916723725
1746729099526562600,6.8045625,-0.09901742359101771,-0.00025763715603388846,-0.007236253130156547
1746729099536579300,6.814579345703125,-0.10889467448294163,0.0008592563109938054,-0.007381050162017345
1746729099546597400,6.824597412109375,-0.10380758047699927,-0.0015469828468281774,0.0018575740328058599
1746729099556614400,6.834614501953125,-0.10216039779186248,-0.006569752045441419,-0.0019252507078461349
1746729099566631400,6.84463134765625,-0.10964110893607139,-0.010140824598399921,-0.002251980177871883
1746729099576649500,6.8546494140625,-0.0895896700322628,-0.004691573616024107,0.0005256861082278192
1746729099586666200,6.864666259765625,-0.0955757587045431,-0.0018421390016563235,-0.0022923487208783627
1746729099596684500,6.8746845703125,-0.10350538266003131,-0.0024348533309530465,0.0021609043609350917
1746729099606701300,6.884701416015625,-0.10021335537731647,-0.010744580911519004,0.0035469336255453524
1746729099616719400,6.89471923828125,-0.10514672012627124,-0.008221638305159285,0.003192074039578438
1746729099626736400,6.904736328125,-0.1002121863335371,-0.008117666474031284,-0.002280713082011789
1746729099636754400,6.91475439453125,-0.09302958135306835,0.0025924276459962127,-0.008466781305801124
1746729099646771500,6.924771484375,-0.09796996036469936,-0.005376450607646257,0.00023179946187883613
1746729099656789200,6.934789306640625,-0.09303484205007552,-0.002278922983724624,0.00666400620015338
1746729099666806500,6.944806640625,-0.10290975485444068,-0.0002564407127909362,0.002028985076956451
1746729099676823300,6.9548232421875,-0.09961422044038772,0.0017589085644576698,-0.0050397659991867835
1746729099686841600,6.964841552734375,-0.10051146154105663,-0.0015449826859869063,-0.0010004640131257474
1746729099696858400,6.9748583984375,-0.1018587844967842,-0.0012657547526527195,-0.01032123179975897
1746729099706876400,6.98487646484375,-0.09602350247204303,-0.004527131168777123,0.0038945780194364486
1746729099716893400,6.9948935546875,-0.10096095887422561,-0.001064277363801375,0.00015573855098336935
1746729099726911200,7.0049111328125,-0.10126023408174514,-0.0035139172719325868,-0.00516854347800836
1746729099736928500,7.014928466796875,-0.09901859263479709,0.0016946842218283564,-0.0057682264042086895
1746729099746946300,7.0249462890625,-0.10111293456554413,0.0006476045880001038,-0.0016956432030536233
1746729099756963600,7.034963623046875,-0.10634849713146687,-0.010280808457825332,0.0037534890483133495
1746729099766981400,7.0449814453125,-0.12026362523734568,-0.0016798519788775593,-0.0005781652141362429
1746729099776998400,7.054998291015625,-0.09916647667288779,-0.0031575963812414554,-0.005148578402213752
1746729099787015400,7.065015380859375,-0.09437690430879592,-0.004169924362096935,-0.008657353708148002
1746729099797033200,7.075033203125,-0.0895890855103731,0.002433857817109674,-0.0014946590045467017
1746729099807050500,7.085050537109375,-0.09691548287570476,-0.009906824046280235,0.0001156988015398383
1746729099817068300,7.095068359375,-0.09541676875054836,-0.003050720206974074,0.00221577635332942
1746729099827085600,7.10508544921875,-0.10619301430881023,-0.01383456454980187,-0.010219250996317713
1746729099837103400,7.115103271484375,-0.10215162996351718,-0.001392303741769865,-0.0008749196710065006
1746729099847120400,7.125120361328125,-0.0958680196493864,-0.007070897367456927,-0.009145374687109142
1746729099857138400,7.135138427734375,-0.09362228654921054,0.0009827182938810437,0.004486424699053168
1746729099867155200,7.1451552734375,-0.0946697497755289,-0.00234772303677164,0.004926240888424217
1746729099877173200,7.15517333984375,-0.09496902498304843,-0.0005734342400915921,0.003706946492847055
1746729099887190000,7.16518994140625,-0.09631634793877601,0.00043031770866364236,-0.0025389256267808378
1746729099897207300,7.175207275390625,-0.1078372743844986,-0.005250769268209114,0.0017209603074006736
1746729099907225000,7.18522509765625,-0.09751461781263351,-0.0004244633566122502,-0.0032962468001060184
1746729099917242400,7.195242431640625,-0.10020809468030929,0.004788037994131446,-0.0016720248654484749
1746729099927260200,7.20526025390625,-0.10604454574882984,-0.005324345961073413,0.0013371120889671146
1746729099937277200,7.215277099609375,-0.10065583844780922,-0.005042085820436477,-0.0027525683774612844
1746729099947295200,7.225295166015625,-0.11173019016981124,-0.004455454172054305,-0.00533367091184482
1746729099957312000,7.23531201171875,-0.10933365042209625,-0.004730709183169529,-0.002332662464957684
1746729099967330300,7.245330322265625,-0.10589315457940102,-0.0069952657148241995,-0.0034482224914245303
1746729099977347000,7.25534716796875,-0.10140344194471836,-0.0035243199349381028,0.0009425780797377228
1746729099987365000,7.265365234375,-0.0952665466248989,-0.012638751494511961,-0.0042014702778309584
1746729099997382100,7.275382080078125,-0.11606441998183727,-0.003603394786827266,-0.0015065503717400133
1746729100007399200,7.285399169921875,-0.10259586659967898,-0.0000773030199110508,-0.008059497412852942
1746729100017417200,7.295417236328125,-0.10633563764989376,-0.003175597828812897,-0.013239767861273139
1746729100027434000,7.30543408203125,-0.11187222898900508,-0.00047653147056698797,-0.001109367747697979
1746729100037452300,7.315452392578125,-0.10797931320369243,-0.007805668782256543,-0.0033371085334569215
1746729100047469000,7.325468994140625,-0.10154022006690501,-0.001986022718064487,0.0022538068087771534
1746729100057487400,7.3354873046875,-0.09989069929420948,-0.00926427922588773,-0.008943203178513794
1746729100067504000,7.345504150390625,-0.10602525652647017,-0.00449578618244268,0.00349635421577841
1746729100077522200,7.355522216796875,-0.1082727431923151,-0.00024150800514034925,0.0007217018706724048
1746729100087539200,7.365539306640625,-0.10078384874165057,-0.0017851389842573552,-0.0005941482345573604
1746729100097557200,7.37555712890625,-0.10003040002584457,-0.0019364296889863907,0.0004240340983495116
1746729100107574300,7.38557421875,-0.0991273137062788,-0.007318360189348459,-0.008694909239560365
1746729100117591000,7.395591064453125,-0.09762509244978428,-0.0020326931376941503,-0.005054817437846213
1746729100127609300,7.405609375,-0.11123860726058482,-0.008116259968234226,-0.00017342033814638852
1746729100137626000,7.415626220703125,-0.10061141478419303,0.00003719020523130893,0.005527202456258237
1746729100147644200,7.42564404296875,-0.10286065501570701,-0.006584209829056635,-0.0003466032142750919
1746729100157661200,7.4356611328125,-0.10630348894596099,-0.004769360693125054,-0.00861994430720806
1746729100167679200,7.44567919921875,-0.10331190591454505,-0.0030612598672974853,-0.0045190483270213
1746729100177696300,7.4556962890625,-0.09343407050073146,-0.0038337512102909386,-0.00267186782406643
1746729100187714000,7.465714111328125,-0.09507423892319201,-0.009110750898299737,-0.0005902575107291341
1746729100197731300,7.4757314453125,-0.10629764372706413,-0.010774829919310286,-0.0028603761334903537
1746729100207749000,7.4857490234375,-0.10958674840033053,-0.008327665096055715,0.0004935008716769517
1746729100217766400,7.495766357421875,-0.10180267039537429,-0.008000259772595018,-0.0038553419875912366
1746729100227783200,7.505783203125,-0.1089829372882843,-0.004306729883747175,-0.002882953291479498
1746729100237801200,7.51580126953125,-0.11092238091826438,-0.00503879788480699,0.007313702280540019
1746729100247818200,7.525818359375,-0.10373334619700908,-0.0056725200779270376,0.004432557353656739
1746729100257836000,7.5358359375,-0.10372983906567096,-0.004753085411759093,0.00027109029265120626
1746729100267853300,7.545853271484375,-0.10058335773348807,-0.012917467971192672,-0.0018455913340672848
1746729100277871000,7.55587109375,-0.10372340932488441,-0.0067512826248072085,0.001281345047429204
1746729100287888400,7.565888427734375,-0.10805763913691044,-0.003775271621858701,-0.0039916269194334745
1746729100297906200,7.57590625,-0.10012743065953254,-0.009167960978252813,0.006766845520120113
1746729100307923200,7.585923095703125,-0.10401450122594832,-0.006591498086368664,0.0037106180209666487
1746729100317941200,7.595941162109375,-0.09892857626378536,-0.00498448301483877,0.0014533954123966395
1746729100327958000,7.6059580078125,-0.10252046327590941,-0.002925705587817356,0.0006556874297559261
1746729100337975300,7.615975341796875,-0.09384557391107082,-0.0019720855242572723,-0.0028329401372931898
1746729100347993000,7.6259931640625,-0.10207739568352699,-0.008253650011774152,0.00396709526637569
1746729100358010400,7.63601025390625,-0.10207856472730636,-0.01339750657309778,-0.004939429163560271
1746729100368028200,7.646028076171875,-0.09818389537632465,-0.0038933267772663384,-0.004216302520781755
1746729100378045200,7.656045166015625,-0.1004255368232727,-0.00506519270138815,-0.001930639269016683
1746729100388063200,7.666063232421875,-0.1135924769103527,-0.0054806599007919425,0.0020317432896234094
1746729100398080000,7.676080078125,-0.10057166729569435,-0.006340719929384067,-0.003462890337593853
1746729100408098300,7.686098388671875,-0.09712766432166099,-0.00440991626358591,0.007899868138041347
1746729100418115000,7.696114990234375,-0.10894903501868247,-0.009226979422802106,0.004299048900790512
1746729100428133400,7.70613330078125,-0.10101648845374583,-0.00916902042417787,-0.002177672832645476
1746729100438150100,7.716150146484375,-0.10071955133378505,-0.0054637818312272424,0.0013883856184780598
1746729100448168200,7.726168212890625,-0.10565759225785731,-0.003885892389481887,0.005347790768742561
1746729100458185200,7.736185302734375,-0.10654957266151904,-0.008216313676070421,0.011336619387380778
1746729100468202200,7.7462021484375,-0.10296060825884341,-0.01075551329748705,0.006913396117649972
1746729100478220300,7.75622021484375,-0.1068523550003767,-0.005517183385742828,0.0080527936774306
1746729100488237000,7.766237060546875,-0.10131576366126537,-0.0037250849377363916,0.0029651151495985687
1746729100498255400,7.77625537109375,-0.11223872421383857,-0.007080505446018651,0.0052829453716054554
1746729100508272000,7.786272216796875,-0.10580664533972739,-0.010758600303716956,-0.0006172368491999805
1746729100518290200,7.796290283203125,-0.10446166047155857,-0.0029803035855758934,0.0058282860283739866
1746729100528307200,7.80630712890625,-0.1040109940946102,-0.007102114489628002,-0.005198847284726798
1746729100538325200,7.8163251953125,-0.10924714118242262,-0.007769172696769237,0.0018234708338044582
1746729100548342300,7.82634228515625,-0.0993710593342781,-0.0018463767853565513,0.0057709663505665955
1746729100558360000,7.836360107421875,-0.09638122986853122,-0.009222020119894295,0.006923807913810014
1746729100568377300,7.84637744140625,-0.11209025565385818,-0.006967363927746191,0.0010658756658434867
1746729100578394000,7.85639404296875,-0.102508188316226,-0.002203190866392106,-0.0038975554278120397
1746729100588412200,7.866412109375,-0.09846738849282265,-0.0009946644600015134,0.004826123248506337
1746729100598429200,7.87642919921875,-0.09412848250567912,-0.0033346425817348062,0.0004911627841182053
1746729100608447200,7.886447265625,-0.10624912841022013,-0.004486022840254009,0.002021916015353054
1746729100618464300,7.89646435546875,-0.09906535438597201,0.0029954554889351126,-0.0058601059387438
1746729100628482000,7.90648193359375,-0.1083423012971878,-0.004595556762488559,-0.002908727053552866
1746729100638499300,7.916499267578125,-0.10923837335407734,-0.008156199252977966,-0.006870652954466641
1746729100648517000,7.92651708984375,-0.10250292761921882,-0.004882703140797093,-0.0009032141837291419
1746729100658534400,7.936534423828125,-0.09292612097859382,-0.0008547171331942081,0.0011796382386237382
1746729100668552200,7.94655224609375,-0.10429974790811539,-0.005303586300835013,0.006249324452038854
1746729100678569000,7.95656884765625,-0.09667056820392608,-0.0069654459652956574,-0.0003531608192250132
1746729100688586200,7.966586181640625,-0.10624679032266139,-0.005044962764112279,0.004135784630477428
1746729100698604000,7.97660400390625,-0.10235621262490749,-0.006144905096339062,0.003363448551110923
1746729100708621300,7.986621337890625,-0.09517185407876967,0.0014314941078424452,0.0033446707854047414
1746729100718639000,7.99663916015625,-0.09831365923583507,-0.0014484543757978827,-0.007327383746020495
1746729100728656400,8.006656494140625,-0.10429740982055663,-0.006786801462760195,0.0015069156979210675
1746729100738674200,8.016674072265625,-0.11118015507161616,-0.006664289327943697,-0.0022122692219913006
1746729100748691200,8.026691162109374,-0.09875848039388656,0.0006481343109626322,0.00203134143082425
1746729100758709200,8.036709228515624,-0.09426876775920391,-0.004139282628661021,-0.005253737543430179
1746729100768726000,8.04672607421875,-0.10474398454427719,-0.006383956282911822,-0.0016993877964094281
1746729100778744300,8.056744384765626,-0.10144552752077579,-0.0003535535448696464,0.0121340533753857
1746729100788761000,8.066760986328125,-0.09246668677330017,-0.0035966819182503967,0.004766556814685464
1746729100798778400,8.0767783203125,-0.10159341155886649,-0.0023594317408744243,0.002466152651514858
1746729100808796200,8.086796142578125,-0.10234043053388595,-0.00434450461086817,-0.00021318609295412896
1746729100818813200,8.096813232421875,-0.11101941155195236,-0.008090075214207171,-0.004649670703057199
1746729100828831200,8.106831298828125,-0.09739946700036525,-0.00371018876270391,0.0019778576779179275
1746729100838848000,8.116847900390624,-0.10173369681239128,-0.011804784888401627,0.008514218910411
1746729100848866300,8.1268662109375,-0.10427578251063824,-0.01103169989036396,0.0014282244385220109
1746729100858883000,8.136883056640626,-0.10726795006394385,-0.005209039885178208,-0.003646612874045968
1746729100868901400,8.1469013671875,-0.09305003961920738,-0.007968357663834467,0.002400193009525537
1746729100878918400,8.15691845703125,-0.1077151093095541,-0.01091723406468518,0.013162428308743982
1746729100888936400,8.1669365234375,-0.10771394026577472,-0.005888144723139703,0.013923932466842233
1746729100898953500,8.176953369140625,-0.09723989252448081,-0.00445106112472713,0.01307423856863752
1746729100908971500,8.186971435546875,-0.099632340618968,-0.0007080660709645599,0.006913414383959025
1746729100918988500,8.196988525390625,-0.1029261214673519,-0.00963054612185806,0.004489566504210234
1746729100929005600,8.207005615234374,-0.10531915408372879,-0.012625846347166224,0.006469890133850276
1746729100939023600,8.217023681640624,-0.10756371814012528,-0.007395946337049827,0.007218132951576263
1746729100949040400,8.227040283203126,-0.0949924058586359,-0.005713756270613521,0.00044951559947803616
1746729100959058400,8.237058349609375,-0.099632340618968,-0.0015892693522851914,-0.0014891243129037319
1746729100969075500,8.247075439453125,-0.11205226173102854,-0.0025757322395220396,-0.00714426399776712
1746729100979093500,8.257093505859375,-0.10337386523485183,-0.0028105456423945722,-0.001449340291786939
1746729100989110500,8.267110595703125,-0.10217501083910464,-0.0031971612066496163,0.005607903009653091
1746729100999128600,8.277128662109375,-0.09978256274461746,-0.006346126756863668,0.006584620821010321
1746729101009145600,8.2871455078125,-0.10636486374437808,-0.00675220507341437,0.00896532367877662
1746729101019163600,8.29716357421875,-0.10995499719083308,-0.008059451747080311,0.0038803302983753383
1746729101029180400,8.307180419921876,-0.09095277507901191,-0.0003021521511953324,0.0072255125404335555
1746729101039197400,8.317197509765625,-0.09903379020392894,-0.0031511027083732184,0.003503624206781387
1746729101049215500,8.327215576171875,-0.10591302832365035,-0.01065324023310095,-0.003972246365528553
1746729101059232500,8.337232421875,-0.1041162080347538,-0.009661324852611869,0.0015244696209207177
1746729101069250600,8.34725048828125,-0.09843290170133114,-0.005368294700654223,0.003425353072490543
1746729101079267600,8.357267578125,-0.10396949304044246,-0.005982261880533769,0.004395586344134062
1746729101089285600,8.36728564453125,-0.10531623147428035,-0.0027087383688893167,0.007232873862981796
1746729101099302700,8.377302734375,-0.10187748919725417,-0.006977300799870863,-0.000026869740616530177
1746729101109320700,8.38732080078125,-0.09409867188930511,-0.0020287202154751867,0.0035480478703975677
1746729101119337500,8.39733740234375,-0.10906243226528167,-0.008029421934997663,-0.0037809067782014604
1746729101129355500,8.40735546875,-0.10038462029099464,-0.007754249122273176,0.0019707703500054775
1746729101139372500,8.41737255859375,-0.10442366654872894,-0.0008303407437633722,-0.0022340974613092837
1746729101149390300,8.427390380859375,-0.10052958171963691,-0.0030947054791729896,-0.00013365458333864806
1746729101159407600,8.43740771484375,-0.10157529138028622,-0.007596674807230011,0.0029303543634712696
1746729101169424600,8.447424560546875,-0.10815993046760558,-0.003964446651563048,0.002784936277102679
1746729101179442700,8.457442626953124,-0.10382219352424144,-0.003646950800763443,-0.001627564669214189
1746729101189459500,8.46745947265625,-0.10741291149258612,-0.001758342308877036,-0.004328658587764949
1746729101199477500,8.4774775390625,-0.10112930117845535,-0.00935605829572305,-0.005070307267922907
1746729101209494500,8.48749462890625,-0.10008242247402667,-0.004668147074664011,0.007977481685206294
1746729101219512600,8.4975126953125,-0.09843640883266926,0.00045437443768605587,0.003787446116842329
1746729101229529600,8.507529541015625,-0.1107078613847494,-0.0014445088530424981,-0.003257905817404389
1746729101239547400,8.51754736328125,-0.10337737236618995,-0.008107811800297349,-0.005590860543306916
1746729101249564400,8.527564453125,-0.10053659598231315,-0.009768264958960935,0.002766359440796077
1746729101259582500,8.53758251953125,-0.09574702361822128,-0.0027578290744684633,0.00581312499186024
1746729101269599500,8.547599609375,-0.10801204642951488,-0.004769452024670317,0.007987528155185282
1746729101279617500,8.557617431640624,-0.10741466505825518,-0.002948748536687344,-0.008350899841170758
1746729101289634600,8.567634521484376,-0.1033750342786312,0.006525227917125448,-0.0064064512425102286
1746729101299651600,8.577651611328125,-0.09903495924770832,0.004263146470347419,-0.0008492920394055545
1746729101309669400,8.58766943359375,-0.10008066890835761,-0.0029749789564870294,0.005173858973942696
1746729101319686400,8.597686279296875,-0.0991793361544609,-0.0033553017772734164,0.004833155777491629
1746729101329704400,8.607704345703125,-0.10127660069465637,-0.0009665069445967673,0.0017485789666883645
1746729101339721500,8.617721435546875,-0.10755962648689746,-0.0033172073897439983,0.0002006371386349201
1746729101349739500,8.627739501953124,-0.09364099124968052,-0.007663885691389441,-0.0027971381715498865
1746729101359756500,8.637756591796874,-0.09813304197192191,-0.0033508630641736086,0.004029913103207945
1746729101369774600,8.647774658203126,-0.10247428604662417,-0.009226221370976418,0.004690514170099049
1746729101379791600,8.65779150390625,-0.1081640221208334,-0.002032400876749307,0.0034247502842918035
1746729101389809700,8.6678095703125,-0.10068272645473479,0.0003126918115187436,-0.010383848707191645
1746729101399826400,8.677826416015625,-0.1011316392660141,-0.004428694029292092,-0.008717230669222772
1746729101409844700,8.6878447265625,-0.1145984390825033,-0.0014572770030703394,0.0038605661519803105
1746729101419861500,8.697861572265625,-0.11475099929571152,-0.002039269008953124,-0.003876421308238059
1746729101429878500,8.70787841796875,-0.10532383025884627,-0.005544582849321886,0.004690970827825367
1746729101439896600,8.717896484375,-0.08960954377651215,-0.006597188041638583,0.008084394392091781
1746729101449913600,8.72791357421875,-0.09903905090093612,-0.006246538839908317,0.006613481589313596
1746729101459931600,8.737931640625,-0.11146014105677604,-0.004177705809753388,0.003069196578580886
1746729101469948400,8.747948486328125,-0.09619652095139027,-0.006282267740415409,-0.000056424628663808105
1746729101479966700,8.757966796875,-0.09649345807135104,-0.014673106866329907,0.005019581727683544
1746729101489983500,8.7679833984375,-0.10218260962367057,-0.009697053753118962,-0.00316279314616695
1746729101500001500,8.77800146484375,-0.10966624337732792,-0.0022416688464116305,-0.0019625139783136544
1746729101510018600,8.7880185546875,-0.11116495750248431,0.0014153466906398533,0.0018773381792008875
1746729101520036400,8.798036376953124,-0.11281389375329016,-0.0018461027907207606,0.0005695800488814711
1746729101530053600,8.8080537109375,-0.10294014999270439,-0.008043139933096244,0.002303308506309986
1746729101540071400,8.818071533203126,-0.10293781190514564,-0.0062444290812127285,0.0015061485129408538
1746729101550088700,8.828088623046876,-0.097998601937294,0.0019328586255665868,0.0037272038295865055
1746729101560105500,8.83810546875,-0.11281389375329016,-0.006209604363003746,0.0002924253416247666
1746729101570123500,8.84812353515625,-0.10787760639488696,-0.0070529141861945385,0.006490932921878993
1746729101580140500,8.858140625,-0.10473346315026283,-0.009319224283518269,0.01209461641414091
1746729101590158300,8.868158447265625,-0.10653145248293876,-0.013503889557020738,0.002248984503187239
1746729101600175600,8.878175537109374,-0.103985275131464,-0.0006402797980699688,-0.0008876695547252893
1746729101610193400,8.888193359375,-0.1057803418546915,-0.010236996715562418,-0.0016083850447088479
1746729101620210400,8.89821044921875,-0.09874971256554126,-0.004216813977435231,0.007870916038192809
1746729101630228500,8.908228515625,-0.08752572323977947,-0.000825235310383141,-0.0021292671136558055
1746729101640245500,8.91824560546875,-0.09620879591107367,-0.010769432224985212,0.0034356004718691107
1746729101650263600,8.928263671875,-0.09860533565878868,-0.010616890278086065,-0.000876508839894086
1746729101660280600,8.938280517578125,-0.10503858357667922,-0.006740542035084217,-0.006170980252511799
1746729101670298600,8.948298583984375,-0.10593524015545844,-0.002755664516845718,0.008060849119722843
1746729101680315400,8.9583154296875,-0.09620938043296337,-0.0054292585071176284,0.003126918115187436
1746729101690332400,8.96833251953125,-0.10174421820640564,-0.01281011687288992,0.006167801914736628
1746729101700350500,8.9783505859375,-0.10997720902264117,-0.012815980358095839,0.010512918446958064
1746729101710367500,8.988367431640626,-0.09980360553264617,-0.0037742487085517494,-0.000739566320925951
1746729101720385500,8.998385498046876,-0.10638766009807586,-0.0016516761971637605,-0.0070033759560436
1746729101730402600,9.008402587890625,-0.10279401952028273,-0.003948975087795407,0.0028900040867738423
1746729101740420600,9.018420654296875,-0.10174830985963344,-0.002719634222239256,0.012341156787425278
1746729101750437400,9.028437255859375,-0.10115034396648406,-0.0023064868440851568,0.002387223930098116
1746729101760455700,9.03845556640625,-0.10683540386557579,0.0037849162330385296,0.004038425203226507
1746729101770472400,9.048472412109374,-0.09905015681684017,0.005354713699873536,-0.0057953153405338525
1746729101780490800,9.05849072265625,-0.09605740474164486,0.000474668307043612,0.003867288153711706
1746729101790507500,9.068507568359376,-0.10009528195559977,0.001264987567672506,0.008837057656608522
1746729101800525300,9.078525390625,-0.10233926149010658,-0.005621146083716303,0.004818360067158937
1746729101810542600,9.08854248046875,-0.10248889909386634,-0.004232596068456769,0.003362407371494919
1746729101820559600,9.0985595703125,-0.10234101505577564,-0.011180396779207511,0.004432411223184317
1746729101830577700,9.10857763671875,-0.10099544566571712,-0.002850475793983787,0.0013573694257065652
1746729101840594400,9.118594482421875,-0.09366203403770923,-0.0070301634982693935,-0.006974990111775696
1746729101850612700,9.12861279296875,-0.10009703552126883,-0.003576223652111366,-0.00413667967962101
1746729101860629800,9.138629638671874,-0.09874678995609283,-0.003921529958443716,0.0057078197201713915
1746729101870647800,9.148647705078124,-0.10697627364099026,-0.007343019706569612,0.007394348035007715
1746729101880664800,9.158664794921876,-0.10862404084801673,-0.000059255906566977495,-0.00009708543261513113
1746729101890683000,9.168682861328126,-0.10787760639488696,-0.0031822558984626083,0.006118702076002955
1746729101900700000,9.178699951171875,-0.11102233416140078,-0.0031055647999048233,0.00921692381966859
1746729101910718000,9.188718017578125,-0.10504267522990703,-0.0008593933083117008,-0.0015867577347904443
1746729101920735000,9.19873486328125,-0.11237550233602524,-0.01178842740864493,0.00197652423735708
1746729101930753000,9.2087529296875,-0.10414368056356907,-0.003166172413341701,0.006075812782347202
1746729101940769800,9.218769775390625,-0.09411562302410602,-0.001940448276977986,0.010242960665468126
1746729101950786800,9.228786865234374,-0.09142214615643024,-0.013116899533430114,0.004876337332092225
1746729101960804900,9.238804931640624,-0.09576280570924281,-0.01333657929925248,-0.0011999869069084525
1746729101970822000,9.24882177734375,-0.10683832647502421,-0.0016888481360860168,0.0019149119769223033
1746729101980840000,9.25883984375,-0.10025485643148421,-0.0023059297216590493,-0.004319233172293752
1746729101990857000,9.26885693359375,-0.09845862066447734,-0.003258599937148392,-0.0016221943743526934
1746729102000875000,9.278875,-0.10354454562664031,-0.009803701598523184,-0.0007870587244629859
1746729102010892000,9.28889208984375,-0.09576689736247063,-0.005882062042225152,0.005916055643372237
1746729102020909800,9.298909912109375,-0.10115385109782218,-0.0002444397477433085,-0.0014418693713843822
1746729102030926800,9.3089267578125,-0.11237784042358398,-0.00292664630273357,-0.0034445692296139895
1746729102040945000,9.31894482421875,-0.10204933863282203,-0.005284278812166303,-0.0027624139180406925
1746729102050962000,9.3289619140625,-0.09890285730063915,-0.006823434545565396,-0.0005038944015279412
1746729102060980000,9.33897998046875,-0.10009762004315853,-0.0012650880323722957,0.004251446899399161
1746729102070997000,9.3489970703125,-0.10383856013715266,-0.006616532062925398,0.0023234014462679624
1746729102081014000,9.359013916015625,-0.1056359649479389,-0.0018028299045749008,0.0042171610373072325
1746729102091031800,9.36903173828125,-0.1069873795568943,-0.0027066925422754135,0.004156900483742356
1746729102101048800,9.379048828125,-0.0998065281420946,-0.00531649144818075,0.004189432780165225
1746729102111067000,9.38906689453125,-0.10234919836223125,-0.006403071975335479,0.008991828093212098
1746729102121084000,9.399083984375,-0.10474573810994625,-0.004260022931499407,0.006974697850830852
1746729102131102000,9.40910205078125,-0.10519523544311522,-0.0006728212276473641,0.004553462053276598
1746729102141119000,9.419118896484376,-0.10025719451904297,-0.009312301352387293,0.006533000231627374
1746729102151136800,9.42913671875,-0.09562310497760772,-0.007753043545875698,-0.007258793755527585
1746729102161153800,9.43915380859375,-0.103104985165596,-0.004697893758956343,-0.00004749240353703498
1746729102171171800,9.449171875,-0.10924071144163608,-0.012645327365770936,-0.00037034941604360935
1746729102181188900,9.45918896484375,-0.10489946736693381,-0.01883520411499776,0.004413395995460451
1746729102191207000,9.46920703125,-0.11193009665608405,-0.0011104728593956678,0.004412957604043186
1746729102201224000,9.479223876953125,-0.11447159783244132,-0.00629243294140324,0.0006010346330702304
1746729102211242000,9.489241943359374,-0.10549334160685539,0.0036957309790886937,0.007768204582389444
1746729102221258800,9.4992587890625,-0.1069914712101221,-0.012473669726448132,-0.002243084485363215
1746729102231275800,9.50927587890625,-0.1017541550785303,-0.004901791433757171,0.0018492628621868787
1746729102241293800,9.5192939453125,-0.09712006553709507,0.0031813334498554465,-0.0016410817379131912
1746729102251310800,9.529310791015625,-0.10789397300779818,0.004054499555192888,-0.0030223982947878538
1746729102261329000,9.539328857421875,-0.10101122775673865,-0.0028823231038171797,0.001371178755350411
1746729102271346000,9.549345947265625,-0.11447978113889694,-0.004848526876559481,0.004743358602188527
1746729102281364000,9.559364013671875,-0.11089023221433163,-0.004177020823163911,-0.0013751790770329534
1746729102291381000,9.569381103515624,-0.09817103589475154,-0.003921338162198662,-0.007678023814596235
1746729102301399000,9.57939892578125,-0.1008610056310892,-0.002309126325743273,0.0023109803561121222
1746729102311415800,9.589415771484376,-0.09248305338621139,-0.008057972176047042,0.00964156070621684
1746729102321434000,9.59943408203125,-0.09188684105873107,-0.007364290823461487,0.0027086744368076325
1746729102331451000,9.609450927734375,-0.10430734669268131,-0.004536383054312318,0.003718655196949839
1746729102341469000,9.619468994140625,-0.09547638998329638,-0.011409995150845497,0.004882968002278358
1746729102351486000,9.62948583984375,-0.1002642087817192,-0.005679488674830645,-0.0006017104865051805
1746729102361503700,9.639503662109375,-0.10265782591998576,0.0034573282464873045,-0.001472483705356717
1746729102371521000,9.64952099609375,-0.09712123458087443,-0.004541707683401182,0.00012055763974785805
1746729102381537800,9.659537841796874,-0.1080500403523445,-0.005601098809530958,0.004174089080560952
1746729102391555800,9.669555908203124,-0.10445756881833076,-0.007751700972160324,-0.0010459836552850902
1746729102401572900,9.67957275390625,-0.1123901153832674,-0.00429136791783385,0.009521277061104774
1746729102411591000,9.6895908203125,-0.10535597896277904,-0.005135024800896644,-0.008046035143081099
1746729102421608000,9.69960791015625,-0.09667758246660232,0.00040341143542900677,0.0018053323889151214
1746729102431625700,9.709625732421875,-0.10834931555986403,-0.008699073958024382,0.004750920854136347
1746729102441643000,9.71964306640625,-0.10206687428951262,-0.011578666248638183,-0.0047094563325867055
1746729102451660800,9.729660888671875,-0.11104863764643669,-0.004513230507588014,0.0036509237229824065
1746729102461677800,9.739677734375,-0.10446399855911731,0.001508377002645284,0.0048781456966884434
1746729102471696000,9.74969580078125,-0.09189794697463512,-0.0013895637954119593,0.00524584649791941
1746729102481713000,9.759712890625,-0.10087503415644168,-0.004632518638856708,0.0013463183087296783
1746729102491731000,9.76973095703125,-0.09608487727046013,-0.008182995928358286,-0.00643386897239834
1746729102501748000,9.779748046875,-0.10476210472285746,0.003633780791936442,0.0005199322208762168
1746729102511766000,9.78976611328125,-0.09518471356034278,-0.0011265563445165753,-0.0012395151996985078
1746729102521782800,9.79978271484375,-0.0995277112007141,0.0010539021002594381,-0.0016895057232119142
1746729102531799800,9.8097998046875,-0.10805588557124138,-0.0006974259459413588,0.007575202760938555
1746729102541817900,9.81981787109375,-0.09847907893061637,-0.013901117846835403,0.005922174856904894
1746729102551835000,9.8298349609375,-0.09234510622024536,-0.011366484802681952,0.001954531601257622
1746729102561853000,9.83985302734375,-0.11120412046909331,0.005656600989587605,0.0010739676407538353
1746729102571870000,9.849869873046876,-0.11120353594720363,0.0007623352751601487,0.005468640669435263
1746729102581888000,9.859887939453126,-0.09787935947179793,-0.00882716645025648,0.0008560688400641083
1746729102591904800,9.86990478515625,-0.10131810174882411,0.00038623197176493703,0.008001702811010182
1746729102601923000,9.879923095703125,-0.1107435172200203,-0.008175534141110255,0.009140607180446386
1746729102611939800,9.88993994140625,-0.10865034433305262,-0.0014914076015353202,-0.0006859364375472069
1746729102621958100,9.899958251953125,-0.09608078561723232,-0.0054426568448077885,0.0007541793681681156
1746729102631975000,9.909974853515624,-0.08859890542924403,0.00203356992052868,0.0007689568121917545
1746729102641992700,9.91999267578125,-0.10535480991899966,-0.01223888372303918,-0.0016553659915924071
1746729102652010000,9.930010009765626,-0.09712532623410225,-0.00542494765818119,0.008096230960357933
1746729102662027000,9.940027099609376,-0.10430851573646067,-0.005719656288437545,-0.003607358575891703
1746729102672045000,9.950045166015625,-0.09787176068723201,-0.007863335519935935,0.0014533588797785342
1746729102682061800,9.960061767578125,-0.09981471144855023,0.0014581629190593957,0.007030337028205394
1746729102692080000,9.970080078125,-0.1038543422281742,-0.007497296952828764,-0.002805686804186553
1746729102702097000,9.980096923828125,-0.10131167200803756,-0.004569582071015611,-0.0025036168513819573
1746729102712114700,9.99011474609375,-0.10789631109535694,-0.007943442418286576,-0.0007842822454869747
1746729102722132000,10.000132080078124,-0.11283084488809109,-0.00220423204600811,-0.003088558866176754
1746729102732149800,10.010149658203124,-0.09936462959349154,-0.003015228768484667,0.004399915459379553
1746729102742167000,10.0201669921875,-0.10295768564939499,-0.0058156640088185664,0.0022952165313996375
1746729102752184800,10.030184814453126,-0.098164606153965,-0.013692781458934768,0.0031942111977376043
1746729102762201900,10.040201904296875,-0.09532499881386756,0.0009977971320040524,0.0025562055551446973
1746729102772220000,10.050219970703125,-0.1072965916365385,-0.0009323672129772603,0.004472816298808902
1746729102782237000,10.06023681640625,-0.10160977817177771,-0.0009375639779027551,0.00046887788707390427
1746729102792255000,10.0702548828125,-0.09846621944904327,-0.0009091781336348503,0.006813862999621778
1746729102802271700,10.080271728515624,-0.09936346054971218,-0.009120605572033673,0.006105550333485007
1746729102812289000,10.0902890625,-0.10639818149209022,-0.002691549772070721,0.00817444729572162
1746729102822306800,10.100306884765626,-0.09577332710325717,0.0005167630162555725,0.0009546886426396667
1746729102832323800,10.11032373046875,-0.09831716636717319,-0.007464545460697263,-0.007462974558118731
1746729102842342000,10.120341796875,-0.09891630130410194,-0.003882293926598504,0.0016577771443873643
1746729102852359000,10.13035888671875,-0.09801847568154334,-0.011219815474143252,0.003274601223878562
1746729102862376200,10.140376220703125,-0.09233224673867226,-0.006000811317376792,-0.0015707016491331158
1746729102872393200,10.150393310546875,-0.09128186090290547,-0.002946008590329438,-0.0007424158651381731
1746729102882411300,10.160411376953125,-0.1028045409142971,-0.0014263338755350558,-0.005334894754551351
1746729102892428000,10.170427978515624,-0.11686930662393569,-0.004857038976578042,-0.0008012333802878856
1746729102902446300,10.1804462890625,-0.10116028083860873,0.0013909155022818595,0.007968220666516571
1746729102912463000,10.190463134765626,-0.10250701927244663,-0.004378178551606834,0.005487144440505653
1746729102922481200,10.200481201171876,-0.10400456435382366,0.0015632672613486646,0.011180204982962459
1746729102932498200,10.210498291015625,-0.10565291608273983,-0.005200509518850594,0.0065798533143475646
1746729102942516000,10.220515869140625,-0.09622691608965396,-0.006903176117734983,-0.0022527656291611493
1746729102952533200,10.230533203125,-0.09427987367510796,-0.0051904173830989745,-0.001035571859125048
1746729102962551000,10.240551025390625,-0.09322948783934115,-0.010319441701471805,0.0017699505482800305
1746729102972568000,10.250568115234374,-0.09996259548664092,-0.000802639886084944,0.006355944897979498
1746729102982585000,10.260585205078126,-0.10729366902709006,-0.0010895305360667407,0.008494399965088814
1746729102992603100,10.27060302734375,-0.09277940598428248,-0.0011892006514128298,0.005403777005989104
1746729103002620200,10.2806201171875,-0.09532090716063976,-0.005208893754705787,-0.007286631610523909
1746729103012638200,10.29063818359375,-0.09053367288410663,0.003357493734359741,-0.0005834807100705802
1746729103022655200,10.3006552734375,-0.1077449199259281,-0.0027803696998395023,0.0039829869552515445
1746729103032673000,10.310673095703125,-0.10145780248045921,-0.002920609287591651,-0.006727024966385215
1746729103042690000,10.32068994140625,-0.10624562127888203,-0.0024869762438349424,0.0006199037303216755
1746729103052708000,10.3307080078125,-0.09666296941936016,-0.0023163963167462495,-0.007143843872658908
1746729103062725000,10.34072509765625,-0.10473872384727001,0.005490222313581034,-0.007002846233081072
1746729103072743200,10.3507431640625,-0.09830372236371039,-0.013758768500387668,0.008677501447033137
1746729103082760200,10.36076025390625,-0.10294131903648376,-0.0023087609995622186,0.00024043942606076597
1746729103092778200,10.3707783203125,-0.1012923827856779,-0.0074114909660536795,0.00126545335855335
1746729103102795000,10.380794921875,-0.09306173005700111,0.0026720687534660097,0.01081128033902496
1746729103112813300,10.390813232421875,-0.10817337447106838,-0.012414998341770843,0.008368508563097565
1746729103122830000,10.400830078125,-0.1050268931388855,-0.00497904878789559,-0.0021230565685778856
1746729103132847000,10.41084716796875,-0.08782266035974025,-0.0018225757846608757,0.008138444400578737
1746729103142865200,10.420865234375,-0.09530512506961822,-0.00847290051933378,0.008303809296432882
1746729103152882200,10.430882080078124,-0.10936755269169807,-0.0014397870121523736,0.0013357603820972144
1746729103162900200,10.440900146484376,-0.09440671492516994,-0.008566862413100897,-0.002186203198973089
1746729103172917200,10.450917236328126,-0.0951578255534172,-0.004889580406155437,-0.0012107274966314434
1746729103182935300,10.460935302734375,-0.09620295069217681,-0.004171842324547469,-0.0038428843648172914
1746729103192952000,10.4709521484375,-0.10323357998132705,-0.0026385592095088213,0.0002358180498704314
1746729103202970400,10.480970458984375,-0.10367957018315792,-0.00484194187214598,0.005092665230203419
1746729103212987100,10.490987060546875,-0.11729425403773784,-0.005152679188596084,0.0011523849055171012
1746729103223005200,10.501005126953125,-0.10846271280646323,-0.0006028155982028692,0.001028922922629863
1746729103233022200,10.511022216796874,-0.10666764608323573,-0.001544023704761639,0.005120028161164373
1746729103243040000,10.5210400390625,-0.09933832610845565,-0.005555807496234774,0.005592267049103975
1746729103253057300,10.531057373046876,-0.10801672260463237,-0.013408594222692772,-0.0035640674234367906
1746729103263075000,10.541074951171876,-0.10622107135951518,-0.0030045064450707286,0.00018883710298687217
1746729103273092400,10.55109228515625,-0.09649228902757168,-0.005004594221105799,0.006487370991613716
1746729103283110100,10.561110107421875,-0.10217910249233245,-0.004220631636027246,0.013676533577032387
1746729103293127200,10.571127197265625,-0.09918693493902683,-0.007231348626175895,0.0010656199375167488
1746729103303144200,10.581144287109375,-0.10008359151780605,-0.005191823888896033,0.0014926131779327988
1746729103313162000,10.591161865234374,-0.09290332462489605,-0.008613779427902772,0.0025838972796685994
1746729103323179300,10.60117919921875,-0.11056114639043807,-0.010004978057974949,0.004866948449239135
1746729103333197000,10.611197021484376,-0.09814180980026721,-0.0074530468191485845,0.0044940782825462515
1746729103343214000,10.621214111328126,-0.10577215854823589,-0.012039123367238789,0.0041395109575241805
1746729103353232100,10.631232177734375,-0.10382745422124862,-0.014538685098011046,-0.005740461614448577
1746729103363249200,10.641249267578125,-0.10906652391850948,-0.004558540087193251,-0.0001930383540689945
1746729103373267200,10.65126708984375,-0.1035316861450672,-0.00738915127008222,0.005405110446549952
1746729103383284000,10.661283935546875,-0.09290741627812385,-0.0031796803488861767,0.002176722984574735
1746729103393302300,10.67130224609375,-0.09694763157963752,-0.006061455463431775,0.0009574468553066253
1746729103403319000,10.681319091796874,-0.10622399396896362,-0.0046522279863245785,0.0060392801642417905
1746729103413337300,10.69133740234375,-0.09829144740402698,-0.00779731194586493,0.002733827144373208
1746729103423354000,10.70135400390625,-0.0969441244482994,-0.004097525846166536,0.006475187363475561
1746729103433372200,10.7113720703125,-0.11235796667933463,-0.006490001340117305,0.0046282625888474285
1746729103443389200,10.72138916015625,-0.10008651412725449,-0.011876005227398127,0.003384199078194797
1746729103453406200,10.73140625,-0.10053542693853378,-0.011524753237469121,0.006409647846594453
1746729103463424300,10.74142431640625,-0.10442775820195674,-0.006281180895026773,0.003740410371031612
1746729103473441000,10.75144091796875,-0.11011340262293814,-0.0109209147259593,0.0039031449183821675
1746729103483459300,10.761459228515625,-0.10741758766770362,-0.0027970194405410437,-0.004130578732397407
1746729103493476000,10.77147607421875,-0.0990396354228258,-0.007064020102098584,0.001964669402781874
1746729103503494100,10.781494140625,-0.0963467430770397,-0.0034033330369275063,0.0078123359850607805
1746729103513511200,10.79151123046875,-0.10652151561081409,0.0008074713248293847,0.008176968046370893
1746729103523529000,10.801529052734375,-0.09380582642257213,0.004167275747284293,0.0005711509514600039
1746729103533546200,10.811546142578125,-0.1056318732947111,-0.0004058682539965957,0.008929412115179001
1746729103543564000,10.82156396484375,-0.0965039794653654,0.001504157485254109,0.007563146996963769
1746729103553581300,10.831581298828125,-0.09919804085493088,-0.0040830406630877406,-0.0019787344607524572
1746729103563599000,10.84159912109375,-0.09995148957073688,-0.0015368815779220311,-0.006601352760102599
1746729103573616400,10.851616455078124,-0.10159925677776337,-0.006098097679391503,-0.0034370252439752218
1746729103583634200,10.86163427734375,-0.1084820020288229,-0.002331055029761046,-0.007380392574891447
1746729103593651000,10.87165087890625,-0.10099836827516555,-0.01196351911406964,0.007763601472508162
1746729103603669200,10.881669189453126,-0.10608487775921821,-0.009089616778725758,0.009977551194932311
1746729103613686000,10.89168603515625,-0.10174304916262626,-0.0022432488821446895,-0.001616385688073933
1746729103623703300,10.901703369140625,-0.10338847828209399,-0.011626122119557112,-0.006944540174584835
1746729103633721000,10.91172119140625,-0.09800152454674244,-0.005011708948481828,0.0017762158922851085
1746729103643738400,10.92173828125,-0.09844868379235266,0.00017523783589713275,0.0006137479841709137
1746729103653756200,10.931756103515625,-0.1057803418546915,-0.008013055322086437,0.0057462520344182845
1746729103663773200,10.941773193359374,-0.10877426297366619,-0.003366654288349673,0.010637841734569518
1746729103673791200,10.951791259765624,-0.10249123718142508,-0.007709259203076363,0.002431373599078506
1746729103683808000,10.96180810546875,-0.10338614019453525,-0.004365675263060256,0.009043083356413989
1746729103693826300,10.971826416015626,-0.10802549043297767,-0.003100358901824802,0.007851791212614626
1746729103703843000,10.981843017578125,-0.09800035550296306,-0.002373944323416799,0.004167586274538189
1746729103713861000,10.991861083984375,-0.10338555567264557,-0.010390086651733145,0.013119831276033073
1746729103723878100,11.001878173828125,-0.0996452001005411,-0.0136671812267974,0.010214428690727799
1746729103733896200,11.011896240234375,-0.09949556249678135,-0.012167243258934467,-0.0001131049856543541
1746729103743913200,11.021913330078124,-0.10907295365929603,-0.003263486174819991,0.00021413594102486966
1746729103753931000,11.031930908203124,-0.10174071107506752,-0.0004080419447738677,0.0024745551536791027
1746729103763948300,11.0419482421875,-0.10533142904341221,-0.006518944306811317,0.0023778898461721838
1746729103773965000,11.051965087890625,-0.10622691657841205,-0.0005476513448636978,0.010888291097991169
1746729103783983000,11.061983154296875,-0.10757307049036026,-0.010887670043483375,0.00029394144527614114
1746729103794000100,11.072000244140625,-0.09754793556034565,-0.0054155405090190465,0.0064398237891495225
1746729103804018200,11.08201806640625,-0.09485445869266987,-0.007156849484704434,0.004687865555286407
1746729103814035200,11.09203515625,-0.0996452001005411,-0.003922498072823509,0.0064331017874181265
1746729103824053000,11.102052978515625,-0.10308920307457446,-0.0063660370337311175,0.005366020545177161
1746729103834070300,11.1120703125,-0.09785130242109298,-0.006693835082836449,0.003256864637788385
1746729103844088000,11.122088134765624,-0.096805008238554,0.005335524942213669,0.005641330355219543
1746729103854105300,11.132105224609376,-0.10398819774091243,0.0031978918590117246,0.0004461545986123383
1746729103864124200,11.142124267578126,-0.10144552752077579,-0.0018951752299908547,-0.0006883110577240585
1746729103874141000,11.152140869140625,-0.09531272385418414,-0.0073918729501310735,0.00117958343969658
1746729103884159000,11.162158935546875,-0.10818740299642085,-0.004182509849034249,0.007376775845699012
1746729103894176000,11.172176025390625,-0.1008569139778614,-0.0032714868181850758,0.0029811164363287386
1746729103904193800,11.18219384765625,-0.09771277073323727,-0.00414980402267538,0.006316818463988602
1746729103914211000,11.192211181640625,-0.09980535909831523,-0.0012132665135897696,0.012971033922489732
1746729103924228900,11.202228759765624,-0.10115034396648406,-0.010608003718731924,0.0088848423210904
1746729103934246100,11.21224609375,-0.09261690889894962,-0.003192877757176757,-0.0026474640351720155
1746729103944264000,11.222263916015624,-0.10982640237510204,0.0034820151631720364,0.000951071913447231
1746729103954281000,11.232281005859376,-0.11102467224895954,-0.0007163589752744883,-0.0061530975359492
1746729103964298000,11.242298095703125,-0.10114975944459438,0.00315590674765408,0.0002313976030796766
1746729103974315800,11.252315673828125,-0.10309913994669914,-0.012764661162812262,-0.0013862119277007878
1746729103984333000,11.2623330078125,-0.10653788222372532,-0.006743702106550335,0.008041779093071818
1746729103994350800,11.272350830078125,-0.10099836827516555,0.003943960985960439,0.0006180223004892468
1746729104004368000,11.282367919921874,-0.09725450557172298,-0.006711389005836099,0.0057219213107600805
1746729104014386000,11.292385986328124,-0.11086977394819258,-0.006917460371414199,0.0060604508164338764
1746729104024403000,11.30240283203125,-0.10892273153364658,-0.010636855353880674,0.0068999521141871805
1746729104034421000,11.3124208984375,-0.10891980892419814,0.00036906164125539363,0.010596559876110405
1746729104044437800,11.322437744140625,-0.09784487268030644,-0.00764220358254388,0.006837791864480823
1746729104054456000,11.3324560546875,-0.10248422291874885,-0.00044697658251971,0.0006248539000749588
1746729104064472800,11.342472900390625,-0.10936930625736713,0.001757958716386929,0.008394647651351988
1746729104074491100,11.3524912109375,-0.10473287862837315,-0.006276459054136648,-0.0020035401084460315
1746729104084508000,11.3625078125,-0.10608137062788009,-0.006383024701150134,-0.0006088891459628939
1746729104094526000,11.37252587890625,-0.103985275131464,-0.01467099710763432,-0.0016407712106592952
1746729104104543000,11.38254296875,-0.09994798243939876,-0.005638709139870479,-0.007268420100398361
1746729104114560800,11.392560791015624,-0.09830138427615165,-0.001458062454359606,-0.006056487027369439
1746729104124578000,11.402578125,-0.10952478908002376,-0.004812971505988389,0.0015054726595059036
1746729104134594800,11.4125947265625,-0.09680734632611274,-0.0019128661503084003,0.011935425530746578
1746729104144613000,11.422613037109375,-0.10279343499839305,-0.00995734865712002,0.0014318046350963412
1746729104154630000,11.4326298828125,-0.10533552069664001,-0.007988505402719602,-0.0004237235710956156
1746729104164648000,11.44264794921875,-0.10713351002931594,-0.000891879938961938,-0.0004962590843439102
1746729104174665000,11.4526650390625,-0.11057634395956993,-0.008750082626054062,-0.007813651159312575
1746729104184682800,11.462682861328124,-0.0995019922375679,-0.0063228828785941,0.0004843311845324933
1746729104194700000,11.472699951171874,-0.11282032349407672,0.000614971826877445,0.008415745238307864
1746729104204717800,11.4827177734375,-0.10833061085939406,-0.006020538931153715,0.013006890687160193
1746729104214735000,11.492735107421876,-0.1054839892566204,-0.005452648515859618,0.0012162621882744133
1746729104224753000,11.5027529296875,-0.10443769507408142,-0.005364230446889997,0.0005357143118977547
1746729104234770200,11.512770263671875,-0.09965104531943797,0.0010039254786912352,0.001251351767964661
1746729104244788000,11.5227880859375,-0.09665946228802204,-0.004531505949795246,0.00928428996745497
1746729104254804700,11.5328046875,-0.1053401968717575,-0.004284116193139925,0.007926920541748404
1746729104264823000,11.542822998046875,-0.10743629236817359,0.0013413590058218687,0.0016479133374989032
1746729104274839800,11.55283984375,-0.10399579652547836,-0.0013243896047119052,-0.004666603571549057
1746729104284858000,11.562858154296874,-0.09741115743815898,0.00013189188451506197,0.004263977587409317
1746729104294875000,11.572875,-0.09995558122396468,-0.00444502410958521,-0.005769121453352272
1746729104304893000,11.582892822265626,-0.10219780719280243,-0.00805219088923186,0.004060710100270808
1746729104314910000,11.592909912109375,-0.10773147592246532,-0.0031965492852963507,0.004602671489864587
1746729104324927000,11.602927001953125,-0.11057342135012149,-0.012128034626552835,0.006166231012158095
1746729104334945000,11.612945068359375,-0.0993535236775875,-0.0030357418335508553,-0.003313106603361666
1746729104344961800,11.6229619140625,-0.0960638344824314,-0.0009210695008281618,0.0015240677621215582
1746729104354980000,11.63297998046875,-0.10324351685345172,-0.0035781690140254795,0.006185903827007859
1746729104364996900,11.642996826171874,-0.10339140089154243,-0.0029477438896894454,0.006183090815413743
1746729104375015000,11.653014892578126,-0.09695932201743125,0.0008337200109381228,-0.0036117790226824578
1746729104385032000,11.663031982421876,-0.09905366394817829,-0.0019469145503826439,-0.003995261914934963
1746729104395050000,11.673050048828125,-0.10354045397341251,-0.0004559544734191149,0.003429919649753719
1746729104405067000,11.68306689453125,-0.10518646761476994,-0.011232126966444775,0.004520363501273095
1746729104415084800,11.693084716796875,-0.10114332970380782,-0.00809118032590486,0.016980744487885384
1746729104425102000,11.70310205078125,-0.1065296989172697,-0.005792356198467314,0.005674410640913992
1746729104435119900,11.713119873046875,-0.107575408577919,-0.008208824489358812,-0.006386924558132887
1746729104445137000,11.723136962890624,-0.0942559082776308,-0.004218932869285345,0.002332004877831787
1746729104455155000,11.733155029296874,-0.09141220928430557,-0.001530488369753584,0.00849133122516796
1746729104465172000,11.743171875,-0.10832184303104876,0.0029823311458807436,0.01193462181314826
1746729104475190000,11.75318994140625,-0.10368190827071666,-0.005000950092449784,0.0007181399404071271
1746729104485206800,11.763206787109375,-0.095602062189579,-0.0006169628545641899,0.0040178573392331595
1746729104495224800,11.773224853515625,-0.08841945720911025,0.0011265928771346807,0.007978468065895139
1746729104505241900,11.783241943359375,-0.0984434230953455,0.0014435590049717575,0.005363353664055466
1746729104515259100,11.793259033203125,-0.10024199694991111,0.000360841802181676,0.008771390275564044
1746729104525277000,11.80327685546875,-0.10488193171024322,-0.005354065245902166,-0.0011945983457379043
