time,seconds_elapsed,z,y,x
1746576350060391700,0.0203916015625,-0.06494856525063514,0.058899640475213524,0.00821957421223633
1746576350070470700,0.030470703125,-0.07976502611041068,0.051148295696079725,0.0028949177239090203
1746576350080548600,0.040548583984375,-0.09433657229840754,0.03859598037600517,0.00027646058751270176
1746576350090626800,0.050626708984375,-0.0698778383463621,0.039167935045063496,0.023338246588711625
1746576350100705500,0.06070556640625,-0.05596504832804203,0.03109218061715364,0.0485154538413044
1746576350110783500,0.070783447265625,-0.007092588609457016,0.01418780756741762,0.04413106931119691
1746576350120861400,0.080861328125,0.06253507436811924,0.01713233658671379,0.05738811253425665
1746576350130940700,0.090940673828125,0.09154489575326442,0.025711072100698947,0.020904297440056688
1746576350141018600,0.1010185546875,0.08621405611932277,0.028510055169463155,0.001279924841900356
1746576350151096600,0.1110966796875,0.058085693743824954,0.022362053933739662,0.0019373795370571313
1746576350161174500,0.121174560546875,0.056766427838802334,0.02481500004380941,0.01391984538019169
1746576350171253800,0.131253662109375,0.04829845922291279,0.04982055422365665,0.039161528137163254
1746576350181331700,0.141331787109375,0.026104163071513174,0.06351677888184785,0.03310604119021445
1746576350191409700,0.15140966796875,-0.04152385052144527,0.044291853930056094,0.03342131768446416
1746576350201488400,0.16148828125,-0.05889233395159244,0.03455927220582962,0.015268051968619693
1746576350211566600,0.171566650390625,-0.10849076985716818,0.032814474365115164,0.0036725715824984942
1746576350221644500,0.18164453125,-0.18489771771132946,0.03468815928250551,0.0036702745941351164
1746576350231723500,0.1917236328125,-0.16521803472936153,0.029046061742305753,0.0331615365204052
1746576350241801500,0.201801513671875,-0.12390285852253437,0.04474281256794929,0.0652549186529126
1746576350251879700,0.211879638671875,-0.06836158856451512,0.05540040018260479,0.05713369938177056
1746576350261958700,0.221958740234375,0.0307955357581377,0.040483693818747994,0.026908179780642968
1746576350272036600,0.23203662109375,0.10471066679656504,0.03528495613187551,0.01814417594380211
1746576350282114600,0.242114501953125,0.14071253902614117,0.042645548027753825,0.0176289427309297
1746576350292192800,0.25219287109375,0.17172317883968352,0.027376959486305714,0.031709390066890046
1746576350302271500,0.262271484375,0.16598375840485094,0.036542262716591355,0.028733863121131433
1746576350312349400,0.272349365234375,0.13724047900140285,0.011555413237214087,0.040236523257801304
1746576350322427100,0.28242724609375,0.08023731979727744,0.04076397206485271,0.02608981945232954
1746576350332505900,0.292505859375,0.022995675662159917,0.048262803387641905,0.0156917390070972
1746576350342583800,0.302583740234375,-0.033166356542706485,0.030874153952300545,0.011008656941493972
1746576350352662000,0.312662109375,-0.0932101986169815,0.05005436297953129,0.01657025942427572
1746576350362741000,0.322740966796875,-0.1485053848594427,0.04114011190086603,0.012212251444440334
1746576350372819000,0.33281884765625,-0.11778700599074363,0.016103870321810244,-0.015937103486736305
1746576350382897000,0.34289697265625,-0.07470365106761455,0.031820202630758285,0.04576442896695807
1746576350392976100,0.35297607421875,0.0011567688196897506,0.036028175714612004,0.061597345993435006
1746576350403054000,0.36305419921875,0.061195934718847274,0.04865121818333864,0.0423927149110008
1746576350413132000,0.373132080078125,0.08527882109582424,0.03420446741878986,0.02084137457194738
1746576350423211000,0.3832109375,0.128137135091424,0.02311667169332504,0.0454310185943963
1746576350433289000,0.3932890625,0.13541910879313945,0.03952683148533106,0.0504903889097739
1746576350443367000,0.403366943359375,0.06308043329119682,0.034789281569421286,0.03840841278149746
1746576350453444900,0.41344482421875,-0.018409516915678978,0.01636252125799656,0.0024373923479113725
1746576350463523800,0.42352392578125,-0.08311433653831482,0.01785860503464937,0.0004152754031587392
1746576350473602000,0.43360205078125,-0.12635785045921802,0.04000380134731531,0.020697116396203637
1746576350483680000,0.443679931640625,-0.11081775150001048,0.049288347043097015,0.04849225106223021
1746576350493759000,0.453759033203125,-0.09873743760585785,0.06704407622516155,0.03345427923914976
1746576350503837000,0.4638369140625,-0.04433014011383057,0.03521159863471985,0.01348559128192719
1746576350513915100,0.4739150390625,0.040888475227355954,0.014930150367319582,-0.007305573773011565
1746576350523993900,0.483993896484375,0.09322539618611335,0.016207038435339927,0.010662364254472777
1746576350534071800,0.49407177734375,0.13221183718442917,0.021795944483578203,0.05749770125541836
1746576350544149800,0.504149658203125,0.14631284325122831,0.037081191898882385,0.024087201792490666
1746576350554229000,0.51422900390625,0.12025310384333134,0.0466749496743083,0.026337369039189068
1746576350564307000,0.524306884765625,0.10698153433799742,0.0484328992575407,0.05345409755357541
1746576350574385000,0.534385009765625,0.04479658858180046,0.032172669330239295,0.02857525675962679
1746576350584462800,0.544462890625,-0.024750410374999046,-0.0012073299631476402,0.011549846579530275
1746576350594542000,0.5545419921875,-0.06972703169882297,0.033360417810082435,0.010793447854812257
1746576350604620000,0.5646201171875,-0.10067688123583793,0.04998363583087921,0.0005249645890202373
1746576350614698000,0.574697998046875,-0.09718903912007808,0.042399464312195774,0.012531354730436577
1746576350624777000,0.58477685546875,-0.09026537733674049,0.044010406640172,0.02523459999563638
1746576350634855000,0.59485498046875,-0.09519114330112934,0.027926994584500788,0.01743004089165479
1746576350644932900,0.604932861328125,-0.06287468158602715,0.01941109517365694,0.003922699002223089
1746576350655011800,0.61501171875,0.02585515674650669,0.04546235901415348,0.044741972317732866
1746576350665090000,0.625090087890625,0.06641337710618972,0.07176204465776681,0.05531103226556442
1746576350675168000,0.63516796875,0.08937105884552002,0.06634264995753765,0.030407550220703704
1746576350685247000,0.6452470703125,0.1068085158586502,0.07223901451975107,0.01637805218726862
1746576350695325000,0.655324951171875,0.08883797488212584,0.03923340149670839,0.020936281747207977
1746576350705403100,0.665403076171875,0.05465221216380596,-0.0060083005040884015,-0.003040130314300768
1746576350715481000,0.675481201171875,0.03545183713138103,-0.008433774085342884,0.010387931227264925
1746576350725560000,0.68556005859375,0.055936406755447386,-0.000032440964877605434,0.05244382909906562
1746576350735638000,0.695637939453125,0.05921148290336132,0.0063990533873438836,0.032899915025709194
1746576350745716000,0.705716064453125,-0.005231470912694931,0.016575287225842474,0.026430440450389867
1746576350755795000,0.715794921875,-0.055712534871697424,0.006322188758850098,0.030446854751207866
1746576350765873000,0.725872802734375,-0.06908873379528523,0.037135260173678394,0.03157169862925075
1746576350775950800,0.735950927734375,-0.09031798430681229,0.059059507212042804,0.04484232741966843
1746576350786030000,0.746030029296875,-0.03717266957461834,0.06175356860160827,0.04415775182214565
1746576350796108000,0.75610791015625,-0.005189385336637497,0.0590749970421195,0.046476002169260754
1746576350806186000,0.76618603515625,0.04584288276433945,0.05432751025408506,0.028539450227306223
1746576350816265000,0.776264892578125,0.08915244765877724,0.030993104156851768,0.00858106903496664
1746576350826343200,0.78634326171875,0.10350304457247257,0.03723024498075247,-0.002902448009815998
1746576350836421000,0.796421142578125,0.11235796667933463,0.028662907643616196,0.030361619586590675
1746576350846499000,0.8064990234375,0.028434651845693586,0.027501754909753796,0.02821662061426323
1746576350856577800,0.816577880859375,-0.05997720657885074,0.0025678046613931654,0.01447278938810341
1746576350866656000,0.826656005859375,-0.0914367592036724,0.009417524425685405,0.0024702443047426637
1746576350876734000,0.83673388671875,-0.1214917057275772,0.0322597630918026,0.005146185515727848
1746576350886813000,0.84681298828125,-0.11040800165534019,0.037705169016122815,0.027631628367118535
1746576350896891000,0.856890869140625,-0.09432897351384162,0.045948388965427876,0.03703371776165441
1746576350906969000,0.866968994140625,-0.012303601256012917,0.04222381548434496,0.01265574372850824
1746576350917048000,0.877048095703125,0.06552256574630737,0.05438391661643981,0.030844950690702533
1746576350927126000,0.8871259765625,0.11574001033306121,0.06977145536243916,0.04491903221795801
1746576350937204000,0.897203857421875,0.12000409751832485,0.04737783724665642,0.04820888124331832
1746576350947283000,0.907282958984375,0.07991174110472202,0.007801905922591686,0.0031085239419713613
1746576350957361000,0.91736083984375,0.06448679295778274,-0.016844167295098304,-0.003903934936248697
1746576350967438800,0.92743896484375,0.026778116810321807,0.028215163876116275,0.02950086543825455
1746576350977516800,0.937516845703125,0.004012158250808716,0.04593757531046867,0.035199775766185486
1746576350987596000,0.947595947265625,-0.053554480054974554,0.02317424709945917,0.028028966254787516
1746576350997674000,0.957674072265625,-0.13983283358216284,0.03201397163718939,0.008987330014607869
1746576351007752000,0.967751953125,-0.08028349702656269,0.05619973386675119,0.013998874566308222
1746576351017831200,0.9778310546875,-0.1156704522281885,0.03545037582665682,0.03657675864123739
1746576351027909000,0.9879091796875,-0.022850714233517644,0.015875030001997945,0.03921800299817696
1746576351037987000,0.997987060546875,-0.007045242336392402,0.03018383360058069,0.01420769044482149
1746576351048065800,1.008065673828125,0.03555880463719368,0.038621114817261694,0.01724402593341656
1746576351058144000,1.01814404296875,0.1336000766724348,0.04610094917863607,-0.0009520719938678667
1746576351068222000,1.028221923828125,0.1799848112285137,0.046908173908293244,0.02709090908654034
1746576351078301000,1.038301025390625,0.17113690338432788,0.051308746954798694,0.05922449764856137
1746576351088379000,1.04837890625,0.12495207531452178,0.05080868847817182,0.04798504589218646
1746576351098457000,1.05845703125,0.012512860092520712,0.034492636710405346,-0.002007357767038047
1746576351108535000,1.06853515625,-0.09262392316162586,0.02023410199433565,0.01026274764474947
1746576351118614000,1.078614013671875,-0.12744915282726288,0.029160628032684325,0.033973485374241136
1746576351128692000,1.08869189453125,-0.11972761866450309,0.0556239798054099,0.06783554626326076
1746576351138770000,1.09877001953125,-0.07016776120364665,0.047589434170722957,0.07599583716946653
1746576351148849000,1.108848876953125,-0.005886135429143905,0.03499211066514253,0.023016407922934738
1746576351158926800,1.1189267578125,0.06900748525261878,0.004586158746480941,0.009455349385156296
1746576351169004800,1.1290048828125,0.12255904269814491,-0.0010313888743519782,0.010625744871399365
1746576351179084000,1.139083984375,0.12064297994375228,0.0031970424756407735,0.012260013276035897
1746576351189162000,1.149161865234375,0.10271569358706474,0.01602349856197834,0.037648424727050586
1746576351199240000,1.159239990234375,0.04801671967208385,0.02586480135768652,0.041485856598615645
1746576351209319000,1.16931884765625,-0.015257190364599226,0.02021101337969303,0.02949730350798927
1746576351219397000,1.179397216796875,-0.0625806670755148,0.017826456330716608,0.015974773182580247
1746576351229475000,1.18947509765625,-0.116193599319458,0.05249094247668981,-0.010128339576162397
1746576351239553000,1.199552978515625,-0.1252262160807848,0.07101385663896799,0.010649828999885357
1746576351249632000,1.209632080078125,-0.1544739378750324,0.06788520322442054,0.027111887942487374
1746576351259710000,1.2197099609375,-0.13319675656855107,0.05645341636687517,0.03350649348357692
1746576351269788000,1.229787841796875,-0.09178630329370498,0.04374824857264757,0.039285063185286705
1746576351279867000,1.239866943359375,-0.011750643548369407,0.017850129467248916,0.031293562107882464
1746576351289944800,1.24994482421875,0.12068272743225097,0.028653555293381212,0.041526490003103385
1746576351300023000,1.26002294921875,0.18061024965047837,0.03458995960503816,0.0594901902468875
1746576351310102000,1.27010205078125,0.22696049741506574,0.021858196064829825,0.04476044868933968
1746576351320180000,1.280179931640625,0.2167325333893299,-0.002094634191691875,0.022315550194180103
1746576351330258000,1.2902578125,0.13706044625937938,-0.005199906730651855,0.015661133806279395
1746576351340337000,1.3003369140625,0.03711830903887749,0.015555296528339386,0.015020260353165213
1746576351350414800,1.310414794921875,-0.07427402747869491,0.03769552440494299,0.027288566533511038
1746576351360493000,1.3204931640625,-0.13300152625739572,0.03301818024367094,0.03862493247585371
1746576351370571000,1.330571044921875,-0.12484043163359164,0.060525195850431916,0.04802031813496724
1746576351380649700,1.340649658203125,-0.08947861087322234,0.09315028512328863,0.012405746456235647
1746576351390727700,1.350727783203125,-0.04533376419842243,0.07759440407305955,-0.007821925797313452
1746576351400806000,1.360805908203125,0.010612579429149628,0.052177638743817804,0.008116225718904751
1746576351410884900,1.370884765625,0.083990534850955,0.03103694329857826,0.028060779315291436
1746576351420962800,1.380962890625,0.1111433301925659,0.016677578556537627,0.020018751343758776
1746576351431040800,1.391040771484375,0.08025368641018867,0.007166238367557525,-0.0025351376509410327
1746576351441120000,1.4011201171875,0.03502922780513763,0.0048620530784130095,0.013374598338257056
1746576351451198000,1.411197998046875,0.051907297369837756,0.011476210521161555,0.0174422793187201
1746576351461276000,1.42127587890625,0.022588848426938056,0.0069277534365653985,0.021082989891653414
1746576351471353900,1.431353759765625,-0.0012520458877086638,0.02169160732626915,0.025944319167570208
1746576351481432800,1.441432861328125,-0.02847147672474384,0.04550152198076248,0.02711573985040886
1746576351491510800,1.4515107421875,0.003858428993821144,0.04346533997803926,0.04347006181892939
1746576351501588700,1.461588623046875,0.015950433325767517,0.0394137264996767,0.038394786114944145
1746576351511668000,1.47166796875,0.03114683341383934,-0.023244974248111245,-0.005043400994688272
1746576351521746000,1.481745849609375,0.08287585160732269,-0.006849135242402553,0.004261390621389728
1746576351531823900,1.491823974609375,0.06995382619202137,0.04497165288776159,0.043738275167904794
1746576351541902800,1.50190283203125,0.01227028350830078,0.04042290354222059,0.03473174269590527
1746576351551981000,1.51198095703125,-0.06591828706562519,0.037436873468756675,0.011270810442441142
1746576351562059000,1.52205908203125,-0.12482581858634947,0.052121232381463045,0.030279660941159817
1746576351572137700,1.5321376953125,-0.17099837169647217,0.07080167519301175,0.0275304946637596
1746576351582215700,1.542215576171875,-0.15550795709788798,0.06397767439186573,0.017219606161501724
1746576351592293600,1.552293701171875,-0.09859949043989182,0.059245969694852824,0.013200842356681824
1746576351602371800,1.562371826171875,0.0006043956339359284,0.06527648203074932,0.0169549912754097
1746576351612450800,1.572450927734375,0.0765624306768179,0.05610036514550447,0.018232580313039943
1746576351622528800,1.58252880859375,0.11780687973499297,0.016432371623814106,0.009089523163891862
1746576351632606700,1.592606689453125,0.1205289981752634,-0.009613923780620098,0.023259046155947725
1746576351642686000,1.60268603515625,0.13977730400264263,-0.010772738426923752,0.03333519888714654
1746576351652764000,1.612763916015625,0.08713467809557915,0.007583586996793746,0.045351902643311764
1746576351662841900,1.622841796875,0.03793430159687996,0.020074819779396055,0.04189614529940299
1746576351672920800,1.6329208984375,0.006788052704930305,0.016220774699747562,0.012355915965139866
1746576351682998800,1.642998779296875,-0.04373918848335743,0.041740708142519,0.0036026709843310525
1746576351693076700,1.65307666015625,-0.020266542959213256,0.03395399978905916,0.03179457499915734
1746576351703154700,1.66315478515625,-0.044316111588478084,0.036406653638184065,0.039499002763489256
1746576351713234000,1.67323388671875,-0.03491992221176624,0.040813656425476075,0.04171583399616647
1746576351723311900,1.683311767578125,-0.03359130395650863,0.06587210983633994,0.07194294048289303
1746576351733389800,1.693389892578125,-0.046048049947619435,0.05526508336514234,0.042327668584464115
1746576351743468800,1.70346875,-0.02006546742916107,0.016736907528340814,-0.01048427459107479
1746576351753547000,1.713547119140625,0.038515316355228424,0.022373159849643706,-0.023569061953190248
1746576351763625000,1.723625,0.06083236210346222,0.02893383353948593,0.012745253209443762
1746576351773704000,1.733703857421875,0.09988660764098167,0.024089900639653203,0.05618183288387954
1746576351783782000,1.743781982421875,0.09800678524374962,0.058014382073283195,0.06058320964798331
1746576351793859800,1.75385986328125,0.03923310923576355,0.06342968512028456,0.02411239331596298
1746576351803938800,1.763938720703125,-0.03774667007029056,0.01142243450731039,-0.011089795886306092
1746576351814016800,1.774016845703125,-0.07288286538124084,0.009506079491972923,0.02120485128920991
1746576351824094700,1.7840947265625,-0.07343991474211216,0.016896774265170098,0.03656704096482135
1746576351834174000,1.794174072265625,-0.04907470429241657,0.05204962844997644,0.06800533160590566
1746576351844252000,1.804251953125,-0.003041267392039299,0.07086392677426338,0.061564489470026455
1746576351854329900,1.814329833984375,0.01853752720952034,0.05597089354693889,0.03887663308144547
1746576351864407800,1.82440771484375,0.021630232527852056,0.05107581498175859,0.04014643382155336
1746576351874487000,1.834487060546875,0.03220598707795143,0.03417991749942303,0.027487909047491845
1746576351884565000,1.84456494140625,0.04785597615242004,0.006961363445222377,-0.014530026867520062
1746576351894643000,1.854642822265625,0.04987199214994907,-0.011748305460810661,0.005917953056225087
1746576351904721700,1.8647216796875,0.08881927018165588,0.007384265032410621,0.008051124593440909
1746576351914799900,1.8747998046875,0.05265606991052627,0.030963585801422593,0.018118957020866217
1746576351924877800,1.8848779296875,-0.001477086815237999,0.07462240252494812,0.0263235871090088
1746576351934956800,1.894956787109375,-0.03763151925802231,0.06513941164761781,0.044365302758757025
1746576351945034800,1.90503466796875,-0.05022036719620228,0.04460077374875545,0.05451404580213129
1746576351955113000,1.915113037109375,-0.03453706037402153,0.024708909320831297,0.03530378641322022
1746576351965191000,1.92519091796875,-0.06759060419201851,0.009710369892418384,0.014840908031153958
1746576351975270000,1.935269775390625,-0.013610592201352118,0.025685353137552738,0.01875336420057574
1746576351985347800,1.945347900390625,0.029451135411858557,0.01938099229633808,0.031071391274163033
1746576351995426000,1.955426025390625,0.0549509028494358,0.0287020706102252,0.024543042101478202
1746576352005504800,1.9655048828125,0.08548574184477328,0.04254471800178289,0.016980863218894228
1746576352015582700,1.975582763671875,0.0782698191165924,0.015124796156585216,0.011133137271110899
1746576352025660700,1.98566064453125,0.07628478277921676,0.024921675288677215,0.011508135462808423
1746576352035740000,1.995739990234375,0.03540565990209579,0.03945259720534086,0.03466823073932901
1746576352045817900,2.00581787109375,-0.0013157587736845017,0.03714519704580307,0.029477655809314454
1746576352055895800,2.015895751953125,-0.027709844702482223,0.04641045351922512,0.03601893981209723
1746576352065975000,2.02597509765625,-0.0765180070132017,0.0631748335763812,0.026796878593007566
1746576352076053000,2.036052978515625,-0.09156126236617565,0.05634644886106252,0.013231278594140894
1746576352086131000,2.046130859375,-0.08051613673865794,0.03182955498099327,0.02130607632411411
1746576352096209000,2.056208984375,-0.038357495445013046,0.009337444926798343,0.024940683666535186
1746576352106287900,2.066287841796875,0.0038888241320848465,0.03546323530822992,0.054063525555655356
1746576352116365800,2.07636572265625,0.025623101556301115,0.031086919920146464,0.060504463589657095
1746576352126443800,2.08644384765625,0.027697569742798803,0.01303980657607317,0.020107621503877453
1746576352136522800,2.096522705078125,0.05379121142029762,0.009459902262687683,-0.0021470219660550353
1746576352146601000,2.10660107421875,0.08001520147919654,0.01903378629386425,0.017956985091918613
1746576352156679000,2.116678955078125,0.09562953471839428,0.03196662536412477,0.028238181708811316
1746576352166758000,2.1267578125,0.06879471928477286,0.04581599475741386,0.04077810105490498
1746576352176835800,2.1368359375,0.020944003829360007,0.025222704061865806,0.04842490774733014
1746576352186914000,2.1469140625,-0.06889584157168865,0.020685645154118536,0.0265474544261815
1746576352196992800,2.15699267578125,-0.039893618971109386,0.012542086187005043,0.013150143074261723
1746576352207070700,2.16707080078125,0.005101707053184509,0.024664485657215116,0.03231603930670535
1746576352217148700,2.177148681640625,0.04411035988330841,0.055944590061903,0.05748831693914253
1746576352227227000,2.187226806640625,0.045595045483112336,0.04881546883434057,0.03753990458496846
1746576352237305900,2.197305908203125,0.00725099404156208,0.038869828881323336,0.01581597730811918
1746576352247383800,2.2073837890625,0.020436054307222364,0.05664192467629909,0.016195732731680616
1746576352257461800,2.217461669921875,0.02047989344894886,0.038292028993368143,0.04394950676579028
1746576352267541000,2.227541015625,0.015327332991361617,0.011745382851362228,0.01633963813933078
1746576352277619000,2.237618896484375,0.028958383458852766,0.03575198912173509,0.016626548197265945
1746576352287697000,2.24769677734375,0.025821254476904868,0.029373686261475084,0.03725288150424603
1746576352297775900,2.25777587890625,0.033993455016613,0.0223603003680706,0.03048966412976151
1746576352307853800,2.267853759765625,0.008262801432609558,0.027352409566938875,0.01850377107039094
1746576352317931800,2.277931884765625,-0.011983867782354354,0.024229016849398613,0.006202288706228137
1746576352328011300,2.28801123046875,-0.024676760616898535,0.028634266071021555,0.034867128012026655
1746576352338089500,2.29808935546875,-0.005099953487515449,0.03784779235720634,0.025931843278487212
1746576352348167400,2.30816748046875,-0.021401099947094916,0.02860533223748207,0.038440228125290014
1746576352358245400,2.318245361328125,-0.021920155385136603,0.016516542775928972,0.04701733337119222
1746576352368324400,2.328324462890625,-0.013356325179338454,0.029093115754425525,0.05034169658750761
1746576352378402600,2.338402587890625,-0.021432664129137993,0.019914076259732245,0.018642753707751397
1746576352388480500,2.34848046875,0.016557751569151877,0.021528525719046593,0.011958336048875935
1746576352398559200,2.358559326171875,0.04708908343315124,0.028305180247128008,-0.0001114929838804528
1746576352408637200,2.36863720703125,0.06743044519424438,0.02820230439454317,0.020430062957853077
1746576352418715100,2.378715087890625,0.08300503094494342,0.041644846552610394,0.014832602568756556
1746576352428794400,2.38879443359375,0.05631634598374367,0.06295739143341779,0.030713259735587053
1746576352438872300,2.398872314453125,0.05206394923627376,0.040840252171456815,0.03490830483920872
1746576352448950300,2.4089501953125,0.031148586979508397,0.02222702937722206,0.02305375795837026
1746576352459029500,2.419029541015625,0.010276479342579841,0.027908289884030817,0.02112347944895737
1746576352469107500,2.429107421875,-0.006538461858034134,0.04165887507796287,0.012335733976925257
1746576352479185400,2.439185302734375,-0.007202478724718094,0.027626842594146727,0.020979826344700993
1746576352489264000,2.44926416015625,0.012044658058881759,0.02494534842520952,0.04332305456367321
1746576352499342300,2.45934228515625,-0.023831541964411736,0.003085691055655479,0.04808887159284204
1746576352509420300,2.469420166015625,-0.042134091374278065,0.004031155212223529,0.000008920808683615177
1746576352519498200,2.479498291015625,-0.042059272572398186,-0.005531915163993835,0.007905312639783368
1746576352529577200,2.4895771484375,-0.014923428365588187,0.023916882160305974,0.015833514106454095
1746576352539655400,2.499655517578125,0.0284428351521492,0.050400399938225746,0.03007610804294236
1746576352549733400,2.5097333984375,0.03196691762506962,0.032496786718070506,0.03252875275891274
1746576352559812400,2.519812255859375,0.06462941629886627,0.018340251071751117,0.0403203564831987
1746576352569890300,2.529890380859375,0.07465572027266025,0.027832886560261248,0.03366326408102177
1746576352579968500,2.539968505859375,0.046287703922390934,0.029529169084131716,0.01648732581459917
1746576352590047200,2.550047119140625,0.032949498921632764,0.01402180335074663,-0.011969296975951874
1746576352600125400,2.56012548828125,0.0076005381315946575,0.037355332665145395,0.004502294696687022
1746576352610203400,2.570203369140625,-0.002433364626765251,0.04668868593871593,-0.012590825266134925
1746576352620282400,2.580282470703125,-0.050666941919922825,0.039380993273854255,-0.006413697258982574
1746576352630360300,2.5903603515625,-0.06830664350688458,0.030215397782623766,0.011389711556286783
1746576352640438300,2.600438232421875,-0.0602624532610178,0.031546938647329804,0.04242865844063926
1746576352650517500,2.610517578125,-0.03474515016674995,0.011941197684407233,0.052497691877884785
1746576352660595500,2.620595458984375,0.004257657444477081,-0.007527180634438991,0.031672145062731576
1746576352670673400,2.63067333984375,0.054773208194971085,0.0002297171026468277,0.01132413550678757
1746576352680751400,2.64075146484375,0.0750502725481987,0.00029576807618141173,0.02278058987306431
1746576352690830600,2.65083056640625,0.11986381226480007,0.012978724038600922,0.03735135517634917
1746576352700908500,2.660908447265625,0.14412147068679332,0.02345744795501232,0.04485299037757795
1746576352710986500,2.670986572265625,0.11851999644041061,0.02254413250237703,0.017679404551332118
1746576352721065200,2.681065185546875,0.061522097933292386,0.018071371002495288,0.01565607518031611
1746576352731143200,2.69114306640625,-0.024202713364362714,0.03947393225431442,0.026706229751044884
1746576352741221400,2.701221435546875,-0.08509820383191108,0.03629267186969518,0.03454874396194937
1746576352751300400,2.71130029296875,-0.12602467298209666,0.03388590298891067,0.01849160456691752
1746576352761378300,2.72137841796875,-0.1142588318645954,0.0278676656126976,0.005338917909120209
1746576352771456300,2.731456298828125,-0.08993746055662631,0.054881929266452786,-0.0065237437795149155
1746576352781535500,2.741535400390625,-0.042733226311206816,0.04349368928968906,0.018932231323752782
1746576352791613400,2.751613525390625,0.032167408633232114,0.026262860764563082,0.02233816160149872
1746576352801691400,2.76169140625,0.06094517482817172,0.010096738861501217,0.029997985322412567
1746576352811770400,2.771770263671875,0.12323825713396072,-0.006896189254522323,0.04123911986250896
1746576352821848300,2.781848388671875,0.15584990240335464,0.0035989012748003004,0.042518195321038364
1746576352831926300,2.79192626953125,0.11736965736150741,0.026557752057909965,0.03331905375323258
1746576352842005200,2.802005126953125,0.08049275586307049,0.005981412497162819,0.019521894037793388
1746576352852083500,2.81208349609375,0.023787118300795555,0.026542846749722956,0.020712930453266016
1746576352862161400,2.822161376953125,-0.017111878320574758,0.03124094143807888,0.029726531986868938
1746576352872239400,2.8322392578125,-0.06682780312597751,0.022230244247615338,0.03361346555596683
1746576352882318300,2.842318359375,-0.07659107224941253,0.037545594540238376,0.020351150219456757
1746576352892396500,2.852396484375,-0.04640869995355606,0.04503215090334415,0.004124602224404225
1746576352902474500,2.862474609375,-0.006368365988135337,0.03343231400251388,0.02711508911314886
1746576352912553200,2.87255322265625,0.017619243320822715,0.05314034629613161,0.02378978289862862
1746576352922631200,2.882631103515625,-0.001222235271334648,0.03877513633519411,0.01258467522820574
1746576352932709400,2.89270947265625,0.0022539164066314697,0.027083237236738205,0.006822273493296234
1746576352942788400,2.902788330078125,0.016480010157823563,0.023971534956991673,-0.006184361465537222
1746576352952866300,2.9128662109375,0.059360535985231395,0.022467852395772932,0.012409652021439978
1746576352962944300,2.9229443359375,0.021847674670815467,0.01937105542421341,0.029098193788342178
1746576352973023500,2.9330234375,0.01055588080585003,0.030296354064345356,-0.0016101134942029603
1746576352983101400,2.943101318359375,0.03559446047246456,0.014504326170682907,0.01753774704133975
1746576352993179400,2.953179443359375,0.011782207730412483,0.02385229249149561,0.032129588240338486
1746576353003258400,2.96325830078125,0.011141571739315986,0.02472059975862503,0.0406409165073419
1746576353013336300,2.97333642578125,0.011437339815497398,0.02266191366314888,0.049786113097937776
1746576353023414300,2.983414306640625,-0.009728197810053825,0.040193186439573765,0.03955743668614886
1746576353033493200,2.9934931640625,-0.00599310293495655,0.023175416143238543,0.01893074490285362
1746576353043571500,3.003571533203125,-0.005841127243638038,0.016759996142983437,0.004436672981415177
1746576353053649400,3.0136494140625,0.047346857586503026,0.012724164755642413,0.013554128756781574
1746576353063728400,3.023728271484375,0.04272387396097183,0.0307955357581377,0.009924038900918093
1746576353073806300,3.033806396484375,0.057013096076250075,0.030754034703969955,0.01148238453362137
1746576353083884300,3.04388427734375,0.04737374559342861,0.03739069623947144,0.014594810615864116
1746576353093962500,3.05396240234375,0.034147768795490266,0.051502223700284955,0.04076260665825102
1746576353104041200,3.064041259765625,-0.004430091401934623,0.04225771775394678,0.016253979424672434
1746576353114119200,3.074119140625,-0.033031331986188885,0.022375205676257608,-0.007350515743147116
1746576353124197000,3.084197021484375,-0.01906125882267952,0.030518180121481418,0.018300230730260953
1746576353134276400,3.0942763671875,-0.01886076781451702,0.02899579285979271,0.048622572044166736
1746576353144354300,3.104354248046875,-0.04195639671981335,0.026351708091795444,0.0463793779609492
1746576353154432300,3.114432373046875,-0.02238601933121681,-0.002526011346280575,0.02793532402142882
1746576353164511500,3.124511474609375,0.01497603533565998,-0.008324760752916336,0.030716855915181803
1746576353174589400,3.13458935546875,0.07175298456847667,0.01959931122213602,0.03499153070983011
1746576353184667400,3.14466748046875,0.11784896531105041,0.028264263714849948,0.022065356559085193
1746576353194746400,3.154746337890625,0.11782909156680106,0.031190380294620988,0.012932046769105364
1746576353204824300,3.16482421875,0.11720131505727767,0.017268822447955606,-0.003844827443442773
1746576353214902500,3.174902587890625,0.08599661397635937,0.022374913415312767,-0.009686452444002498
1746576353224981200,3.184981201171875,0.026663550519943235,0.02998597294092178,-0.004882344664481934
1746576353235059200,3.19505908203125,-0.024678514182567595,0.017289280714094638,0.0028297172753897026
1746576353245137400,3.205137451171875,-0.1044511390775442,0.01918751555085182,0.023624004727532153
1746576353255216400,3.21521630859375,-0.12509294508993624,0.01935088941901922,0.022294228844938334
1746576353265294300,3.22529443359375,-0.12438275099396705,0.03831716343462467,0.017482651286659528
1746576353275372300,3.235372314453125,-0.13512275619506836,0.030187632992863655,0.02166613495829515
1746576353285450500,3.245450439453125,-0.07901099287271499,0.03257452812939882,0.017791209204110783
1746576353295529500,3.255529541015625,0.010891980892419814,0.045968262709677216,0.018892908526939572
1746576353305607400,3.265607421875,0.0640881490290165,0.03339519686251879,0.02443419316583313
1746576353315685400,3.275685302734375,0.1278700085878372,0.004332183985412121,-0.0018838307104248086
1746576353325764000,3.28576416015625,0.1440384685784578,0.0010784428864717482,0.010351734252588358
1746576353335842000,3.295842041015625,0.15705518653988837,0.003092413057386875,0.02387338551187422
1746576353345920000,3.305919921875,0.10115969631671905,0.015493921729922294,0.02310954326621722
1746576353355999000,3.3159990234375,0.023211364239454267,0.02272328846156597,0.021539024280174634
1746576353366077200,3.3260771484375,-0.03186696438193321,0.015067220750451088,0.030523454518220385
1746576353376155100,3.336155029296875,-0.09069324735999107,0.03205138103812933,0.03718005373005289
1746576353386234000,3.346234130859375,-0.09689794721901417,0.05270400070548057,0.029622555589163675
1746576353396312000,3.35631201171875,-0.07662438999712466,0.03323416108191013,-0.008957599313335958
1746576353406390300,3.366390380859375,-0.025793197426199913,0.01078676695227623,0.014300412512861658
1746576353416469000,3.376468994140625,0.02571779410243034,0.007163315758109092,0.018952376779349286
1746576353426547000,3.386546875,0.06352700801491737,0.031921617178618904,0.018775474426039725
1746576353436625000,3.396625,0.11805588605999946,0.03049801411628723,0.018562762115476653
1746576353446704000,3.4067041015625,0.15309738882482052,0.031283611536026,0.04342851053241174
1746576353456782000,3.416781982421875,0.10954232473671435,0.021561551205813885,0.0376047522653942
1746576353466860000,3.426860107421875,0.058501873329281806,-0.006194470725953578,0.03623239304982125
1746576353476939300,3.436939208984375,0.00920855785012245,0.015204291133582591,0.012205698406067677
1746576353487017200,3.447017333984375,-0.03146013714671135,0.036626433868706225,0.007895859824848594
1746576353497095200,3.45709521484375,-0.06764204211831093,0.04901449853777885,0.010732371025561587
1746576353507173000,3.467173095703125,-0.08205226026475429,0.033821313320100306,0.010903723845852073
1746576353517252000,3.477252197265625,-0.09610475101470947,0.04088233774751424,0.023329574658488852
1746576353527330000,3.487330078125,-0.06319149245023727,0.02829202850461006,0.026824508668738416
1746576353537408000,3.497407958984375,-0.027105449068546294,0.030358313384652134,0.02202479621983366
1746576353547487000,3.507487060546875,0.03634089492559433,0.026936814503371712,0.039336670074937866
1746576353557565200,3.517565185546875,0.09441898988485335,0.017433073098957537,0.014013775307917966
1746576353567643100,3.52764306640625,0.11328560291826724,0.023119886563718318,0.020142521570611277
1746576353577722000,3.53772216796875,0.10368366183638572,0.024913199721276758,0.013119629204989177
1746576353587800000,3.547800048828125,0.0873544583261013,0.012571020020544528,-0.01876098125145072
1746576353597878300,3.557878173828125,0.043534021300077434,0.030484277851879595,0.005558007444831309
1746576353607957200,3.567957275390625,-0.010243161594867706,0.046777825526893135,0.029244214662909506
1746576353618035200,3.57803515625,-0.03779927704036236,0.031031390340626238,0.030780979793111327
1746576353628113200,3.588113037109375,-0.055606736409664154,0.01304798988252878,0.02265335818064632
1746576353638192000,3.598192138671875,-0.04576923300623893,0.0049044309154152865,0.03393444570521824
1746576353648270000,3.60827001953125,-0.03841945476531982,0.024198329450190067,0.04515828433393035
1746576353658348000,3.61834814453125,-0.01047346321940422,0.05321574961990118,0.030772511075576766
1746576353668427000,3.628427001953125,0.011192425143718718,0.05052811797112226,0.0006360134732618462
1746576353678505200,3.638505126953125,0.03004091799855232,0.033417993216216565,0.010701635677291777
1746576353688583200,3.648583251953125,0.05411795915663242,0.01821633243113756,0.0138161852179619
1746576353698661000,3.6586611328125,0.04228665158748626,0.004022387383878231,0.026867167350242378
1746576353708740000,3.668739990234375,0.05675181479156017,0.012663374479115008,0.01695096812084084
1746576353718818300,3.678818359375,0.03062953154146671,0.017460545627772807,0.003911958412500098
1746576353728896300,3.688896240234375,0.019792495706677436,0.01544657545685768,0.01611447163092671
1746576353738975000,3.69897509765625,0.006940612918138503,0.01307896954268217,0.0412953663946595
1746576353749053000,3.709052978515625,0.010856325057148933,0.03807517137229442,0.0349170133020496
1746576353759131100,3.719131103515625,0.0014753332495689392,0.03566986379623413,0.011324641255219467
1746576353769210000,3.729210205078125,0.02019756937623024,0.00791764125674963,0.013446217111119766
1746576353779288000,3.7392880859375,0.019253566524386406,0.03103489747196436,0.03755661825775169
1746576353789366000,3.749365966796875,-0.003359247300028801,0.03807867850363254,0.04465436709951609
1746576353799445200,3.7594453125,0.010378770673274994,0.02180178970247507,0.01309326064622728
1746576353809523200,3.769523193359375,0.05256839162707329,0.015055238051712511,-0.013538930046005407
1746576353819601200,3.77960107421875,0.06396481491029263,0.02544862177222967,0.004719652357971063
1746576353829680000,3.78968017578125,0.02473229019641876,0.03036035921126604,0.05593039713976904
1746576353839758000,3.799758056640625,-0.02463701312839985,0.046589317217469214,0.06931543695693836
1746576353849836000,3.8098359375,-0.062606386038661,0.0411176078081131,0.03548381687195506
1746576353859915000,3.8199150390625,-0.057599371531605714,0.01543576180189848,0.010718328800477319
1746576353869993200,3.8299931640625,-0.03014847002625465,0.010316226831078528,-0.006040220879158005
1746576353880071200,3.8400712890625,-0.0017670096725225448,0.016227496701478956,0.019688414277695118
1746576353890149000,3.850149169921875,0.04278524875938892,0.02436024201363325,0.0028634482983441556
1746576353900228000,3.86022802734375,0.10116203440427779,0.007496785496175289,-0.0007724730766844003
1746576353910306300,3.870306396484375,0.10797288346290587,-0.004912029699981212,-0.003290238326071994
1746576353920384300,3.88038427734375,0.10228840808570384,0.018790917448699474,0.014252511400659567
1746576353930463000,3.890462890625,0.08352116377353667,0.051525604575872415,0.02995001571155153
1746576353940541000,3.900541015625,0.03469897293746471,0.03420154480934143,0.025968848537339363
1746576353950619100,3.910619140625,-0.016761749708652494,0.039082594849169254,0.04319755588732659
1746576353960698000,3.920697998046875,-0.060059039643406864,0.02651128256767988,0.007149632009339984
1746576353970776000,3.930776123046875,-0.09173486536741256,0.029221418309211728,0.012261132087465374
1746576353980854000,3.94085400390625,-0.09061199881732464,0.024803601866960526,0.024948197969421743
1746576353990933200,3.950933349609375,-0.030502105769515037,0.026696283745765683,0.02808998486017808
1746576354001011200,3.96101123046875,-0.010024550408124923,0.043564124177396295,0.03775412729096133
1746576354011089200,3.971089111328125,0.0040343700826168056,0.03570551963150501,0.020611312692717182
1746576354021167900,3.98116796875,0.006370704075694083,0.0038350481182336804,-0.03304071173588745
1746576354031246000,3.99124609375,0.02727379137277603,-0.010735036765038966,-0.021677400704403407
1746576354041324000,4.001323974609375,0.05243979681134223,0.013411562497913837,0.03444787512007169
1746576354051403000,4.011403076171875,0.06422200454175472,0.04991466224789619,0.04442718901382759
1746576354061481000,4.02148095703125,0.10127133999764919,0.04328413819223642,0.037672264543652995
1746576354071559200,4.03155908203125,0.0885527281999588,0.03047843263298273,0.022124831661360804
1746576354081638100,4.04163818359375,0.037309447696805,0.03153144881725311,0.0016650676849880254
1746576354091716000,4.051716064453125,0.006933014133572578,0.018817513194680214,0.007335065870621474
1746576354101794000,4.0617939453125,0.011837737309932707,0.00336363121420145,0.01645809172860463
1746576354111873000,4.071873046875,-0.03305003668665886,0.028737141923606394,-0.012217501866648672
1746576354121951000,4.081950927734375,-0.04503565803468227,0.03445785765796899,-0.008349460227688541
1746576354132029200,4.092029296875,-0.04249240329265594,0.02942804679721594,0.027557585883373394
1746576354142107100,4.102107177734375,-0.017839608073234557,0.021516250759363174,0.05270137035697698
1746576354152186000,4.11218603515625,0.029160628032684325,0.013490180692076682,0.06159588468871079
1746576354162264000,4.12226416015625,0.03671031275987625,0.04482172302305698,0.057821325452905144
1746576354172342000,4.132342041015625,0.05675590644478798,0.041242110970616336,0.032742203713348135
1746576354182421200,4.142421142578125,0.03985270243883133,0.01848375119566917,0.04035317190741189
1746576354192499200,4.152499267578125,0.030464696368575093,-0.0018318916022777557,-0.01323271820762311
1746576354202577200,4.1625771484375,0.01164250699877739,0.015098200410604477,-0.009166516798193334
1746576354212656000,4.17265625,0.00961246247589588,0.04230944794118404,0.030950370126822963
1746576354222734300,4.182734375,0.041457799547910686,0.036356969277560706,0.03635526137766428
1746576354232812300,4.192812255859375,0.04688917694687843,0.037008126662671566,0.011474911329930181
1746576354242891000,4.20289111328125,0.02253507241308689,0.024779344208538532,0.013190533308510203
1746576354252969000,4.212968994140625,-0.027802783682942388,0.03879764042794704,0.009179807821317809
1746576354263047200,4.223047119140625,-0.032573066824674604,0.008558277247846127,0.01907265699952841
1746576354273126100,4.233126220703125,-0.03216331698000431,-0.0005766308441758156,0.029993475827365182
1746576354283204000,4.2432041015625,-0.00021919570863246916,0.012369944490492344,0.025577084157220088
1746576354293282000,4.253281982421875,0.04170972848236561,0.01834580402970314,-0.01117122823370737
1746576354303361300,4.263361328125,0.08509411217868328,0.024831366656720637,-0.0004389416898251511
1746576354313439200,4.273439208984375,0.08819032462835312,0.03432955510318279,-0.0027158085721370297
1746576354323517200,4.28351708984375,0.04578033892214298,0.03453209193795919,0.03679780381366145
1746576354333596000,4.293595947265625,0.013545710271596907,0.030962416757643222,0.021491897202818654
1746576354343675000,4.3036748046875,0.0023076924204826353,0.005919160915911197,0.023580183852114713
1746576354353753000,4.313753173828125,-0.013970657685399054,0.015666063426434992,-0.003190202884544851
1746576354363831000,4.3238310546875,-0.011941197684407233,0.023711130455136297,0.01574857919429196
1746576354373910000,4.333909912109375,0.004439443752169609,0.0319675021469593,0.04153348143289331
1746576354383988000,4.343988037109375,-0.007566051340103149,0.013818097472190856,0.011501945467328186
1746576354394066200,4.354066162109375,-0.0025157822132110593,0.01063683708757162,-0.007362022376206005
1746576354404145000,4.364144775390625,-0.006758826610445976,0.03666764266192913,0.020581486093322745
1746576354414222800,4.374222900390625,0.025708441752195357,0.04044628441780805,0.04383237862556707
1746576354424300800,4.38430078125,0.027722704184055327,0.024791619168221948,0.02796969208191149
1746576354434380000,4.394380126953125,0.013691256222128868,0.011427987465262412,0.007559075893333647
1746576354444458000,4.4044580078125,0.01684475181698799,0.025646190170943734,0.01308772367129568
1746576354454536000,4.414535888671875,0.03505202415883541,0.036674656924605364,0.005574983695807168
1746576354464615000,4.424614990234375,0.04819733693599701,0.0263709973141551,0.0012773458673909772
1746576354474693000,4.434693115234375,0.04309738344848156,0.022600538864731786,0.002707250806345837
1746576354484771000,4.44477099609375,0.01632277376949787,-0.0016015899777412413,-0.007198316289542708
1746576354494850000,4.45485009765625,0.033895839861035344,-0.008835925145447253,0.029681037460884543
1746576354504928000,4.464927978515625,0.03564414483308792,0.03191051126271486,0.07798645386425777
1746576354515006000,4.475005859375,0.04212356998026371,0.03411912722289562,0.05188718616357073
1746576354525085000,4.4850849609375,0.04529752384126186,-0.0016796236500144005,0.027597054810659025
1746576354535163000,4.495162841796875,0.05692191066145896,0.019375439338386057,0.01074900135830976
1746576354545240800,4.50524072265625,0.02653261761665344,0.026440555419027803,0.013966316012066089
1746576354555319000,4.515319091796875,0.015264204627275466,0.04494856427311897,0.03813760105005931
1746576354565398000,4.52539794921875,-0.0632248101979494,0.054282794329524035,0.03076547398001421
1746576354575476000,4.53547607421875,-0.08724223012328147,0.0023459786042571065,-0.015895554483507292
1746576354585554000,4.545553955078125,-0.07069207733869552,0.007803951749205589,-0.021575974740099625
1746576354595633200,4.555633056640625,-0.03504091824293137,0.041239188361167904,0.026304270487185567
1746576354605711000,4.565711181640625,0.008781856870651245,0.056665305551886556,0.02979769981022691
1746576354615789000,4.5757890625,0.035790859827399255,0.02983575081527233,0.020058023908222092
1746576354625868000,4.585867919921875,0.07120879468917846,0.02329232052117586,0.019822500402585135
1746576354635946000,4.595946044921875,0.09071253658235072,-0.002647007377445698,0.00035304437150480224
1746576354646024000,4.60602392578125,0.08901800762414931,-0.00005406827479600906,-0.002559201229829341
1746576354656103000,4.61610302734375,0.07764145808517932,-0.03278378696590662,0.04034117550894152
1746576354666181000,4.62618115234375,0.0537573091506958,0.012910334977507591,0.03435494527276605
1746576354676259000,4.636259033203125,0.010648819786310196,0.03721241706311702,0.04065995456795208
1746576354686338000,4.646338134765625,-0.017419336834549902,0.05613689776360988,0.02018954818326747
1746576354696416000,4.656416015625,-0.04615034127831459,0.025523440574109553,0.03672854253631085
1746576354706494200,4.666494140625,-0.045474633973836893,0.019366671510040758,0.031804963962431064
1746576354716573000,4.676572998046875,-0.03182721689343452,0.02863748094141483,0.053662137113953935
1746576354726651000,4.68665087890625,0.008005027279257775,0.026419512630999085,-0.012012322125281206
1746576354736728800,4.696728759765625,0.051395840716361996,0.012720657624304294,-0.013203608560858992
1746576354746808000,4.70680810546875,0.04215338059663772,0.022848668406903742,-0.0008722858975699637
1746576354756886000,4.716885986328125,0.06547171234190463,0.0004293313279747963,0.01815685504557332
1746576354766964000,4.7269638671875,0.036675241446495054,0.011437339815497398,-0.007066991802252596
1746576354777042000,4.7370419921875,0.027612229546904562,0.0395467052295804,0.015256298740388592
1746576354787121200,4.74712109375,-0.003039513826370239,0.05969634381085634,0.03657874053576961
1746576354797199000,4.75719921875,-0.021148586490750312,0.03833616039603949,0.04028845437443815
1746576354807277000,4.767277099609375,-0.024849194574356078,0.0029918752923607825,0.017194552776991622
1746576354817355800,4.777355712890625,0.0024894787281751632,-0.005527531249821186,0.0013649739184940699
1746576354827434000,4.78743408203125,0.014304419684410095,-0.006351122592389583,0.014929490496905054
1746576354837512000,4.797511962890625,0.031852935856580736,-0.00027852468043565746,0.009621250853838864
1746576354847591000,4.8075908203125,0.032194296640157695,0.0035471710875630376,0.009163551947905215
1746576354857668900,4.8176689453125,0.04229074324071407,0.05130377851873636,0.009403664863691664
1746576354867747000,4.8277470703125,0.05962649344503879,0.042972295764088626,0.03611442465938162
1746576354877826000,4.837825927734375,0.022794015610218047,0.015906886444985866,-0.0037343573728692717
1746576354887904000,4.847904052734375,-0.01501344473659992,0.003972703023254871,-0.020816482159285804
1746576354897982000,4.85798193359375,-0.004263502663373947,0.016594868709146976,0.030130664941505528
1746576354908061000,4.86806103515625,-0.0018809914410114288,0.027872341787815093,0.04270238821494859
1746576354918139000,4.878138916015625,0.01760112314224243,0.0296627323359251,0.029799199930857865
1746576354928216800,4.888216796875,0.052859483528137206,0.02394932312518358,0.0048506503349868575
1746576354938296000,4.898296142578125,0.041003041517734526,0.0015218027397990227,0.007664201926864916
1746576354948374000,4.9083740234375,0.04558452408909797,0.017749591702222824,0.015602802631608209
1746576354958452000,4.918451904296875,0.028762568625807762,0.023783026647567748,0.027283801310136913
1746576354968531000,4.928531005859375,0.020126257705688474,-0.009319324748218059,0.017100959634338504
1746576354978609200,4.938609130859375,-0.004989478850364684,0.007598492304980754,0.009119324647111352
1746576354988687000,4.94868701171875,-0.007554360902309418,0.038411563719809055,-0.0043813283482741095
1746576354998765000,4.95876513671875,-0.004369301125407218,0.037569559937715526,0.008379474056750769
1746576355008843800,4.96884375,-0.006541968989372253,0.0243929752394557,0.017421849593688966
1746576355018922000,4.978921875,-0.003950783452391624,0.02249240231513977,0.02235629091323353
1746576355029000000,4.989,0.003829787421226501,0.007377250769734382,0.02790487180094933
1746576355039079000,4.999078857421875,0.0026800328642129895,0.02211626247912645,0.010068396399717312
1746576355049156900,5.009156982421875,0.01846387745141983,0.025188801792263984,0.00026357028154307046
1746576355059235000,5.019235107421875,0.02481120065152645,0.027505846562981603,0.0174655688627623
1746576355069314000,5.02931396484375,0.027409984973073002,0.014369301614165305,0.026095466025115456
1746576355079392000,5.03939208984375,0.038899931758642196,0.0160556472659111,0.01329796660520369
1746576355089470000,5.049469970703125,0.05815642089247703,0.016099486407637593,0.021611205883685033
1746576355099549000,5.059548828125,0.0675865125387907,0.011183365054428577,0.03204283697206992
1746576355109627100,5.069627197265625,0.062195467150211334,0.010262743078172206,0.02399867640895536
1746576355119705000,5.079705078125,0.03161445092558861,0.00942336964458227,0.011513679287605919
1746576355129783800,5.08978369140625,-0.013255202892422675,0.01996492966413498,0.002408129720808938
1746576355139862000,5.099862060546875,-0.018565584260225296,0.037628012126684186,0.02036557147045387
1746576355149940000,5.10993994140625,-0.020053776991367338,0.03216273245811462,0.017050816332700197
1746576355160019000,5.12001904296875,-0.02026537391543388,0.021195055980980395,0.003901115074788686
1746576355170097000,5.130096923828125,-0.005518471160531044,0.0029369302347302434,0.013067505150462965
1746576355180175000,5.140175048828125,0.012515782701969146,0.013569675669074058,0.0175754315785598
1746576355190254000,5.150254150390625,0.03972118501365184,0.01737286734431982,0.025443539171735755
1746576355200332000,5.16033203125,0.06371463954150676,0.02037058785557747,0.009644152238813694
1746576355210410000,5.170409912109375,0.05143149655163288,-0.0008253449082374572,-0.010773567260697017
1746576355220489000,5.180489013671875,0.06775836197435856,0.009156243140995501,0.010954593233275226
1746576355230567000,5.19056689453125,0.021702128720283508,0.03496493039727211,0.042808396739535966
1746576355240644900,5.200644775390625,-0.03205167329907417,0.047182899196445936,0.012778006984863895
1746576355250722800,5.210722900390625,-0.015358897173404693,0.02823182274997234,0.025150867234938777
1746576355260802000,5.220802001953125,-0.03887538183927536,0.022864742758870123,0.021394960183964574
1746576355270880000,5.2308798828125,-0.034220834031701085,0.010888766022026538,-0.017175577506818807
1746576355280958000,5.2409580078125,-0.0018494272589683531,0.005369418078660965,-0.019906153248180635
1746576355291037200,5.251037109375,0.010376432585716248,0.04644552483260631,0.01869569517960772
1746576355301115100,5.261115234375,0.0001017068088054657,0.039460195989906785,0.0484153636008501
1746576355311193000,5.271193115234375,0.012431611549854277,0.006864040550589561,0.023469380421401
1746576355321271800,5.281271728515625,0.04431494254469871,0.0044195700079202645,0.009137257596023846
1746576355331348500,5.291348388671875,0.060817749056220054,0.0187809805765748,0.020702582589187658
1746576355341426400,5.301426513671875,0.06984802772998809,0.035006723712384696,0.005984588551649358
1746576355351505200,5.311505126953125,0.06504793397188187,0.017343933510780334,0.01817398199359886
1746576355361583400,5.321583251953125,0.0545154340416193,0.014117664940655231,0.009874768957181368
1746576355371661300,5.331661376953125,0.04293079470992088,0.039783436594903465,0.001743297720083501
1746576355381740300,5.341740234375,0.028977088159322737,0.027683541217446327,0.021747853858419694
1746576355391818200,5.351818359375,0.006428571742773056,0.006719955904781818,0.022145052465482148
1746576355401896400,5.361896484375,-0.011202362015843391,0.026050679318606853,0.0012698623889009467
1746576355411975400,5.371975341796875,0.014070610928535461,0.03293663944005966,0.02065426820174325
1746576355422053400,5.382053466796875,0.023983517655730247,0.02686813318133354,0.03526363706592237
1746576355432131300,5.39213134765625,0.0324514862716198,0.03849485808908939,0.02094409516090527
1746576355442210600,5.40221044921875,0.001045125138759613,-0.001829261253774166,0.008092447551095392
1746576355452288500,5.41228857421875,-0.0061287120133638375,-0.011609189251065254,0.012743871819821652
1746576355462366500,5.422366455078125,0.006624971097707748,0.028715222352743146,0.009470670251874253
1746576355472445400,5.432445556640625,0.010052022936940193,0.03566343405544758,0.022784355016017797
1746576355482523400,5.4425234375,0.005665770676732063,0.012905658802390097,0.007525493284140247
1746576355492601300,5.452601318359375,0.008759060516953467,0.004069441395998001,0.0037436617740429935
1746576355502680300,5.462680419921875,0.01225333237349987,0.017333412116765975,0.031062109705875626
1746576355512758500,5.472758544921875,0.038842064091563225,0.013990823690593242,0.03857782366480678
1746576355522836500,5.48283642578125,0.06034896250069141,0.022459376828372478,0.03574329207533737
1746576355532914400,5.49291455078125,0.05876432365775108,0.016005086122453212,0.031684908646182154
1746576355542993400,5.502993408203125,0.05493979693353176,0.022680033841729164,0.003082526417612098
1746576355553071600,5.513071533203125,0.054206221961975096,-0.0027367314875125885,0.0022375657767406665
1746576355563149600,5.523149658203125,0.015242577317357063,-0.007672434324026108,0.030336761423258574
1746576355573228300,5.533228271484375,-0.019022095856070516,0.02185702702105045,0.05210084261398296
1746576355583306200,5.54330615234375,-0.028338790255784986,0.03687690149843693,0.03862734362864867
1746576355593384400,5.553384521484375,-0.03150923698544502,0.019496143108606336,0.021514597658393902
1746576355603463400,5.56346337890625,-0.047323476710915566,0.030889059260487555,-0.009012421073380392
1746576355613541400,5.573541259765625,-0.006285363879799843,0.009682312841713428,-0.009743226415826938
1746576355623619300,5.583619384765625,0.017159224593639374,0.017513737119734286,0.012366250129486434
1746576355633698600,5.593698486328125,0.03870879310071468,0.019547288773953914,0.005607300221454352
1746576355643776500,5.603776611328125,0.05926701248288154,0.032200434119999406,0.015289524014911147
1746576355653854500,5.6138544921875,0.0477314729899168,0.03043225540369749,0.01647021484959405
1746576355663933200,5.62393310546875,0.03847381530106067,0.020778876395523546,0.01295438418178819
1746576355674011400,5.634011474609375,0.012922025415301323,-0.0031231004565954205,-0.005555465002940036
1746576355684089300,5.64408935546875,-0.01968260559141636,-0.00390869787633419,0.010599692548112943
1746576355694168300,5.654168212890625,-0.020316227319836615,0.02612608264237642,0.035390578780684155
1746576355704246300,5.664246337890625,-0.007359130591154098,0.021084873604774474,0.032090870515012644
1746576355714324500,5.674324462890625,0.020156652843952176,0.03869301100969314,0.022442133432626722
1746576355724403500,5.684403564453125,0.026935937720537186,0.02593348267972469,0.021595967215357812
1746576355734481400,5.6944814453125,0.007412906605005264,-0.001864332567155361,0.008848937607358675
1746576355744559400,5.704559326171875,0.02020633720457554,0.015271218889951706,0.009873035941109993
1746576355754638300,5.714638427734375,0.03512333582937717,0.03671615797877312,-0.002276575763011351
1746576355764716300,5.72471630859375,0.05469780487120151,0.031003041028976438,-0.01421105372897582
1746576355774794200,5.734794189453125,0.08307692713737487,0.04144318650066852,0.0120666278620949
1746576355784873500,5.74487353515625,0.08998246874213219,0.030410335832834243,0.037542603432131
1746576355794951400,5.754951416015625,0.0664233139783144,0.00454699577987194,0.011615082419023382
1746576355805029400,5.765029296875,0.008251695516705513,-0.0037067455634474753,-0.004494644538126886
1746576355815107300,5.775107421875,-0.025129180559515952,0.02756312970817089,0.0020341590089956296
1746576355825186600,5.7851865234375,-0.045532501640915865,0.029354104778170582,0.02161739587916527
1746576355835264500,5.795264404296875,-0.01928337714076042,0.006414543217420578,0.03069478564726887
1746576355845342500,5.805342529296875,-0.010533084452152251,-0.008433774085342884,0.022945536927098872
1746576355855421200,5.815421142578125,0.015936989322304723,0.0017176175728440283,-0.0025560046257451174
1746576355865499400,5.82549951171875,0.07900573217570782,0.000754033237695694,0.03501167388213798
1746576355875577300,5.835577392578125,0.08364800502359866,0.03339987303763628,0.03249801056077704
1746576355885656300,5.84565625,0.07019055755734444,0.02242605908066034,0.011673772070009726
1746576355895734300,5.855734375,0.06257891350984573,0.011517711575329303,-0.0025740311894915063
1746576355905812500,5.8658125,0.04033259491026401,0.01203501344770193,0.014809035605145618
1746576355915891500,5.875891357421875,-0.017353870382905007,0.03377922774404287,0.03257349836622597
1746576355925969400,5.885969482421875,-0.053203182399272915,0.034955578047037125,0.0248022341770702
1746576355936047400,5.89604736328125,-0.04341887048780918,0.017651976546645163,0.01089615931061562
1746576355946126300,5.906126220703125,-0.04287058895528316,0.017374036388099194,0.005520217876334208
1746576355956204300,5.916204345703125,-0.01648176372349262,0.006456336532533169,0.00932976394384168
1746576355966282200,5.9262822265625,0.022395371681451795,0.013074877889454365,-0.005222780716163106
1746576355976361500,5.936361572265625,0.049210313370823856,0.018635142365097997,0.016565281855058855
1746576355986439400,5.946439453125,0.08287409804165363,0.0258612942263484,0.03436027675172081
1746576355996517400,5.956517333984375,0.08150631681978703,0.028273908326029776,0.04278408884876408
1746576356006596400,5.966596435546875,0.0672159256607294,0.009794541044533252,0.0065986653293832204
1746576356016674300,5.97667431640625,0.033034254595637316,0.01849398032873869,0.013448850884556303
1746576356026752500,5.98675244140625,0.020783844831585883,0.01683043103069067,0.013359046859387307
1746576356036831500,5.99683154296875,-0.000009936872124671935,0.013999006997048855,-0.011966788783390074
1746576356046909400,6.006909423828125,-0.01989946321249008,0.005679799202084541,-0.006183383076358586
1746576356056987400,6.0169873046875,-0.03266308319568634,0.0259483879879117,0.0004030598089797422
1746576356067066400,6.02706640625,-0.022373159849643706,0.024975743563473225,-0.005563762473827227
1746576356077144300,6.037144287109375,0.002836100208759308,0.00973755016028881,0.004440407299972139
1746576356087222300,6.04722216796875,0.023757892206311224,0.008329144667088985,0.0037536374620744024
1746576356097301500,6.057301513671875,0.01872866586744785,0.03534749997407198,0.02547398454234935
1746576356107379500,6.06737939453125,0.02603109783530235,0.03439648285955191,0.0325288943228079
1746576356117457400,6.07745751953125,0.020102292308211325,0.00991407577097416,0.025623430349864064
1746576356127536400,6.087536376953125,0.01808744535446167,0.02398468669950962,0.027255856140574904
1746576356137614600,6.097614501953125,0.025636545559763906,0.011899696630239485,0.025426284359546844
1746576356147692500,6.107692626953125,0.029595512318611142,0.011331249092519282,0.014701826070738024
1746576356157771300,6.117771240234375,0.04257540540099144,-0.00597089110314846,0.004724637918698135
1746576356167849200,6.12784912109375,0.02296761861145496,0.011335925267636776,-0.019410663632105567
1746576356177927400,6.137927490234375,-0.02148760918676853,0.01863280427753925,-0.008180943251878488
1746576356188006400,6.14800634765625,-0.03161328188180923,0.01882160484790802,0.021401698168716392
1746576356198084400,6.15808447265625,-0.04347206197977066,0.01267857204824686,0.015581711894518228
1746576356208162300,6.168162353515625,-0.03339315103590488,0.033032208769023415,0.04176238111821003
1746576356218241500,6.178241455078125,-0.011947627425193785,0.046398470820486544,0.03695472510815598
1746576356228319500,6.188319580078125,0.04697627070844173,0.023849077621102333,0.0119472598157241
1746576356238397400,6.1983974609375,0.07146481527686119,0.014179332000017164,-0.0033941062675672583
1746576356248475400,6.208475341796875,0.0988654478996992,0.008636895442008971,0.019291740827017928
1746576356258554400,6.218554443359375,0.10984393803179264,0.005792904187738895,0.013139615972025785
1746576356268632300,6.22863232421875,0.06788637226819992,0.01403232474476099,0.010343772425130009
1746576356278710300,6.238710205078125,0.007151040798425674,-0.0031868133425712584,0.008835379439464304
1746576356288789500,6.24878955078125,-0.014271101936697958,0.004372223734855652,0.004454657304321881
1746576356298867500,6.258867431640625,-0.017851298511028287,0.012064824064075946,0.03610503805981716
1746576356308945400,6.2689453125,-0.014604863935708999,0.022608429910242558,0.02956495963343186
1746576356319024400,6.2790244140625,-0.00774549956023693,0.02823006918430328,0.014742585056100505
1746576356329103000,6.28910302734375,0.0053916299104690545,0.026116438031196593,-0.0029777645686175675
1746576356339181300,6.299181396484375,0.038086861810088156,0.02915770542323589,0.014755161409883293
1746576356349260000,6.309260009765625,0.05384031125903129,0.02397884148061275,0.0025633294156752525
1746576356359338000,6.319337890625,0.06413900243341922,0.005271802923083305,0.000024465437687467782
1746576356369416000,6.329416015625,0.06612579233646393,-0.020049100816249846,-0.0019548010293161497
1746576356379495200,6.3394951171875,0.04455401199758052,-0.00847965905368328,0.003481629287393298
1746576356389573000,6.349572998046875,0.013753215542435646,-0.003002688947319984,0.014748288711102214
1746576356399651000,6.359651123046875,-0.02862228337228298,0.007974632140994071,-0.010656313539599067
1746576356409730300,6.369730224609375,-0.01607844361960888,0.030531039603054522,0.0124847916253726
1746576356419808300,6.379808349609375,-0.031467151409387585,0.04810352117270231,0.02627711990206735
1746576356429886200,6.38988623046875,-0.06612579233646393,0.03244622557461262,0.02392741497076349
1746576356439965000,6.39996484375,-0.024470424389839172,0.017151918070018292,0.009221844306669663
1746576356450043100,6.410043212890625,0.004784311667084693,0.027166239345073697,0.007850786565616726
1746576356460121000,6.42012109375,0.049991234615445135,0.020850772587954997,0.019601206351700238
1746576356470200000,6.430199951171875,0.10498013138771056,0.02411065116673708,0.016308850275422445
1746576356480278000,6.440278076171875,0.07173544891178607,0.030151977157592772,-0.0033495615896536033
1746576356490356200,6.450356201171875,0.07363689861893653,-0.0014162965387105942,0.003788523829076439
1746576356500435200,6.460435302734375,0.0537269140124321,-0.007210077509284019,0.028654936683003323
1746576356510513200,6.47051318359375,-0.00815291131734848,0.023367139323055744,0.015973775385448242
1746576356520591000,6.480591064453125,-0.029301497808098792,0.024729075326025484,0.0047592662740848024
1746576356530670000,6.490670166015625,-0.034224341163039206,0.021369243504107,0.029197114985017106
1746576356540748000,6.500748046875,-0.0454962612837553,0.03272913416922092,0.024567582887690512
1746576356550826000,6.510825927734375,-0.017462591454386712,0.040821255210042,0.02034190746707609
1746576356560905200,6.5209052734375,-0.0005231470912694931,0.030917408572137355,0.01500480248912936
1746576356570983200,6.530983154296875,0.004157704201340675,0.008894377334415912,-0.02258351923127193
1746576356581061000,6.54106103515625,0.03467500753998756,-0.0006581716477870941,-0.0004585505725932307
1746576356591140000,6.55114013671875,0.07906769149601459,0.013459201031923293,0.018468626691773533
1746576356601218000,6.561218017578125,0.08457330317497253,0.027175883956253526,0.009104681917116976
1746576356611296300,6.571296142578125,0.100111648568511,0.0017284312278032302,0.009804678846057504
1746576356621375000,6.581375,0.08029401842057704,0.015337269863486288,0.028865981051221023
1746576356631453000,6.591452880859375,0.05524608640372753,0.03847790695428848,0.0554605694046244
1746576356641531000,6.60153076171875,0.025996026521921158,0.01675327414125204,0.017879026768170297
1746576356651610000,6.611610107421875,-0.025551205363869664,0.005535422295331955,-0.011835154910490382
1746576356661688000,6.62168798828125,-0.04911503630280494,-0.005624854144454002,0.0032027164478902704
1746576356671766000,6.63176611328125,-0.08030512433648108,0.010980535958707332,0.02522087286438327
1746576356681845200,6.64184521484375,-0.073982935577631,0.012217092016339302,0.01972959110487718
1746576356691923200,6.651923095703125,-0.02831774746775627,0.025664602610468865,0.028719188425096215
1746576356702001200,6.662001220703125,0.013071663019061089,0.04663286409825086,0.029038645620830354
1746576356712079000,6.6720791015625,0.0628027853935957,0.03470248006880283,0.01938699962872779
1746576356722158000,6.682157958984375,0.12313596580326557,0.014798925203084946,-0.003721806135261431
1746576356732236000,6.692236083984375,0.14814999555051325,0.016031681868433952,0.008282825873908587
1746576356742314000,6.70231396484375,0.12695523183047772,0.011091010595858096,-0.0031283017880981787
1746576356752393000,6.71239306640625,0.09631634793877601,0.011630816560983658,-0.008241703845653682
1746576356762471200,6.72247119140625,0.054530047088861465,0.0038885318711400028,-0.00826027383209439
1746576356772549000,6.732549072265625,-0.02923836944401264,0.001717325311899185,-0.010542754179507027
1746576356782628000,6.742628173828125,-0.10194120208323001,0.027519875088334082,0.017333122139109765
1746576356792706000,6.7527060546875,-0.14480477677583695,0.00815291131734848,0.031357469073391986
1746576356802784300,6.7627841796875,-0.1249035599976778,0.021419512386620043,0.027825917963357642
1746576356812863200,6.77286328125,-0.07960603615641594,0.029036417131125924,0.028314057673327623
1746576356822941200,6.782941162109375,-0.026034020444750783,0.026140695689618586,0.025534774818876758
1746576356833019100,6.79301904296875,0.055123921328783035,0.01684475181698799,0.007813833822403103
1746576356843098000,6.80309814453125,0.10694237137138843,0.006312544147670269,-0.0019309794790227897
1746576356853176000,6.813176025390625,0.11757073289155959,-0.005304828409850597,-0.004253529258631169
1746576356863254000,6.82325390625,0.10423837310969829,0.007383388249576091,0.01921475975080393
1746576356873333200,6.833333251953125,0.07861117990016937,0.03742313720434904,0.022742299122712573
1746576356883411200,6.8434111328125,0.05685819777548313,0.03185556620508432,0.022426011131599078
1746576356893489200,6.8534892578125,0.024139000478386876,0.034279286220669745,0.007448610389337409
1746576356903568100,6.863568115234375,-0.02290858190059662,0.018514438594877718,0.007716246066289022
1746576356913646300,6.873646240234375,-0.05838613799512386,0.016355214734375477,0.0197255519672879
1746576356923724300,6.883724365234375,-0.09293196619749068,0.023376199412345883,0.029727356254064943
1746576356933803000,6.893802978515625,-0.06336392640769481,0.034409926863014695,0.019682557642355096
1746576356943881000,6.903880859375,-0.012194295662641524,0.01426145732551813,0.02036791640787851
1746576356953959000,6.913958984375,0.02643383341729641,-0.0037041152149438856,-0.010582300738606136
1746576356964038100,6.9240380859375,0.06687982557415961,0.011616203513741492,-0.003992316472600214
1746576356974116000,6.9341162109375,0.08284779455661773,0.02643763280957937,0.035659719144843983
1746576356984194000,6.944194091796875,0.11292319934666156,0.012373451621830463,0.025495490837970283
1746576356994273300,6.954273193359375,0.09437690430879592,0.014506956519186496,0.010490233974403235
1746576357004351200,6.964351318359375,0.0957458545744419,0.030763971576094624,0.03345895998084452
1746576357014429200,6.97442919921875,0.046910219734907145,0.03563537700474262,0.0074895269216154695
1746576357024508000,6.9845078125,-0.012649638214707375,0.02378419569134712,-0.003084926153963897
1746576357034586000,6.994586181640625,-0.029790158107876778,0.021712357853353022,0.021189222178526687
1746576357044664000,7.0046640625,-0.06340659650564193,0.027071839059889316,0.016511409943085163
1746576357054743000,7.014742919921875,-0.06319207697212696,0.012894845147430896,0.015745882630418054
1746576357064821000,7.024821044921875,-0.051499885612726205,0.01806347995698452,0.02208275065188063
1746576357074899200,7.034899169921875,-0.03271569016575813,0.012539748099446297,0.019232980394084005
1746576357084978200,7.044978271484375,0.004136661413311958,0.0011120528951287269,0.021561489557020832
1746576357095056100,7.05505615234375,0.05280512299239635,0.008966858048737049,0.06126369359227828
1746576357105134000,7.065134033203125,0.12018354573845863,0.021688392455875873,0.043872395542124284
1746576357115213000,7.075213134765625,0.15195406400859354,0.020238193647563456,0.0026650293746148233
1746576357125291000,7.085291015625,0.13931553170979022,0.005721300256252289,-0.0212347395373974
1746576357135369000,7.095368896484375,0.10145721795856952,0.015796119546890256,-0.00788914809791604
1746576357145448200,7.1054482421875,0.05141922159194946,0.016061492484807968,0.016209869713243095
1746576357155526100,7.115526123046875,-0.01783551642000675,0.019487375280261038,0.02380633674120763
1746576357165604000,7.12560400390625,-0.07566928122937679,-0.005528992554545403,-0.001836535811354406
1746576357175683000,7.13568310546875,-0.1167079785823822,0.017649638459086417,-0.01290350566121051
1746576357185761300,7.14576123046875,-0.11737667162418365,0.03848579799979925,0.012039637107180897
1746576357195839200,7.155839111328125,-0.06336041927635669,0.05259995580911636,0.023251712232863063
1746576357205918000,7.16591796875,-0.028481413596868514,0.055518473604321474,0.018289918257156385
1746576357215996000,7.175995849609375,0.03702653910219669,0.020350714111328123,0.01046486663770629
1746576357226074000,7.18607421875,0.09232873960733413,-0.008262801432609558,0.015170843238418455
1746576357236152000,7.196152099609375,0.13015198204517364,-0.0190773331746459,0.014699508532776961
1746576357246231000,7.20623095703125,0.14041092573106287,0.008958674742281436,0.014214022004196886
1746576357256309000,7.21630908203125,0.10877835462689399,0.00815291131734848,0.010117879830941092
1746576357266388200,7.22638818359375,0.07308569447696209,-0.013473521818220615,0.004381786147644743
1746576357276466200,7.236466064453125,-0.012184358790516853,-0.0008773673564195632,0.016455243326036723
1746576357286544100,7.246544189453125,-0.09602174890637397,0.027331366778910158,0.03766893322553951
1746576357296623000,7.256623046875,-0.10910802497267723,0.034031448939442634,0.0036523530616657807
1746576357306701000,7.266701171875,-0.07633388261795043,0.01900543698221445,0.005645374059386085
1746576357316779300,7.276779296875,-0.03593056055903435,0.04208791414499283,0.02444562102543423
1746576357326857200,7.286857177734375,0.006966331881284714,0.02906973487883806,0.006157442634215113
1746576357336936000,7.29693603515625,0.06805296100676059,0.010477554872632026,-0.0175119310384267
1746576357347014100,7.30701416015625,0.13675941748619078,0.015311550900340079,0.007508896059077233
1746576357357092000,7.317092041015625,0.128314245223999,0.039487083996832366,0.011851505540381184
1746576357367171000,7.327171142578125,0.1304986035257578,0.001757072800397873,-0.001743480383174028
1746576357377249000,7.3372490234375,0.10096212791800499,0.0037599370554089544,0.0043403421756927855
1746576357387327200,7.3473271484375,0.030686814686655996,0.02298866139948368,0.02554441258019069
1746576357397406200,7.35740625,-0.008305471530556678,-0.0004524199426174164,0.019744192735676187
1746576357407484200,7.367484130859375,-0.07384148128032685,-0.014427753803133964,-0.008125082595506683
1746576357417562000,7.37756201171875,-0.10976327401101589,0.0013873627051711082,-0.00037719471536111086
1746576357427641000,7.38764111328125,-0.1015975032120943,0.03855477158278227,0.0244499775401433
1746576357437719000,7.397718994140625,-0.0801999103963375,0.045484863106906415,0.04066208715953398
1746576357447797000,7.407796875,-0.01729483367204666,0.01913140144944191,0.027085757987387476
1746576357457876200,7.417876220703125,0.03726210142374038,0.019641396798193454,0.009037932257261126
1746576357467954200,7.4279541015625,0.10602817913591861,-0.007016893024742603,0.010667595268727745
1746576357478032100,7.4380322265625,0.16338555860519408,0.016109131018817426,0.0070191900131059805
1746576357488111000,7.448111083984375,0.18107552907466887,-0.007429565478861332,-0.00039580351770855486
1746576357498189300,7.458189208984375,0.15358078842759132,0.00895809022039175,-0.0043297568495967425
1746576357508267300,7.468267333984375,0.09878478387892245,0.011146540175378321,0.0014172989024198613
1746576357518346000,7.478345947265625,0.04357318426668644,0.023848493099212643,0.022285280636791138
1746576357528424000,7.488423828125,-0.05499766460061073,0.033688042329251766,0.020360593901237005
1746576357538502100,7.498502197265625,-0.13552373821139335,0.011773439902067183,0.011671221636608243
1746576357548581000,7.5085810546875,-0.1468500188678503,0.005318856935203075,0.03222587908850982
1746576357558659000,7.5186591796875,-0.1400222186744213,0.03217939133197069,0.03525416826796718
1746576357568737000,7.528737060546875,-0.07184533902704715,0.038677521179616446,0.01478767543999711
1746576357578816300,7.538816162109375,-0.010602058035135269,0.01928162357509136,-0.0005951163489371538
1746576357588894200,7.548894287109375,0.06142097564637661,0.03380553122907877,0.021016874986037146
1746576357598972200,7.55897216796875,0.1198141279041767,0.007407353647053241,0.020138781543832737
1746576357609051000,7.56905078125,0.1341015964537859,-0.012437456768751144,0.002557054938515648
1746576357619129000,7.579129150390625,0.11183423506617546,0.0009007482320070266,0.025620722369547
1746576357629207000,7.58920703125,0.10743979949951171,0.010585691422224043,0.026886623252672142
1746576357639286000,7.5992861328125,0.04430559019446373,0.018440496575832365,0.015581474432500544
1746576357649364000,7.609364013671875,-0.025146131694316863,0.021429156997799872,0.007898546113923658
1746576357659442200,7.619442138671875,-0.06451426548659801,0.016238602617383004,0.00932149843899533
1746576357669521200,7.629521240234375,-0.059191024637222284,0.02742050636708736,0.011738583217817358
1746576357679599000,7.63959912109375,-0.040869770526885986,0.0475768669500947,0.017923201553325635
1746576357689677000,7.649677001953125,-0.019734628039598464,0.043025779516994954,0.03533679591696709
1746576357699756000,7.659756103515625,-0.003996960681676864,0.023680735316872596,0.025233241438900586
1746576357709834000,7.669833984375,0.011459551647305487,-0.008758475995063781,0.019323795916116795
1746576357719912000,7.679911865234375,0.06493862837851047,-0.005648527280986308,0.0013370641399058512
1746576357729991200,7.6899912109375,0.08946165973842143,0.00011047463715076445,0.015052571170590816
1746576357740069000,7.700069091796875,0.0927875892907381,-0.010290215606987476,-0.012177242921496507
1746576357750147000,7.71014697265625,0.044350598379969595,0.0010980243697762489,-0.005119271250983002
1746576357760226000,7.72022607421875,0.01502396613061428,0.0290092368632555,0.016521178993495412
1746576357770304300,7.73030419921875,0.009119126001000405,0.014731705185770988,0.03907045688680373
1746576357780382200,7.74038232421875,-0.006438508614897727,0.03312719357609749,0.026344077341188675
1746576357790461200,7.750461181640625,-0.005697919380664825,0.038266310030221934,-0.00804351325078751
1746576357800539100,7.7605390625,0.0076256725728511806,0.02796089685410261,-0.004762435478705447
1746576357810617000,7.7706171875,0.0021925416082143783,0.027013971392810344,0.007489045147714204
1746576357820696000,7.780696044921875,0.03972176953554153,0.02513444125652313,0.02295105106914416
1746576357830774000,7.79077392578125,0.054611880153417586,0.008538988025486468,0.01667123443907476
1746576357840852000,7.80085205078125,0.036034605455398556,0.0000602057546377182,0.00898189236273174
1746576357850931200,7.81093115234375,0.023240005812048912,0.009921382294595242,-0.013133832401921971
1746576357861009200,7.821009033203125,0.009224924463033676,0.031471243062615395,0.031095226524188183
1746576357871087000,7.831087158203125,0.006688099461793899,0.008826280534267424,0.01922375819130102
1746576357881166300,7.841166259765625,0.032952421531081195,0.0061102995738387105,0.021545924378419293
1746576357891244300,7.851244384765625,0.012722703450918197,0.02604337279498577,-0.007139287570194574
1746576357901322200,7.861322265625,0.019816461104154585,-0.002707505393028259,-0.005797922856151126
1746576357911401000,7.87140087890625,0.03931903395354747,0.01768091038018465,-0.0072231493366998615
1746576357921479000,7.88147900390625,0.015029226827621459,0.03664192369878292,0.020621637723909222
1746576357931557000,7.89155712890625,-0.03241290782690048,0.026631694076955318,0.002844187617092393
1746576357941636000,7.901635986328125,-0.03049976768195629,0.019702771596610547,0.009564652695239055
1746576357951714000,7.911714111328125,-0.027870003700256347,0.01156184297800064,-0.0029793811369687316
1746576357961792000,7.9217919921875,0.015195815566182136,0.04333177672624588,0.01922580173462629
1746576357971871200,7.931871337890625,0.034465164181590076,0.03796849612742662,0.03395949566479539
1746576357981949200,7.94194921875,0.05348842908143997,0.021412790384888646,0.02001240380136296
1746576357992027100,7.952027099609375,0.07092004087567329,0.00395575188845396,0.01405297024056781
1746576358002106000,7.962106201171875,0.0896200651705265,0.00890489872843027,0.02578303222521208
1746576358012184000,7.97218408203125,0.05513678081035614,0.006744505824148654,0.027960001804959028
1746576358022262000,7.982261962890625,0.05316226586699486,-0.01693009201288223,0.0036869060685276052
1746576358032341000,7.992341064453125,0.04956979433298111,-0.007032382854819297,0.007255735290405573
1746576358042419200,8.002419189453125,0.006765256351232528,0.01589841087758541,0.01913736768263625
1746576358052497200,8.0124970703125,-0.038221886366605756,0.02858224362283945,0.03735227762495633
1746576358062576000,8.022576171875,-0.07006839248239993,0.02287088023871183,0.027707175538071897
1746576358072654000,8.032654052734374,-0.04595978714227676,0.015631576634943484,0.0012858168682141694
1746576358082732300,8.042732177734376,-0.04256137687563896,0.01664046141654253,-0.002799512791726738
1746576358092811000,8.05281103515625,-0.0011515081226825714,0.02452098553329706,0.0018353074020706116
1746576358102889000,8.062888916015625,0.06049450845122337,0.014067688319087028,0.004581676650897134
1746576358112967000,8.072966796875,0.10551613796055316,0.03814882113039493,0.03145089439433068
1746576358123046100,8.083046142578125,0.12722294285595417,0.026159108129143713,0.026131649300060233
1746576358133124000,8.0931240234375,0.1149737021356821,0.0005476970106363296,-0.015099813554022692
1746576358143202000,8.1032021484375,0.08764379666149616,-0.017454992669820785,-0.01806571643819916
1746576358153281300,8.11328125,0.02539630706310272,0.02088496711850166,0.0378073758651386
1746576358163359200,8.123359130859376,-0.040305122381448746,0.015475509290397167,0.02528632333300775
1746576358173437200,8.133437255859375,-0.07517009953558444,0.014177578434348106,0.01407845288334065
1746576358183516000,8.143515869140625,-0.10151625466942786,0.01120586914718151,-0.0054100857324781825
1746576358193594000,8.153593994140625,-0.08163900328874588,0.013004443001747131,0.02153584365911083
1746576358203672000,8.163672119140625,-0.06699965256154537,0.036599253600835796,0.03811120851676678
1746576358213751000,8.1737509765625,-0.0177899237126112,0.027328736430406567,0.044272692571859805
1746576358223829000,8.1838291015625,0.042964112457633014,0.03132628163397312,0.040906714136945084
1746576358233907200,8.1939072265625,0.08164835563898086,0.014404665188491343,0.01872629695549258
1746576358243986200,8.203986083984375,0.11950666939020156,-0.00411824897378683,-0.005218917391798458
1746576358254064000,8.214064208984375,0.12980828317403792,0.00409866749048233,0.009806270298233721
1746576358264142000,8.22414208984375,0.12676935386955737,-0.0025429624810814856,-0.006244490730005782
1746576358274221000,8.234220947265625,0.0756640205323696,-0.031175182725489137,-0.02127016476051649
1746576358284299000,8.244299072265624,0.005103460618853569,-0.007314414666593074,-0.0119381449275068
1746576358294377200,8.254377197265624,-0.02564648243188858,0.0069838675379753105,0.0023392885685665533
1746576358304456000,8.2644560546875,-0.07461947991549968,0.04659603921920061,0.029784669082006436
1746576358314534100,8.2745341796875,-0.09673603465557098,0.06134440327882766,0.04996380775240249
1746576358324612000,8.284612060546875,-0.11484276923239231,0.045016661073267454,0.031425504224747415
1746576358334690600,8.294690673828125,-0.07513678178787231,0.0461760602414608,0.02585179574564099
1746576358344768500,8.3047685546875,-0.011068506503105162,0.03055325143486261,0.0011730372511898166
1746576358354846700,8.3148466796875,0.053338791477680204,0.017233458873629568,0.008027990313025656
1746576358364925700,8.32492578125,0.07854980510175227,-0.012180559398233889,0.02075632207042072
1746576358375003600,8.335003662109376,0.11311959870159626,-0.01864507923722267,0.01595792707905639
1746576358385081600,8.34508154296875,0.09151742322444915,-0.0072702832639217375,0.023712030070857145
1746576358395160600,8.35516064453125,0.12501812628805636,0.0000713116705417633,0.03678774364395067
1746576358405238500,8.365238525390625,0.10447861160635948,0.004222293870151043,0.02191214332532836
1746576358415316500,8.37531640625,0.062033554586768146,0.01079933417290449,0.007971551984630058
1746576358425395500,8.3853955078125,0.008683657193183899,0.030947803710401057,0.013812480582157149
1746576358435473700,8.3954736328125,-0.04590425756275653,0.06633271308541297,0.033289466899144464
1746576358445551600,8.405551513671876,-0.11561609169244766,0.060088557998836035,0.027225155041634568
1746576358455630600,8.415630615234376,-0.10768354512751102,0.042642625418305394,0.0076778183186193925
1746576358465708500,8.42570849609375,-0.08393968144655227,0.03614478783160448,0.02261503318096511
1746576358475786800,8.435786865234375,-0.028677812951803206,0.04225537966638803,0.02267114271579776
1746576358485865500,8.445865478515625,0.03134790894389152,0.042135552679002285,0.007457837158697657
1746576358495943400,8.455943359375,0.09435703056454658,0.018808160844445226,-0.017891386209533084
1746576358506021400,8.466021484375,0.1444189923286438,-0.0155459441781044,-0.008062020446790847
1746576358516100600,8.4761005859375,0.13736673572957514,-0.0185588622584939,-0.01236857451731339
1746576358526178600,8.486178466796876,0.11482289548814296,-0.0014727029010653495,0.030828291816846466
1746576358536256500,8.496256591796875,0.059385670426487916,-0.014855039304494857,0.052224674489628524
1746576358546335700,8.506335693359375,0.021042203506827353,-0.048966567742824554,0.043779337830655275
1746576358556413700,8.51641357421875,-0.0075169515013694755,-0.043374154563248155,0.010456308871915098
1746576358566491600,8.52649169921875,-0.050754620203375816,0.010014905796945094,0.017818311840167734
1746576358576570600,8.536570556640624,-0.05113982012867927,0.0403311336055398,0.017180146367370617
1746576358586648600,8.546648681640624,-0.0133195003002882,0.0737520494312048,0.029621927684789988
1746576358596726500,8.5567265625,0.013390811970829962,0.07930676094889641,0.03374894220363348
1746576358606805500,8.566805419921875,-0.014413725277781486,0.07224690556526184,0.0033732666922267522
1746576358616883500,8.576883544921875,0.0014817629903554916,0.05425006110370159,-0.01626316623648163
1746576358626961700,8.586961669921875,0.02847498385608196,0.02152998702377081,-0.009954588161164428
1746576358637040600,8.59704052734375,0.04163958585560321,0.007622165441513061,0.002209255280997604
1746576358647118600,8.60711865234375,0.08398585867583751,-0.011260521943867206,-0.00254764093948761
1746576358657196500,8.617196533203124,0.04311258101761341,-0.004725859478116035,-0.006566155865846667
1746576358667275800,8.62727587890625,0.041182489737868304,-0.006089256785809993,0.026749822297599164
1746576358677353700,8.637353759765626,0.009758008426427841,0.0020098785176873206,0.027937134669313673
1746576358687431700,8.647431640625,0.005747603741288185,-0.012370236751437187,0.015211627339955885
1746576358697510700,8.6575107421875,-0.02029109287858009,-0.00016249708533287046,0.012975020544440484
1746576358707588600,8.667588623046875,-0.02019406224489212,0.017462006932497023,0.021575136773171834
1746576358717666600,8.67766650390625,-0.061117024263739585,0.05330138207674026,0.005831446099840105
1746576358727745500,8.68774560546875,-0.023808745610713958,0.05291121371537447,0.030910526740201748
1746576358737823500,8.697823486328126,0.002087327668070793,0.031210254038870334,0.03176899988319492
1746576358747901700,8.707901611328126,0.04797288053035736,0.019040508295595646,0.026327589713979978
1746576358757980700,8.717980712890625,0.07320902859568595,0.033622575877606864,0.01352462181779556
1746576358768058600,8.72805859375,0.08510404905080794,0.01691577122658491,-0.006740225799608743
1746576358778136600,8.738136474609375,0.06847147867977618,-0.004464578193426132,-0.019117087513010483
1746576358788215600,8.748215576171875,0.0638701223641634,0.011514496704936027,-0.005459948189614806
1746576358798293500,8.75829345703125,0.025198738664388654,0.017478958067297934,0.0008238333711633459
1746576358808371500,8.768371337890626,-0.004872574472427368,0.023052958807349203,0.00014825621413765475
1746576358818450700,8.77845068359375,-0.050095279511809344,0.03416384314745664,-0.0030453110962058417
1746576358828528600,8.788528564453125,-0.05295417607426643,0.035160160708427424,0.003847405276307836
1746576358838606600,8.798606689453125,-0.05541092157661914,0.03079085958302021,0.025890212076867463
1746576358848685600,8.808685546875,-0.03112052992880344,0.013518530003726482,0.031418884971004445
1746576358858763800,8.818763671875,0.017015432208776472,-0.01087473749667406,0.026776874701306224
1746576358868841700,8.828841796875,0.08917758210003375,-0.008670213189721106,0.01851889785757521
1746576358878920400,8.83892041015625,0.12513269257843493,0.021112638394534585,0.02005561503871577
1746576358888998400,8.848998291015626,0.13419453543424606,0.03574175998866558,0.031838206361618354
1746576358899076600,8.85907666015625,0.11170271764099597,0.008750292688608169,0.007293632173468358
1746576358909155600,8.869155517578125,0.08771101667881011,0.006654489453136921,0.008729934887168929
1746576358919233500,8.879233642578125,0.03998772699534893,0.034169103844463825,0.021881860068207606
1746576358929311500,8.8893115234375,-0.03259527865648269,0.02692307823896408,0.004746518673654645
1746576358939390700,8.899390625,-0.06453823088407516,0.03173310886919498,0.005822952266130596
1746576358949468700,8.90946875,-0.05176116689741611,0.005716331820189952,0.01563531894501066
1746576358959546600,8.919546630859376,-0.05584814395010471,0.03353489759415388,0.02552498636051314
1746576358969625600,8.92962548828125,-0.03304243790209293,0.03604220423996448,0.04965611177640967
1746576358979703600,8.93970361328125,0.014157120168209076,0.016279519149661064,0.04540508500211872
1746576358989781500,8.949781494140625,0.05999824936687946,0.009378653720021248,0.023860297701437955
1746576358999860500,8.959860595703125,0.04898234983384609,0.012609890726208686,-0.0062581607790431005
1746576359009938700,8.969938720703125,0.1105424416899681,-0.018229191912710666,-0.01266257076151669
1746576359020016600,8.9800166015625,0.09341653484404086,0.0037529227927327155,0.03432385601475835
1746576359030095600,8.990095703125,0.053205520486831664,0.015431962409615516,0.03542238955789944
1746576359040173600,9.000173583984376,0.04697685523033142,0.01391162097454071,0.023097928176948335
1746576359050251800,9.010251708984375,-0.003238251268863678,0.009527999062836169,-0.002276726460061036
1746576359060330800,9.020330810546875,-0.06397533630430698,0.004981880065798759,-0.005690357128717005
1746576359070408700,9.03040869140625,-0.06668985596001148,0.02950052751153707,0.008844124434923287
1746576359080486700,9.040486572265625,-0.0670329703092575,0.04773848725259304,0.025804919830034485
1746576359090565600,9.050565673828125,-0.08552373576760292,0.045936990788578984,0.002311215534841176
1746576359100643600,9.0606435546875,-0.05246083959937095,0.02292494851350784,-0.015163671428826637
1746576359110721500,9.070721435546876,0.018327099329233168,0.004399696263670921,-0.0047428265959373675
1746576359120800500,9.080800537109376,0.06199789875149726,0.028142975422739983,0.023836097125231753
1746576359130878700,9.090878662109375,0.09603577743172645,0.01917845546156168,0.017429543134733102
1746576359140956700,9.100956787109375,0.11507891607582568,0.001950257284939289,-0.0018272451099124736
1746576359151035600,9.11103564453125,0.11462766517698764,-0.0037950083687901493,0.021975605049554724
1746576359161113600,9.121113525390625,0.08699497736394404,-0.0040378772139549254,0.01071103255165508
1746576359171191800,9.13119189453125,0.04271978230774402,0.01760463027358055,0.0036560999383102167
1746576359181270500,9.1412705078125,-0.006600421178340912,0.018948446097970008,-0.0049973927287617695
1746576359191348500,9.151348388671876,-0.01976736126542091,0.018476444672048092,0.01471678617785219
1746576359201426400,9.161426513671875,-0.04460369635820389,0.024951778165996072,0.048545465387078
1746576359211505700,9.171505615234375,-0.07179682371020317,0.0316299407556653,0.023654986670974175
1746576359221583600,9.18158349609375,-0.06945055284500122,0.030342531293630598,0.016574513190996367
1746576359231661600,9.19166162109375,-0.032356793725490565,0.02471358549594879,-0.0032565860765753313
1746576359241740800,9.20174072265625,-0.01092529864013195,0.010026596234738826,-0.009364901472593192
1746576359251818800,9.21181884765625,0.012636194211244582,0.016210253305733203,-0.018244864405877886
1746576359261896700,9.221896728515626,0.07527180634438992,0.024561317543685436,0.011438157232827506
1746576359271975400,9.231975341796876,0.09916706119477749,0.02835515686869621,0.02371063269821461
1746576359282053600,9.2420537109375,0.11427344491183757,0.0038321255087852475,0.015210305315838194
1746576359292131600,9.252131591796875,0.08556932847499847,0.002777063497900963,0.000814522120123729
1746576359302210600,9.26221044921875,0.059518356895446774,0.005485737934708595,-0.013100325141253415
1746576359312288500,9.27228857421875,0.03598784370422363,0.028863983173668385,0.007199003559420816
1746576359322366700,9.28236669921875,0.007351531806588173,0.0452829107940197,0.03265713066222379
1746576359332446500,9.292446533203124,-0.04368132081627846,0.023948738603293895,0.006418890598975121
1746576359342524400,9.3025244140625,-0.09839607682228088,0.02038958481699228,0.004369319391716271
1746576359352602400,9.312602294921875,-0.06667232030332088,0.016596330013871192,0.027972767671698238
1746576359362681000,9.32268115234375,-0.03955810340642929,0.028102643412351608,0.02790991558553651
1746576359372759300,9.33275927734375,0.008192074283957481,0.010009352838993072,0.009054883392062037
1746576359382838300,9.34283837890625,0.05920739125013351,0.003282382671535015,-0.005726474188291467
1746576359392916200,9.352916259765625,0.1053226612150669,0.014959376461803913,0.022773696624685542
1746576359402994200,9.362994140625,0.11903203761577605,0.004730535653233528,0.013966570598748512
1746576359413073400,9.373073486328124,0.08673018894791602,0.0032429274439811705,-0.006426537332602311
1746576359423151400,9.3831513671875,0.05353694439828396,0.021722294725477695,0.012057017500244545
1746576359433229300,9.393229248046875,0.013612345767021179,0.016406068138778207,0.03034254727665102
1746576359443308000,9.40330810546875,-0.024739304459095,0.03358078256249428,0.012217361444397829
1746576359453386200,9.41338623046875,-0.07238777534067631,0.028866029000282286,0.015579524504009167
1746576359463464200,9.423464111328125,-0.07369827341735363,0.025825638391077516,-0.003826800879696384
1746576359473543200,9.433543212890624,-0.05781038393378257,0.032597324483096594,0.006860448937572073
1746576359483621000,9.44362109375,-0.028708792611956593,0.020366203941404818,0.022894448343967085
1746576359493699300,9.45369921875,0.005061375042796135,0.032227029865980146,0.010513219841057434
1746576359503778300,9.4637783203125,0.04195288958847523,0.013905191233754157,0.0014223084376775658
1746576359513856300,9.473856201171875,0.07736673279702663,-0.005273848749697208,0.021055868989287407
1746576359523934200,9.483934326171875,0.10072481203079223,-0.0009027940586209297,0.025708414352731777
1746576359534013200,9.49401318359375,0.11215396853983402,-0.007045534597337246,0.032915571535855996
1746576359544091100,9.504091064453124,0.10400339531004428,0.007795476181805133,0.02356630602381192
1746576359554169000,9.514169189453124,0.06887830591499805,0.009339198492467404,0.012384438806725665
1746576359564248300,9.524248291015626,0.0215717803388834,0.017868834167718887,0.010090427851723507
1746576359574326300,9.534326171875,-0.04217676147222519,0.0289329567566514,0.012390955312480217
1746576359584404200,9.544404296875,-0.08831891944408417,0.018775719879567623,-0.002093636394559871
1746576359594483200,9.554483154296875,-0.10748539220690727,0.01871960577815771,0.0011431079038069583
1746576359604561400,9.5645615234375,-0.07486497910916805,0.05689356134980916,0.01042237006969517
1746576359614639400,9.574639404296875,-0.022146949878334998,0.05762099884152412,0.029147202295530587
1746576359624718000,9.584718017578124,0.023431144469976423,0.030419395922124386,0.011472822120832279
1746576359634796000,9.594796142578126,0.09474223048985003,0.01082592991888523,0.00539720113473013
1746576359644874200,9.604874267578126,0.10814356385469436,0.002657236510515213,0.001189520311821252
1746576359654953200,9.614953125,0.11579378634691238,0.0015378770917654036,0.016805305722588672
1746576359665031200,9.62503125,0.08668225815296172,-0.014271101936697958,0.029961254058196208
1746576359675109000,9.635109130859375,0.04867839845120907,0.010731529633700847,0.03716458901615115
1746576359685188400,9.645188232421875,0.0006476502537727355,0.0322942498832941,0.032228233159088994
1746576359695266300,9.655266357421874,-0.04361059366762638,0.0214955002322793,0.009225931393320206
1746576359705344300,9.66534423828125,-0.06249941853284836,0.017315584199130533,-0.005950334655598272
1746576359715423200,9.67542333984375,-0.037138767305016515,0.041429157975316044,0.02026070230689365
1746576359725501200,9.685501220703125,-0.019957915401458737,0.026891806317865845,0.02967493651366094
1746576359735579100,9.6955791015625,0.01581248615980148,0.0009378653720021247,-0.0050769995869020925
1746576359745658000,9.705658203125,0.031789222970604894,0.01873451108634472,-0.009956786968116648
1746576359755736000,9.715736083984375,0.05099661226570606,0.027624796767532826,0.011370087832142599
1746576359765814300,9.725814208984374,0.08611410287618637,0.026351123569905755,0.026630353786528574
1746576359775893200,9.735893310546874,0.06820844382941722,0.036680502143502235,0.009546763128810561
1746576359785971200,9.74597119140625,0.05583060829341411,0.00449906498491764,0.006771576494164764
1746576359796049200,9.756049072265625,0.05562018041312694,0.011837445048987864,0.012732201931625603
1746576359806128400,9.76612841796875,0.03288052533864975,0.02669131530970335,0.03131594290304929
1746576359816206300,9.776206298828125,0.005251929178833961,0.014866437481343746,0.028133881084120366
1746576359826285000,9.78628515625,-0.013061726146936415,0.01421528009623289,0.01560801994613139
1746576359836363300,9.79636328125,0.002179097604751587,0.0057023032948374745,0.014471277851029299
1746576359846441200,9.806441162109374,0.010705518409609795,0.023815759873390196,0.014051620816986542
1746576359856520200,9.816520263671874,-0.0036480011135339736,0.019781974312663077,0.00314092609094223
1746576359866598100,9.82659814453125,-0.02460077277123928,0.009828443314135075,0.012257289312698412
1746576359876676400,9.83667626953125,0.0017149872243404387,0.008327098840475082,0.015215205253241583
1746576359886755300,9.84675537109375,0.030355390775203703,0.027747254103422162,0.0238051562809851
1746576359896833300,9.856833251953125,0.0557569585353136,0.03208528330773115,0.022680956290336323
1746576359906911200,9.8669111328125,0.06561550472676754,0.04682137240767479,0.006377891868306324
1746576359916990200,9.876990234375,0.0598790069013834,0.027896014924347397,0.007371120139758568
1746576359927068200,9.887068115234374,0.04581833284497261,0.001932137106359005,0.008145917604269925
1746576359937146000,9.89714599609375,0.03653846332430839,0.009919920989871024,0.00549306272463873
1746576359947225300,9.907225341796876,0.005448328533768654,-0.0024929858595132827,0.01566812523606932
1746576359957303300,9.91730322265625,0.006373626685142517,0.013424714240431785,0.014724670373497064
1746576359967381200,9.92738134765625,-0.008018471282720565,0.022430442994832992,0.018307803257007618
1746576359977460200,9.937460205078125,-0.006617372313141822,0.017070961788296698,0.01315437286645174
1746576359987538400,9.947538330078125,0.013882979401946067,0.021856442499160765,0.007399072159186471
1746576359997616400,9.957616455078124,0.02556406484544277,0.02905278374403715,0.006267844206129666
1746576360007695000,9.967695068359374,0.03207680774033069,0.012484218519926071,-0.010590251149621326
1746576360017773000,9.97777294921875,0.026211130577325818,0.02305997307002544,0.00040401879020500925
1746576360027851300,9.987851318359375,0.026554244926571845,0.021798574832081793,0.019672257727338
1746576360037930200,9.99793017578125,0.041594577670097346,0.02970890956521034,0.017195037975825833
1746576360048008200,10.00800830078125,0.054988312250375745,0.02845978628695011,0.021511506085586732
1746576360058086100,10.018086181640625,0.04530979880094528,0.010779168167710304,0.02215498933760682
1746576360068165400,10.028165283203125,0.03080781071782112,0.006760580176115035,0.011901493578392546
1746576360078243300,10.038243408203124,0.02829728920161724,0.012423135982453822,0.014241211405221837
1746576360088321300,10.0483212890625,0.024724691411852837,0.011004209095239638,-0.0019034384515485725
1746576360098400000,10.05839990234375,-0.024485621958971023,0.018557400953769683,-0.008588985196652356
1746576360108478200,10.068478271484375,-0.02490706224143505,0.01206073241084814,0.016196797885827254
1746576360118556200,10.07855615234375,-0.015488661032915114,0.029619769977033136,0.01099580202649813
1746576360128635100,10.08863525390625,-0.006651859104633331,0.0349392114341259,0.02933008001518901
1746576360138713000,10.098713134765624,0.017005495336651803,0.019477146147191524,0.005357615759724285
1746576360148792300,10.108792236328124,0.017244564789533613,0.0003738017484545707,0.011221171747590415
1746576360158870300,10.118870361328124,0.025323826348781584,-0.005428162528574467,0.04240860659987666
1746576360168948200,10.1289482421875,0.056743631485104556,-0.002093465147912502,0.020901963919075204
1746576360179027200,10.139027099609375,0.04550093745887279,0.0027393618360161778,0.026576203313341828
1746576360189105200,10.149105224609375,0.07492752295136451,0.028857553432881832,0.015530095871712547
1746576360199183000,10.15918310546875,0.0830453629553318,0.016139233896136283,-0.002580239451280795
1746576360209262000,10.169261962890625,0.03486147002279758,-0.0005666939720511436,0.005742199197097215
1746576360219340300,10.17934033203125,-0.0028559739530086515,-0.005101707053184509,-0.006779789483372587
1746576360229418200,10.189418212890626,-0.03817044844031334,0.032274960660934444,0.023048230116593186
1746576360239497200,10.199497314453126,-0.0358627560198307,0.02019581581056118,0.030435789934499188
1746576360249575200,10.2095751953125,-0.02391103694140911,0.01985591633170843,0.025278829579718876
1746576360259653400,10.2196533203125,-0.037407062852382655,0.024092823249101638,0.019505769453477113
1746576360269732400,10.229732421875,-0.0021048633247613907,0.022337796275317668,-0.00916020921334857
1746576360279810300,10.239810302734375,0.03558160099089146,0.03407119642794132,0.0024621066640596835
1746576360289888300,10.24988818359375,0.06763152072429657,0.027257424759864805,0.01940629341766471
1746576360299967200,10.25996728515625,0.09332125777602195,0.010486907222867011,0.0022985364330699665
1746576360310045200,10.270045166015626,0.11292729099988937,0.011045710149407386,0.0073863245587563135
1746576360320123100,10.280123046875,0.09480360528826713,0.0037719197541475295,0.018892487260187045
1746576360330201300,10.290201416015625,0.07128770514428615,0.01601385395079851,0.04152675486458465
1746576360340279300,10.300279296875,0.03828852186203003,0.007097849306464195,0.01691214536423795
1746576360350357200,10.310357177734375,-0.023360417321324347,0.008989654402434825,0.006595733586780261
1746576360360436500,10.3204365234375,-0.07949731508493423,0.03946574894785881,0.011952495396556332
1746576360370514400,10.330514404296874,-0.11687807445228099,0.014893325488269328,0.002317213734076358
1746576360380592400,10.34059228515625,-0.10714344690144062,0.0017217092260718345,-0.008207207921007648
1746576360390671400,10.35067138671875,-0.0690635993540287,0.02400339139997959,0.031324961893144064
1746576360400749600,10.36074951171875,-0.042375498914718625,0.03520370758920908,0.018601621404697653
1746576360410828300,10.370828369140625,0.04882219083607196,0.029487375769019126,0.02181661052898271
1746576360420906200,10.38090625,0.11409750382304192,0.006839198370277882,0.0005035153756150976
1746576360430984200,10.390984130859374,0.1711485938221216,0.006880407163500786,-0.0021371889835631007
1746576360441063400,10.4010634765625,0.21331892555356025,-0.004377484431862831,-0.012007520369288977
1746576360451141400,10.411141357421876,0.17392215018868445,-0.009925473947823046,-0.019539153416559565
1746576360461219300,10.42121923828125,0.08902268379926681,0.015761925016343593,0.0007860700604855082
1746576360471298600,10.431298583984375,-0.004990063372254372,0.01507891118824482,0.011842513949749991
1746576360481376500,10.44137646484375,-0.11263736814260482,0.0038712884753942488,0.014850895135628525
1746576360491454500,10.451454345703125,-0.1748439412087202,0.02241524542570114,0.020525835499505044
1746576360501533200,10.461533203125,-0.1508183379769325,0.01999795515090227,0.024011777919123414
1746576360511611400,10.471611328125,-0.08359656709730624,0.035360359455645085,0.04039662745664827
1746576360521689300,10.481689453125,0.006743629041314125,0.04672989473193884,0.03355108611055184
1746576360531768300,10.491768310546876,0.0841214677542448,0.012600538375973701,0.02773138981400989
1746576360541846300,10.50184619140625,0.14732523516416549,0.008475859661400317,0.008098096407169941
1746576360551924500,10.511924560546875,0.1510585764735937,0.00834463449716568,0.002768413258920191
1746576360562003500,10.52200341796875,0.1624053153961897,0.010337854140996932,0.012106358225928851
1746576360572081400,10.532081298828125,0.1066734913021326,-0.002967325372993946,0.04292052904423326
1746576360582159400,10.542159423828124,0.02364741756916046,0.008931202213466168,0.011377232242270838
1746576360592238300,10.55223828125,-0.07992635415196418,0.029973697981238362,-0.013981708802375942
1746576360602316300,10.56231640625,-0.13851765933036803,0.04214724311679601,0.008013046188931911
1746576360612394200,10.572394287109375,-0.14360533785820007,0.03712356973588466,0.007917312463186681
1746576360622473200,10.58247314453125,-0.12357085008919239,0.04483984320163727,0.01230776140789967
1746576360632551400,10.592551513671875,-0.039788405030965805,0.029151860204339027,0.0060102709821774625
1746576360642629400,10.60262939453125,0.05108253698348999,0.019653671757876873,0.008478654406685382
1746576360652708400,10.612708251953125,0.1159282263815403,-0.0025037995144724843,0.011225627585354959
1746576360662786300,10.622786376953124,0.14486965870559215,-0.013138298514485358,0.017969513496640138
1746576360672865300,10.632865234375,0.14875263761878013,0.0001651274338364601,0.03414588736565784
1746576360682943200,10.642943115234376,0.13118950839936733,0.02033347071558237,0.023497654384525956
1746576360693021200,10.653021240234375,0.07589139954745769,0.016072013878822327,0.018653142671025125
1746576360703100400,10.663100341796875,0.01058978307545185,0.006790975314378738,0.008922169523639605
1746576360713178400,10.673178466796875,-0.07850596596002578,0.015975567767024038,-0.014365625519468447
1746576360723256300,10.68325634765625,-0.06722703157663346,0.03909662337452173,0.006972275281592738
1746576360733335300,10.693335205078125,-0.09161211577057837,0.05991641630232334,-0.008630372086388524
1746576360743413500,10.70341357421875,-0.11436930650174618,0.042415830925107,-0.021889568450627846
1746576360753491500,10.713491455078126,-0.05726268692314625,0.03285363733172417,0.006052928522037109
1746576360763570400,10.7235703125,0.016309914287924766,0.028398411488533018,0.028810910412715746
1746576360773648400,10.7336484375,0.0813718767851591,0.01956131729930639,0.02304503122922033
1746576360783726300,10.743726318359375,0.11356383533775806,0.008004150496423244,-0.007046375989197985
1746576360793805300,10.753805419921875,0.1728653346121311,-0.0024199206233024594,-0.0011027005448937415
1746576360803883300,10.76388330078125,0.13560790936350822,-0.005575462044775486,0.02487323303706944
1746576360813961200,10.773961181640624,0.09037409840822219,-0.016207622957229613,0.02375726658522617
1746576360824040400,10.78404052734375,0.03788169462680816,-0.0053068742364645,0.02441017296942882
1746576360834118400,10.794118408203126,-0.008677811974287032,0.01516775851547718,0.010408188564004377
1746576360844196400,10.8041962890625,-0.06112637661397457,0.036088673730194566,0.0033208343937352765
1746576360854275600,10.814275634765625,-0.0956242740213871,0.03242985896170139,0.028267791395785752
1746576360864353500,10.824353515625,-0.0979553473174572,0.038192075750231744,0.007342331295047188
1746576360874431500,10.834431396484375,-0.06749006642699241,0.042378713785111904,0.013806581705977441
1746576360884510200,10.84451025390625,-0.015514379996061324,0.0266302327722311,0.0015706365754071157
1746576360894588400,10.85458837890625,0.041186581391096114,0.007096388001739978,-0.006185778246133122
1746576360904666400,10.864666259765626,0.1033972461104393,0.005479892715811729,0.0049805489085265435
1746576360914745300,10.874745361328126,0.1105903724849224,0.011142448522150517,0.026191775139595846
1746576360924823300,10.8848232421875,0.13606500548124312,0.026678748089075086,0.01545899654701352
1746576360934902500,10.894902587890625,0.11079904679954052,0.015813070681691167,0.010816611817979719
1746576360944980500,10.90498046875,0.04428747001588344,-0.0005947510227560997,-0.01439468265059404
1746576360955058400,10.915058349609374,-0.011985036826133727,0.016138357113301752,-0.010899818280647742
1746576360965137200,10.92513720703125,-0.0676128160238266,0.033465339489281175,0.04166525001982227
1746576360975215400,10.93521533203125,-0.08814999261796475,0.03324818960726261,0.025343873622966927
1746576360985293300,10.945293212890626,-0.08221884900331497,0.0024918168157339097,0.015186094464833148
1746576360995372300,10.955372314453125,-0.04120703965723514,0.004573883786797523,0.01757340401825495
1746576361005450200,10.9654501953125,0.01733458116054535,0.0142693483710289,0.03212110810636077
1746576361015528400,10.975528564453125,0.07519231136739253,0.0006292378142476082,0.011454362873890204
1746576361025607400,10.985607421875,0.09564239419996738,0.020888181988894937,0.008190404058323475
1746576361035685400,10.995685302734374,0.11008709913790225,0.029574177269637583,0.006255846666014986
1746576361045763300,11.005763427734376,0.12554478051066398,0.014596388368308543,-0.003900270257994998
1746576361055842300,11.01584228515625,0.09228022429049014,0.015284370632469653,-0.008088384438975482
1746576361065920300,11.025920166015625,0.03736439275443554,0.036786008344590664,0.017678732122830113
1746576361075998200,11.035998291015625,-0.026980361384153363,0.03315174349546432,0.038859896575775925
1746576361086077400,11.046077392578125,-0.06523965715169906,0.01140109945833683,0.022663039324444252
1746576361096155400,11.0561552734375,-0.07381459327340126,0.018502748157083988,0.011695352572511182
1746576361106233300,11.0662333984375,-0.06487023931741714,0.019957623140513896,0.005125591393915238
1746576361116312300,11.076312255859374,-0.03085749507844448,0.02848375168442726,0.028293375644902696
1746576361126390500,11.086390625,-0.006930676046013832,0.027300679379701612,0.02587427700550761
1746576361136468500,11.096468505859375,-0.00397884050309658,0.01139320841282606,0.0165259054009628
1746576361146547200,11.106547119140625,0.048532267978787416,0.000058452188968658445,0.004315196317993104
1746576361156625200,11.116625244140625,0.058063481912016865,-0.00004354688078165054,0.007072628100239672
1746576361166704400,11.126704345703125,0.08393734335899353,0.0064200961753726,0.010436114325613016
1746576361176782300,11.1367822265625,0.07553601023852825,0.01852437546700239,-0.0016445957191172055
1746576361186860300,11.1468603515625,0.026833646389842033,0.014244213929772376,-0.0007702263206709176
1746576361196939500,11.156939453125,0.02860533223748207,0.01838964317142963,-0.01088561965029221
1746576361207017500,11.167017578125,-0.028358079478144643,0.04339022891521454,0.0132432418849261
1746576361217095400,11.177095458984375,-0.07378419813513755,0.05180997447520494,0.015074091165943536
1746576361227174400,11.18717431640625,-0.10487141031622886,0.03374883260577917,0.014955115845217368
1746576361237252400,11.19725244140625,-0.08096563407182693,0.03614478783160448,0.011714148604526417
1746576361247330300,11.207330322265625,-0.01997135940492153,0.033116087660193444,0.01783103204113431
1746576361257409300,11.2174091796875,0.030057284611463547,0.019703063857555388,0.018733141113165763
1746576361267487200,11.2274873046875,0.07906184627711772,0.003777180451154709,-0.004841544579924084
1746576361277565200,11.237565185546876,0.12414309701919556,-0.03383563410639763,-0.003361274860333651
1746576361287644400,11.24764453125,0.14480769938528537,-0.007768003652989864,0.020653850359923672
1746576361297722400,11.257722412109375,0.13568974242806434,0.014444704937934875,0.007823344861197984
1746576361307800300,11.26780029296875,0.09052841218709945,0.005697627119719982,0.007809751302329823
1746576361317879600,11.277879638671875,0.05086801744997501,-0.001988251207768917,0.03217334061709698
1746576361327957500,11.28795751953125,0.02500409287512302,0.028863983173668385,0.03163357118458952
1746576361338036000,11.298035888671874,-0.030116905844211575,0.051690732009708876,0.02722177805774845
1746576361348115200,11.308115234375,-0.0808931533575058,0.02177782430499792,-0.004070217714132741
1746576361358193200,11.318193115234376,-0.10659984154403208,0.03790156837105751,0.010202523623802699
1746576361368271000,11.32827099609375,-0.09906009368896483,0.03583557575196027,0.006322389688249677
1746576361378350000,11.33835009765625,-0.05330605825185775,0.02613835760205984,0.007178378613211679
1746576361388428300,11.34842822265625,0.0036316345006227493,0.028527883087098596,0.0092543743198039
1746576361398507000,11.358507080078125,0.06375438703000545,0.014447627547383308,0.01562132010241039
1746576361408585000,11.3685849609375,0.1168079318255186,0.013672259260714054,0.038734507497283625
1746576361418663000,11.378662841796874,0.11200374641418456,0.005089432093501091,0.0304766379681183
1746576361428742100,11.3887421875,0.09900631767511367,0.004444119927287101,0.003983268941397546
1746576361438820000,11.398820068359376,0.04874444942474365,0.004646656762063503,0.02007924022618681
1746576361448898000,11.40889794921875,-0.007947744134068489,0.011092764161527156,0.028135458836564792
1746576361458977300,11.418977294921875,-0.07707973254919051,-0.002705459566414356,0.0019655815765901932
1746576361469055200,11.42905517578125,-0.08859715186357497,0.03957476228028536,0.003177562598680379
1746576361479133200,11.43913330078125,-0.08008534410595894,0.049072366204857824,0.012487679985491558
1746576361489212200,11.449212158203125,-0.03769640118777752,0.015703765088319777,0.02834918835221324
1746576361499290000,11.4592900390625,0.00471826069355011,0.010736205808818339,0.00009178477805689907
1746576361509368000,11.4693681640625,0.07135550968348979,0.017602292186021804,0.019841864973469635
1746576361519447000,11.479447021484376,0.12009469841122626,0.023829203876852986,0.019022283085738306
1746576361529525000,11.48952490234375,0.13972820416390894,0.003019347821176052,-0.006671575301967095
1746576361539603000,11.49960302734375,0.10546294646859168,-0.008117547743022441,-0.0019253808552981352
1746576361549682200,11.50968212890625,0.06803425630629062,-0.008970365180075168,0.013392382873408496
1746576361559760100,11.519760009765625,0.038648002824187275,0.010131517913937568,0.012331917459977557
1746576361569838000,11.529838134765624,0.015366495957970619,0.026453999422490597,0.026064353934221435
1746576361579917300,11.539917236328124,-0.0235498024135828,0.05027092833966017,0.03454385087441187
1746576361589995300,11.549995361328126,-0.05349485882222652,0.031066753914952276,0.028068869006913154
1746576361600073200,11.5600732421875,-0.07999649677872657,0.01134966153204441,-0.0019426425173529422
1746576361610152000,11.57015185546875,-0.058174541071057316,0.002667465643584728,-0.025262880808627233
1746576361620230100,11.580230224609375,-0.04387772017121315,0.02062543939948082,-0.001717420068377396
1746576361630309000,11.59030908203125,-0.0165261873871088,0.0331461905375123,0.02101941171970684
1746576361640387000,11.600386962890624,0.04320084382295608,0.01127951890528202,0.012397752662736456
1746576361650465000,11.610465087890624,0.08418459611833096,0.016971300806105136,0.007348157105990685
1746576361660544300,11.620544189453126,0.12355448347628116,0.0006558335602283477,-0.00453289190599462
1746576361670622200,11.630622314453126,0.12378069344758987,-0.00974631798863411,0.020609134435362646
1746576361680700200,11.6407001953125,0.07980886525213718,0.006998480585217476,0.0048299272073665635
1746576361690779100,11.650779052734375,0.03842763807177543,0.02525514502674341,0.002931232287950115
1746576361700857000,11.660857177734375,-0.006471241840720177,0.034250644648075104,0.007829293969727586
1746576361710935000,11.67093505859375,-0.043217210435867306,0.035514088712632653,0.017835776714910753
1746576361721014000,11.681013916015624,-0.04508417335152626,0.031152678632736203,0.012864718295581406
1746576361731092200,11.69109228515625,-0.0592775338768959,0.031495792981982226,-0.010614966607413952
1746576361741170200,11.701170166015626,-0.02358253563940525,0.01784983720630407,-0.009995675940089859
1746576361751249200,11.711249267578125,0.03013502602279186,0.030544483606517313,0.0037618310433288568
1746576361761327000,11.7213271484375,0.06464695195555686,0.002262976495921612,0.03398111155827064
1746576361771405300,11.7314052734375,0.07035188559889793,-0.00005085340440273285,0.009927589414740213
1746576361781484000,11.741484130859375,0.05437105713486671,-0.004217909955978393,-0.021898388794611673
1746576361791562000,11.75156201171875,0.06337561684548855,0.010149053570628166,-0.005706773973978124
1746576361801640000,11.761639892578126,0.03210194218158722,0.022147242139279842,0.016081571725034154
1746576361811719200,11.77171923828125,-0.0023217209458351136,0.025335516786575314,0.027524950838962104
1746576361821797000,11.781797119140625,-0.03030804450213909,0.02675005975961685,0.00222358291716082
1746576361831876000,11.7918759765625,-0.021815525966882705,0.015249299319088458,0.02031386183281429
1746576361841954000,11.8019541015625,-0.017677695509791373,0.03795885151624679,0.021703074001776984
1746576361852032300,11.8120322265625,0.014703063613176345,0.023944062428176403,0.014413579147309064
1746576361862111000,11.822111083984375,0.009074702337384223,0.010529577320814132,0.00012647135730367153
1746576361872189000,11.83218896484375,0.013219547057151794,0.017212708346545695,0.0014756186606478877
1746576361882267000,11.842266845703126,0.015640636724233627,0.038731297193467615,0.015607814450154545
1746576361892346000,11.85234619140625,0.022685879060626028,0.03304769859910011,0.008243630941258743
1746576361902424000,11.862424072265625,0.024008067575097082,0.031605683097243306,0.02831123552857898
1746576361912502000,11.872501953125,0.03140460756719112,0.017997721244394776,0.01976165076055331
1746576361922581200,11.882581298828125,0.0384422511190176,0.02364303365498781,0.0010365399735048414
1746576361932659200,11.8926591796875,0.03784136261641979,0.010299275696277617,0.00017618996725650502
1746576361942737200,11.902737060546874,0.0008043021202087402,0.0011588146463036536,-0.009978636898676632
1746576361952816000,11.912816162109374,-0.0158247611194849,0.018109364925324917,0.00420018592797569
1746576361962894000,11.92289404296875,-0.024373393756151197,0.01339227327555418,0.0015572804785566404
1746576361972972000,11.932971923828125,-0.004454056799411773,0.022390403245389462,0.013305345052416668
1746576361983051000,11.943051025390625,0.02899403929412365,0.028859891520440578,0.022828109676064922
1746576361993129000,11.95312890625,0.0393178649097681,0.04161152880489826,0.04656125103360973
1746576362003207200,11.963207275390625,0.05227086998522281,0.03831365630328655,0.020148382772528565
1746576362013286100,11.9732861328125,0.038186230531334873,0.03925210619717836,0.019528787286172154
1746576362023364000,11.983364013671874,0.05607143131196499,0.004365501733124256,-0.0079766871007625
1746576362033442000,11.993442138671876,0.032815643408894535,-0.006332125630974769,-0.009458120155910727
1746576362043521300,12.003521240234376,-0.005016951379179954,0.02410626725256443,0.01738468564627692
1746576362053599200,12.01359912109375,-0.0263905787974596,0.019114450314641,0.015206807317654602
1746576362063678000,12.023677978515625,-0.045208091992139814,0.004128770367801189,-0.01869796134357457
1746576362073756200,12.033756103515625,-0.014563947403430939,0.01775368335545063,-0.0008437927387363743
1746576362083834000,12.043834228515625,-0.0038140053302049633,0.02510843003243208,-0.003718824160308577
1746576362093913000,12.0539130859375,0.02186930198073387,0.05108487507104873,-0.004057951887603849
1746576362103991000,12.063990966796876,0.04608487482666969,0.048715807852149004,0.005919762562465621
1746576362114069000,12.074069091796876,0.07353343824446201,0.021428864736855027,0.032770205965125934
1746576362124148200,12.084148193359376,0.09691314478814601,0.01656155096143484,0.02333015918037854
1746576362134226200,12.09422607421875,0.09203647866249084,-0.00039279870986938477,0.004287280831183306
1746576362144304000,12.10430419921875,0.07291793669462203,0.002853343604505062,0.00011177497002645395
1746576362154383000,12.114383056640625,0.02491933720111847,0.020462650053203104,-0.008304621005541411
1746576362164461000,12.1244609375,-0.019667408022284505,0.020810732838511467,0.017473467899783282
1746576362174539000,12.1345390625,-0.039866146442294116,0.0336450799703598,0.031064208048128056
1746576362184618000,12.144617919921876,-0.06666238343119621,0.028162849166989325,-0.0005887322739232331
1746576362194696200,12.1546962890625,-0.07223463060557841,0.02084931128323078,-0.010698435648274607
