time,seconds_elapsed,z,y,x
1746739241220260000,0.028260009765625,0.03716156365871429,0.0144523037225008,-0.06240378983838018
1746739241230339000,0.038339111328125,0.00819382784962654,0.08121639396250248,0.029276838290877637
1746739241240418300,0.048418212890625,0.002963525980710983,0.1345943484067917,0.11482671314673498
1746739241250497000,0.0584970703125,-0.0033966567009687423,0.15470950019657612,0.1674054800373502
1746739241260576000,0.068575927734375,-0.023747370812296865,0.12722703450918196,0.17398979033110662
1746739241270655200,0.0786552734375,-0.1549544148683548,0.07805237697362899,0.08693049729298799
1746739241280734000,0.08873388671875,-0.2849059059053659,-0.010602058035135269,-0.06931843263162299
1746739241290813200,0.098813232421875,-0.3695475981414318,-0.05597790780961513,-0.08717440731776878
1746739241300892200,0.10889208984375,-0.3525912026435137,-0.01883855598270893,-0.037563851716136555
1746739241310971100,0.11897119140625,-0.43060909282565113,-0.007402969732880592,-0.019115655891038478
1746739241321050000,0.129050048828125,-0.26670506330430505,0.05726853214204311,-0.07345848244526423
1746739241331129000,0.139129150390625,-0.0905658215880394,0.12131985629200935,-0.015166712769283911
1746739241341208000,0.1492080078125,-0.007996843972802162,0.12810732447504997,0.11172586105456575
1746739241351287000,0.159287109375,0.14976561405360697,0.12848317205011844,0.14306268234886227
1746739241361366000,0.169365966796875,0.15537527062892914,0.0971931307733059,0.08942883518105373
1746739241371445200,0.1794453125,0.18562486294209957,0.05737900677919387,0.04684568486502394
1746739241381523200,0.189523193359375,0.124811790060997,0.04462532366812229,0.00904975512579549
1746739241391602000,0.199601806640625,0.06898994959592819,0.016989713245630263,-0.005529951535770669
1746739241401681200,0.20968115234375,0.04345978702008724,0.011114099210500716,0.024215170987136662
1746739241411760000,0.219760009765625,-0.0214367557823658,0.04470598768889904,0.005348041930492035
1746739241421839000,0.229839111328125,-0.08823708637952804,0.09168751909434796,-0.001116982515284326
1746739241431918000,0.23991796875,-0.1318131932556629,0.07404957107305526,0.005307148231100291
1746739241441997000,0.2499970703125,-0.16337386816740035,0.07178571779429913,0.03865666105467826
1746739241452076300,0.260076171875,-0.17308862197399139,0.06282265913784503,0.082500972146634
1746739241462155000,0.270155029296875,-0.23590543589293955,0.04733224453926086,0.017548682852240743
1746739241472234000,0.28023388671875,-0.2260170790851116,0.041510991039872165,-0.036392499531956855
1746739241482313200,0.290313232421875,-0.08891396272778511,0.01785831277370453,-0.07617936334309633
1746739241492392000,0.300391845703125,-0.024950316861271856,0.00815291131734848,-0.05921273871210869
1746739241502471200,0.31047119140625,-0.03499240292608738,0.02733750425875187,-0.015514672257006168
1746739241512550100,0.320550048828125,-0.04154547783136368,0.06055471420586109,0.02483710912762908
1746739241522629000,0.330629150390625,-0.04137187483012676,0.07941139036715031,0.02426518870790023
1746739241532708000,0.3407080078125,-0.04668634785115718,0.0815817201435566,0.028074894605611914
1746739241542787000,0.350787109375,-0.009313771790266037,0.07980068194568157,0.0645900889354758
1746739241552866000,0.360865966796875,0.0628852029800415,0.08649696471393108,0.07866902016778476
1746739241562944300,0.3709443359375,0.09832827228307724,0.08698796310126782,0.08369257481768727
1746739241573023000,0.38102294921875,0.07568740140795707,0.07603519193232058,0.07285570794625673
1746739241583102000,0.39110205078125,0.03939326823353767,0.03124211048185825,0.002135518187106936
1746739241593181200,0.40118115234375,-0.019390344646573066,0.01585924791097641,-0.03991856618269812
1746739241603260200,0.41126025390625,-0.044644612890481945,0.021963994526863095,-0.03337685748822987
1746739241613339100,0.421339111328125,-0.08378770575523375,0.041059740141034126,-0.03625884723190684
1746739241623418000,0.431418212890625,-0.11201485233008861,0.04404313986599445,-0.007687762611432117
1746739241633497000,0.4414970703125,-0.1251215866625309,0.05224982719719409,0.011225012239068745
1746739241643576000,0.451576171875,-0.10239245298206806,0.05048164848089218,0.04424967245587613
1746739241653655000,0.461655029296875,-0.12271218743324279,0.07331131992638111,0.054464005248481405
1746739241663734300,0.471734375,-0.09172083684206009,0.06023731881976127,0.06535412297737785
1746739241673813000,0.48181298828125,-0.0663315440416336,0.0644669192135334,0.04454934495561756
1746739241683892000,0.49189208984375,-0.01359656367599964,0.03814882113039493,-0.015627499823091785
1746739241693971200,0.50197119140625,0.012069792500138283,0.039864392876625056,-0.014638875803165138
1746739241704050200,0.51205029296875,0.06702069534957408,0.029954408758878705,-0.0013358985210594255
1746739241714129200,0.522129150390625,0.05098316826224327,0.035757542079687114,0.006816746793163474
1746739241724208000,0.5322080078125,0.061058572074770924,0.04201777151823043,0.011720337458362337
1746739241734287000,0.542287109375,0.03012859628200531,0.06040566112399101,0.037376809278014116
1746739241744366000,0.552365966796875,-0.019561609560251235,0.05224398197829723,0.059866284417128185
1746739241754444800,0.56244482421875,-0.02583645204603672,0.048905777466297144,0.05327859942277428
1746739241764523000,0.57252294921875,-0.03808978441953659,0.06007423721253872,0.043350262231007214
1746739241774602000,0.58260205078125,-0.07832593321800231,0.0701923111230135,0.0403579074480338
1746739241784681000,0.592680908203125,-0.09061550594866276,0.051743631240725514,0.013871923718391917
1746739241794760000,0.602760009765625,-0.1170692131102085,0.03828852186203003,0.010965007312723901
1746739241804839000,0.6128388671875,-0.13715806141495704,0.05489595779180526,0.03542133239526302
1746739241814918100,0.622918212890625,-0.1663163513600826,0.06292378142476081,0.01582021509181941
1746739241824996900,0.632996826171875,-0.16662673248350618,0.026124621337652205,-0.023048259799345393
1746739241835075800,0.643075927734375,-0.16567746893465518,0.01920972738265991,-0.04525246998998336
1746739241845155000,0.653155029296875,-0.11823942593336105,0.018114333361387253,-0.06370513192764483
1746739241855233800,0.66323388671875,-0.15141104317307472,0.05274900889098644,-0.04362468612506054
1746739241865312800,0.673312744140625,-0.1176794539630413,0.04053308591842651,0.000330327932909131
1746739241875392000,0.68339208984375,-0.08499591250121594,0.05151099152863026,0.03607901770257158
1746739241885471000,0.693470947265625,-0.06706745710074902,0.0523193853020668,0.04606842601536773
1746739241895550000,0.703550048828125,-0.10938625739216803,0.05064531461000442,0.025808582224999554
1746739241905629000,0.71362890625,-0.08926116873025894,0.0542757800668478,0.028274638978391883
1746739241915708000,0.7237080078125,-0.07886077074706555,0.05795066918730735,0.012276478070358279
1746739241925787000,0.733786865234375,-0.05943067861199378,0.047480128577351566,0.009339732782007195
1746739241935865900,0.743865966796875,-0.014302081596851347,0.0434223776191473,0.010073157056514173
1746739241945945000,0.753945068359375,-0.037215339672565455,0.04018354182839393,-0.029522540697234215
1746739241956023000,0.76402294921875,-0.05240589454174041,0.022117723783850667,-0.04273814908149652
1746739241966101800,0.774101806640625,-0.05685644420981407,0.03514730122685432,-0.04023710321311373
1746739241976181000,0.784180908203125,-0.06570493657588958,0.05958791500031948,0.017969282884488347
1746739241986260000,0.794260009765625,-0.06259001942574978,0.060439563393592834,0.03454213840793818
1746739241996339000,0.8043388671875,-0.07299743167161941,0.04641688326001167,0.05113487909208052
1746739242006418000,0.81441796875,-0.11704466319084167,0.042993338552117344,0.0386288277662592
1746739242016497000,0.824496826171875,-0.10679740994274615,0.039331308913230896,0.04107541720077861
1746739242026576100,0.834576171875,-0.05337853896617889,0.050634208694100374,0.019378629092604387
1746739242036654800,0.84465478515625,0.014936287847161292,0.04004325657486915,0.0021231182173709383
1746739242046733800,0.85473388671875,0.07732114008963108,0.05362520720362663,0.012670281427225562
1746739242056813000,0.86481298828125,0.11889759758114814,0.07875204967558383,0.029576508507330436
1746739242066892000,0.87489208984375,0.12173720492124557,0.07445055308938026,0.06253966834484599
1746739242076970800,0.884970703125,0.05959960543811321,0.05710954218804836,0.07001473976613487
1746739242087050000,0.895050048828125,-0.006651859104633331,0.05338496870696544,0.061771122524607924
1746739242097129000,0.90512890625,-0.08635492589473724,0.04006605292856693,0.011252429968956857
1746739242107208000,0.9152080078125,-0.1973041948199272,0.014846271476149558,-0.022511746336426584
1746739242117287000,0.925286865234375,-0.21588497664928435,0.02659633050262928,-0.03586669469272019
1746739242127366000,0.935365966796875,-0.19363690448403356,0.042243981489539145,-0.0023851347210002132
1746739242137444900,0.94544482421875,-0.17900339897572992,0.06002163024246692,0.04126818612678908
1746739242147522800,0.955522705078125,-0.1172913314282894,0.07484218275547028,0.045734166259435
1746739242157601800,0.965601806640625,-0.03937047187983989,0.07187514964342116,0.0456986748209456
1746739242167681000,0.975680908203125,0.02866319990456104,0.06163841778934002,0.04568057290867437
1746739242177760000,0.985760009765625,0.043245267486572266,0.04454699773490429,0.01959757592277601
1746739242187839000,0.9958388671875,0.02048983032107353,0.0369914677888155,-0.01488280409425497
1746739242197918000,1.00591796875,0.007331658062338829,0.022241057902574538,-0.019337986554962116
1746739242207997000,1.015996826171875,-0.05457096362113952,0.03599661153256893,0.008254031320975627
1746739242218076000,1.026075927734375,-0.03803951553702354,0.049584407380223273,0.05404034560946747
1746739242228155000,1.03615478515625,-0.009366963282227516,0.07438274855017661,0.07628928542439825
1746739242238234000,1.046234130859375,-0.04375730866193771,0.09114449825882912,0.06853144697239621
1746739242248312800,1.056312744140625,-0.05345569585561752,0.07707680993974209,0.05976986113821622
1746739242258391800,1.066391845703125,-0.10213234074115753,0.04973404498398304,0.020923424548923503
1746739242268471000,1.076470947265625,-0.16794015316963196,0.03615326339900493,-0.006367580536846071
1746739242278550000,1.086550048828125,-0.16927403212189673,0.007316460493206977,-0.012933505790540948
1746739242288628700,1.096628662109375,-0.17289456070661544,0.01516425138413906,-0.04192997907034587
1746739242298708000,1.1067080078125,-0.14878186371326446,0.03170446729660034,-0.043236956315953284
1746739242308787000,1.116786865234375,-0.042810967722535134,0.03906418240964413,-0.006910035116784274
1746739242318866000,1.126865966796875,0.053670799911022186,0.04368015177249908,0.024291834686230866
1746739242328943900,1.13694384765625,0.07389233468472957,0.06218026958107948,0.0405162717809435
1746739242339022800,1.14702294921875,0.05714169089198112,0.068671385166049,0.045414953375584446
1746739242349102000,1.15710205078125,0.018723405170440674,0.052695232877135276,0.024569729179004206
1746739242359180800,1.167180908203125,-0.03580371930897236,0.0469558124423027,0.006563797228690237
1746739242369259800,1.177259765625,-0.07416647545099259,0.050690907317399975,-0.017275384619482793
1746739242379339000,1.187339111328125,-0.0658387920886278,0.05981061784029006,-0.012191861676960252
1746739242389418000,1.19741796875,-0.05739595791399479,0.06311433556079864,0.020130294559989124
1746739242399497000,1.2074970703125,-0.017898060262203214,0.06207330207526683,0.03740134549764916
1746739242409576000,1.217575927734375,0.001115267765522003,0.07169803951084613,0.054885614494304166
1746739242419655000,1.227655029296875,-0.0012444471031427384,0.060454176440835,0.05746268930754158
1746739242429734000,1.23773388671875,-0.04593289913535118,0.04620470181405544,0.0306296320061665
1746739242439812900,1.247812744140625,-0.12315525502562522,0.056086628881096834,0.018316573368641547
1746739242449892000,1.25789208984375,-0.17348668138086795,0.040754619714617725,0.05430148533026222
1746739242459971000,1.26797119140625,-0.1653846234679222,0.05829261449277401,0.09158053332222625
1746739242470049800,1.2780498046875,-0.1407102009385824,0.07889408849477768,0.053330539672565645
1746739242480129000,1.28812890625,-0.09021569297611713,0.07041267587542534,0.05220803844865877
1746739242490208000,1.2982080078125,-0.038844986701011656,0.03595978665351868,-0.011019269667053595
1746739242500286700,1.30828662109375,0.011233926197886466,0.031101240706443784,-0.04062687428225763
1746739242510365000,1.318364990234375,0.08942775746881962,0.04405950647890568,-0.03241918230406009
1746739242520444000,1.32844384765625,0.10057809703648089,0.062356795191764826,0.012215991471218875
1746739242530523000,1.33852294921875,0.1501823781609535,0.06618015287220477,0.05492620679959655
1746739242540601900,1.348601806640625,0.22765374037623404,0.09430500811636447,0.10157572977170348
1746739242550680800,1.358680908203125,0.1648977167338133,0.07937748809754848,0.10583564310534857
1746739242560760000,1.368760009765625,0.057094929140806196,0.042431028494238854,0.11531378427762537
1746739242570839000,1.378839111328125,-0.02971241669654846,0.05497136111557483,0.04070539201172069
1746739242580917800,1.388917724609375,-0.11884499061107635,-0.026446108376979825,-0.10975095338555983
1746739242590997000,1.3989970703125,-0.1309516079902649,-0.03375730817317962,-0.13665248651299625
1746739242601076000,1.409075927734375,0.0009299743264913558,-0.015413842231035231,-0.041042962536169215
1746739242611155000,1.419155029296875,-0.007737316253781318,0.037010757011175156,0.06924843613533303
1746739242621234000,1.42923388671875,-0.09795184018611908,0.050966217127442356,0.06304986462299712
1746739242631313000,1.43931298828125,-0.11726911959648131,0.04783376432061195,0.04957389511936344
1746739242641391900,1.449391845703125,-0.1307896954268217,0.0749105718165636,0.013687310699373482
1746739242651470800,1.459470947265625,-0.06446165851652622,0.025910686326026916,-0.025269429280422626
1746739242661550000,1.469550048828125,0.021668226450681685,0.11087678821086883,0.12426696999403647
1746739242671629000,1.479629150390625,0.18360767790079116,0.10285831692814826,0.15683202704219146
1746739242681707000,1.48970703125,0.19730244125425814,0.08223112396299838,0.0906045370300766
1746739242691786000,1.499785888671875,0.399361137124896,0.04576397230923176,0.018058977311803028
1746739242701865000,1.509864990234375,0.4789753565877676,0.06140168642401695,-0.004881050039827823
1746739242711944000,1.51994384765625,0.5642758049935103,-0.054093409237265584,-0.057311019576899706
1746739242722023000,1.53002294921875,0.25400749429464337,-0.06531681404113769,0.015034661054564639
1746739242732102000,1.540101806640625,0.039411388412117956,-0.07516659240424632,-0.11893922649947926
1746739242742180900,1.550180908203125,-0.2662029590010643,-0.0923170491695404,-0.20217289683483539
1746739242752260000,1.560260009765625,-0.5031909294337034,-0.05054010066986084,-0.18846185820000244
1746739242762339000,1.570339111328125,-0.5854436807066202,0.014988310295343399,-0.19025970140220597
1746739242772418300,1.580418212890625,-0.6344084948837757,-0.009585574468970298,-0.1526070571577642
1746739242782497300,1.590497314453125,-0.5571925687342881,0.013800561815500259,-0.07420617727371863
1746739242792576000,1.600575927734375,-0.4607791901618242,0.09720774382054805,0.053728950705891475
1746739242802655200,1.6106552734375,-0.3763496793717146,0.08972001841366291,0.08743679371415637
1746739242812734200,1.620734130859375,-0.2701730316758156,0.1325409230083227,0.1868265120831318
1746739242822813200,1.630813232421875,-0.17863573470711708,0.11494681412875651,0.17865586417969315
1746739242832892200,1.64089208984375,-0.13301789287030696,0.04287000443339348,0.07294846883020363
1746739242842971100,1.65097119140625,-0.042194297128915786,0.05497662181258201,0.017276119838422165
1746739242853049300,1.66104931640625,0.04983692083656788,0.06544891598820686,-0.017077930385200307
1746739242863128000,1.671128173828125,0.127130003875494,0.08263269050121307,0.02932666878197342
1746739242873207000,1.68120703125,0.1276870532363653,0.10129881252646446,0.06524149291575886
1746739242883286300,1.691286376953125,0.13219020987451074,0.09912029944360255,0.07878090131073258
1746739242893365200,1.701365234375,0.12713234196305273,0.07143442013859748,0.06069058814574964
1746739242903444200,1.7114443359375,0.07294014852643013,0.056419221836328505,0.06483923225780017
1746739242913523200,1.721523193359375,-0.032435704180598254,0.028999884513020515,0.02909233030313626
1746739242923602200,1.731602294921875,-0.10542495254576205,0.02171206559240818,-0.03028525728159584
1746739242933681200,1.74168115234375,-0.1274836396187544,0.0013543372184038162,-0.06401831692950799
1746739242943760100,1.751760009765625,-0.16936463301479815,-0.009915829336643218,-0.08609493238483555
1746739242953839000,1.761839111328125,-0.28067922812104223,0.03083002254962921,-0.09572213577213697
1746739242963918300,1.77191845703125,-0.26643618323504925,0.07898118225634097,-0.024343601406086234
1746739242973997000,1.7819970703125,-0.29078151994049545,0.034032033461332316,-0.010435304899793118
1746739242984076300,1.792076171875,-0.31672026331722736,0.04678630109429359,-0.011118556189909578
1746739242994155300,1.8021552734375,-0.19967384656071663,0.04846387891769409,-0.03630870055588893
1746739243004234000,1.81223388671875,-0.08749299001395702,-0.034032033461332316,-0.04934483560384251
1746739243014313200,1.822313232421875,0.002802197939157486,-0.053099137502908705,-0.07747661377913317
1746739243024391200,1.83239111328125,0.035869185760617255,-0.013133037817478179,-0.10019410268757492
1746739243034470100,1.84247021484375,-0.026961072161793706,0.02260696860551834,-0.061181604799395425
1746739243044549000,1.852549072265625,-0.00528290883898735,0.09763444480001926,0.005466677041212097
1746739243054628000,1.862628173828125,-0.019116203880310056,0.083873045951128,0.03255399679802358
1746739243064707300,1.872707275390625,-0.0602928483992815,0.15518237840533256,0.14049422923349775
1746739243074786300,1.882786376953125,-0.045620179924368856,0.1287421152472496,0.1958803725618869
1746739243084865000,1.892864990234375,-0.08346095801889895,0.1082809264987707,0.13350978630678728
1746739243094944300,1.9029443359375,-0.09757073191404342,0.07184183189570903,0.09769843168063089
1746739243105023200,1.913023193359375,-0.09691139122247695,0.06902151377797126,0.08466921956380828
1746739243115102200,1.923102294921875,-0.14625439106225965,0.06309972251355647,0.014524556107958778
1746739243125181200,1.93318115234375,-0.03653028001785278,0.038213118538260454,-0.03636167285214178
1746739243135260200,1.94326025390625,0.04212649258971214,0.053963645377755165,-0.00603327054856345
1746739243145339100,1.953339111328125,0.050286418169736856,0.04934884505867958,-0.01179350544256158
1746739243155418000,1.963418212890625,0.033742110604047776,0.05350713378190994,-0.0262320911669638
1746739243165497000,1.9734970703125,-0.019622399836778638,0.05521802935302257,0.031174643869372083
1746739243175576300,1.983576416015625,-0.08699497736394404,0.06671966657638549,0.045323480266425756
1746739243185655000,1.993655029296875,-0.18664368459582328,0.07989537449181079,0.047563660408649594
1746739243195733000,2.00373291015625,-0.14407996963262557,0.07878127577006816,0.045570194169646125
1746739243205812200,2.013812255859375,-0.14939794978499413,0.05242693732976913,0.110479331592191
1746739243215891200,2.02389111328125,-0.12185001764595507,0.04811959552466869,0.03052893897751346
1746739243225970200,2.03397021484375,-0.09963526322841644,0.053314826080203055,-0.011147380425594747
1746739243236049200,2.044049072265625,-0.0764747523933649,0.050447746211290355,-0.005316482315026223
1746739243246128000,2.054128173828125,-0.076135145175457,0.04175006049275398,-0.014487923025153577
1746739243256207000,2.06420703125,0.003443418452143669,0.03386778281033039,-0.03634703240543604
1746739243266286000,2.0742861328125,0.057575990656018254,0.03793780872821808,-0.02173102602120489
1746739243276365300,2.084365234375,0.034247137516736983,0.02659749954640865,-0.016685871460847556
1746739243286444300,2.0944443359375,0.005147884282469749,0.037710429713129996,-0.0482198958276771
1746739243296523000,2.10452294921875,-0.012971709775924682,0.00201426243185997,-0.06690316991712898
1746739243306602200,2.114602294921875,-0.04023264166712761,0.08656827638447284,-0.008445893781399354
1746739243316681200,2.12468115234375,0.11605740571916102,0.14380290625691414,0.1856331193137914
1746739243326760200,2.13476025390625,0.05982756897509098,0.12451777555048466,0.22909716238388791
1746739243336839200,2.144839111328125,-0.03780512225925922,0.1324678577721119,0.12370897078509442
1746739243346918100,2.154918212890625,0.019568623822927473,0.11507774703204632,0.038967288773274045
1746739243356996400,2.164996337890625,0.008119009047746657,0.06314823783040047,0.031217405298864468
1746739243367075300,2.175075439453125,0.006387655210494995,0.03974690397679805,0.0010444127527065574
1746739243377154000,2.185154052734375,-0.04464753549993038,0.019547581034898755,-0.04498414704315364
1746739243387233300,2.1952333984375,-0.08164952468276024,-0.03563479248285294,-0.05949408097071573
1746739243397312300,2.205312255859375,-0.10640870288610457,-0.025482816302776334,-0.07670181174804457
1746739243407391000,2.215390869140625,-0.07908405810892581,-0.006638999623060226,-0.07954499928471633
1746739243417470200,2.22547021484375,-0.06359715064167976,0.03237666746973991,-0.024124003838654606
1746739243427549200,2.235549072265625,-0.08795885396003722,0.05770809260308742,-0.008194969493942335
1746739243437628200,2.245628173828125,-0.07175882978737354,0.07461538826227188,-0.009740728498063981
1746739243447707100,2.25570703125,-0.07501227862536906,0.056707975649833674,-0.006726595708122477
1746739243457786000,2.2657861328125,-0.04193593845367431,0.05059329216182232,-0.0156797905576881
1746739243467865300,2.275865234375,0.03202361624836921,0.02973813565969467,-0.025619512226572258
1746739243477944000,2.285944091796875,0.08337912495434284,0.03027005057930946,-0.015024011796386912
1746739243488023300,2.296023193359375,0.1574713661253452,0.049234278768301006,0.004344395013013855
1746739243498102300,2.306102294921875,0.1823719986259937,0.06903963395655155,0.043102488881861786
1746739243508181000,2.316180908203125,0.15784019943773744,0.06968786873221397,0.09270466938079334
1746739243518260200,2.32626025390625,0.13547171576321124,0.06836158856451512,0.10013716660225763
1746739243528338200,2.336338134765625,0.08222469422221183,0.05507657505571842,0.08310765106920152
1746739243538417200,2.346417236328125,0.061111763566732404,0.037815059131383895,0.011579871825035662
1746739243548496100,2.35649609375,0.03744914842844009,0.041809097203612325,-0.07703759217420593
1746739243558575000,2.3665751953125,-0.007741992428898811,0.02813654568195343,-0.10553142686123028
1746739243568654300,2.376654296875,-0.050531917363405225,0.05081716404557228,-0.01938301985664293
1746739243578733300,2.3867333984375,-0.0631423926115036,0.036220483416318894,0.023665464682504533
1746739243588812000,2.39681201171875,-0.1078892968326807,0.02345920152068138,0.015704294811282306
1746739243598891300,2.406891357421875,-0.1682517033368349,0.020088848304748535,-0.004640720211621373
1746739243608970200,2.41697021484375,-0.18623218118548393,0.01932078654170036,-0.04542321431385353
1746739243619049000,2.427049072265625,-0.20333295359015463,0.020552374163269996,-0.05856682832427323
1746739243629128200,2.437128173828125,-0.2556704590708017,0.026868717703223226,-0.05571934820497408
1746739243639207200,2.447207275390625,-0.2486561963945627,0.019461071795225143,-0.02874384565902874
1746739243649286100,2.4572861328125,-0.24436288311481474,0.05469722034931183,0.009861048675794154
1746739243659365000,2.467365234375,-0.17398644759654996,0.04195639671981335,0.004701894080638885
1746739243669444000,2.477444091796875,-0.1229647008895874,0.044971360626816746,-0.024564368017297236
1746739243679523300,2.4875234375,-0.07056114443540573,0.05494798023998737,-0.05127896373788826
1746739243689601300,2.497601318359375,0.004923427876830101,0.029682021558284758,-0.06845389735731296
1746739243699680000,2.507679931640625,0.08433131111264228,0.026357845571637152,-0.00749783580894582
1746739243709759200,2.51775927734375,0.13159458206892014,0.048404842206835746,0.09362614074042067
1746739243719838200,2.527838134765625,0.09717208798527717,0.06940145300626754,0.1253263063212391
1746739243729917200,2.537917236328125,0.0691162063241005,0.060441316959261894,0.09506286814580671
1746739243739996200,2.54799609375,0.08748422218561172,0.07776362316012382,0.06985373595156706
1746739243750075100,2.5580751953125,0.05059329216182232,0.06007599077820778,0.03229798534349538
1746739243760154400,2.568154296875,0.00008884732723236084,0.059094578525424,-0.008810005252901465
1746739243770233000,2.578233154296875,-0.014892448705434798,0.040461189725995064,-0.01612732426263392
1746739243780312300,2.588312255859375,-0.03984042747914791,0.0114677349537611,-0.030236467970116063
1746739243790391300,2.598391357421875,-0.03928688524961471,-0.001758241844177246,-0.015369062374392523
1746739243800470000,2.608469970703125,-0.06481587878167629,0.05148877969682216,0.028242134081432595
1746739243810549200,2.61854931640625,-0.10394435859918594,0.04069441395998001,0.04625007532574236
1746739243820628200,2.628628173828125,-0.1323889473170042,0.044539398950338364,0.03263893513511866
1746739243830707200,2.638707275390625,-0.13900924223959446,0.035350130322575564,0.013287305930582806
1746739243840786200,2.6487861328125,-0.1490145034253597,0.030779753667116164,-0.010053794768918305
1746739243850865200,2.658865234375,-0.16780922026634215,0.03928162455260754,-0.015165210365364327
1746739243860943000,2.668943115234375,-0.15744389359652994,0.04652385076582431,-0.004875076956767589
1746739243871022300,2.679022216796875,-0.12613280953168868,0.05153612596988678,0.014093516880087554
1746739243881101000,2.68910107421875,-0.1051437975168228,0.0502151064991951,0.005682721811532974
1746739243891180300,2.69918017578125,-0.06258768133819102,0.04479834214746952,0.003190430071763694
1746739243901259300,2.70925927734375,-0.027737901753187178,0.038629882645606996,-0.011433531290059909
1746739243911338000,2.719337890625,0.007519289588928222,0.057312371283769606,0.011445760583970696
1746739243921417200,2.729417236328125,0.0248263982206583,0.05237666844725609,0.048180815059458836
1746739243931496200,2.73949609375,0.0408557420015335,0.050321489483118056,0.056174307164549825
1746739243941575200,2.7495751953125,0.04797288053035736,0.04765197801291942,0.049511470008175816
1746739243951654100,2.759654052734375,0.07342296360731125,0.04679682248830795,0.03129693680847995
1746739243961733000,2.769733154296875,0.08996376404166222,0.04247895928919315,-0.001888891619676724
1746739243971812400,2.779812255859375,0.03679682199954987,0.052048167145252226,-0.012303747386485337
1746739243981891000,2.78989111328125,-0.028074586361646652,0.03745148651599884,-0.030664895115792748
1746739243991970300,2.79997021484375,-0.11043196705281734,0.00969488006234169,-0.020512754538934676
1746739244002049300,2.81004931640625,-0.17471593091487883,0.032871172988414764,0.011474667018046602
1746739244012128000,2.8201279296875,-0.18663082511425017,0.04117489095330238,0.01787020414089784
1746739244022206000,2.8302060546875,-0.1674620142638683,0.04434416863918304,0.03187826209408231
1746739244032285200,2.84028515625,-0.12346622067093849,0.05076280350983142,0.014078237112564965
1746739244042364200,2.8503642578125,-0.07097673949897289,0.054765609410405154,0.003647343526408076
1746739244052443400,2.860443359375,-0.04429156166911125,0.03232698310911655,-0.01534102358999662
1746739244062522000,2.870522216796875,-0.039299744731187816,0.03372457494735718,-0.0007106781531590968
1746739244072601000,2.88060107421875,0.01151391218304634,0.04221767800450325,0.03078462163847871
1746739244082680300,2.890680419921875,0.04382335963547229,0.029665070423483847,0.013394456099485978
1746739244092759000,2.900759033203125,0.042266193321347234,0.03663432491421699,-0.0025531550815328955
1746739244102838300,2.91083837890625,0.007613982135057449,0.03847673791050911,-0.0010621219393331556
1746739244112917200,2.920917236328125,-0.02917524107992649,0.04758183538615703,0.014734527330519631
1746739244122996000,2.930995849609375,-0.04378302762508392,0.06126140117049217,-0.0038457795748021452
1746739244133075200,2.9410751953125,-0.07378419813513755,0.05553250212967396,-0.02045337076820433
1746739244143154200,2.951154296875,-0.04589490521252155,0.03087269264757633,-0.017044356909161434
1746739244153233400,2.9612333984375,-0.05665069250464439,0.031741876697540285,-0.028878450090438126
1746739244163312000,2.97131201171875,-0.07040332352519035,0.02833645216822624,-0.021029380557872353
1746739244173391000,2.98139111328125,-0.0434223776191473,0.03922726401686668,-0.04006793435839936
1746739244183469300,2.99146923828125,-0.0355360082834959,0.04846270987391472,0.025588623897964135
1746739244193548300,3.00154833984375,-0.019695465072989464,0.05013093534708023,0.06946365892174654
1746739244203627000,3.011626953125,-0.044779637446999546,0.0686497578561306,0.05411049736938439
1746739244213706200,3.021706298828125,-0.03402209658920765,0.062465516263246534,0.050248963103024284
1746739244223785200,3.03178515625,-0.034688451543450356,0.058954877793788905,0.03407839335370809
1746739244233864200,3.0418642578125,-0.019772037440538404,0.04929506904482841,0.007354865407990291
1746739244243943200,3.051943115234375,-0.05791033717691898,0.04602817620337009,0.014623431638861074
1746739244254022100,3.062022216796875,-0.06725859575867653,0.039786651465296745,0.005718350247340276
1746739244264101400,3.072101318359375,-0.07940554514825343,0.03298457023501396,0.0019740217530168592
1746739244274180000,3.08218017578125,-0.10575637645721435,0.037626843082904815,-0.04459450840475038
1746739244284259000,3.092259033203125,-0.08212883263230324,0.016343816557526588,-0.09055441427803598
1746739244294338300,3.10233837890625,-0.010565233156085013,0.028936756148934362,0.013830536828655749
1746739244304417000,3.1124169921875,-0.0013970073163509368,0.056526189342141146,0.056919051984092216
1746739244314496300,3.122496337890625,0.00602057546377182,0.062468438872694966,0.0662790375362616
1746739244324575200,3.1325751953125,-0.002683539995551109,0.07968903826475143,0.06510722641106695
1746739244334654200,3.142654296875,-0.0023135376393795012,0.045108723270893096,0.0267291083031334
1746739244344732200,3.152732177734375,-0.004359364253282547,0.0287391877502203,-0.007132811021991074
1746739244354811100,3.16281103515625,-0.02432663200497627,0.05332827008366584,-0.010096811926737427
1746739244364890000,3.17289013671875,0.05389116466343403,0.039170565393567086,0.04254835299728438
1746739244374969300,3.18296923828125,0.015092939713597297,0.05173427889049053,0.044025841671321536
1746739244385048000,3.193048095703125,-0.05864391214847564,0.04964285956919193,0.0066143492389935995
1746739244395127300,3.203127197265625,-0.07912731272876262,0.032171500286459924,0.0074993610457517205
1746739244405206300,3.213206298828125,-0.09701952777206897,0.01977320648431778,-0.023812910329177973
1746739244415285000,3.223284912109375,-0.10412322229743003,0.030878537866473196,-0.024998165457835418
1746739244425364200,3.2333642578125,-0.15868950974345206,0.03633680327236652,-0.0008483969902619719
1746739244435443200,3.243443115234375,-0.10703589487373828,0.04561024305224418,0.03129846204528585
1746739244445522200,3.253522216796875,-0.12711597535014152,0.05827157170474529,0.03611883140644059
1746739244455601200,3.26360107421875,-0.1141635547965765,0.06407353598177433,0.00026767449285835024
1746739244465680100,3.27368017578125,-0.09923311216831207,0.019968436795473096,-0.054108433276461435
1746739244475759400,3.28375927734375,-0.10820961482822894,0.015633622461557386,-0.09696770625328645
1746739244485838000,3.293838134765625,-0.1201630874723196,0.02471358549594879,-0.11008273349003865
1746739244495917000,3.3039169921875,-0.1862286740541458,0.019270517659187317,-0.09166026576124131
1746739244505996300,3.313996337890625,-0.18353870431780814,0.019465747970342635,-0.07024779960333835
1746739244516074200,3.32407421875,-0.16159692162275313,-0.019120295533537862,-0.03293544756339397
1746739244526153000,3.334153076171875,-0.23411913699805736,0.006949965268373489,0.014371509554272051
1746739244536232200,3.344232177734375,-0.47910687401294705,-0.01730652410984039,-0.07069204993923195
1746739244546311200,3.354311279296875,-0.5883493390202522,-0.1581213544666767,-0.1360709237653762
1746739244556390400,3.364390380859375,-0.7719879965811968,-0.09786065477132797,-0.0721874715621816
1746739244566469000,3.37446923828125,-0.7637029833167791,0.003719312784075737,-0.0004318806197319645
1746739244576548000,3.384548095703125,-0.6131698920220137,0.1290337916702032,-0.003862182720331475
1746739244586627300,3.39462744140625,-0.2315817274749279,0.1709708991676569,-0.0708942945130635
1746739244596706000,3.4047060546875,0.1818459289252758,0.17494623253941535,0.053487328536319545
1746739244606785300,3.414785400390625,0.3901303674429655,0.12277297770977019,0.13573953638654201
1746739244616864300,3.4248642578125,0.5524708009093999,0.10141104072928428,0.10593482916350476
1746739244626943200,3.434943115234375,0.7053045703619718,0.1239186406135559,0.06844475506963207
1746739244637022200,3.445022216796875,0.7114794596046209,0.12668927437067032,0.08018569007473997
1746739244647101200,3.45510107421875,0.6984358536362648,0.09496551785171031,0.16069942479375748
1746739244657180200,3.46518017578125,0.5388052636504173,0.08513093705773353,0.2008031793842092
1746739244667259100,3.475259033203125,0.2970119387626648,0.09746668701767922,0.1700522134201601
1746739244677337000,3.485337158203125,0.05210194315910339,0.1046475384324789,0.09774343986613675
1746739244687416000,3.495416015625,-0.13861468996405601,0.06212590904533863,0.030767798367841166
1746739244697495300,3.505495361328125,-0.26508126149475575,0.0084831661850214,0.020542985280416905
1746739244707574000,3.515573974609375,-0.36302667194008825,0.010884382107853889,-0.0019243830581661312
1746739244717653200,3.5256533203125,-0.3597311375260353,-0.02916822681725025,-0.02862084946702234
1746739244727732200,3.535732177734375,-0.3392623499929905,0.010254852032661438,-0.03930665852916427
1746739244737811200,3.545811279296875,-0.24902502970695495,0.026599837633967397,-0.050083415544079614
1746739244747890200,3.55589013671875,-0.17146365112066267,0.006738952866196632,-0.04066369916130788
1746739244757969000,3.565968994140625,-0.10818681847453117,0.05719195977449417,-0.03018857370777987
1746739244768047900,3.5760478515625,-0.06641220806241036,0.061571197772026055,-0.022202095865365118
1746739244778126800,3.586126953125,-0.018089783442020415,0.06387772114872932,0.11037541455999016
1746739244788205800,3.596205810546875,0.05249883352220058,0.09248948312699794,0.04671708091613836
1746739244798284800,3.606284912109375,0.1663911701619625,0.08377835340499877,0.09445057233320549
1746739244808364000,3.616364013671875,0.21375088723003863,0.08642097686827183,0.11690376601596363
1746739244818442800,3.62644287109375,0.2006990979552269,0.06690612905919552,0.017062678017141297
1746739244828522000,3.63652197265625,0.1634066013932228,0.016274258452653883,-0.05746120516993105
1746739244838601000,3.64660107421875,0.12426818470358848,0.044942719054222105,-0.036796200945042074
1746739244848679000,3.656678955078125,0.1645920117855072,0.05197334834337234,0.0183059515099274
1746739244858757600,3.666757568359375,0.12249942146539687,0.046212300598621366,0.012108325279084965
1746739244868836900,3.6768369140625,0.02234334923326969,0.05431669659912586,0.020558370079216546
1746739244878915800,3.686915771484375,0.03258767987191677,0.03949614408612251,0.043169877862534484
1746739244888994800,3.696994873046875,0.020132687446475027,0.040102877807617184,0.059464475850318554
1746739244899073800,3.70707373046875,0.010344868403673171,0.06496668542921542,0.07671473516169935
1746739244909152800,3.71715283203125,-0.018413608568906784,0.060623687788844104,0.06225572770377621
1746739244919232000,3.72723193359375,-0.05843757592141628,0.06582417904138564,0.02910629489640705
1746739244929310700,3.737310791015625,-0.03356441594958305,0.04401157568395137,0.015250746924080886
1746739244939390000,3.747389892578125,-0.12185060216784477,0.010638882914185523,-0.028530253140698184
1746739244949469000,3.757468994140625,-0.1456114169836044,0.025869769793748856,-0.032295962349767796
1746739244959547600,3.767547607421875,-0.17231880664527416,-0.009212649503350257,-0.057936868990818034
1746739244969627000,3.777626953125,-0.24414310288429258,0.015907178705930707,-0.10058326640194282
1746739244979705900,3.787705810546875,-0.2310194174170494,0.004348258337378502,-0.05593766713077202
1746739244989784800,3.797784912109375,-0.16343115131258965,0.0333487273722887,0.004657844876358285
1746739244999863800,3.80786376953125,-0.16047230150699615,0.044886020430922505,0.035255675238464027
1746739245009942800,3.81794287109375,-0.15057342330515383,0.03134732442200184,0.027188158915936945
1746739245020021000,3.82802099609375,-0.11436872197985648,0.059931029349565505,0.06495021378502715
1746739245030100000,3.838099853515625,-0.0648585488796234,0.03849836522042751,0.06200909143236931
1746739245040178700,3.8481787109375,-0.06644961746335029,0.012080898416042327,0.05086177493885625
1746739245050258000,3.8582578125,-0.06288403393626213,0.03404781555235386,-0.00831152681200765
1746739245060337000,3.8683369140625,-0.03990589393079281,0.019126725274324415,-0.00966964972296264
1746739245070415600,3.87841552734375,-0.02745733124613762,0.027034721919894217,-0.007164420869806781
1746739245080494800,3.888494873046875,-0.034629999354481696,0.022984569746255873,0.012296842721663415
1746739245090573800,3.89857373046875,-0.06768295865058899,0.014790741896629333,-0.023701417345297522
1746739245100653000,3.908653076171875,-0.10171733019948005,0.02540507489144802,-0.04267173278178088
1746739245110731800,3.918731689453125,-0.10530395651459694,0.01257657297849655,-0.03995473804119974
1746739245120810800,3.928810791015625,-0.20209610527157781,-0.0032639702320098876,-0.11326945550106465
1746739245130890000,3.938889892578125,-0.275056712064147,0.0058043023645877835,-0.07541991414476651
1746739245140968700,3.94896875,-0.17533961577117443,0.06331482656896115,0.08441984791262075
1746739245151048000,3.9590478515625,-0.07573767029047011,0.11333002658188343,0.19017700982112437
1746739245161127000,3.969126953125,0.01753916382193565,0.1426321089118719,0.18585934755140915
1746739245171205600,3.97920556640625,0.10701076043248176,0.13168459843993185,0.14742305124914273
1746739245181284900,3.989284912109375,0.13686463142633437,0.10507540845572948,0.06824557466914412
1746739245191362800,3.99936279296875,0.1235439620822668,0.06599836656451225,0.006159591208817437
1746739245201441800,4.00944189453125,0.08980360504388808,0.023472645524144173,-0.013257225886150262
1746739245211521000,4.01952099609375,0.018584288960695267,-0.0027981062859296795,-0.026416073998319915
1746739245221599700,4.029599853515625,-0.049026188975572586,0.0028740941315889357,-0.13067565885940566
1746739245231679000,4.039678955078125,0.05859539683163166,0.0007920271605253219,-0.22046605736184863
1746739245241758000,4.049758056640625,0.3174152598440647,0.05407762714624405,-0.13772818031995557
1746739245251836700,4.059836669921875,0.5288029250741004,0.09869359846413135,0.12267587401084601
1746739245261916000,4.069916015625,0.5814467200249434,0.15576806933879853,0.3122751935418695
1746739245271995000,4.079994873046875,0.4310246878892183,0.14977145927250385,0.3308717209296301
1746739245282073900,4.090073974609375,0.26082477309405805,0.03181377288997173,0.18905304729249328
1746739245292152800,4.10015283203125,0.13251052787005901,-0.033716391640901566,0.1951479301014915
1746739245302231800,4.110231689453125,-0.33898061044216155,-0.009498480707406998,-0.06246504590578843
1746739245312311000,4.12031103515625,-0.44890228988528247,-0.07849252195656299,-0.2769649020393379
1746739245322389800,4.1303896484375,-0.48752983444333076,0.013796470162272452,-0.16992891583405434
1746739245332468700,4.14046875,-0.3994371249705553,-0.029141923332214353,-0.05926557401104364
1746739245342548000,4.1505478515625,-0.5052548762261867,-0.002616319978237152,0.01016881315044593
1746739245352626700,4.160626708984375,-0.6246265210598707,0.01521568931043148,-0.07520138972299173
1746739245362704600,4.17070458984375,-0.7383125214725732,-0.03494681021869182,-0.06541628779366146
1746739245372783900,4.180783935546875,-0.8444891691684723,-0.07505728681087494,-0.013960771045624277
1746739245382862800,4.19086279296875,-0.6622708997994661,-0.005177110376954079,0.022702113242796623
1746739245392941800,4.20094189453125,-0.3313607830882072,0.12027356210947036,0.06969839012622833
1746739245403020800,4.211020751953125,-0.0566372485011816,0.1380307525962591,0.04307470582579262
1746739245413099800,4.221099853515625,0.08615677297413349,0.11753916870951651,-0.013739611708768643
1746739245423179000,4.231178955078125,0.1933311995357275,0.08369125964343548,-0.019974313980410805
1746739245433257700,4.2412578125,0.2859656440913677,0.04678571657240391,0.006525090919807553
1746739245443337000,4.2513369140625,0.32721710741221904,0.03628711891174316,0.02172255045380443
1746739245453416000,4.261416015625,0.29852877306640146,0.052706923314929,0.0452806412051199
1746739245463494700,4.27149462890625,0.2458808864623308,0.06614625060260296,0.05264095453978516
1746739245473574000,4.281573974609375,0.21140929253995416,0.08029401842057704,0.06093434290690347
1746739245483652900,4.29165283203125,0.18738018217682836,0.09666881463825702,0.11238466289001517
1746739245493731800,4.30173193359375,0.1893441757261753,0.09742226335406302,0.11465899189701304
1746739245503810800,4.311810791015625,0.1602607045829296,0.0813718767851591,0.10902957117529585
1746739245513889800,4.321889892578125,0.09554361000061035,0.0663835664898157,0.04872387699417304
1746739245523969000,4.331968994140625,-0.013721066838502884,0.021930092257261277,-0.012092639086185953
1746739245534047000,4.342046875,-0.09377075510919093,-0.0026040450185537338,-0.03740267437163274
1746739245544125700,4.352125732421875,-0.16953472888469695,0.03285129924416542,0.013391451291646808
1746739245554205000,4.362204833984375,-0.23009704187512398,0.05323708466887474,0.04753009606576524
1746739245564284000,4.372283935546875,-0.22429507759809492,0.07387421450614928,0.06075737890480086
1746739245574363000,4.38236279296875,-0.20239538047909736,0.0749538264364004,0.09452158260964788
1746739245584441900,4.39244189453125,-0.14168459892868995,0.07744272064268588,0.05858676143402699
1746739245594520800,4.402520751953125,-0.08820902932882309,0.025442484292387962,-0.00680332790587563
1746739245604600000,4.41260009765625,-0.05870177981555461,0.017546178084611893,-0.03149776117678266
1746739245614678800,4.4226787109375,-0.08877133938670158,-0.042220016092061996,-0.11484295189548283
1746739245624757800,4.4327578125,-0.03493745786845684,-0.07473346168398856,-0.14550492440182713
1746739245634837000,4.4428369140625,0.006239186650514602,0.04713642970621586,-0.11683883842043578
1746739245644915700,4.452915771484375,0.008377367722988128,0.08445990592837334,0.06024398602256551
1746739245654995000,4.462994873046875,0.16220307082235813,0.09045300886332988,0.1911824240040034
1746739245665074000,4.473073974609375,0.10922142221927642,0.08388707447648049,0.07296698630100582
1746739245675153000,4.48315283203125,0.03939443727731704,-0.018893501040339468,-0.07399595488940831
1746739245685231900,4.49323193359375,-0.09700608376860619,-0.068475570333004,-0.1840704000417143
1746739245695310800,4.503310791015625,-0.07499240488111972,-0.016974515676498412,-0.10437179023101925
1746739245705388800,4.513388916015625,-0.1344406191498041,0.04468786751031875,0.004291482082265429
1746739245715468000,4.523468017578125,-0.19852116939425468,0.07671148375868797,-0.0010664145219605415
1746739245725546800,4.533546630859375,-0.1455430279225111,0.05183949283063411,-0.008794981213705614
1746739245735625700,4.543625732421875,0.0015232640445232391,0.02983049011826515,-0.01282266582720913
1746739245745705000,4.553705078125,0.0670639499694109,0.031247371178865432,0.00913552457995247
1746739245755785000,4.563784912109375,0.021063830816745756,0.019339491242170333,-0.004899421380157582
1746739245765864000,4.573864013671875,-0.13328326580822467,0.06069032328426838,0.012499772282084449
1746739245775943200,4.583943115234375,-0.240887900480628,0.06132745214402675,-0.03862283185031265
1746739245786022000,4.59402197265625,0.663951400232315,-0.08003156809210776,0.03769299452113919
1746739245796100900,4.604100830078125,0.507863597419858,0.14187281497716903,0.29739436220899224
1746739245806180000,4.61418017578125,0.3906745573222637,0.20080138928592203,0.09979665520205162
1746739245816258800,4.6242587890625,0.13933482093214988,0.08205927452743053,0.06634637171800714
1746739245826337800,4.634337890625,-0.08651391584873198,0.06921323695778846,0.0926344719551038
1746739245836417000,4.6444169921875,-0.42396483250558376,-0.005472293931245803,-0.05823510301872156
1746739245846495700,4.654495849609375,-0.7417004103451966,-0.07519991015195845,-0.150850221819384
1746739245856575000,4.664574951171875,-1.0031406849890947,-0.0537310056656599,-0.14751293975599108
1746739245866654000,4.674654052734375,-0.9343144015222787,-0.05510930828154087,-0.16376655727941541
1746739245876733000,4.68473291015625,-0.3276630976140499,0.048420039775967594,0.20518563225213438
1746739245886812000,4.69481201171875,-0.06978139223456382,0.2755254986196756,0.5144480903767049
1746739245896889900,4.704889892578125,-0.16614157931506632,0.30021044254302975,0.28124975801799446
1746739245906968800,4.71496875,-0.13516484177112578,-0.00547287845313549,-0.1567879139058292
1746739245917048000,4.725048095703125,0.14626666602194308,-0.10805179391801356,-0.33800102482028305
1746739245927126800,4.735126708984375,0.39340778167843815,-0.06829144593775271,-0.3074651263790205
1746739245937206000,4.7452060546875,0.42435704669356344,-0.11143149948418139,-0.2509792507809587
1746739245947285000,4.755284912109375,0.4023685022473335,-0.10333996296525001,-0.19844119949322192
1746739245957364000,4.765364013671875,0.3591717500776052,0.041783962762355804,-0.06671912772026845
1746739245967443000,4.77544287109375,0.2837298478633165,0.08204933765530585,0.053239897680468856
1746739245977522000,4.78552197265625,0.1563257032215595,0.08845102139115334,0.045074236479401585
1746739245987601200,4.79560107421875,0.10463701703846454,0.10056406851112842,0.04760950884437188
1746739245997679900,4.805679931640625,0.10556406875550746,0.07433131062388419,0.06513207772453315
1746739246007758800,4.8157587890625,0.06879588832855224,-0.0023439327776432037,-0.05454773800917901
1746739246017838000,4.825838134765625,-0.03234159615635872,-0.004576806396245956,-0.15292149340179748
1746739246027916800,4.835916748046875,-0.08429857788681984,0.01138882449865341,-0.05819902705834247
1746739246037995800,4.845995849609375,0.0274842192530632,0.019625322446227073,-0.013296630881354212
1746739246048075000,4.856074951171875,0.10526362450420856,0.049967269217967986,0.010538381681777537
1746739246058154000,4.866154052734375,0.14718027373552323,0.04547112684249878,0.03930664939600974
1746739246068233000,4.87623291015625,0.11093874753117561,0.04887012163102627,0.02897385502262041
1746739246078312000,4.88631201171875,0.0902303060233593,-0.04499123437106609,-0.12490803524339571
1746739246088390000,4.896389892578125,-0.0488379729270935,-0.12175590962171554,-0.2643339867914095
1746739246098469000,4.90646923828125,-0.1015799675554037,-0.09636603229939937,-0.2661088327105157
1746739246108547800,4.9165478515625,-0.13984627758562565,-0.08845978921949862,-0.2121139884768985
1746739246118626800,4.926626708984375,-0.2553489720314741,-0.04063128559589386,-0.15099205057602375
1746739246128706000,4.9367060546875,-0.25364801333248616,0.029288638326525687,-0.05528294781539589
1746739246138784800,4.94678466796875,-0.13926526282727716,0.07383095988631248,0.05027549491692334
1746739246148864000,4.956864013671875,-0.1509632994055748,0.10741583410203456,0.1531506533820182
1746739246158943000,4.96694287109375,-0.10891980892419814,0.14001812702119348,0.20883765195365994
1746739246169022000,4.97702197265625,-0.05424129327535629,0.18000877662599085,0.27545480800364164
1746739246179101000,4.987100830078125,-0.16742694295048713,0.1484802504181862,0.3135827324764803
1746739246189180000,4.997179931640625,-0.23624621215462682,0.10103753124177456,0.22016659949123857
1746739246199259100,5.007259033203125,-0.23672493558228014,0.057258010748028755,0.10975742879211901
1746739246209337900,5.017337890625,-0.2178437095016241,0.04177870206534862,0.06302132351510227
1746739246219416800,5.027416748046875,-0.12784545866847039,0.0888268689662218,0.05208254433888942
1746739246229496000,5.03749609375,-0.09317162017226219,0.09434475560486316,0.04377517311219126
1746739246239574800,5.04757470703125,-0.12355214538872242,0.09560381575524807,0.08158968425430357
1746739246249653800,5.05765380859375,-0.1388636962890625,0.11639350580573081,0.1204736147262156
1746739246259733000,5.06773291015625,-0.1565916606813669,0.1223673195183277,0.08098689605556428
1746739246269812000,5.07781201171875,-0.08691957404017447,0.0978945570409298,0.09862035056483
1746739246279890000,5.087889892578125,0.016987375158071517,0.034870822373032566,0.03468666144516319
1746739246289969000,5.097968994140625,0.12727847243547438,0.03753858027756214,-0.010087203848175704
1746739246300048000,5.1080478515625,0.23563947843313215,0.09690262339413165,0.032541064251214266
1746739246310127000,5.118127197265625,0.3189081287503242,0.12467793454825878,0.034637853867374356
1746739246320205800,5.128205810546875,0.37944998347461223,0.05967559328377246,0.0005463818363845348
1746739246330284800,5.138284912109375,0.39755671805143356,0.0026800328642129895,0.03581767476908863
1746739246340364000,5.148364013671875,0.3353589128136635,0.0068920976012945175,0.06695983200781047
1746739246350443000,5.158443115234375,0.26982816376090046,0.072701663595438,0.11937164483368395
1746739246360522000,5.16852197265625,0.2518991238385439,0.06677578067779541,0.11198456678967922
1746739246370601000,5.17860107421875,0.18801848008036612,0.03867430630922317,0.057952422752976414
1746739246380680000,5.188679931640625,0.023401918375492093,-0.007573065602779388,-0.0011466492844745516
1746739246390759000,5.198759033203125,-0.13507540992200373,-0.0238286193549633,-0.05333367691114545
1746739246400838000,5.208837890625,-0.2583417241066694,0.009169979405403136,-0.000589453793130815
1746739246410917000,5.218917236328125,-0.33451018702983853,0.05391162292957306,0.06089874187055975
1746739246420995800,5.228995849609375,-0.3996598278105259,0.06503682805597782,0.0526130344863981
1746739246431074800,5.23907470703125,-0.41322424278259273,0.06283961027264595,0.05420450492892414
1746739246441154000,5.249154052734375,-0.33502807342410085,0.06737374657094478,0.10119955340307206
1746739246451233000,5.25923291015625,-0.19843524467647075,0.086670567715168,0.12993782783783972
1746739246461311700,5.269311767578125,-0.0492740262567997,0.10759235971271991,0.16710034134462476
1746739246471391000,5.279390869140625,0.0007686462849378586,0.036031098324060436,0.10643277788143604
1746739246481470000,5.289469970703125,-0.06245207225978374,-0.04000818526148796,-0.05744443669822067
1746739246491548000,5.2995478515625,-0.10058803390860557,-0.06521569175422191,-0.19793781654834747
1746739246501627000,5.309626953125,-0.11545008747577666,-0.06199556066393852,-0.19056352492067963
1746739246511705900,5.319705810546875,-0.10323825615644454,-0.038918636459112164,-0.1426956026021391
1746739246521785000,5.32978515625,-0.08558394152224064,0.000723053577542305,-0.08564560858160257
1746739246531863800,5.33986376953125,-0.0615869798630476,0.035629531785845756,0.0005459434449672699
1746739246541942800,5.34994287109375,-0.01758767913877964,0.040727731707692144,0.005628251677937806
1746739246552022000,5.36002197265625,-0.013353987091779708,0.046045127338171,0.03777096426133066
1746739246562101000,5.37010107421875,-0.01565758785903454,0.04690437451601028,0.04324881115052849
1746739246572180000,5.380179931640625,0.0010118073910474776,0.048560325029492375,0.05283497014138847
1746739246582259000,5.390259033203125,-0.011787468427419661,0.03120294751524925,0.026472484927251932
1746739246592338000,5.400337890625,-0.031083705049753187,0.028140637335181233,0.0030003143271431325
1746739246602417000,5.4104169921875,-0.03127192109823227,0.045695583248138424,0.011268011130578815
1746739246612496000,5.420495849609375,0.00715162532031536,0.0510077181816101,0.027315000165998936
1746739246622575000,5.4305751953125,0.014261165064573287,0.04806289690136909,0.01664795060325414
1746739246632653800,5.44065380859375,-0.03644610886573791,0.036869302713871,0.023130736751295625
1746739246642732800,5.45073291015625,-0.08835399075746536,0.04609013552367687,0.03500073236301541
1746739246652812000,5.46081201171875,-0.11458265699148178,0.03909340850412845,0.034015045793913304
1746739246662891000,5.47089111328125,-0.10760229658484459,0.015951017847657203,0.024033384679444134
1746739246672969700,5.4809697265625,-0.05518061995208263,0.02523556354343891,0.04153948648199439
1746739246683049000,5.491049072265625,-0.019016250637173653,0.03734393448829651,0.054828518578782674
1746739246693128000,5.5011279296875,0.046913726866245266,0.03734393448829651,0.029554997645132242
1746739246703206000,5.511205810546875,0.12068506551980972,0.04069324491620063,0.018077873808518052
1746739246713284900,5.521284912109375,0.15480769987404344,0.029240707531571385,0.027946356872096657
1746739246723363800,5.53136376953125,0.1598725820481777,0.053334699824452395,0.007176430968008935
1746739246733443000,5.541443115234375,0.13626958814263343,0.04124737166762352,0.02059986656680703
1746739246743522000,5.55152197265625,0.09700257663726806,0.04288461748063564,0.025760208472050725
1746739246753600000,5.56160009765625,0.06274024155139923,0.05195815077424049,0.02939695753920823
1746739246763678700,5.5716787109375,-0.0032283143967390057,0.037783494949340815,0.029774376016855238
1746739246773758000,5.581758056640625,-0.07106149517297744,0.05778174236118793,0.0007392009947448969
1746739246783837000,5.5918369140625,-0.09257306975722313,0.022299510091543195,-0.009729732180014251
1746739246793915600,5.60191552734375,-0.13662263936400412,0.00010053776502609253,-0.02041683815009892
1746739246803995000,5.611994873046875,-0.14901859507858753,0.037032968842983245,0.012836794817261398
1746739246814073900,5.622073974609375,-0.15718202778995036,0.04598550610542297,0.05248155359383672
1746739246824152800,5.63215283203125,-0.13064941017329693,0.04408405639827251,0.0922272519942373
1746739246834231800,5.642231689453125,-0.08013736655414104,0.06388122828006744,0.0891420358626172
1746739246844310800,5.652310791015625,-0.041644846552610394,0.04652268172204494,0.03822261701896786
1746739246854390000,5.66239013671875,-0.034593758997321124,0.03088321404159069,0.003256481045298278
1746739246864468700,5.67246875,-0.009312018224596976,0.05330079755485057,0.012031067924946546
1746739246874548000,5.6825478515625,0.01478255859017372,0.058497197154164314,0.021377755604125557
1746739246884627000,5.692626953125,0.04433247820138931,0.032768297135829925,0.028593276473507283
1746739246894705700,5.70270556640625,-0.01558686071038246,0.007127659922838211,0.003073160367645323
1746739246904785000,5.712784912109375,-0.0452782346189022,0.005627776753902435,-0.019627076011896134
1746739246914863900,5.72286376953125,-0.07727963903546332,0.015989596292376517,-0.022062596063129603
1746739246924941800,5.73294189453125,-0.1387584823489189,0.016030512824654577,-0.055620618804544206
1746739246935020800,5.743020751953125,-0.1356266140639782,0.028572014489769933,-0.05035900848191231
1746739246945099800,5.753099853515625,-0.09368716847896576,0.05924129351973533,0.017479725252278148
1746739246955178800,5.7631787109375,-0.07230360418856144,0.0567851325392723,0.06293068608958274
1746739246965258000,5.773258056640625,-0.009816460615396498,0.0635562341094017,0.054911520687118166
1746739246975336700,5.783336669921875,0.013655600386857985,0.05857961474061012,0.055628655980527394
1746739246985416000,5.793416015625,0.058794718796014785,0.03769581666588783,0.05203830333836376
1746739246995495000,5.803494873046875,0.07490121946632862,0.020191724157333373,0.02118530177194625
1746739247005573600,5.81357373046875,0.052527475094795224,0.03245674696862697,0.012316606868058442
1746739247015652900,5.82365283203125,0.06920271556377411,0.04525193113386631,0.014924487811513244
1746739247025731800,5.83373193359375,0.08857201742231845,0.044323710373044015,0.03450776121430099
1746739247035811000,5.84381103515625,0.038032501274347305,0.03683540044426918,0.039445546410046516
1746739247045889800,5.853889892578125,-0.017967033845186234,0.06603460692167282,0.07803834844827652
1746739247055968800,5.86396875,-0.10244389090836048,0.07421732885539531,0.08866247218474745
1746739247066048000,5.874048095703125,-0.15578794308304786,0.0522147558838129,0.06459536789879203
1746739247076126700,5.884126708984375,-0.17659458426833152,0.03132745067775249,0.03240457838997245
1746739247086206000,5.8942060546875,-0.16966683083176612,0.02332943766117096,-0.0008360672316513955
1746739247096285000,5.904284912109375,-0.11652326966524124,0.0529161821514368,0.005711509514600038
1746739247106363600,5.91436376953125,-0.07844049950838089,0.05358779780268669,0.03368376801293343
1746739247116443000,5.92444287109375,-0.04074000666737556,0.036247955945134164,0.023913247164804488
1746739247126521900,5.93452197265625,0.044732291173934936,0.0209007492095232,-0.030924094041250644
1746739247136600800,5.944600830078125,0.09148118286728858,0.03400982162952423,0.006780947110708802
1746739247146679800,5.9546796875,0.10623743797242641,0.022869418933987615,0.03155428170356899
1746739247156758800,5.9647587890625,0.03399228597283363,0.03560439734458923,0.06178725167550146
1746739247166838000,5.974838134765625,-0.09469488421678543,0.05318447769880295,0.0544911763831973
1746739247176916700,5.984916748046875,-0.12862228825986385,0.037300095346570014,0.016151216594874857
1746739247186994700,5.99499462890625,-0.20380057110190392,0.04273907153010368,0.022042064731754362
1746739247197074000,6.005073974609375,-0.24082418759465216,0.04516717545986175,0.03547193007133901
1746739247207153000,6.01515283203125,-0.20596447113752364,0.07316109780073166,0.07125935583263636
1746739247217232000,6.02523193359375,-0.17158172454237938,0.0906610986560583,0.09720189860165118
1746739247227310800,6.035310791015625,-0.1280968030810356,0.07376724700033664,0.08481489337850362
1746739247237389800,6.045389892578125,-0.03828150759935379,0.04042378032505512,0.005809489996358752
1746739247247469000,6.055468994140625,0.0530032759130001,0.03806874163150787,-0.057886682306695726
1746739247257547800,6.0655478515625,0.14593758019804953,-0.002270283019542694,-0.12836018499126656
1746739247267626800,6.075626708984375,0.22479425929188726,-0.018178630769252777,-0.10286476493524387
1746739247277706000,6.0857060546875,0.29945173313021656,0.008006196323037148,-0.02906878503076732
1746739247287784700,6.09578466796875,0.38476504101753234,0.04157470392584801,0.07218657194646075
1746739247297864000,6.105864013671875,0.39426235268115994,0.06494564264118671,0.1334881407305598
1746739247307943000,6.11594287109375,0.29990649116039275,0.015920038187503812,0.052459579224046315
1746739247318022000,6.12602197265625,0.07455752059519291,-0.022914427119493482,-0.11932886513788252
1746739247328100900,6.136100830078125,-0.024760931769013405,-0.06040332303643226,-0.1147654844787903
1746739247338179800,6.146179931640625,-0.18252631240487097,0.00286649534702301,-0.027393472229689356
1746739247348258800,6.1562587890625,-0.21666355980634688,0.03885433905124664,0.009232943372707813
1746739247358337800,6.166337890625,-0.2450011810183525,0.04047638729512691,0.053150447565037756
1746739247368416800,6.176416748046875,-0.2596773566246033,0.06813947024643421,0.05680979205649346
1746739247378496000,6.18649609375,-0.3318710706979036,0.0696557200282812,0.009923720382153988
1746739247388574700,6.19657470703125,-0.44888709231615065,0.016164368337392807,0.05903305759653449
1746739247398653700,6.20665380859375,-0.5751373907476663,0.024745149677991865,0.09847306931493803
1746739247408733000,6.21673291015625,-0.5069593420565128,0.03827624690234661,0.10904548113048076
1746739247418812000,6.22681201171875,-0.5417208588361739,0.0771241562128067,-0.05389419687073677
1746739247428891000,6.236890869140625,-0.4631237074613571,-0.02433364626765251,-0.20434547336725517
1746739247438969900,6.246969970703125,-0.37922961872220035,-0.03411912722289562,-0.16328081958908586
1746739247449048800,6.257048828125,-0.19943828423917292,0.049287470260262485,-0.06193827751874923
1746739247459127800,6.2671279296875,0.02146539735496044,0.05999006606042385,-0.017459668844938277
1746739247469206800,6.277206787109375,0.09501754029989241,0.029362872606515884,0.008419581163208931
1746739247479284700,6.28728466796875,0.15316285527646542,0.03909399302601814,0.012994670526403932
1746739247489364000,6.297364013671875,0.24414018027484416,0.04905483054816723,0.008752448113076388
1746739247499442700,6.307442626953125,0.36526129912436006,0.07078560084104538,0.060194922716449946
1746739247509522000,6.31752197265625,0.4503349530369043,0.10314999335110187,0.08501268097292632
1746739247519601000,6.327600830078125,0.5469061525195836,0.11761574107706546,0.12761756819672881
1746739247529680000,6.337679931640625,0.5848842932581901,0.12021978609561919,0.16983981277849525
1746739247539758800,6.3477587890625,0.5327537085264921,0.09746201084256172,0.16325791363753378
1746739247549837800,6.357837890625,0.40349896758198733,0.05826397292017936,0.09610847734175622
1746739247559916800,6.367916748046875,0.21800153041183948,0.010022212320566177,-0.0016293182348832487
1746739247569995800,6.377995849609375,0.04569090707302093,0.0015513210952281952,-0.03812657276596874
1746739247580074800,6.38807470703125,-0.13802899903059004,-0.03934475291669368,-0.04897288788575679
1746739247590154000,6.398154052734375,-0.29489129334688186,-0.028044191223382947,-0.057257444492448115
1746739247600233000,6.40823291015625,-0.3709457745015621,0.02352057631909847,-0.03989984778249636
1746739247610311700,6.418311767578125,-0.37715105888247485,0.049450551867485044,0.022389672593027352
1746739247620391000,6.428390869140625,-0.3299450710713863,0.06937690308690071,0.045324430114496495
1746739247630470000,6.438469970703125,-0.27402035475373265,0.06978314580023288,0.04258254752783105
1746739247640548900,6.448548828125,-0.11758125428557395,0.05340834958255291,0.042046102563571185
1746739247650627800,6.4586279296875,-0.034192192459106444,0.036547231152653695,0.02034496022397652
1746739247660706800,6.468706787109375,0.058308396583795545,0.023527006059885024,0.002336260927841067
1746739247670785800,6.478785888671875,0.13338964879214762,0.020012275937199592,-0.002617817815579474
1746739247680864800,6.48886474609375,0.1781815611988306,0.011676993790268897,0.0004628317387774586
1746739247690944000,6.498944091796875,0.18712006993591784,0.03919569983482361,-0.0006753785109147429
1746739247701023000,6.50902294921875,0.1560427946269512,0.03850830209255218,0.04576554321181029
1746739247711101700,6.519101806640625,0.07551789005994797,0.03426876482665538,0.031693671907950194
1746739247721181000,6.529180908203125,-0.022357962280511855,0.06339198345839978,0.0449163790365681
1746739247731260000,6.539260009765625,-0.10107143351137637,0.055874447435140605,0.08075005509238689
1746739247741338600,6.549338623046875,-0.18501637565493584,0.04659750052392483,0.09050788085572421
1746739247751417900,6.55941796875,-0.2026584153294563,0.029807693764567374,0.05593633369021117
1746739247761497300,6.569497314453125,-0.18547697890400885,0.021048633247613906,0.02264227738091722
1746739247771576000,6.579576171875,-0.15690437989234923,0.022608137649297713,0.010333872085623443
1746739247781655300,6.5896552734375,-0.15820669466257095,0.028303134420514107,-0.03083853464964777
1746739247791734300,6.599734375,-0.13583470385670662,0.027081483671069145,-0.05994235446117818
1746739247801813200,6.609813232421875,-0.023783026647567748,0.028463293418288228,-0.016876717857830226
1746739247811892200,6.619892333984375,0.05802314990162849,0.05981470949351787,0.03836891188817099
1746739247821971200,6.62997119140625,0.05997779110074043,0.0523585482686758,0.04198702932009473
1746739247832050400,6.640050537109375,0.04691840304136276,0.04184124590754509,0.05028457327252254
1746739247842129200,6.650129150390625,0.05367781417369842,0.05173837054371833,0.08064593713078648
1746739247852208000,6.6602080078125,0.047443888220191,0.04027881889641285,0.056598067268263545
1746739247862287400,6.670287353515625,0.02833645216822624,0.009760346513986587,-0.0128675370153971
1746739247872366000,6.680365966796875,-0.005641805279254913,-0.002898059529066086,-0.09534852581992745
1746739247882445300,6.6904453125,0.008920388558506966,-0.005975567278265953,-0.03199797035045922
1746739247892524300,6.700524169921875,0.052471945515274995,0.04514613267183304,0.14027065874384714
1746739247902603300,6.710603271484375,0.0014788403809070586,0.13870938251018525,0.19378645075624806
1746739247912681200,6.72068115234375,0.0697258626550436,0.0983387936770916,0.17932110488908365
1746739247922761200,6.73076123046875,0.1722773055911064,0.06831073516011238,0.14801643229871989
1746739247932839200,6.740839111328125,0.2459773325741291,0.06166998197138309,0.07669126295456662
1746739247942918400,6.75091845703125,0.2401689385563135,0.030365327647328376,0.03110222708713263
1746739247952997000,6.7609970703125,0.23493454503417013,0.009516600885987282,-0.030586368253175168
1746739247963076000,6.771076171875,0.23941256723105905,-0.02851414682269096,-0.0790856107451953
1746739247973155300,6.7811552734375,0.10499415991306305,-0.014212649747729301,-0.06616011473117396
1746739247983234000,6.791234130859375,-0.09019640375375747,0.012846622091531753,-0.05859157917303964
1746739247993313300,6.801313232421875,-0.24563129561543462,-0.005074234524369239,-0.06120316817723214
1746739248003392300,6.811392333984375,-0.3990004871189594,-0.004518354207277297,-0.06516125815324485
1746739248013471200,6.82147119140625,-0.4455997412085533,-0.004841010290384292,-0.018029486355837433
1746739248023550200,6.83155029296875,-0.4505658391833305,0.0570335543423891,0.08183578623617067
1746739248033629200,6.841629150390625,-0.5176619378566741,0.08667232128083706,0.09033595835492014
1746739248043708400,6.85170849609375,-0.4691337615311145,0.03834931213855743,0.032191721090581264
1746739248053787100,6.861787109375,-0.3286877644866705,0.03142214322388172,0.0004526391383260488
1746739248063866000,6.8718662109375,-0.12852291953861714,0.042431028494238854,-0.016400113322027027
1746739248073945300,6.8819453125,0.006669394761323929,0.0440934087485075,-0.0213918754610233
1746739248084024000,6.892024169921875,0.19748013590872288,0.06944470762610436,0.05746810983475297
1746739248094103300,6.902103271484375,0.30640520552992817,0.06440437537133693,0.08377610664898529
1746739248104182300,6.912182373046875,0.33123394183814525,0.05856324812769889,0.08655397386448457
1746739248114261200,6.92226123046875,0.3535656006336212,0.03153787855803966,0.04165867414856329
1746739248124340200,6.93234033203125,0.2537462130099535,-0.000748188018798828,-0.00936192178092897
1746739248134419200,6.942419189453125,0.12390227400064467,-0.01244154842197895,-0.04699588872436434
1746739248144498200,6.952498291015625,-0.03750643157362938,0.004098082968592644,-0.039508053719624875
1746739248154577200,6.9625771484375,-0.14439911858439444,0.004555179086327552,-0.02805120548605919
1746739248164656000,6.97265625,-0.22344109111726282,0.01215045652091503,-0.055848838069848715
1746739248174735400,6.9827353515625,-0.24271453138589857,0.020987258449196813,-0.00909486834257841
1746739248184814300,6.992814453125,-0.22602000169456005,0.025844050830602646,0.01839455680856481
1746739248194893000,7.00289306640625,-0.21615970193743705,0.023066402810811994,0.02853126235427335
1746739248204972300,7.01297216796875,-0.18798691589832306,0.0339981311917305,0.03766476394049823
1746739248215051300,7.02305126953125,-0.14580197111964224,0.07336977211534977,0.09219168749051168
1746739248225130200,7.033130126953125,-0.11025018074512481,0.03966448639035225,0.060724499548505985
1746739248235209200,7.043209228515625,-0.03240413999855518,0.028344050952792167,0.03815461155036464
1746739248245288200,7.0532880859375,0.08748597575128078,0.050797290301322934,0.06653800813285633
1746739248255367200,7.0633671875,0.09386603217720985,0.05293547137379646,0.08772990404237062
1746739248265446100,7.073446044921875,0.14432956047952175,0.044834582504630086,0.07644689627205953
1746739248275525400,7.083525390625,0.2087070478439331,0.07432897253632545,0.1297204952927306
1746739248285604400,7.093604248046875,0.21821604994535446,0.04911562082469463,0.1373732385355979
1746739248295683000,7.10368310546875,0.24555998394489287,0.07028466558158397,0.19374838376818224
1746739248305762300,7.11376220703125,0.34425650501847266,0.11334171701967716,0.23388693567737937
1746739248315841300,7.12384130859375,0.4743278230428695,0.06876490866839885,0.33690972245223816
1746739248325920000,7.133919921875,0.6228215174645185,0.21193653128445147,0.4806423399519175
1746739248335999200,7.143999267578125,0.6386065310955047,0.22769290334284303,0.45500564826168116
1746739248346078200,7.154078125,0.5425111324310302,0.15907880132198332,0.3792169784363359
1746739248356157200,7.1641572265625,0.4501350465506315,0.13329203363656997,0.2530309591463767
1746739248366236200,7.174236083984375,0.42509588236212725,0.045861587464809415,-0.6838527631409466
1746739248376315100,7.184315185546875,0.6401368094027042,0.5609194803029298,-0.6322720673769712
1746739248386394400,7.194394287109375,0.12785013484358787,0.0670066668242216,0.5000676097813993
1746739248396473000,7.20447314453125,-0.29487258864641186,-0.31270752054452894,0.6155138247996569
1746739248406552300,7.21455224609375,-0.6608674627423287,-0.2808323728561401,0.14593712354032323
1746739248416631300,7.22463134765625,-0.8681628902226686,-0.3253723563283682,-0.2418121026534587
1746739248426710000,7.2347099609375,-0.7344196056872606,-0.32086978421211243,-0.5312871431052685
1746739248436789200,7.244789306640625,-0.5893196453571319,-0.26421792266368865,-0.6261514656048268
1746739248446868200,7.2548681640625,-0.4281675448924303,-0.20702245575785636,-0.5863980588220059
1746739248456947200,7.264947265625,-0.32701135570704937,-0.112799280706048,-0.45416769960019737
1746739248467026200,7.275026123046875,-0.2201356198310852,0.020706687942147254,-0.2681372515318915
1746739248477105200,7.285105224609375,-0.07738485297560692,0.21514731002449988,-0.046525321203703056
1746739248487184400,7.295184326171875,-0.10712006602585315,0.3432698320686817,0.0909191559372004
1746739248497263000,7.30526318359375,-0.09825696061253547,0.317933146238327,0.2172807418566197
1746739248507342300,7.31534228515625,-0.16942542329132557,0.174622407412529,0.3104358492854982
1746739248517421300,7.32542138671875,-0.2715565949887037,0.041243864536285396,0.10140064719943329
1746739248527500000,7.3355,-0.2929752305924892,-0.08982932400703429,0.07254255947701167
1746739248537579300,7.345579345703125,-0.35195056665241714,-0.0757563749909401,-0.0631581792691024
1746739248547658200,7.355658203125,-0.27606033614873887,-0.17735212463736533,-0.2981829370371066
1746739248557737200,7.3657373046875,-0.19909984606504438,-0.18521277500987052,-0.3020659707492217
1746739248567816200,7.375816162109375,-0.2012245831340551,-0.19133797989189624,-0.3349093058826402
1746739248577895200,7.385895263671875,-0.019541735816001892,0.003041267392039299,-0.2987678790519014
1746739248587974400,7.395974365234375,-0.029643443113565444,0.04669920733273029,-0.10572537853075191
1746739248598053000,7.40605322265625,0.12092471949458121,-0.21267828956246373,-0.004636829487793147
1746739248608132000,7.416132080078125,0.4164022882968187,-0.0060170683324337,-0.004081195765873417
1746739248618211300,7.42621142578125,0.052768882635235784,0.047179684326052664,0.07414312197486869
1746739248628290300,7.436290283203125,-0.40885377261340616,0.06490004993379116,0.03553018133090809
1746739248638369300,7.446369384765625,-0.834717132216692,0.12370587464570998,-0.01078431013370864
1746739248648448300,7.4564482421875,-1.2396411641657352,0.07319090841710567,-0.08131660293396561
1746739248658527200,7.46652734375,-1.2758996415048838,-0.0011760580420494078,-0.11593310348605737
1746739248668606200,7.476606201171875,-0.9804612356692552,0.04706102638244629,0.002948565873596817
1746739248678685200,7.486685302734375,-0.5001619370013475,0.2557324183911085,0.2304356261797249
1746739248688764400,7.496764404296875,-0.25047581303715705,0.26444004098176954,0.18583214901722966
1746739248698843100,7.506843017578125,0.10200023879408836,0.28614158518016336,0.20465879536643622
1746739248708922000,7.516922119140625,0.3346130628824234,0.3980868794053793,0.17112545040855184
1746739248719001300,7.52700146484375,0.7168313420265913,0.28037878386974335,0.19484781464375556
1746739248729080300,7.537080322265625,0.7633382416576147,0.10319967771172522,0.10177603811677545
1746739248739159000,7.547158935546875,0.8174521091610193,0.030764556097984314,-0.06337444780170917
1746739248749238300,7.55723828125,1.0485767405182123,-0.07723404632806778,-0.03602707973606884
1746739248759317200,7.567317138671875,1.0660966151177882,-0.10481178908348082,0.0006454582966864109
1746739248769396000,7.57739599609375,1.0244634590029715,0.025914193457365033,0.07319830627227202
1746739248779475200,7.58747509765625,1.0022972199022768,0.01915828945636749,0.04167814603401348
1746739248789554200,7.59755419921875,0.8170020273059606,0.0472130020737648,0.03599206322161481
1746739248799633200,7.607633056640625,0.5318856935203075,0.1450239724844694,0.10121528069516643
1746739248809712000,7.617712158203125,0.27699264856278893,0.11828384959697723,0.11594654748952016
1746739248819792400,7.62779248046875,0.07384323484599589,0.043320670810341834,0.0519268240542151
1746739248829871000,7.63787109375,-0.04639233334064483,-0.0029898294657468793,0.006675112116057425
1746739248839950000,7.6479501953125,-0.23043255743980406,0.017242811223864556,0.038812180409953
1746739248850029300,7.658029296875,-0.21820377498567103,0.02532616443634033,0.0331988705728203
1746739248860108000,7.66810791015625,-0.3672153558015823,-0.11746201182007789,0.0042449988923035555
1746739248870187300,7.678187255859375,-0.7848954089492559,-0.04266074559688568,0.04032753514265641
1746739248880266200,7.688266357421875,-0.6944406465202569,0.1134095215588808,0.07895663233697414
1746739248890345200,7.69834521484375,-0.4421937321573496,0.14302783023118973,0.13716538620488716
1746739248900424200,7.708424072265625,-0.2864922983139753,0.019200375032424926,0.06624050475731491
1746739248910503200,7.718503173828125,-0.09521335513293742,-0.040861002698540684,-0.04385417489884421
1746739248920582400,7.72858251953125,-0.009991817182302474,-0.03380406992435455,-0.0898013217552565
1746739248930661000,7.7386611328125,-0.0112847796022892,0.008692425021529197,-0.04894046518718823
1746739248940740000,7.748739990234375,-0.0628460400134325,0.039133740514516825,0.009197798994090407
1746739248950819300,7.7588193359375,-0.11220949811935424,0.033955461093783376,-0.037597543923184276
1746739248960898000,7.76889794921875,-0.07164893967211246,0.0018207856863737106,-0.05064105855999514
1746739248970977000,7.77897705078125,0.0009568623334169388,0.03483984271287918,0.005965411210432648
1746739248981056300,7.78905615234375,0.0689677377641201,0.03785129948854446,0.041817463173158466
1746739248991135200,7.79913525390625,0.11012684662640095,0.059525371158123015,0.06432639649799093
1746739249001214200,7.809214111328125,0.14228490290939808,0.07662848165035248,0.10028125124806538
1746739249011293200,7.819293212890625,0.19027356553077696,0.0736252081811428,0.08386115458393469
1746739249021372200,7.8293720703125,0.20323475391268728,0.04033201038837433,0.0642084144078195
1746739249031451100,7.839451171875,0.1668739852428436,0.03409691539108753,0.05135143531905487
1746739249041530000,7.849530029296875,0.10527180781066417,0.02790332144796848,0.03832079843012616
1746739249051609300,7.859609375,0.049964931130409236,0.04203472265303135,0.024042389969807117
1746739249061688000,7.86968798828125,-0.005026888251304626,0.015135609811544418,0.009769223940186202
1746739249071767000,7.87976708984375,-0.0029267011016607283,-0.00693944387435913,-0.03748107793666422
1746739249081847300,7.889847412109375,-0.036086043381690976,0.010784428864717482,-0.054833852341026064
1746739249091926000,7.899926025390625,-0.06334580622911452,0.00710720165669918,-0.05111497794836759
1746739249102005200,7.910005126953125,-0.027237551015615463,0.00319850378036499,0.0011438728054985403
1746739249112084200,7.920084228515625,-0.057926119267940515,0.028194997870922087,0.055837129365745926
1746739249122163200,7.9301630859375,-0.11703297275304794,0.0427688821464777,0.07798020678656176
1746739249132242200,7.9402421875,-0.17560148157775402,0.06188567054867744,0.07446956831710412
1746739249142321200,7.950321044921875,-0.15811434020400048,0.03377776643931865,0.041897250411100685
1746739249152400100,7.960400146484375,-0.12691840695142745,0.021276012262701986,0.025254944097343832
1746739249162479000,7.97047900390625,-0.03731880004703998,0.03845744868814945,0.03444561923090368
1746739249172558000,7.98055810546875,0.05629588771760463,0.04581657927930355,0.029253110355418173
1746739249182637300,7.99063720703125,0.08498539110720157,0.04042670293450355,0.009965787691902369
1746739249192716000,8.000716064453124,0.09972001890242099,0.019019173246622084,-0.0019716471328400076
1746739249202795300,8.010795166015624,0.11333061110377311,0.00824701934158802,-0.03125266840849072
1746739249212874200,8.020874267578124,0.14343991816341875,0.03726268594563007,-0.04576103143347427
1746739249222953000,8.030952880859376,0.1676461386591196,0.026709727749228477,0.003853935481794178
1746739249233033200,8.041033203125,0.11128186188042163,0.04349368928968906,0.06292195479385554
1746739249243112200,8.0511123046875,0.02976560818850994,0.06180383748412132,0.11345626504374667
1746739249253191200,8.061191162109376,-0.013545710271596907,0.058711132165789603,0.09967477325489744
1746739249263270100,8.071270263671876,-0.07748305265307426,0.03078033818900585,0.07231041752183809
1746739249273349400,8.081349365234376,-0.10055354711711406,0.03241115426123142,0.024658128981664775
1746739249283428000,8.091427978515625,-0.078091539940238,0.01730652410984039,0.001570756448060274
1746739249293507000,8.101507080078125,-0.061626727351546284,0.003863689690828323,-0.007120828323252499
1746739249303586300,8.11158642578125,-0.05921791264414787,0.028829788643121718,0.02084162116711959
1746739249313665000,8.1216650390625,-0.04609364265501499,0.041624388286471366,0.035397494861949236
1746739249323744300,8.131744140625,0.030738252612948415,0.029404958182573316,0.01722765018735081
1746739249333823200,8.1418232421875,0.06803191821873188,0.025020459488034247,-0.0010956862822175026
1746739249343902200,8.151902099609375,0.04725099599659443,0.03681786478757858,-0.04958371326047927
1746739249353981200,8.161981201171875,0.05712824688851833,0.03043137862086296,-0.05379018850699067
1746739249364060200,8.17206005859375,0.09044307199120522,0.026871055790781972,0.038566571618430315
1746739249374140200,8.18214013671875,0.03991290819346904,0.06101648649871349,0.07973541642343625
1746739249384219100,8.19221923828125,-0.018853753551840782,0.07479191387295722,0.10102262593358755
1746739249394298000,8.202298095703124,-0.06633446665108203,0.0711328068435192,0.08201508832583203
1746739249404377300,8.21237744140625,-0.08223696918189526,0.054720016703009605,0.05527681033555418
1746739249414456000,8.2224560546875,-0.08776713078022003,0.022673019579052923,0.024892467460501937
1746739249424535300,8.232535400390624,-0.05396832155287266,0.020734160470962524,0.028075152617227286
1746739249434614300,8.2426142578125,-0.04288227939307689,0.018249357917904854,0.02113338892161846
1746739249444693000,8.25269287109375,-0.026312837386131285,0.019006898286938665,0.028439985607936976
1746739249454772200,8.262772216796876,0.00798690710067749,0.040053777968883514,0.030547479281201956
1746739249464851200,8.272851318359375,0.0010129764348268508,0.018565584260225296,0.0027937041054479778
1746739249474930200,8.28293017578125,-0.007490648016333579,0.023756138640642164,-0.043628147590626026
1746739249485009200,8.293009033203125,-0.029855624559521673,0.03203998286128044,-0.016146796148084102
1746739249495089400,8.30308935546875,-0.04417816442251205,0.020434885263442993,-0.01069435769477859
1746739249505168100,8.313168212890625,-0.04818681554198265,0.028826866033673286,-0.020166425319295377
1746739249515247000,8.3232470703125,-0.023463293173909185,0.0502367338091135,0.027745628401916474
1746739249525326300,8.333326416015625,0.034465164181590076,0.06091302612423896,0.07094428026778624
1746739249535405000,8.343405029296875,0.05369418078660965,0.05894494092166423,0.10889498501019551
1746739249545484000,8.353484130859375,0.11131167249679565,0.04639174881875515,0.06696810664581135
1746739249555563300,8.363563232421875,0.14814473485350607,0.041241526448726654,0.03754440723014995
1746739249565642200,8.373642333984375,0.1382838505744934,0.04207680822908878,0.026937088498007505
1746739249575721200,8.38372119140625,0.11406360155344009,0.0396142175078392,0.022807276950590313
1746739249585800200,8.39380029296875,0.05440846653580665,0.01644435432255268,0.031540709835942836
1746739249595879200,8.403879150390624,-0.0016664719074964522,0.03165010676085949,0.03111780824875459
1746739249605959200,8.413959228515624,-0.022160978403687477,0.01840074908733368,0.0188997846506536
1746739249616038100,8.4240380859375,-0.017056933262944222,0.02062719296514988,0.0061879313873127095
1746739249626117000,8.4341171875,-0.030582769790291786,0.022981062614917752,-0.01188831671969965
1746739249636196000,8.444196044921876,-0.08085282134711742,0.011450199297070503,-0.059834564971458164
1746739249646275300,8.454275390625,-0.14401859483420848,0.010756371814012526,-0.05959927664455026
1746739249656354300,8.464354248046876,-0.1563444079220295,0.022983985224366187,0.0152374262182042
1746739249666433000,8.47443310546875,-0.13627601788341998,0.055904258051514624,0.049400337783899156
1746739249676512300,8.48451220703125,-0.09646306293308735,0.04098433681726456,0.05374384688092396
1746739249686591200,8.49459130859375,-0.031157354807853695,0.03469780389368534,0.06512127320272848
1746739249696670200,8.504670166015625,0.05756663830578327,0.06020166298449039,0.09906330855935812
1746739249706749200,8.514749267578125,0.11730419090986251,0.06899462577104568,0.05378092748830095
1746739249716829200,8.5248291015625,0.17456746235489845,0.0464765044927597,0.007321191467251628
1746739249726908200,8.534908203125,0.17519933051764963,0.05335983426570892,0.02940625509051606
1746739249736987100,8.544987060546875,0.14793781410455703,0.044154783546924585,0.033084103353042155
1746739249747066400,8.55506640625,0.09731354228258132,0.02522036597430706,0.015353727807942776
1746739249757144600,8.56514453125,0.06141863755881786,0.005875614035129547,0.021921196564752606
1746739249767223600,8.5752236328125,0.029408465313911437,0.00016249708533287046,0.024269202729314564
1746739249777302800,8.585302734375,0.03771685945391655,0.03718319096863269,0.027578491674084216
1746739249787381800,8.5953818359375,0.01861293053328991,0.0333007965773344,0.013728976150322704
1746739249797460700,8.605460693359374,-0.0023147066831588742,0.03804419171214103,0.04151402324717492
1746739249807540700,8.615540771484374,-0.0076303487479686734,0.042458501023054124,0.044493660112470385
1746739249817619700,8.62561962890625,-0.018122516667842863,0.03556114272475242,0.05827632094509899
1746739249827698700,8.63569873046875,-0.03952069400548935,0.02824760484099388,0.01867585796797648
1746739249837777700,8.645777587890626,-0.043184477210044855,0.00473521182835102,0.007063344248663634
1746739249847856600,8.655856689453126,-0.002437456279993057,0.011917232286930084,0.01647818352691829
1746739249857935600,8.665935546875,0.01852875938117504,0.042512277036905285,0.0167627908882685
1746739249868014600,8.6760146484375,0.0017237550526857375,0.03868891935646534,-0.0015869221315719187
1746739249878093800,8.68609375,0.0249614227771759,0.02989946370124817,0.030227946736942974
1746739249888172500,8.696172607421875,-0.009165303230285644,0.054092824715375895,0.06653176105516032
1746739249898252800,8.706252685546875,-0.06254033506512642,0.04076514110863209,0.05451201824182644
1746739249908331500,8.71633154296875,-0.09467734856009483,0.024155951613187787,0.03538266261899844
1746739249918410800,8.72641064453125,-0.13449673325121403,0.052585927283763885,0.003554221882857382
1746739249928489700,8.73648974609375,-0.18283552448451518,0.03763151925802231,-0.025337069422844794
1746739249938568700,8.746568603515625,-0.18633447251617907,-0.005310381367802619,-0.016460830533318222
1746739249948647700,8.756647705078125,-0.13001228131353854,0.0074205053895711895,0.011403693274222314
1746739249958726700,8.7667265625,-0.038978257691860196,0.02994680997431278,0.04191838453067467
1746739249968806000,8.776805908203125,0.05862579196989536,0.02884498621225357,0.07588191933305934
1746739249978884600,8.786884521484374,0.14371464345157145,0.034790742874145505,0.1132167937320657
1746739249988964900,8.79696484375,0.23336802636981008,0.05913315697014331,0.11026751547241583
1746739249999043600,8.807043701171875,0.29478257227540017,0.04016892878115177,0.04693906223690137
1746739250009122600,8.81712255859375,0.27792613002061844,0.02269055523574352,-0.02105455153174698
1746739250019201800,8.827201904296874,0.20320552781820295,0.003935585883259773,-0.031252467479091134
1746739250029280800,8.83728076171875,0.09120236592590808,-0.00725099404156208,-0.015543953150417655
1746739250039359500,8.847359375,-0.03261047622561455,0.03219078950881958,-0.01570621277373284
1746739250049438700,8.857438720703126,-0.13605974478423594,0.019126725274324415,0.004622271239478141
1746739250059517700,8.867517578125,-0.20329729775488375,0.01772971795797348,0.04196043357411399
1746739250069596700,8.8775966796875,-0.22039397850632667,0.04842237786352634,0.07260455989651382
1746739250079676700,8.8876767578125,-0.20466157184541225,0.06168050336539745,0.07282671474721282
1746739250089755600,8.897755615234376,-0.14258943881392477,0.06277355929911137,0.03954204732077196
1746739250099834600,8.907834716796875,-0.0986567735850811,0.041053894922137256,0.05240591280804947
1746739250109913600,8.91791357421875,-0.025474048474431035,0.0442804557532072,0.050762255520559844
1746739250119992800,8.927992919921875,0.05334931287169456,0.0268698867470026,0.03533619312876835
1746739250130071600,8.938071533203125,0.10074585481882095,0.01775368335545063,0.026978406889084726
1746739250140150800,8.94815087890625,0.1651063910484314,0.017580080354213712,0.0022269736007787286
1746739250150229800,8.958229736328125,0.17425708123147488,0.02050210528075695,0.022666005316376685
1746739250160309800,8.968309814453125,0.19170681320428848,0.024191022926568984,0.048268557274993504
1746739250170388700,8.978388671875,0.17101532283127308,0.05818740055263042,0.06801763396505266
1746739250180467700,8.9884677734375,0.11877660154998301,0.049262335819005965,0.06419409362152219
1746739250190546700,8.998546630859375,0.056841246640682214,0.03731763100326061,0.04891814375752583
1746739250200625700,9.008625732421875,-0.039844519132375716,0.0333446357190609,0.0073503627628088
1746739250210704600,9.01870458984375,-0.12356442034840583,0.024659224960207938,-0.0007838438540697097
1746739250220783600,9.02878369140625,-0.20590777251422404,0.030062545308470724,-0.015725812523346393
1746739250230863600,9.038863525390624,-0.21008067428469657,0.0019938041657209396,-0.007272493487317114
1746739250240942600,9.048942626953124,-0.18116028474867343,-0.0027069208711385725,0.004434109989926219
1746739250251021600,9.059021484375,-0.1369336050093174,0.01168517709672451,0.009666074092965573
1746739250261100800,9.069100830078124,-0.11518939071297644,0.01093406646847725,-0.012328461702633648
1746739250271179800,9.0791796875,-0.05131693026125431,0.022463760742545125,-0.03125168202780187
1746739250281258500,9.089258544921876,0.04408756352961063,0.04291033644378185,-0.0007840995823964476
1746739250291337700,9.099337646484376,0.11678805808126926,0.07643968107998371,0.07405559895504266
1746739250301416700,9.109416748046876,0.22681436694264412,0.09631868602633475,0.18627159988041966
1746739250311496700,9.11949658203125,0.2792681922793388,0.11798925056457518,0.230338960872218
1746739250321575700,9.12957568359375,0.2565776370435953,0.11298925032019615,0.1830526926328428
1746739250331655000,9.139655029296875,0.19257833534181118,0.05080138195455074,0.04509498700648546
1746739250341733600,9.149733642578125,0.11053718099296092,-0.03264028684198856,-0.09448924210947006
1746739250351812600,9.1598125,0.049697220104932785,-0.09635083473026752,-0.14035254660733043
1746739250361891800,9.169891845703125,-0.032387773385643956,-0.06245499486923217,-0.14215809819195419
1746739250371970600,9.179970458984375,-0.13439619548618792,-0.0031640169888734818,-0.06339105187663809
1746739250382050800,9.19005078125,-0.16965806300342082,0.03240589356422424,0.07958062772052361
1746739250392129500,9.200129638671875,-0.18269874636232852,0.09328618646264075,0.14986640754695982
1746739250402208500,9.21020849609375,-0.1882727471023798,0.0986649568915367,0.14676699849320574
1746739250412287700,9.220287841796875,-0.18372575132250785,0.048394320812821384,0.0752450462016277
1746739250422366700,9.23036669921875,-0.154618314781785,0.02087152311503887,-0.016153755611833184
1746739250432445700,9.24044580078125,-0.1305629009336233,0.02216682362258434,-0.04192704276116565
1746739250442525700,9.250525634765625,-0.1069178214520216,0.04004851727187633,-0.028689229394961147
1746739250452604700,9.260604736328125,-0.05745674819052219,-0.00034136078357696533,0.007787238076422363
1746739250462683600,9.27068359375,0.04885141693055629,0.027750761234760283,0.02000482328310609
1746739250472762600,9.2807626953125,0.12461422166228293,0.05254676431715488,0.0606206007826142
1746739250482841900,9.290841796875,0.18035189097523688,0.06326981838345527,0.05463376319166272
1746739250492920600,9.300920654296876,0.22696926524341104,0.03587970715463161,0.05574886656040325
1746739250503000800,9.311000732421874,0.24708266346752641,0.020509119543433187,0.027678408384602515
1746739250513079600,9.32107958984375,0.22583763086497782,0.001813186901807785,-0.033468974484782664
1746739250523158800,9.33115869140625,0.214632346239686,0.02294891391098499,-0.027562106794863938
1746739250533237800,9.34123779296875,0.19338848268091677,0.00951017114520073,0.02711074629817158
1746739250543316500,9.35131640625,0.06251870775520801,0.029175825601816176,0.07994586257003247
1746739250553395700,9.361395751953125,-0.03994797950685024,0.05927227317988872,0.09012242520209401
1746739250563475700,9.371475830078126,-0.0637128859758377,0.06446458112597465,0.057387719808612014
1746739250573554700,9.3815546875,-0.07839432227909565,0.02270809089243412,0.035443160634581
1746739250583633700,9.391633544921875,-0.07377250769734382,0.04114624938070774,0.04690612808167934
1746739250593712600,9.401712646484375,-0.09691022217869757,0.0749105718165636,0.08585004511252045
1746739250603791600,9.41179150390625,-0.1305062023103237,0.05360065728425979,0.07530554421721025
1746739250613870600,9.42187060546875,-0.12346271353960037,0.023373276802897452,0.011433595222141593
1746739250623949800,9.43194970703125,-0.08816343662142753,-0.00030161329507827757,-0.023649262466374783
1746739250634029600,9.442029541015625,-0.03388122681379318,0.01027472577691078,-0.00608896452486515
1746739250644108800,9.45210888671875,-0.012180267137289046,0.02853986578583717,0.01890221406975761
1746739250654187800,9.462187744140625,-0.028334114080667494,0.015161328774690628,0.02136144379014149
1746739250664266500,9.4722666015625,-0.0018155249893665312,0.01896715079843998,0.04599569870587438
1746739250674345700,9.482345703125,0.02724807240962982,0.06012801322638988,0.0767940474756062
1746739250684425500,9.492425537109375,0.08038578835725783,0.09501520221233367,0.11255661279028281
1746739250694504700,9.502504638671875,0.1324579208999872,0.09996434905230998,0.17646102101653813
1746739250704583700,9.512583740234374,0.1783861438602209,0.11972118892371654,0.22014298115363343
1746739250714663000,9.522662841796874,0.2963128505825996,0.165916538387537,0.23823055437225846
1746739250724741600,9.53274169921875,0.34801381172537804,0.2534405080616474,0.32922099458053705
1746739250734820600,9.542820556640624,0.5277081155747175,0.48787762496769427,0.5016178348980844
1746739250744900600,9.552900634765624,0.7583353188037872,0.37229485102295873,0.6076210257232189
1746739250754979600,9.5629794921875,0.3804232124209404,0.46007951745986936,0.7754976852025837
1746739250765059300,9.573059326171874,0.13315057933926583,0.06574176145493983,0.573922206271626
1746739250775138000,9.583137939453126,0.10875731183886528,0.11560323221087455,0.4012540381994098
1746739250785217300,9.59321728515625,-0.28355507581830025,-0.06602350100576877,0.06493875624267384
1746739250795296300,9.603296142578126,-0.48874037927687164,-0.19218202950060367,-0.18587940395874902
1746739250805376300,9.613376220703126,-0.32316520167291163,-0.10912088445425033,-0.29846644841991365
1746739250815455200,9.623455322265626,-0.6328583428323269,-0.06254676480591297,-0.3246737065397203
1746739250825534200,9.6335341796875,-0.47472295984029766,-0.08067454217076302,-0.34453612567745145
1746739250835613200,9.64361328125,-0.24125614927113054,-0.16559505134820937,-0.29959696855349466
1746739250845692200,9.653692138671875,-0.2864525508254766,-0.10526011737287044,-0.16020166787207127
1746739250855772200,9.663772216796875,-0.10932371354997157,-0.01776245118379593,-0.08314422935307957
1746739250865851100,9.67385107421875,-0.04207447014153003,0.037725627282261844,-0.004639416453812737
1746739250875930400,9.683930419921875,-0.15170973385870457,0.04525017756819725,-0.029045563985384066
1746739250886009300,9.69400927734375,0.16572189259827136,0.017504677030444143,-0.012549182648072019
1746739250896088000,9.704088134765625,0.3130155635803938,-0.00009527706801891326,0.056954516023118046
1746739250906168300,9.714168212890625,0.4160667727321386,0.005502689069509506,0.003317880959890317
1746739250916247000,9.7242470703125,0.677243428003788,0.03312953166365623,0.060698387859715146
1746739250926326300,9.734326171875,0.4153998332560062,-0.036866380104422565,-0.005144454782945103
1746739250936405200,9.7444052734375,0.4559107073426246,-0.052502340653538704,-0.1505621529924683
1746739250946484200,9.754484130859375,0.4565928443878889,0.34857845987081526,-0.3155205686712637
1746739250956564200,9.764564208984375,0.17874094864726064,-0.06128244395852089,-0.08960305923679843
1746739250966643500,9.7746435546875,0.44124271504282947,-0.8046890736997127,-0.08864236097848043
1746739250976722200,9.78472216796875,0.33050212043225763,0.04623392790853977,-0.39557011081147936
1746739250986801200,9.79480126953125,-0.45295185753703116,-0.026324527823925015,-0.22524019469479098
1746739250996880400,9.80488037109375,-0.2408312018573284,-0.12751637284457684,-0.27840057913195343
1746739251006960000,9.814960205078124,-0.117827338001132,-0.06490355706512928,-0.2128771366028115
1746739251017039400,9.825039306640624,-0.2125795053631067,-0.07750526448488235,-0.07783564721671864
1746739251027118000,9.8351181640625,-0.2763935136258602,-0.022151041531562804,-0.09401187038868665
1746739251037197000,9.845197021484376,-0.08693827874064446,0.027743162450194356,-0.08291077679023146
1746739251047276300,9.8552763671875,-0.05700140563845634,0.005728314518928528,0.024055069071578325
1746739251057356000,9.86535595703125,-0.09495265837013721,0.06338380015194416,0.08119686727812513
1746739251067435300,9.875435302734376,-0.11880115146934986,0.05950199028253555,0.07846087557612919
1746739251077514200,9.88551416015625,-0.15713935769200324,0.0547375523597002,0.1207151044650469
1746739251087593200,9.89559326171875,-0.15971417661607265,0.08338204756379126,0.1440061189451255
1746739251097673200,9.905673095703126,-0.16554302890002726,0.08114157516062259,0.15053049747887998
1746739251107752400,9.91575244140625,-0.12394143696725368,0.08526829970180988,0.17613840146604925
1746739251117831200,9.9258310546875,-0.10081833553314208,0.08758066829741,0.17763784624356777
1746739251127910100,9.93591015625,-0.05546995828747749,0.038843817657232285,0.11145716364840044
1746739251137989400,9.9459892578125,-0.02129120983183384,0.044753918483853336,0.059529558709473344
1746739251148069000,9.956069091796875,0.026287118422985076,0.06148176592290401,0.026247699728049335
1746739251158148400,9.9661484375,0.04494856427311897,0.05541209062039852,0.0052904528246261176
1746739251168227000,9.97622705078125,0.09663900402188301,-0.024591420421004293,-0.05294641745949629
1746739251178306300,9.986306396484375,0.07542612012326717,0.016850597035884856,-0.08948610919308848
1746739251188386300,9.99638623046875,0.12467501193881034,0.033573768299818035,-0.04982922158730216
1746739251198465000,10.006465087890625,0.204057760733366,0.033871289941668506,0.031600940706755495
1746739251208544300,10.016544189453125,0.22414076381921766,0.05478372958898544,0.10765166128505951
1746739251218623200,10.026623291015625,0.2040536690801382,0.09262743029296398,0.1537771512499079
1746739251228702200,10.0367021484375,0.15371055228710173,0.0798082807302475,0.13106836623772977
1746739251238782200,10.0467822265625,0.08518179046213627,0.051076107242703436,0.1104022843006067
1746739251248861400,10.056861328125,0.02548749247789383,0.03666647361814976,0.046233032859396186
1746739251258940200,10.066940185546875,-0.010303951871395111,-0.010263619861006736,0.004506207111757248
1746739251269019100,10.07701904296875,-0.07794599398970603,-0.03177987062036991,-0.037348665462341155
1746739251279099100,10.08709912109375,-0.14462474403381348,0.05502046095430851,-0.051678151089348826
1746739251289178000,10.09717822265625,-0.09496259524226187,0.048909284597635265,-0.04210797511890996
1746739251299257300,10.10725732421875,-0.11235913572311401,-0.016639000111818313,0.024221518529532474
1746739251309336000,10.117336181640624,-0.08256430144011974,0.0057101943403482435,0.012756007498898542
1746739251319416300,10.127416259765624,-0.043945524710416795,0.03883388078510761,0.06986760464671533
1746739251329495300,10.137495361328124,0.06394026499092578,0.08024258049428462,0.11863242557263001
1746739251339574300,10.14757421875,0.15152444041967392,0.10539105027616023,0.15708433956913648
1746739251349653200,10.1576533203125,0.1812520546853542,0.100473467618227,0.13553992216121405
1746739251359733000,10.16773291015625,0.22093933742940425,0.08294248710274696,0.13141301495693622
1746739251369812200,10.177812255859376,0.22606617892384528,0.03807224876284599,0.06866964073353446
1746739251379891200,10.18789111328125,0.15907178705930708,0.04123392766416072,-0.006013853462040424
1746739251389970200,10.19797021484375,0.06595920359790325,-0.008709960678219796,-0.0431245865492383
1746739251400049200,10.208049072265625,-0.0576917259901762,-0.010583937856554985,-0.0389839248142438
1746739251410129400,10.21812939453125,-0.03702010936141014,0.02867021416723728,-0.012559087554155848
1746739251420208000,10.2282080078125,-0.05450549716949463,0.02388707154393196,0.046457128505432044
1746739251430287000,10.238287109375,0.0007668927192687987,0.012678279787302016,0.04447329774445388
1746739251440367000,10.2483671875,-0.041781040152907366,0.06622866818904877,0.04600336598909925
1746739251450446000,10.258446044921875,0.005925298395752907,0.07001110933721065,0.051787561713997274
1746739251460525300,10.268525390625,0.029759762969613072,0.046505146065354344,0.049712481606146317
1746739251470604300,10.278604248046875,0.02484159578979015,0.0301987389087677,0.0656468360133702
1746739251480684300,10.288684326171875,0.08888707472085952,0.03912380364239216,0.05313824567059055
1746739251490763300,10.29876318359375,0.14080547800660131,0.04435761264264583,0.04100720166962128
1746739251500842200,10.30884228515625,0.16935995683968066,0.047187867632508276,0.05535993574147578
1746739251510921200,10.318921142578125,0.20143559553623197,0.05203063148856163,0.07553685048874467
1746739251521001200,10.329001220703125,0.18925825100839136,0.041402269968390464,0.050190570279560046
1746739251531080200,10.339080078125,0.17639175517261027,0.02269230880141258,0.041305595527729014
1746739251541159200,10.3491591796875,0.14962766688764095,0.02177519395649433,0.029416899782116524
1746739251551238400,10.35923828125,0.09272329188287258,0.03571721006929874,0.049764102195529264
1746739251561318100,10.369318115234375,0.03608370529413223,0.04957154789865017,0.04243929856566246
1746739251571397400,10.3793974609375,0.02594575763940811,0.05432312633991241,0.10306413256539963
1746739251581476000,10.38947607421875,0.00026771102547645565,0.0690460636973381,0.12641693283584898
1746739251591556400,10.399556396484375,0.030827684462070463,0.07297872697114945,0.11828389526274986
1746739251601635300,10.40963525390625,0.058200844556093215,0.039383915883302686,0.10688474116632714
1746739251611714000,10.419714111328124,0.0981903251171112,0.059175827068090436,0.11939031300153582
1746739251621793300,10.429793212890624,0.16189795039594174,0.1030395187139511,0.14509943060716612
1746739251631873000,10.439873046875,0.26737784799933434,0.07142156065702437,0.16596888962928205
1746739251641952300,10.4499521484375,0.434225529757142,0.06968786873221397,0.2184759247242473
1746739251652031200,10.46003125,0.6316285087764263,0.1618020888060331,0.27514369622785595
1746739251662110200,10.470110107421876,0.8171680315226316,0.15296645592153071,0.31321656604520975
1746739251672190200,10.480190185546874,0.9235907629340887,0.19659750785529612,0.24465426727682352
1746739251682269400,10.49026953125,1.3414531869113444,0.998602457037568,0.2727739531555213
1746739251692348200,10.50034814453125,1.7174807947218418,0.6267863294422626,0.7589289738480002
1746739251702428400,10.510428466796874,2.1415812363058326,0.6487661060601473,1.0939316936351358
1746739251712507100,10.520507080078126,2.2961294084608554,0.9845148949742316,1.2724679134905337
1746739251722586000,10.530586181640626,2.1642174310058353,0.995696798723936,1.2445358043394983
1746739251732666400,10.540666259765626,1.913100981977582,1.0250649320274592,1.2567666326202451
1746739251742745000,10.5507451171875,0.7412322083115577,0.7075508879840373,1.1066918795522303
1746739251752824300,10.56082421875,-0.14207389050722122,0.24473113190531728,0.7311926064647734
1746739251762902800,10.57090283203125,-0.2561608729362488,0.1677542752087116,0.3431741166092455
1746739251772982500,10.580982421875,-0.5801262850761413,0.2155430313438177,0.2092532470172271
1746739251783061800,10.591061767578125,-1.02677933472991,0.3571627483427524,0.17191771503109485
1746739251793140700,10.601140625,-1.0086731846749781,0.4683171844512224,0.16416384950131177
1746739251803220700,10.611220703125,-0.8302963931649923,0.5056593653738498,0.12641549893058834
1746739251813299700,10.6212998046875,-0.8752402812629938,0.45253217082023617,0.11609620335958898
1746739251823378700,10.631378662109375,-0.7466881356298923,0.4125514580875635,0.11317973139099777
1746739251833457700,10.641457763671875,-0.6667839933097363,0.5491232440471648,0.17597842513136563
1746739251843537700,10.65153759765625,-1.0710136132538317,0.7978244486272335,0.39837504869699475
1746739251853616600,10.66161669921875,-1.528693083834648,0.9372674061089754,0.5999834435168654
1746739251863695600,10.671695556640625,-1.5536568446993826,1.0305880793631077,0.7333429163664579
1746739251873775600,10.681775634765625,-1.5694284143269062,1.0367536162555218,0.7905337801624089
1746739251883854600,10.6918544921875,-1.234275837740302,1.083808797419071,0.7585268227878957
1746739251893933800,10.701933837890625,-1.0433528683900832,0.9420061250686645,0.7014065400101244
1746739251904013600,10.712013671875,-1.0963286717742682,0.7264940733850002,0.619385405535996
1746739251914092800,10.7220927734375,-1.0881868663728236,0.45712738965600724,0.5449005117855966
1746739251924171800,10.732171875,-0.9853788183271884,0.10743570784628391,0.2918698996990919
1746739251934251800,10.742251708984375,-0.9023872313857078,-0.4437710644766688,-0.3538071543045342
1746739251944330800,10.752330810546875,-0.625879151469469,-0.859586785057187,-0.9106105775907635
1746739251954409500,10.762409423828124,-0.2630652454972267,-1.253854398435354,-1.5123333390556275
1746739251964489700,10.77248974609375,0.06327800168991088,-1.5831109027206898,-2.0427591891564427
1746739251974568700,10.782568603515625,0.3617354630857706,-1.751191925665736,-2.41854480490461
1746739251984647700,10.792647705078124,0.5657119752764701,-1.724494472876191,-2.5032833816438913
1746739251994727700,10.802727783203125,0.6834750158697366,-1.4721078577816487,-2.2383149328738448
1746739252004806700,10.812806640625,0.695529610800743,-1.050326799055934,-1.7066195012286305
1746739252014885600,10.8228857421875,0.8232593341350555,-0.5943494562178849,-1.1024174901686608
1746739252024966000,10.8329658203125,0.8861661644250154,-0.09190262314975262,-0.4608183531284332
1746739252035044600,10.843044677734374,0.8474836748093366,0.21088468414396047,0.04799290040507912
1746739252045123600,10.85312353515625,0.8359843756735325,0.36242841378599405,0.35359570351094005
1746739252055203600,10.86320361328125,0.7442781518787145,0.42608898505270476,0.5599010970406234
1746739252065282600,10.873282470703124,0.7275356913924217,0.3879769888013601,0.6443536964453757
1746739252075361800,10.88336181640625,0.743411890438199,0.3226774181559682,0.6451598982617258
1746739252085441500,10.893441650390624,0.6642167731702328,0.23324615355581044,0.5775044121399522
1746739252095520800,10.903520751953126,0.3351087374448776,0.19126783726513386,0.4443158388778567
1746739252105599700,10.913599853515626,0.22402502848505973,0.21138503488153218,0.32643604003712534
1746739252115679700,10.9236796875,0.1349327865809202,0.09941139134466648,0.14605843009874223
1746739252125758700,10.9337587890625,0.047129999965429305,-0.0022387188374996185,0.07628887443244457
1746739252135837700,10.943837646484376,0.1245160219848156,-0.15109803170114755,0.023515607883036135
1746739252145917700,10.953917724609376,0.11091361308991908,-0.3938941038906574,-0.15114581636562943
1746739252155996700,10.96399658203125,0.04499824863374233,-0.7000751452758908,-0.43330213130190964
1746739252166075600,10.97407568359375,-0.212715114441514,-0.8512664082184433,-0.61564315026775
1746739252176155600,10.98415576171875,-0.20418752459287642,-1.0669096850663422,-0.7880364834539592
1746739252186234600,10.994234619140625,-0.06618599809110164,-1.1607584738478063,-0.9437623210862278
1746739252196313600,11.004313720703125,-0.1387403621703386,-0.7540902285799383,-0.7260276249170303
1746739252206393600,11.0143935546875,-0.026324527823925015,-0.1588078754261136,-0.22420623027086256
1746739252216472600,11.02447265625,0.23454992963075635,0.018425299006700514,-0.001022036524116993
1746739252226552800,11.034552734375,0.31528350851237774,0.014761808063089847,0.011309475652128457
1746739252236631600,11.044631591796875,0.33154198487401004,0.03654693889170885,0.029872429563850163
1746739252246710800,11.054710693359375,0.3113029144436121,0.12482581858634947,0.15737988844960926
1746739252256790500,11.06479052734375,0.1919452981352806,0.19282032740414143,0.32586978445649145
1746739252266869800,11.074869873046875,0.06739128222763538,0.1957034816250205,0.4041230908297002
1746739252276948700,11.08494873046875,-0.08224047631323338,0.16679507478773592,0.43093803251907226
1746739252287028700,11.09502880859375,-0.040945173850655554,0.11399842736274003,0.3757862002700567
1746739252297107700,11.105107666015625,0.008119009047746657,0.07806172932386397,0.26872239447608587
1746739252307187700,11.115187744140625,-0.017477204501628874,0.036652737353742124,0.17577157744765282
1746739252317266700,11.1252666015625,-0.028248189362883567,0.09648498250395059,0.10277969873398542
1746739252327345700,11.135345703125,-0.01828384470939636,0.07042904248833656,0.026629063728451727
1746739252337425700,11.14542578125,0.011364274579286574,-0.005790858361124992,-0.03559621403813362
1746739252347504600,11.155504638671875,0.03756722185015678,-0.09557020574659109,-0.09838467864543199
1746739252357584600,11.165584716796875,0.0565109917730093,-0.17656418913006783,-0.11248422340750694
1746739252367663600,11.17566357421875,0.06379939521551131,-0.1683645160615444,-0.06816285112202167
1746739252377742800,11.185742919921875,0.11414952627122402,-0.11652385418713092,0.04821384967938065
1746739252387822600,11.195822509765625,0.2148416050761938,-0.04517740459293127,0.1026607485294342
1746739252397901800,11.20590185546875,0.24946868182122706,0.027577158233523368,0.12861629691049456
1746739252407980800,11.215980712890625,0.2674403918415308,0.0730237351566553,0.07658785737901926
1746739252418060800,11.226060791015625,0.2689998962432146,0.08207768696695565,0.02727379137277603
1746739252428139800,11.236139892578125,0.23461773416996,0.0896463686555624,0.033460955575108524
1746739252438219800,11.2462197265625,0.10668927339315414,0.12141454883813857,0.017734101872146128
1746739252448298800,11.256298828125,0.01853694268763065,0.06490151123851537,0.031028467731177806
1746739252458377500,11.26637744140625,0.072222355645895,0.005350713378190994,0.006475187363475561
1746739252468457700,11.276457763671875,0.13366437408030032,-0.035709319023787975,-0.03557619416341185
1746739252478536700,11.28653662109375,0.21947861722707748,-0.04661211357116699,-0.04364025815352797
1746739252488616700,11.29661669921875,0.40855157479643817,-0.06064356153309345,-0.06754033530950546
1746739252498695700,11.30669580078125,0.7034235789209604,-0.13246493516266344,0.0056026423126459115
1746739252508774700,11.316774658203125,0.010888473761081695,-0.029678806687891482,0.11755977310612797
1746739252518854700,11.326854736328125,0.11330313857495784,0.07305500707775354,0.18089973411634563
1746739252528934000,11.336933837890625,0.06677870328724383,-0.01123334167599678,0.15954335009381174
1746739252539013600,11.347013671875,-0.1509188757419586,0.027426936107873914,0.12636413406953215
1746739252549092900,11.3570927734375,-0.2629495101630688,0.056518882818520064,0.14751695834398268
1746739252559172600,11.367172607421875,-0.34746319210529325,0.07786620675176381,0.1505705006957054
1746739252569251800,11.377251953125,-0.3616080373138189,0.07468903802037238,0.12218524094969034
1746739252579330600,11.38733056640625,-0.32751346001029014,0.0027127660900354384,0.05981529401540756
1746739252589410800,11.397410888671875,-0.32872868101894853,-0.09388941305279731,-0.027279636591672894
1746739252599489800,11.40748974609375,-0.27366496544480323,-0.166904964902997,-0.004414309310913086
1746739252609569800,11.41756982421875,-0.11887597027122973,-0.12616817310601472,0.06795519972071051
1746739252619648800,11.427648681640624,-0.2193552831083536,-0.012192249836027621,0.14896934910938142
1746739252629728800,11.437728759765625,-0.13040508002340792,0.062032970064878463,0.07814590047597884
1746739252639807700,11.447807861328124,0.05100888722538948,0.10338701697736978,0.03294467661604285
1746739252649886700,11.45788671875,0.16100772355794907,0.15877923385351894,0.07863076138347387
1746739252659966700,11.467966796875,0.22773265083134173,0.19531565135121345,0.16088482783064245
1746739252670045700,11.478045654296874,0.3979974475562572,0.2394634206354618,0.19524097867980597
1746739252680125700,11.488125732421874,0.3973457056492567,0.16650749001801013,0.163691555814445
1746739252690204700,11.49820458984375,0.35490707837045193,0.003395779918134212,0.0866496710576117
1746739252700284700,11.50828466796875,0.38192309558987614,-0.08685732245892286,0.005021481423825025
1746739252710363600,11.51836376953125,0.3623077100157738,-0.12401011828929186,-0.05339914336279034
1746739252720443000,11.52844287109375,0.3114320937812328,-0.12085837626010179,-0.09823241069316864
1746739252730522600,11.538522705078124,0.30786651025414463,-0.07046820545494556,-0.11345657557100057
1746739252740601900,11.548601806640624,0.2899789713859558,-0.0050029228538274765,-0.05132745165526867
1746739252750681600,11.558681640625,0.24150924724936484,0.06888619696050882,0.0366688117057085
1746739252760760800,11.5687607421875,0.21612112349271773,0.11655571063011884,0.12298618206903338
1746739252770840800,11.5788408203125,0.20579262170195578,0.12200433142483234,0.1510173676803708
1746739252780919800,11.588919921875,0.18798048615753649,0.06385170992463826,0.09902721433266996
1746739252790999800,11.598999755859374,0.10724924536347388,-0.01539864466190338,0.03972118501365184
1746739252801078800,11.609078857421874,0.0634516046911478,-0.03372428268641233,0.04943973821252584
1746739252811158000,11.619157958984376,-0.014555764096975326,-0.048809623615443706,0.013769874416291713
1746739252821237800,11.62923779296875,-0.07585691275596618,-0.058363633902370926,-0.008576105165481566
1746739252831317000,11.63931689453125,-0.0531733717828989,-0.01670534334629774,0.0415030999943614
1746739252841396700,11.649396728515624,-0.05187281057834625,0.062113341824710365,0.06373553619906305
1746739252851476000,11.65947607421875,-0.05326105006635189,0.06181085174679756,0.07481251826956868
1746739252861555700,11.6695556640625,-0.02146247474551201,0.011410159547626971,0.08604717511981726
1746739252871635000,11.679635009765626,0.023669044879078862,0.034810324357450004,0.12250336698815226
1746739252881715000,11.68971484375,0.026481764212250708,0.00770107589662075,0.08320376838743686
1746739252891794000,11.6997939453125,-0.008816343662142753,-0.04559563000500202,-0.00907163359746337
1746739252901874000,11.7098740234375,-0.007882862204313277,-0.06322422567605972,-0.06729658968150615
1746739252911952600,11.71995263671875,0.008012041541934013,-0.09505787231028079,-0.12047522216141224
1746739252922033000,11.730032958984374,0.005702011033892631,-0.13331599903404712,-0.13376257375776768
1746739252932111600,11.740111572265626,-0.018611761489510534,-0.20292904896438121,-0.16829174308627842
1746739252942190800,11.75019091796875,-0.09899813436865806,-0.31759441580325365,-0.22500059551894663
1746739252952270800,11.760270751953126,-0.3408189317852258,-0.6873708542644977,-0.5063572845101356
1746739252962349800,11.770349853515626,-0.4907195703953504,-0.9526166586712003,-0.8488483872912823
1746739252972429800,11.780429931640626,-0.48994274080395694,-0.9480728777617216,-1.0570976083651185
1746739252982508800,11.7905087890625,-0.481628501445055,-0.8743284271150827,-1.1698550957560538
1746739252992588800,11.8005888671875,-0.3137602444678545,-0.8116875542849302,-1.2108626673184335
1746739253002667800,11.810667724609376,-0.025910686326026916,-0.6867196968793868,-1.14644703990072
1746739253012747800,11.820747802734376,0.27153262959122654,-0.5372925209999084,-1.1416025224789976
1746739253022827000,11.830826904296876,0.5071884746372699,-0.5070137025922536,-1.1534548728361724
1746739253032906800,11.84090673828125,0.7460977685213088,-0.515955718460679,-1.1151244115285575
1746739253042986000,11.850986083984376,0.9211860398799181,-0.525737692284584,-1.0511027518644929
1746739253053065700,11.861065673828126,0.9425427161633968,-0.5272422516286372,-1.0191424101106823
1746739253063145000,11.87114501953125,0.7663777554839849,-0.5160246920436621,-0.9784503342382609
1746739253073224700,11.881224609375,0.5401490794748067,-0.5122083486258984,-0.8983036153338849
1746739253083304000,11.891303955078126,0.2504752285152674,-0.5562555801451206,-0.8864672662634402
1746739253093383700,11.9013837890625,-0.07696984243392944,-0.5317740498393774,-0.8475020872488618
1746739253103463000,11.911462890625,-0.25066110647618767,-0.3761339907944202,-0.8298252685219049
1746739253113543000,11.92154296875,-0.26013094561100003,-0.23091712608635423,-0.8609013747870922
1746739253123622000,11.931621826171876,-0.11965864508152008,-0.13382979377508164,-0.8967154693596064
1746739253133702000,11.941701904296876,-0.02501987496614456,-0.05575637401342392,-0.8213719129532575
1746739253143780900,11.95178076171875,0.16817396192550657,0.01532324133813381,-0.67438146270141
1746739253153860900,11.96186083984375,0.35822190200686455,0.07692015807330609,-0.510797678110376
1746739253163939800,11.97193994140625,0.49086745443344115,0.169672676050663,-0.33108832282237705
1746739253174019800,11.982019775390626,0.5646989988416433,0.28585166232287884,-0.1536339433869347
1746739253184099000,11.99209912109375,0.5851058270543813,0.4385615131348371,-0.025322419842984525
1746739253194178800,12.0021787109375,0.517774166059494,0.6369359675347804,0.05915260145612992
1746739253204258000,12.012258056640626,0.3711667237758636,0.7990741564273833,0.10454301861207932
1746739253214337800,12.022337890625,0.14247194991409778,0.9001420828074216,0.15824059693217277
1746739253224416800,12.032416748046876,-0.06611117928922176,0.9451648813605308,0.2061687615379691
1746739253234496800,12.042496826171876,-0.5489771135747432,1.0464181011795997,0.24802783536314962
1746739253244577000,12.052576904296876,-1.8422154278934,1.616037020766735,0.4609211924483999
1746739253254655700,12.06265576171875,-3.1726854484975338,2.7651480191797018,0.9645193509761244
1746739253264736000,12.072736083984376,-2.8058406795740125,3.6519624183803794,1.2910904886350034
1746739253274814700,12.082814697265626,-0.8307447214543819,3.547842118692398,1.6017226642102003
1746739253284895000,12.09289501953125,0.1466758313447237,2.816472548225522,2.201448698899895
1746739253294974000,12.102973876953126,0.04963409174084663,2.0944395459026097,2.703573898798227
1746739253305054000,12.113053955078126,0.11568097362220287,1.307743809533119,2.6916657266005872
1746739253315133000,12.1231328125,0.44126668044030665,0.49080607963502404,2.162959832160175
1746739253325213000,12.133212890625,0.7060971820443869,0.050822424742579454,1.5191459416799247
1746739253335292000,12.1432919921875,0.8077262494385242,-0.15934066712856293,0.7940706490516662
1746739253345372000,12.153371826171876,0.8791782052338123,-0.23134324254393576,0.10073219161964952
1746739253355451000,12.163450927734376,0.9481903666615485,-0.17421324208974837,-0.41869500234387813
1746739253365530600,12.173530517578126,0.845548907354474,-0.16692425412535666,-0.6547786443479359
1746739253375611000,12.18361083984375,0.7572890246212483,-0.14866437481343744,-0.6563310614217073
1746739253385689900,12.19368994140625,0.6409247449100017,-0.15811375568211078,-0.5861435726042836
1746739253395769900,12.203769775390626,0.5604051010400056,-0.19553776966929434,-0.32543248901776967
1746739253405848800,12.213848876953126,0.5921183361649512,-0.1408107387036085,-0.10220555210784077
1746739253415928800,12.2239287109375,0.9878408245265483,-0.09503215334713458,-0.14320420971140266
1746739253426007800,12.2340078125,0.9265969590127467,0.08039104905426502,-0.021491189383342862
1746739253436087800,12.244087890625,1.0719786588937044,0.04563070131838321,0.017856340012326836
1746739253446166800,12.254166748046876,1.1399638153612612,-0.1298310795277357,-0.09253419905155896
1746739253456246800,12.264246826171876,1.0192015929520128,-0.16264555389285087,0.035513504190742964
1746739253466327000,12.2743271484375,0.9017688072264194,-0.12774608994722367,0.1643571801163256
1746739253476405800,12.28440576171875,0.6735381437450647,0.009842179578542708,0.3096695410881191
1746739253486486000,12.294486083984374,0.44226621287167067,0.19470131884515285,0.45834860201403493
