time,seconds_elapsed,z,y,x
1746576171704889300,0.018889404296875,-0.08717968628108501,-0.0022966961024329063,0.006180606597382575
1746576171714905300,0.0289052734375,-0.08403612755835056,0.0005336045532021671,0.0012655720895621925
1746576171724921300,0.03892138671875,-0.08867197066545486,-0.00021159692406654356,0.0006632496817037463
1746576171734936300,0.048936279296875,-0.08867080162167548,-0.00267342046033591,0.01559084276575595
1746576171744952300,0.058952392578125,-0.08642682208716869,-0.0020947163900826124,0.014504298771219327
1746576171754968000,0.068968017578125,-0.0895680427223444,-0.0008175908600445836,0.001989931708201766
1746576171764983300,0.0789833984375,-0.09166413821876049,-0.0016549367333296686,0.0023319774783682077
1746576171774999000,0.0889990234375,-0.08627776900529861,-0.01750676852283068,0.0042054340668953956
1746576171785014300,0.09901416015625,-0.08897183039486407,-0.0009598169089062139,0.011295967716583982
1746576171795030000,0.109030029296875,-0.09435819960832595,0.0017472866253228857,0.0017096717284061013
1746576171805046300,0.11904638671875,-0.09780044901669024,-0.0032579469165997577,-0.0002468691668473184
1746576171815061200,0.129061279296875,-0.09795359375178814,-0.002013869706215337,0.00439576900722459
1746576171825077200,0.1390771484375,-0.09660802436172962,0.005615798621741123,0.0043356180515140294
1746576171835093200,0.14909326171875,-0.09092179541885852,0.004862436670903116,0.005524818702926859
1746576171845108200,0.159108154296875,-0.09511047928035259,0.000020481099025346336,-0.008056666134949772
1746576171855124200,0.169124267578125,-0.08523264386653899,-0.004454463224788196,-0.000016658873856067655
1746576171865139200,0.17913916015625,-0.09151800774633884,0.0009039311363594606,0.010743384468276053
1746576171875155200,0.1891552734375,-0.09480886598527431,-0.002664753096690401,0.013699421262275427
1746576171885171200,0.199171142578125,-0.07385901693701744,-0.0044082129302667455,-0.0022612594628706574
1746576171895186200,0.209186279296875,-0.08149053472876548,-0.010921846307720988,0.004794686930626631
1746576171905202200,0.2192021484375,-0.09451017529964446,-0.003215121555025689,0.007748148175049573
1746576171915217200,0.229217041015625,-0.0874760388791561,-0.0026968013359233737,0.008246654015406966
1746576171925233200,0.239233154296875,-0.09690262339413165,-0.00804145029950887,0.008260856070695445
1746576171935249400,0.24924951171875,-0.09001987814307212,-0.0029389166958397254,0.009573820099094882
1746576171945264400,0.259264404296875,-0.09585632921159266,-0.004193798428028822,0.013456397153483703
1746576171955280400,0.2692802734375,-0.08373509878516197,-0.00006333386006299406,0.0014807583433575928
1746576171965296400,0.27929638671875,-0.0856815566778183,0.002508598987176083,0.007406184603273868
1746576171975311400,0.289311279296875,-0.08927402821183204,0.0014212238755775615,0.012273324848758056
1746576171985327400,0.299327392578125,-0.0925654709726572,0.0038023331587202845,0.012903539910539984
1746576171995342300,0.30934228515625,-0.09511047928035259,-0.0008311764274025335,0.0028919677149970083
1746576172005358300,0.3193583984375,-0.09555997661352157,-0.000052629802958108485,0.00028128289310261605
1746576172015374000,0.3293740234375,-0.09151859226822853,0.0010458329582354053,0.01408526050839573
1746576172025389300,0.339389404296875,-0.08867547779679298,-0.004488516191439703,0.018847287278436122
1746576172035405000,0.349405029296875,-0.09047229808568955,-0.005939993641385808,0.003987991923931986
1746576172045421000,0.359421142578125,-0.08912555965185165,-0.007983139674435369,-0.0034576113742776212
1746576172055436000,0.36943603515625,-0.09465981290340424,0.0023146929834270847,-0.00007343056239187717
1746576172065452300,0.379452392578125,-0.08463467797338962,-0.005911849825712852,0.014840709385043008
1746576172075467300,0.38946728515625,-0.09420973104834555,-0.0014582405508728696,0.010039565314166247
1746576172085483300,0.399483154296875,-0.08897241491675377,-0.0072121827014023435,-0.009681965781841427
1746576172095499300,0.409499267578125,-0.08897241491675377,-0.0067477252611191935,0.01131300104977563
1746576172105514200,0.41951416015625,-0.09450959077775478,0.003161414039833471,0.012311099575879052
1746576172115530200,0.4295302734375,-0.08104220643937587,-0.0020718104385305195,0.011288021872146054
1746576172125546200,0.439546142578125,-0.08837561806738375,0.003748831139504909,0.008535964951338246
1746576172135561200,0.449561279296875,-0.09166589178442955,0.0005023600315675139,0.008617907613748685
1746576172145577200,0.4595771484375,-0.09031798430681229,0.007282517124409787,0.006644853975111618
1746576172155592200,0.46959228515625,-0.08837269545793533,-0.0018149130680132656,0.012937040321342646
1746576172165608200,0.479608154296875,-0.09540449379086494,0.00034679957709740845,0.0030532135581597683
1746576172175624200,0.489624267578125,-0.09719897599220276,-0.002455179166351445,0.0018732921917457132
1746576172185639200,0.49963916015625,-0.09675123222470283,-0.002037917302083224,0.008926041981158778
1746576172195655400,0.509655517578125,-0.09555471591651439,-0.001259014484612271,0.006194370261253789
1746576172205670100,0.519670166015625,-0.09525310262143612,-0.0005853849727893248,0.008473585505923255
1746576172215686400,0.529686279296875,-0.0982470237404108,-0.005550176906469278,0.011606284907925873
1746576172225702400,0.539702392578125,-0.07744798133969306,-0.0002916764229536056,0.006506367953028529
1746576172235717400,0.54971728515625,-0.07789630962908267,0.0003226971823023632,-0.002732585035357624
1746576172245733400,0.5597333984375,-0.09196224438250064,0.001197205861355178,-0.0039406182514037935
1746576172255749000,0.5697490234375,-0.08118892143368721,0.004032095927139744,0.00784399149864912
1746576172265764400,0.579764404296875,-0.09091595019996165,0.003994750458281487,0.014865496766427531
1746576172275780000,0.589780029296875,-0.09136603205502032,0.0015345617566723375,0.00015213095494545994
1746576172285796000,0.599796142578125,-0.08119184404313563,-0.003817311532143503,-0.001972048991639167
1746576172295811000,0.60981103515625,-0.08672843538224696,0.0033517124475445598,0.0044423115626908835
1746576172305827000,0.6198271484375,-0.08897358396053313,0.013187676914432084,0.018639361882489172
1746576172315842000,0.629842041015625,-0.0915156696587801,0.0008427664004964754,0.0021087449154350906
1746576172325858000,0.639858154296875,-0.09121522540748118,-0.001269777907221578,-0.0015793324801605193
1746576172335874300,0.649874267578125,-0.08119009047746657,-0.0061942423970904196,0.0049565994940698145
1746576172345889300,0.65988916015625,-0.08478197748959064,-0.010373185749282128,0.012838109991513191
1746576172355905300,0.6699052734375,-0.08822422689795494,-0.0008098459450062364,0.003973324077762663
1746576172365921300,0.67992138671875,-0.08792378264665603,-0.007343421565368771,0.004363967363163829
1746576172375936300,0.689936279296875,-0.08523205934464931,0.003011041217134334,0.019247502109780906
1746576172385952300,0.6999521484375,-0.09690320791602135,-0.0017576162230921908,0.012424286759924142
1746576172395967200,0.70996728515625,-0.0834375771433115,-0.005270081323455088,-0.005628635270427912
1746576172405983200,0.719983154296875,-0.08972352554500103,-0.0017429849095409735,0.009149566805036738
1746576172415999500,0.72999951171875,-0.08972411006689071,0.0013429527412867172,0.010614643522072583
1746576172426014500,0.740014404296875,-0.09660802436172962,-0.002439059148612432,0.006950650254962966
1746576172436030500,0.750030517578125,-0.09391513201594352,0.001803583389823325,0.002316715977154672
1746576172446045400,0.76004541015625,-0.09556348374485969,0.003065470251534134,0.005137910877726972
1746576172456061700,0.770061767578125,-0.08493921387791634,0.003218971179658547,0.005327204638440161
1746576172466077400,0.780077392578125,-0.09601122751235962,-0.000233995985542424,0.007663091106945648
1746576172476092700,0.7900927734375,-0.07566109792292118,-0.0035288225801195948,-0.0027557010494638234
1746576172486108400,0.8001083984375,-0.0873322464942932,0.0007593852662481367,0.0070878211027942594
1746576172496124400,0.81012451171875,-0.08912497512996197,0.0009544648803537711,0.008981069237180053
1746576172506139400,0.820139404296875,-0.08119418213069439,0.0015097424092469737,0.010952058782894163
1746576172516155400,0.8301552734375,-0.08433715633153915,-0.005261423092964105,0.004352824914641678
1746576172526171400,0.84017138671875,-0.08283961125016212,-0.006944809602643363,-0.005432336380193009
1746576172536186400,0.850186279296875,-0.09555997661352157,-0.0036540518284076825,0.006604996888758615
1746576172546202400,0.860202392578125,-0.08822890307307243,-0.0014345491480315103,0.013707294041477143
1746576172556217300,0.87021728515625,-0.08478723818659782,-0.00815378810018301,0.006214764595311135
1746576172566233300,0.8802333984375,-0.09331833516657352,-0.0011328536545624956,-0.003446158398501575
1746576172576249600,0.89024951171875,-0.08733283101618289,-0.0028774322995683177,0.011345158886862917
1746576172586264300,0.900264404296875,-0.09167173700332641,0.003649896243098192,0.01715719703333452
1746576172596280600,0.910280517578125,-0.09316694399714469,0.004874474168568849,0.004354103556275368
1746576172606295600,0.920295654296875,-0.09182079008519649,-0.00007191902531776577,-0.005528435432119294
1746576172616311600,0.9303115234375,-0.0994540614426136,-0.0020675909211393443,-0.0015851137669757008
1746576172626327600,0.94032763671875,-0.08015022603571414,-0.0008254819055553525,0.00595448795761913
1746576172636342500,0.950342529296875,-0.08972644815444945,-0.003406433742889203,0.005269757096469402
1746576172646358500,0.960358642578125,-0.08239303652644157,0.002316177121037617,-0.0006585095745045692
1746576172656374500,0.97037451171875,-0.09810673848688602,0.002692006429797038,0.0021206271494738755
1746576172666389500,0.980389404296875,-0.0806008924126625,-0.0009191469718003645,0.006766671990184113
1746576172676405500,0.990405517578125,-0.08359364448785782,-0.000048136290931142866,0.010820660088723524
1746576172686421500,1.00042138671875,-0.09167349056899547,-0.0030235764717217533,0.0008439034782350063
1746576172696436500,1.0104365234375,-0.08269406529963017,-0.00022859829121734947,0.00987462967657484
1746576172706452500,1.020452392578125,-0.07700549826920032,-0.0005882436501560732,0.013120918121421708
1746576172716467500,1.030467529296875,-0.08553367263972758,-0.0021606623323401435,0.007680206638528034
1746576172726483500,1.0404833984375,-0.09286708426773548,0.0013886733128456398,0.0049307161341421305
1746576172736499500,1.05049951171875,-0.08777940573990345,0.00456844499327708,0.011075639496790244
1746576172746514400,1.060514404296875,-0.09376490989029407,0.004369981545419432,0.010768582841614261
1746576172756530400,1.070530517578125,-0.08673194251358508,-0.001392020613979548,0.006904555224068462
1746576172766546400,1.08054638671875,-0.08747954601049422,-0.0035228905962547286,-0.008490290045551956
1746576172776561400,1.0905615234375,-0.08732873936295509,0.004430114234820939,0.0009012322891969233
1746576172786577400,1.100577392578125,-0.08553484168350696,-0.00264450945968274,0.012046594287641346
1746576172796592400,1.11059228515625,-0.08912731321752071,-0.004892005258682184,0.010493263898417354
1746576172806608400,1.1206083984375,-0.09466448907852172,-0.0014421113999793305,0.005965192014724016
1746576172816624400,1.130624267578125,-0.08972586363255977,-0.004486324234353379,-0.00103774554990232
1746576172826639400,1.140639404296875,-0.09526362401545047,-0.002299582179263234,0.01008197968378663
1746576172836655400,1.1506552734375,-0.09152502200901508,-0.0009022415027720853,0.017456490507163105
1746576172846671600,1.160671630859375,-0.08643325182795523,0.0027706337571144104,0.012575486133107916
1746576172856686600,1.1706865234375,-0.09017185383439064,-0.008142736983206122,0.007328854183899238
1746576172866702600,1.18070263671875,-0.09870236629247665,-0.0007835744260111824,0.0048844293070025736
1746576172876717600,1.190717529296875,-0.08598258545100688,-0.00562899146345444,0.0025584066453855484
1746576172886733600,1.200733642578125,-0.0955588075697422,-0.0040822323789121585,0.002018372351396829
1746576172896749600,1.21074951171875,-0.09690554600358009,-0.006633711526589468,0.016825435195164756
1746576172906764500,1.2207646484375,-0.0954103390097618,-0.00047044878965243696,0.005534097987925634
1746576172916780500,1.230780517578125,-0.09166764535009861,-0.00445464132130146,-0.001113011876353994
1746576172926796500,1.240796630859375,-0.08912380608618259,-0.0060761872416827825,0.0026245672167744486
1746576172936811500,1.2508115234375,-0.0904693754762411,-0.0007674726745812222,0.007178595525631681
1746576172946827500,1.26082763671875,-0.08822422689795494,0.0041324692953843625,0.016185429391730576
1746576172956842500,1.270842529296875,-0.09196516699194908,-0.0011813096059020607,0.004695674402406439
1746576172966858500,1.2808583984375,-0.09720189860165118,-0.004936360423639417,-0.009335079439776017
1746576172976874500,1.29087451171875,-0.08493395318090916,0.0007168795650824904,0.0073094918963033705
1746576172986889700,1.3008896484375,-0.0843348182439804,-0.0041575489377137275,0.00865760943647474
1746576172996905500,1.310905517578125,-0.0784966136097908,-0.004556147200707346,0.010253125866455957
1746576173006921500,1.32092138671875,-0.08717384106218815,-0.00047372302555013444,0.0053979043876286594
1746576173016936400,1.3309365234375,-0.10498188495337962,-0.0006646059551509097,0.007149278099602088
1746576173026952400,1.340952392578125,-0.09675181674659251,-0.0025336146974237633,0.006279820055002347
1746576173036967400,1.350967529296875,-0.0925607947975397,-0.009300642880634404,0.0009080638887826352
1746576173046983400,1.3609833984375,-0.09270634074807166,-0.006576948971208184,-0.0003017046266235411
1746576173056999400,1.37099951171875,-0.09704583125710486,-0.0021921534491470083,0.007797576807346195
1746576173067014400,1.381014404296875,-0.09345511328876017,-0.0033789794803829863,0.012850795943150296
1746576173077030400,1.391030517578125,-0.09285597835183143,-0.0025991085485322397,0.004173431493435055
1746576173087046400,1.40104638671875,-0.09285656287372111,-0.003421594779402949,-0.004271722502447665
1746576173097061400,1.411061279296875,-0.08522621412575244,-0.0028016225504223255,0.002515197691321373
1746576173107077600,1.42107763671875,-0.09001344840228558,0.0011348675151355563,0.0100541052961722
1746576173117092400,1.43109228515625,-0.09480126720070839,-0.0005257774397730827,0.012770278052845968
1746576173127108600,1.441108642578125,-0.09480185172259807,0.0004853632309939712,0.0037656818096060305
1746576173137124600,1.45112451171875,-0.0988438205897808,0.003311015110975131,-0.0019853742640931157
1746576173147139600,1.4611396484375,-0.09315876069068908,-0.005043633890128694,0.007055544534698128
1746576173157155600,1.471155517578125,-0.09016425504982471,-0.011215353928157128,0.011654288768116383
1746576173167171600,1.481171630859375,-0.08926584490537642,0.0016292588693788274,0.005537431589327752
1746576173177186600,1.4911865234375,-0.09375555754005908,0.0013808735988801344,0.006990571273397654
1746576173187202600,1.50120263671875,-0.09345511328876017,0.010313541683647781,0.008920644286833703
1746576173197218300,1.51121826171875,-0.08881576305031776,0.003509524224605411,0.005638042419590056
1746576173207233500,1.521233642578125,-0.09255787218809128,-0.008713860535202548,0.002629855313245207
1746576173217249300,1.531249267578125,-0.09959083956480026,-0.011272673605964519,0.010556739322375506
1746576173227264500,1.541264404296875,-0.08043897984921931,-0.002520175260538235,0.0164817911229562
1746576173237280300,1.5512802734375,-0.07849310647845267,0.001874758063047193,0.0055736902127973735
1746576173247296500,1.561296630859375,-0.08956512011289595,-0.0007186422639060765,0.002493725645029917
1746576173257311500,1.5713115234375,-0.09091302759051323,-0.0012155132696032524,0.014087826924817635
1746576173267327500,1.581327392578125,-0.0957025999546051,-0.004208872699574567,0.015532801568740979
1746576173277343500,1.591343505859375,-0.0931581761687994,-0.010716414262959733,0.0010737027792725711
1746576173287358500,1.6013583984375,-0.07864566669166087,-0.0029938434871612115,0.00811908211298287
1746576173297374500,1.61137451171875,-0.09016834670305252,-0.0001361707674106583,0.009725695325713605
1746576173307389400,1.621389404296875,-0.08777414504289627,-0.002261401026765816,0.018875490459613502
1746576173317405400,1.631405517578125,-0.09331190542578696,-0.002413723777956329,0.003521607388043776
1746576173327421400,1.64142138671875,-0.09286708426773548,-0.003678729611937888,-0.003885353533364832
1746576173337436400,1.6514365234375,-0.08089899857640266,-0.002825633613672107,0.002368711025873199
1746576173347452400,1.661452392578125,-0.09212240338027476,-0.006458464557537809,0.016362512124842032
1746576173357468400,1.671468505859375,-0.0888315451413393,0.001651794928172603,0.010577489849459379
1746576173367483400,1.6814833984375,-0.09646364745497703,-0.007762446128460578,0.004264269848354161
1746576173377499600,1.691499755859375,-0.08987959288954735,-0.003040486507327296,0.0012532697304151951
1746576173387514600,1.7015146484375,-0.09032792117893695,0.0032745281586423515,0.014072419293131678
1746576173397530600,1.711530517578125,-0.08643734348118305,0.001773306982568465,0.012132482472807168
1746576173407546600,1.721546630859375,-0.09361877941787243,-0.001471163964527659,-0.005605345726385712
1746576173417561000,1.73156103515625,-0.0843394944190979,0.005334899321128614,-0.0031331377934198826
1746576173427577000,1.7415771484375,-0.09705693717300891,-0.0008116177769843489,0.001471780452458188
1746576173437593000,1.751593017578125,-0.0900251388400793,0.003093134576594457,0.010090555715886875
1746576173447608000,1.761608154296875,-0.08822948759496212,0.003709120183624327,-0.0041171347289346155
1746576173457624000,1.7716240234375,-0.09047522069513797,0.0012151570765767245,0.007578929087985306
1746576173467639000,1.78163916015625,-0.09975333665013313,-0.0006235341592459008,0.009951905297022312
1746576173477655000,1.791655029296875,-0.08688333368301392,0.00246036223154515,0.008352580341603607
1746576173487671000,1.801671142578125,-0.08852934732437133,0.0010432437089271842,0.007310049018729478
1746576173497686000,1.81168603515625,-0.09316811304092407,-0.004981240744981914,0.005162479063402861
1746576173507702000,1.821701904296875,-0.09661036244928836,0.0012520047885132954,0.00919666648292914
1746576173517718000,1.831718017578125,-0.09182137460708617,-0.004321064369776286,0.006981054526381194
1746576173527733000,1.84173291015625,-0.07670622306168079,0.0009233664891915395,0.0018516557486727833
1746576173537749000,1.8517490234375,-0.0888268689662218,-0.007294481556839309,0.009648090911703183
1746576173547764000,1.861763916015625,-0.08987316314876079,-0.0036909406395396215,0.02123760734791867
1746576173557780000,1.871780029296875,-0.09122223967015743,0.00036767796834465117,0.00047609307914972304
1746576173567796000,1.8817958984375,-0.09571312134861945,-0.0018514319863868877,-0.005086189823644236
1746576173577811000,1.89181103515625,-0.08942951103448868,-0.0028640476616099476,0.00770280206282623
1746576173587827000,1.901826904296875,-0.0967611690968275,0.0040833831563824785,0.020142834381153805
1746576173597843000,1.911843017578125,-0.08897884465754032,0.005000593899423257,0.01828677645199932
1746576173607858000,1.92185791015625,-0.08598550806045532,-0.0002625462265918031,0.0037171208269894123
1746576173617874000,1.9318740234375,-0.08359130640029906,0.0040115874286508185,-0.0003331866102758795
1746576173627890200,1.94189013671875,-0.08823182568252086,0.003090791922458447,0.010469161503622308
1746576173637905200,1.9519052734375,-0.09676000005304813,-0.0004347061894135549,0.014609421379817649
1746576173647921200,1.961921142578125,-0.0901776990532875,-0.007872546306275763,0.0059643974302802235
1746576173657936100,1.97193603515625,-0.09930442383885384,-0.00743127337875776,0.01108178610978648
1746576173667952000,1.9819521484375,-0.09765899471938609,0.0009909198666457086,-0.003632127690967172
1746576173677968100,1.991968017578125,-0.0906260273426771,-0.003593453348125331,0.009814615718182176
1746576173687983000,2.001983154296875,-0.08449088558852672,-0.007012057019420899,0.002942638456309214
1746576173697999000,2.0119990234375,-0.09002806144952774,0.0017559448558138683,-0.0012188286046963183
1746576173708014800,2.022014892578125,-0.08045242385268211,0.004496101276273839,0.00317862090296112
1746576173718030000,2.032030029296875,-0.08898118274509906,0.0006995859369868413,0.0012362089977599679
1746576173728045800,2.0420458984375,-0.09242226310968399,-0.0024253776831319553,0.004383256585523486
1746576173738061000,2.05206103515625,-0.08209726845026016,-0.00402763438115362,0.007843206047359854
1746576173748076800,2.062076904296875,-0.09631225628554821,-0.007366505613434128,0.0037054851881228386
1746576173758093000,2.072093017578125,-0.09077683399021624,0.004955307152704335,0.004094393174163997
1746576173768108000,2.08210791015625,-0.0901776990532875,-0.003011945399432443,0.0077213514996692535
1746576173778124000,2.0921240234375,-0.09317162017226219,0.0006405035603558644,0.010373564775194972
1746576173788140000,2.10214013671875,-0.09840718273818493,0.00546403755955398,0.0025042105064261703
1746576173798155000,2.112155029296875,-0.08359364448785782,-0.0001576062810840085,-0.001734249047236517
1746576173808171000,2.1221708984375,-0.08972820172011851,-0.004998648537509143,-0.000043583413399755955
1746576173818186000,2.13218603515625,-0.08942775746881962,-0.00023435217856895176,0.007486154504306614
1746576173828202000,2.142201904296875,-0.08838029424250125,0.0006679623894393444,0.004888858886947855
1746576173838218000,2.152218017578125,-0.09780863232314586,-0.0036472567614400757,0.004969924766523763
1746576173848233000,2.16223291015625,-0.0942167453110218,-0.0017526888862252235,0.008291296874731778
1746576173858249000,2.1722490234375,-0.0907744959026575,-0.0031173009034711867,0.00580022897766903
1746576173868265000,2.182264892578125,-0.10439268688857554,-0.011332532300730235,0.01085978652271442
1746576173878280000,2.192280029296875,-0.09496493332982063,-0.004584743107529357,0.004008733317861333
1746576173888296200,2.202296142578125,-0.09257014714777469,-0.004424922036472708,0.0073357862481847405
1746576173898312200,2.212312255859375,-0.08823182568252086,-0.0023497277641901745,0.004750491595873609
1746576173908327200,2.2223271484375,-0.08987842384576797,-0.004418122402927838,0.0017115714245475827
1746576173918343200,2.23234326171875,-0.08658639656305313,-0.002929002656601369,-0.000055063788639381526
1746576173928358100,2.242358154296875,-0.09047522069513797,-0.005312313029984943,-0.00127068665609695
1746576173938374100,2.2523740234375,-0.08762976813614368,0.0010814522608881816,0.00812503692973405
1746576173948390000,2.262389892578125,-0.07625789477229118,-0.0009887370427139103,0.01680188078964129
1746576173958405000,2.272405029296875,-0.08703121772110461,0.0012198469514260067,0.007339074183814227
1746576173968420900,2.2824208984375,-0.08717910175919533,-0.005895935303950682,-0.006756022732006386
1746576173978436900,2.292436767578125,-0.09032266048192977,-0.010046328415093012,-0.003825851031625643
1746576173988451800,2.302451904296875,-0.09032266048192977,-0.0062993924051523206,0.021887824018113313
1746576173998467800,2.3124677734375,-0.09301789091527461,0.001838809966831468,0.016144987783487885
1746576174008482800,2.32248291015625,-0.08134557330012321,-0.002372044627275318,0.00045691345464438196
1746576174018499000,2.3324990234375,-0.09062368925511836,-0.0022144977116957307,-0.002377049595955759
1746576174028515000,2.34251513671875,-0.0886789849281311,-0.006107838188693858,0.004312611635262147
1746576174038530000,2.352530029296875,-0.0913718772739172,-0.00181468930572737,-0.001021525067463517
1746576174048546000,2.362546142578125,-0.0945130979090929,-0.007404316873173229,0.01224935031812638
1746576174058562000,2.37256201171875,-0.09331658160090446,-0.005761248674150556,0.014471857806341722
1746576174068577000,2.382576904296875,-0.0846399386703968,-0.004655022731609643,0.004269804539997131
1746576174078593000,2.392593017578125,-0.08793313499689101,-0.002727301505464129,0.005656308728642761
1746576174088609000,2.402609130859375,-0.08389584230482577,0.0018304394307080655,0.005287100956914946
1746576174098624000,2.4126240234375,-0.09227671715915202,0.002073381341109052,0.008504592565540224
1746576174108640000,2.422639892578125,-0.09556815991997718,-0.00318220109953545,0.013495934579428284
1746576174118655000,2.432655029296875,-0.09841127439141273,-0.007552041081059724,0.00691695804791525
1746576174128671000,2.4426708984375,-0.08389818039238453,-0.007274699144135229,-0.0033626083008944986
1746576174138687200,2.452687255859375,-0.09153028270602226,-0.003683341854973696,0.008139595178049058
1746576174148702000,2.462701904296875,-0.09197919551730155,-0.0012366884883726016,0.005612971910415217
1746576174158718200,2.47271826171875,-0.08539397190809249,-0.00031342246388085186,0.006341496247518807
1746576174168734000,2.48273388671875,-0.0835983206629753,0.004884863131842576,-0.000042642698483541604
1746576174178749200,2.492749267578125,-0.09946049118340015,-0.005782195564056746,0.010113425134820863
1746576174188765000,2.502764892578125,-0.09796411514580249,-0.0022094014114700257,0.01996933184461668
1746576174198780200,2.5127802734375,-0.08449789985120296,-0.006383618356194346,0.01032548784976825
1746576174208796000,2.5227958984375,-0.09078384825289249,-0.0029823631119215857,-0.005495135950716212
1746576174218812000,2.53281201171875,-0.09198094908297061,-0.0028249349273508414,0.00632443551486358
1746576174228827000,2.542826904296875,-0.09003507571220397,-0.008626543011353351,0.013825668857293203
1746576174238843000,2.5528427734375,-0.08793956473767757,-0.0025193076108582318,0.014190072589740156
1746576174248859000,2.56285888671875,-0.09227847072482108,-0.009973094215523452,-0.0095795100543648
1746576174258873900,2.572873779296875,-0.09407236840426922,-0.009119518726645038,-0.004880629914719611
1746576174268890000,2.58289013671875,-0.0840472334742546,-0.008587101483531296,0.008448140537412836
1746576174278904800,2.59290478515625,-0.09302373613417148,-0.004147246739408001,0.014948023950727656
1746576174288921000,2.602921142578125,-0.09152736009657382,0.00036147198984399435,-0.0034755214903037994
1746576174298937000,2.61293701171875,-0.09826105226576327,0.0028633763747522604,-0.001833480771165341
1746576174308952000,2.6229521484375,-0.08853636158704757,0.007598793699080124,0.004589711543591693
1746576174318968000,2.632968017578125,-0.08883622131645678,-1.324307406321168e-7,0.0053017962025478475
1746576174328984000,2.642984130859375,-0.09033201283216476,-0.004306688784551807,-0.003206623154738918
1746576174338999000,2.6529990234375,-0.09826163678765297,-0.006697725806664675,0.003243667229497805
1746576174349015000,2.66301513671875,-0.0963169324606657,-0.008838596593146212,0.012644742843881248
1746576174359031000,2.673031005859375,-0.08584113115370273,-0.004705223115463741,0.006476758266054094
1746576174369046000,2.6830458984375,-0.09197627290785312,-0.0049279807543614875,0.00368362041618675
1746576174379062000,2.69306201171875,-0.09152677557468414,-0.007299440859747119,0.0014422255644109098
1746576174389077000,2.703076904296875,-0.08868366110324859,-0.008428819349012337,0.01685356531110592
1746576174399093000,2.713093017578125,-0.08404489538669585,-0.00304976579232607,0.011134000354213639
1746576174409109800,2.72310986328125,-0.09167524413466453,-0.00390297595502343,0.008962163607310503
1746576174419124700,2.733124755859375,-0.08494330553114414,-0.000127466871147044,-0.0008442962038796394
1746576174429140700,2.743140625,-0.08838613946139812,0.008301224613701924,0.011664042977150528
1746576174439156700,2.75315673828125,-0.09093114776909351,0.0032506221266696226,0.014468076680367812
1746576174449171700,2.763171630859375,-0.08973404693901538,-0.011583415488991885,0.0011601298205554484
1746576174459187700,2.773187744140625,-0.08718786958754061,-0.007980956850503571,0.003342606692481786
1746576174469204000,2.783203857421875,-0.08329729188978671,-0.0033251623673364516,0.012287965295463799
1746576174479219000,2.793218994140625,-0.09107903180718421,-0.004621047396771609,0.005144231020659208
1746576174489235000,2.80323486328125,-0.09212591051161288,0.005732698433101177,-0.0029076584744732823
1746576174499250000,2.81325,-0.08913257391452789,0.0035873113017063584,0.0030808413506019858
1746576174509266000,2.823265869140625,-0.09466916525363922,0.0009671371322590857,0.011762717578653246
1746576174519282000,2.833281982421875,-0.09092822515964508,-0.00916122984336689,0.00850362445116043
1746576174529297000,2.843296875,-0.09047931234836577,-0.00861538686309941,0.0012841763253323734
1746576174539313000,2.85331298828125,-0.0873369226694107,0.00008887016011867672,0.010227160308137535
1746576174549329000,2.863328857421875,-0.08614099088311195,-0.005585120355687104,0.01094525458277203
1746576174559343900,2.87334375,-0.07686287492811679,-0.004122281261510216,0.004264443378290161
1746576174569360000,2.88335986328125,-0.0876379514425993,-0.0008064940772950649,0.0029774814408272503
1746576174579374800,2.893374755859375,-0.0927267990142107,-0.005388223243830725,0.010773651742376386
1746576174589390800,2.903390869140625,-0.09153028270602226,0.004385937166376971,0.01889650584817864
1746576174599406800,2.91340673828125,-0.08524491882622241,-0.001658023739559576,0.0018507606995292007
1746576174609422000,2.923422119140625,-0.08898468987643718,-0.00021753804108593612,-0.00010743329669348895
1746576174619437800,2.933437744140625,-0.08748831383883952,0.002038953915121965,-0.0008090239610988646
1746576174629453800,2.943453857421875,-0.0868880098581314,0.004949069208162836,0.017261397193325683
1746576174639468800,2.95346875,-0.07581424265801906,0.0010047794286394492,0.009311990825133398
1746576174649484800,2.96348486328125,-0.09930676192641258,-0.014788750868942588,0.0008183123792521656
1746576174659500800,2.973500732421875,-0.10124854364395142,-0.007207643523602746,0.0003958309171721339
1746576174669515800,2.983515869140625,-0.08344108427464962,0.00036182361629325893,0.008189681397471577
1746576174679531800,2.99353173828125,-0.09017419192194938,0.0028261039711302144,0.01914056200343184
1746576174689546800,3.003546630859375,-0.09062252021133899,0.005085180610069073,0.012593624577997252
1746576174699562800,3.013562744140625,-0.09406243153214454,-0.002386534376931377,0.003415260936738923
1746576174709578800,3.023578857421875,-0.08179273254573345,-0.0011905386585509404,0.00413583029625006
1746576174719593700,3.03359375,-0.08912672869563103,0.004104106284002773,0.01305645631677471
1746576174729610000,3.04360986328125,-0.08613222305476664,-0.000377199281938374,0.01163428715970367
1746576174739626000,3.0536259765625,-0.09989712903499602,-0.002015687203966081,0.0024590561904478817
1746576174749641000,3.063640869140625,-0.0957066916078329,-0.00128126741561573,0.00475755152432248
1746576174759657000,3.073656982421875,-0.08882394635677338,-0.0034921575312735513,0.010996756441146135
1746576174769673000,3.0836728515625,-0.08792553621232509,0.0017881300923647358,0.008768504198733717
1746576174779688000,3.09368798828125,-0.08403320494890212,0.0027733280376996843,0.00785588286584243
1746576174789704000,3.103703857421875,-0.08418401159644126,0.00034811931792646644,0.010770117211574688
1746576174799719000,3.113718994140625,-0.0840343739926815,0.0030533505554776637,0.008539280286431312
1746576174809735000,3.12373486328125,-0.08717734819352627,0.001194954538764432,0.0029385559362359345
1746576174819751000,3.1337509765625,-0.09361234967708587,0.0010480660145170985,0.007685339471371844
1746576174829766000,3.143765869140625,-0.09286416165828704,-0.0037218152684159573,0.008128060003882274
1746576174839782000,3.153781982421875,-0.08702946415543555,0.0021865776583086696,0.006728194010164589
1746576174849798000,3.1637978515625,-0.0846352624952793,0.005873093284480274,0.0017964640958700328
1746576174859812900,3.173812744140625,-0.08747837696671486,-0.0001411483366275206,-0.0008182301808614284
1746576174869828900,3.183828857421875,-0.09047112904191017,-0.0032011889277957376,0.017891228662617505
1746576174879844900,3.193844970703125,-0.08478431557714938,-0.0018771372498013078,0.009952188424812628
1746576174889859800,3.20385986328125,-0.0952583633184433,0.00014374215251300484,-0.0009342395096551626
1746576174899875800,3.213875732421875,-0.0940600934445858,0.005339406532887369,0.008831340301875025
1746576174909890800,3.223890869140625,-0.0841828425526619,-0.0037991776538314295,0.005315797328436747
1746576174919906800,3.23390673828125,-0.09166413821876049,-0.0007346115845954046,0.012054247871134429
1746576174929922800,3.2439228515625,-0.08971884936988353,0.0031870782040525226,-0.0016979082253761589
1746576174939937800,3.253937744140625,-0.08612754687964916,-0.0030888876597397028,0.0015712405052501707
1746576174949953800,3.263953857421875,-0.08926993655860424,0.004044717946695164,0.006891458280477673
1746576174959969800,3.2739697265625,-0.08672317468523978,0.004226047596661374,0.0032838257099501787
1746576174969984800,3.28398486328125,-0.08911620730161667,-0.0020235097508179024,-0.004749925340292975
1746576174980001000,3.2940009765625,-0.10198504122495651,0.005341863351454958,0.014408117520902305
1746576174990015700,3.304015625,-0.08941489798724651,-0.0027597013711463656,0.011727244406472891
1746576175000032000,3.314031982421875,-0.07579904508888721,-0.005980517448019236,0.0049071525954641395
1746576175010048000,3.324048095703125,-0.08747136270403862,-0.0018392346585169434,-0.005561716647213325
1746576175020063000,3.33406298828125,-0.09570084638893604,-0.012123175788344815,-0.0031585736287757754
1746576175030079000,3.344078857421875,-0.09405424822568893,-0.000012174494983628391,0.008950190041726454
1746576175040095000,3.354094970703125,-0.08956628915667533,0.00048292924531269816,0.01755331107829697
1746576175050110000,3.36410986328125,-0.09839432325661182,0.004514235154585913,0.003970748528186231
1746576175060126000,3.3741259765625,-0.08881927018165588,-0.0018532357844058423,-0.010185284794634207
1746576175070141700,3.3841416015625,-0.08537760529518126,0.0006988141854293644,0.016298269515903664
1746576175080157000,3.394156982421875,-0.09166180013120175,0.0019092905203113332,0.015126403591781854
1746576175090172700,3.404172607421875,-0.07834288435280323,-0.006964066858962178,0.004952416509296745
1746576175100188000,3.41418798828125,-0.0793897630572319,-0.0009974135395139456,-0.0015913791109807788
1746576175110203600,3.42420361328125,-0.08926642942726612,0.0021362585434457288,0.020258396185375747
1746576175120220000,3.434219970703125,-0.08896598517596721,0.0013755855024093762,0.0067602879151701925
1746576175130235000,3.44423486328125,-0.08222995491921901,-0.0004532053939066827,0.0037937479934655126
1746576175140251000,3.4542509765625,-0.09315291547179222,-0.0000023746201768517492,0.0036999139638617634
1746576175150267000,3.464266845703125,-0.08866495640277862,-0.0020266926551703365,0.007767172535927966
1746576175160281900,3.47428173828125,-0.08926350681781768,-0.001823073541582562,0.00824709240682423
1746576175170297900,3.4842978515625,-0.08851531879901886,0.003348844637023285,0.013647234417311846
1746576175180313900,3.49431396484375,-0.08582301097512245,-0.000612642872473225,0.006516469221934676
1746576175190328800,3.504328857421875,-0.09135960231423378,-0.0001317685869289562,0.010019618504680692
1746576175200344800,3.5143447265625,-0.09524667288064956,-0.0049664176351856435,0.007641664726426824
1746576175210359800,3.52435986328125,-0.09375263493061065,0.0015560977350454776,0.0037802765905391423
1746576175220375800,3.534375732421875,-0.0861211171388626,-0.0003554897736292332,0.01123979881624691
1746576175230391800,3.544391845703125,-0.08222995491921901,-0.0006655923358397558,0.014694003523886202
1746576175240406800,3.55440673828125,-0.08327741814553737,-0.0028560698511311783,0.010353371370537205
1746576175250423000,3.564423095703125,-0.08342939383685588,0.0048436360723106186,0.0024689017310272903
1746576175260439000,3.57443896484375,-0.09195932177305222,-0.002163415978429839,0.00707887974451296
1746576175270454000,3.5844541015625,-0.09480068267881869,-0.005217191225592978,0.008656202930677682
1746576175280470000,3.594469970703125,-0.0906090762078762,0.003764928324357606,0.017116125237429513
1746576175290485800,3.60448583984375,-0.0897112505853176,-0.007886077074706553,0.0024110249307937918
1746576175300501000,3.6145009765625,-0.08507073130309581,-0.0028159935690695416,0.008202212085481733
1746576175310516700,3.624516845703125,-0.0775900201588869,-0.0008323226382955908,0.012048676646873355
1746576175320532000,3.634531982421875,-0.08133096025288104,-0.0030457106717163697,0.020317094969516617
1746576175330547700,3.644547607421875,-0.09405015657246112,-0.00436839694310911,0.0005722377968486398
1746576175340563700,3.654563720703125,-0.09360065923929214,-0.008535257131862454,-0.003701877592084929
1746576175350578700,3.66457861328125,-0.09255319601297378,0.004607343098404817,0.002719104499276727
1746576175360594700,3.6745947265625,-0.09330138403177261,-0.0030964179456466805,0.012856056640157475
1746576175370611000,3.68461083984375,-0.09734276837706565,-0.0037649694235529748,0.006500504467822611
1746576175380626000,3.6946259765625,-0.08462474110126494,-0.006946284607099369,0.013473311755666509
1746576175390642000,3.704641845703125,-0.08731880249083042,-0.006724111490091308,0.007618219918757677
1746576175400658000,3.714657958984375,-0.09539806405007839,-0.0005714295126730576,0.0016891312638763337
1746576175410672600,3.724672607421875,-0.0894108063340187,-0.000509817252238281,0.006718412401666865
1746576175420688600,3.734688720703125,-0.08566986624002457,-0.0009746856844751163,0.014048746156599371
1746576175430703600,3.74470361328125,-0.09225392080545425,0.0006227304416475817,0.010285630763415246
1746576175440719600,3.7547197265625,-0.08297872745990753,-0.009206553122703917,0.0057996353226248175
1746576175450735600,3.764735595703125,-0.08731880249083042,-0.00019161814854014663,-0.0024579876113682985
1746576175460750600,3.77475048828125,-0.08926526038348674,-0.002749193676863797,0.0034601595243904737
1746576175470766600,3.7847666015625,-0.08896656969785689,-0.004393357854429633,0.015914622226869686
1746576175480782600,3.794782470703125,-0.08537292912006378,-0.008247864158381708,0.014064847908029332
1746576175490797600,3.804797607421875,-0.1019809495717287,-0.004321954852342606,0.0036437085309065876
1746576175500813800,3.814813720703125,-0.08776479269266128,-0.0027625691816676404,0.005374916237685829
1746576175510829600,3.82482958984375,-0.08612053261697292,0.000017512823804281652,0.013509597778599709
1746576175520844800,3.8348447265625,-0.1010831239491701,0.0026963675110833717,0.007144930718047544
1746576175530860500,3.844860595703125,-0.08761047891378403,0.004963175365328788,-0.0019683774635195733
1746576175540875800,3.854875732421875,-0.09808452665507793,0.0017945598331512882,0.00962112983954139
1746576175550891500,3.8648916015625,-0.08686112185120583,-0.006488814030028879,0.015511859245412051
1746576175560907500,3.874907470703125,-0.08536416129171848,-0.006290588044188916,0.013121310847066341
1746576175570922500,3.884922607421875,-0.09105097475647926,0.0006995676706777885,0.004030223630461842
1746576175580938500,3.8949384765625,-0.10077566543519496,-0.0050185862138401715,0.010591618839511647
1746576175590954500,3.90495458984375,-0.09449088607728481,-0.002046333503979258,0.014510207922197878
1746576175600969500,3.914969482421875,-0.09299451003968714,-0.00238168010530062,0.013376856510713696
1746576175610985500,3.9249853515625,-0.0891015942543745,-0.0070674770010868086,0.012247962078638375
1746576175621001700,3.935001708984375,-0.09598317046165465,-0.0019509422715287654,0.00028610519869253035
1746576175631016400,3.945016357421875,-0.09927578226625919,-0.007035396795812994,0.0016032156792469322
1746576175641032700,3.95503271484375,-0.07368716750144957,0.003235456523578614,0.004340577354421839
1746576175651047700,3.965047607421875,-0.07593056251406669,0.0038283672156976534,0.010257929905736818
1746576175661063700,3.975063720703125,-0.08625497265160083,0.003614838629448786,-0.000014887041877955197
1746576175671079700,3.98507958984375,-0.09418518112897872,-0.00241312098975759,0.005517201652051881
1746576175681094700,3.9950947265625,-0.09223755419254302,0.008596832859679125,0.008809402464702725
1746576175691110700,4.005110595703125,-0.07996843972802162,0.0018002863210393116,-0.004752162963151931
1746576175701126700,4.015126708984375,-0.08625497265160083,0.004584565011016093,0.004127117266831919
1746576175711141600,4.0251416015625,-0.09882277780175208,-0.0020359354075510055,0.015868317133421076
1746576175721157600,4.03515771484375,-0.09463350941836833,-0.0022308506248751654,0.010869111473485826
1746576175731173600,4.045173583984375,-0.09134206665754317,-0.0121140380672412,0.004243391457106917
1746576175741188600,4.055188720703125,-0.09553191956281662,-0.006424699285253882,0.004413240731833502
1746576175751204600,4.06520458984375,-0.09762918410301208,-0.003225912377098575,0.017474747683061287
1746576175761219600,4.075219482421875,-0.08850187479555606,0.0009194027001271024,0.002778890128806233
1746576175771235600,4.085235595703125,-0.08057108179628848,-0.0039980475270655,0.004904768842132761
1746576175781251600,4.09525146484375,-0.0935895533233881,0.004365355602651834,0.004807427681190893
1746576175791266600,4.1052666015625,-0.10316577544212341,-0.0010171594195999205,0.009402217258699238
1746576175801282600,4.115282470703125,-0.08790273985862732,0.007714926325459964,0.018105611198814583
1746576175811298600,4.125298583984375,-0.09029694151878356,0.001978862324915826,0.008194394105207175
1746576175821313500,4.1353134765625,-0.0950882674485445,-0.0009360204747878015,0.008470251904521137
1746576175831329500,4.14532958984375,-0.08865560405254364,0.00045813729735091327,0.010357864882564172
1746576175841345500,4.155345458984375,-0.08595978909730911,-0.001628496250975877,0.0109426790331956
1746576175851360500,4.165360595703125,-0.09343991571962833,-0.0028145276977680623,0.0029880759000778198
1746576175861376500,4.17537646484375,-0.08850187479555606,-0.0007152995293494313,0.002989089680230245
1746576175871391500,4.1853916015625,-0.08086977248191833,-0.003048907275800593,0.020628608604101463
1746576175881407500,4.195407470703125,-0.09732873985171317,-0.0043568526357878,0.011784554951125755
1746576175891423700,4.205423828125,-0.08849895218610764,-0.0010427916177781298,0.006794391114171594
1746576175901438700,4.215438720703125,-0.0982248119086027,-0.006618477424839511,0.022920409335708245
1746576175911454700,4.225454833984375,-0.09164251090884208,0.0072961620572721585,0.014862281896034255
1746576175921470700,4.235470703125,-0.08012041541934013,-0.00027068843385204673,0.012905567470844835
1746576175931485700,4.245485595703125,-0.08131926981508732,-0.009870615655160508,0.008322513996902852
1746576175941501700,4.255501708984375,-0.08161737597882747,0.0025308701844885943,0.006282824862841516
1746576175951517700,4.265517578125,-0.08850362836122512,0.0020260716006625444,0.010185714052896946
1746576175961532700,4.27553271484375,-0.08940145398378371,0.002287161089107394,0.012716301109595223
1746576175971548700,4.285548583984375,-0.09209493085145949,-0.0015048470384208484,0.0014007336433976888
1746576175981564400,4.295564453125,-0.09509002101421356,-0.0036494943842990324,0.0002370601588860154
1746576175991579600,4.30557958984375,-0.10212415743470192,-0.005278922217036597,0.005669688800023868
1746576176001595400,4.315595458984375,-0.08835866693258285,-0.004039749510632827,0.015332621087832376
1746576176011610600,4.325610595703125,-0.09763444480001926,-0.011452500852011143,0.006279326864657923
1746576176021626600,4.335626708984375,-0.0949397988885641,-0.003996485757641494,0.003943294265680015
1746576176031642600,4.345642578125,-0.08745674965679645,-0.0012857015621382743,0.013280666127242147
1746576176041657600,4.35565771484375,-0.09478782319724559,0.001572724642860703,0.019022159788152204
1746576176051673600,4.365673583984375,-0.09194295516014099,-0.00785832598467823,0.013117557120556012
1746576176061689600,4.375689697265625,-0.09358838427960872,-0.009441530922357924,0.0022417693111114203
1746576176071704600,4.38570458984375,-0.09658288992047309,-0.0013626986213726923,0.006620066593727096
1746576176081720600,4.395720458984375,-0.08221943352520465,0.009872191124316304,0.009372835900587961
1746576176091736600,4.405736572265625,-0.09568623334169388,0.001786764685763046,0.006699022714607417
1746576176101751600,4.41575146484375,-0.0885007057517767,-0.00009929565601050853,0.00013507022229023276
1746576176111767600,4.425767578125,-0.09328910907208919,-0.0015565863588126376,0.009922907531401142
1746576176121782500,4.435782470703125,-0.098076927870512,-0.0022733517594635483,0.013956802689982577
1746576176131798500,4.445798583984375,-0.08535597798526287,-0.002094236899469979,0.006707416083617136
1746576176141814800,4.455814697265625,-0.09448445633649825,-0.005576151597942225,-0.010873696317058056
1746576176151829800,4.465829833984375,-0.09672843587100505,-0.0006675194314448163,0.011307301961351185
1746576176161845800,4.475845703125,-0.0878992327272892,-0.007555493413470685,0.02046554526318796
1746576176171861800,4.48586181640625,-0.08430968380272388,-0.007903959791269153,0.0058662982175126666
1746576176181876700,4.495876708984375,-0.08849953670799732,-0.009716827032668516,0.00372882039793767
1746576176191892700,4.505892822265625,-0.08789981724917888,-0.004226029330352321,0.01258423569514416
1746576176201908500,4.515908447265625,-0.09193886350691317,-0.00012197784527670592,0.006969437153823674
1746576176211923700,4.525923828125,-0.09208791658878326,-0.003628109102975577,0.009527158812619745
1746576176221939500,4.535939453125,-0.0872977597028017,0.0014854710510931908,0.0017094981984701006
1746576176231955500,4.54595556640625,-0.09822247382104396,-0.000704134247940965,0.009557992342300713
1746576176241970400,4.555970458984375,-0.09223755419254302,0.003111355219874531,0.01335005070217885
1746576176251986400,4.565986328125,-0.09463175585269927,0.0023674826165894047,0.005154871145682409
1746576176262001400,4.57600146484375,-0.09074176267683505,-0.00023346626257989553,0.009240450825728476
1746576176272017700,4.586017578125,-0.08415946167707443,0.003261732609150931,0.008689054887508972
1746576176282033700,4.59603369140625,-0.08475625852644443,0.0005635749997803941,0.011470876758918166
1746576176292048600,4.606048583984375,-0.08460895901024341,0.01175171212744899,0.0029560550603084266
1746576176302064600,4.616064697265625,-0.0766799195766449,-0.0016772672961466012,0.0016850852764211594
1746576176312080600,4.62608056640625,-0.09119593618512153,-0.0016921041056746616,0.009434703889349475
1746576176322095600,4.636095703125,-0.09583470190167427,0.00003701667529530823,0.006888736600428819
1746576176332111600,4.646111572265625,-0.09209434632956981,-0.0031430426995037123,0.0023115740111563352
1746576176342127600,4.656127685546875,-0.08550970724225043,-0.0028698472147341814,-0.003392592447204515
1746576176352142600,4.666142578125,-0.09403905065655707,-0.009062669406295753,0.008425883039832115
1746576176362158600,4.67615869140625,-0.09254267461895942,0.0033858658788958563,0.010055694465059786
1746576176372173600,4.686173583984375,-0.08461129709780216,0.004739961068704724,0.0015547916939482093
1746576176382189600,4.696189453125,-0.09119242905378341,0.003412201329972595,-0.0010848908935673534
1746576176392205800,4.706205810546875,-0.09657938278913497,0.002044675836432725,0.010875194154400377
1746576176402220800,4.716220703125,-0.09014204321801662,0.005419244003179483,0.0031106702332850543
1746576176412237000,4.726237060546875,-0.09208557850122451,0.004567271382920444,-0.006896910773729905
1746576176422252800,4.736252685546875,-0.09762158531844616,-0.004099736069561913,-0.0014795345006510614
1746576176432268000,4.74626806640625,-0.0860994898289442,-0.0025356102916877714,0.018418421741342172
1746576176442283800,4.75628369140625,-0.0849012199550867,0.0030684704927960407,0.007628960508480668
1746576176452299800,4.7662998046875,-0.09387830713689327,-0.0035078117581317197,-0.0037801213269121944
1746576176462314800,4.776314697265625,-0.08774141181707382,0.0034775810166494917,0.010380067581217735
1746576176472330800,4.786330810546875,-0.07741758620142936,-0.0013305864500580355,0.016742250423738732
1746576176482345700,4.796345703125,-0.08340192130804061,-0.005728008558251895,0.022025625053606925
1746576176492361700,4.80636181640625,-0.09492226323187351,0.003068315229169093,0.006687788934540003
1746576176502377700,4.816377685546875,-0.09013152182400226,-0.005579631329816766,-0.012497151066735386
1746576176512392700,4.826392822265625,-0.08234744381904602,0.00448046074914746,0.012635591423045843
1746576176522409000,4.836408935546875,-0.08698620953559875,-0.0037738833823706954,0.02665660018934868
1746576176532425000,4.846425048828125,-0.09012918373644352,-0.0036308947151061145,0.014262398040434344
1746576176542440000,4.85643994140625,-0.08668810337185859,-0.004840238538826816,0.0020624672214500607
1746576176552456000,4.8664560546875,-0.09387012383043765,-0.008614318284019828,0.004063705774955451
1746576176562472000,4.876471923828125,-0.0880336727619171,-0.006807652454543858,0.022460737668396905
1746576176572487000,4.88648681640625,-0.08429331718981266,0.0006366767686093225,0.01329168071160093
1746576176582503000,4.8965029296875,-0.08818389488756656,-0.0009282618600176647,0.00460879983655177
1746576176592519000,4.906518798828125,-0.09072773415148258,-0.00209594936594367,0.007882378147123382
1746576176602534000,4.916533935546875,-0.08997779256701469,-0.0019283148811897262,0.01571009436440654
1746576176612550000,4.9265498046875,-0.08728314665555953,0.00003693904348183423,-0.0008028864812571555
1746576176622564900,4.93656494140625,-0.07830547495186328,-0.00324943938315846,0.004098539626318961
1746576176632580900,4.946580810546875,-0.0955149684280157,-0.002051347605814226,0.014566431621462105
1746576176642596900,4.956596923828125,-0.09671382282376288,0.0011268166394205763,0.0135022821218241
1746576176652612000,4.966612060546875,-0.08938158023953437,-0.0017074478052789344,0.007388009625766426
1746576176662627800,4.9766279296875,-0.09372107074856757,-0.0008632018337491899,0.0005440620151348412
1746576176672643800,4.986643798828125,-0.09416939903795718,0.007643852116935886,0.006720165967335924
1746576176682658800,4.996658935546875,-0.0824964969009161,0.004447681857552379,0.019615878764446825
1746576176692674800,5.0066748046875,-0.09312076676785945,0.002900329117965884,0.01570651416783221
1746576176702690800,5.01669091796875,-0.07950491386950015,-0.00065547736720182,0.009369493166031315
1746576176712705800,5.026705810546875,-0.09043079703152179,-0.003164432547404431,0.014814780359342694
1746576176722721800,5.0367216796875,-0.13468027312457562,0.02045274058054201,0.016231834949878975
1746576176732737800,5.04673779296875,-0.6867746419370174,0.04735504089295864,0.018167004263540728
1746576176742752800,5.056752685546875,0.15436346323788167,-0.01210331574382726,-0.010207423561206087
1746576176752768800,5.066768798828125,0.5273831214040517,-0.07934265424618497,0.010144697055919095
1746576176762783700,5.07678369140625,0.2946270894527435,-0.039991243259841575,-0.011700411198474467
1746576176772800000,5.086800048828125,-0.5023498024344444,0.02384940641466528,0.015294380569830537
1746576176782816000,5.09681591796875,-0.32010464505851266,0.040750235800445074,0.011304826876474544
1746576176792831000,5.1068310546875,-0.033551556468009947,-0.006305493352375924,0.02245857311077416
1746576176802847000,5.116846923828125,-0.13485738325715063,-0.002982801503338851,0.025567708974098786
1746576176812863000,5.126863037109375,-0.058842065069079394,0.006549860034883022,0.0003524119005538523
1746576176822878000,5.1368779296875,-0.0989437738329172,-0.005319802216696552,0.005355901009961962
1746576176832894000,5.14689404296875,-0.082630936935544,0.008021188396192156,0.0022361524210777134
1746576176842909700,5.15690966796875,-0.09894085122346878,0.0016709608529461547,0.02215285902931355
1746576176852925000,5.166925048828125,-0.07918810300529003,0.006985004615713841,0.012948328900337218
1746576176862940700,5.176940673828125,-0.09325286871492862,0.004025684452662244,0.00927997911851853
1746576176872956700,5.186956787109375,-0.08696808935701847,-0.00702153266724199,0.001032082994095981
1746576176882971600,5.1969716796875,-0.08577098852694034,-0.004866099065868184,0.006307329116435721
1746576176892988000,5.20698779296875,-0.0913064108222723,0.007125289869238622,0.011768188338214532
1746576176903002600,5.217002685546875,-0.08681786723136901,0.003463547924719751,0.007340782083710655
1746576176913019000,5.227018798828125,-0.09280337138175963,0.00031227168641053137,0.0026736396560445427
1746576176923035000,5.237034912109375,-0.08786533045768738,-0.00077160999358166,0.009065413919230922
1746576176933049900,5.2470498046875,-0.0773936208039522,0.0012371360129443927,0.012039927084837108
1746576176943065900,5.25706591796875,-0.08816577470898627,0.004386549087730236,-0.0010258541827090084
1746576176953081900,5.267081787109375,-0.0890665229409933,0.006382312315097078,0.006317978374613449
1746576176963096800,5.277096923828125,-0.09669979429841041,-0.005854685411532409,0.0179171850877814
1746576176973112800,5.28711279296875,-0.08622399299144744,-0.0001145571572240442,0.007537765960535034
1746576176983128800,5.29712890625,-0.08203238652050494,-0.004415208926633931,0.011816740187676623
1746576176993143800,5.307143798828125,-0.09161094672679901,-0.002972558670537546,0.0121622291570995
1746576177003159800,5.317159912109375,-0.09699731594026088,0.000456785590481013,0.013545892934687435
1746576177013174800,5.3271748046875,-0.09580079963207244,-0.003823458145139739,0.005904301273496821
1746576177023191000,5.33719091796875,-0.0711111795336008,0.0006356858213432133,0.004811300138710066
1746576177033207000,5.34720703125,-0.09400514838695526,-0.0003915520342765376,0.009168636831687763
1746576177043222000,5.357221923828125,-0.09115969582796096,0.0024925703009823336,0.015031208722153678
1746576177053238000,5.367238037109375,-0.09115969582796096,-0.0025437113997526465,0.011782079866249113
1746576177063253800,5.377253662109375,-0.08577040400505065,0.002137185558630153,0.0061055959992576386
1746576177073269000,5.38726904296875,-0.08816343662142753,-0.0026263710147934032,0.015752152541000396
1746576177083284700,5.39728466796875,-0.08756547072827815,-0.0023575914102373645,0.015469718870427458
1746576177093300700,5.40730078125,-0.07888824327588081,0.006984899584436789,0.006247086829179897
1746576177103315700,5.417315673828125,-0.0845744722187519,-0.0003990731870289892,0.001273454001918435
1746576177113331700,5.427331787109375,-0.08831716587841511,-0.0010766847542254254,0.006716640569688752
1746576177123347700,5.43734765625,-0.0862216549038887,0.0012667091673007234,0.0146533153204713
1746576177133362700,5.44736279296875,-0.09220599001049995,0.0007616639883024618,0.009763314789207651
1746576177143379000,5.45737890625,-0.0793371560871601,0.004069637758820317,0.0064754704912658775
1746576177153395000,5.46739501953125,-0.09056172993481158,-0.0009108540674904361,0.00023081308118999002
1746576177163410000,5.477409912109375,-0.08472586338818072,-0.004221946810279042,0.010714788561454042
1746576177173426000,5.487426025390625,-0.08397825989127158,0.011911715861596166,0.002167041840776801
1746576177183441000,5.49744091796875,-0.08487608551383018,-0.005844159450940787,0.004841019423538819
1746576177193457000,5.507456787109375,-0.08442717270255089,-0.003977283300249837,0.0004701291292440146
1746576177203473000,5.517472900390625,-0.09445523024201392,0.005013174819783308,0.019819749039784073
1746576177213487900,5.52748779296875,-0.09265782543122768,0.001859642692306079,0.013850675434386357
1746576177223504000,5.53750390625,-0.08293079666495323,-0.0012007358255796134,0.005627429694030434
1746576177233519900,5.547519775390625,-0.08622282394766807,0.003052167811966501,0.007679174592066556
1746576177243534800,5.557534912109375,-0.09190671480298042,0.0023891144930850714,0.016934594658063722
1746576177253550800,5.56755078125,-0.0741045161306858,-0.0003202723297756165,0.00879731930126436
1746576177263566800,5.57756689453125,-0.07425123112499714,0.01093586569991894,-0.003760101452190429
1746576177273581800,5.587581787109375,-0.1445791513264179,-0.01866261946049053,0.01652762129236944
1746576177283597800,5.597597900390625,-0.035792028871178626,0.025081327396375124,-0.00046947154211811717
1746576177293613000,5.607613037109375,-0.1037286700218916,-0.0011568875506985932,0.0073996543977875254
1746576177303628800,5.61762890625,-0.10148293692171573,0.00962219385204371,0.00854088772162795
1746576177313644800,5.627644775390625,-0.07993512198030948,0.0006204928187886253,0.006422087203059345
1746576177323659800,5.63765966796875,-0.0926525647342205,-0.008814539864123798,0.013090221589058636
1746576177333675800,5.64767578125,-0.09414718720614909,0.0047946047322358935,0.010988335672672838
1746576177343691800,5.65769189453125,-0.09474456857740879,-0.007944437932129948,0.003447592303762212
1746576177353706800,5.667706787109375,-0.09743629187941551,-0.004042740618740208,0.011646845247177406
1746576177363722800,5.67772265625,-0.0944388636291027,-0.0009334540583658963,0.014881169259594753
1746576177373738800,5.68773876953125,-0.10371230340898037,-0.005203970984416082,0.017071875103749332
1746576177383753700,5.697753662109375,-0.06914426337480545,0.0012705861913971603,0.007924171462235972
1746576177393769700,5.707769775390625,-0.09158873489499092,-0.0038740695209475234,0.012862340250471607
1746576177403786000,5.717785888671875,-0.0954798971146345,0.007224101468059234,0.013719806463178247
1746576177413799700,5.727799560546875,-0.08530512458086013,-0.002725073015759699,0.0074954337893053885
1746576177423815700,5.737815673828125,-0.08814590096473693,-0.003560094501217827,0.007479688230901956
1746576177433830700,5.74783056640625,-0.09622399348020554,0.005264386801607906,0.009737632358679547
1746576177443846700,5.7578466796875,-0.08559913909137248,0.000003717193892225623,0.015193559677014126
1746576177453862700,5.767862548828125,-0.09248013077676295,0.0017267507273703814,0.0075252170062158254
1746576177463877600,5.777877685546875,-0.0888882437646389,0.0050931081881979475,0.0033607268710620698
1746576177473894000,5.787893798828125,-0.09427578202188014,0.004557932732417248,0.010541651351097971
1746576177483910000,5.797909912109375,-0.08529869484007357,0.004728174732788465,0.018137540707038713
1746576177493924900,5.8079248046875,-0.08410042496621609,0.0004203899696934968,0.0017710465268231928
1746576177503940900,5.81794091796875,-0.09772036951780319,-0.002987212816975079,0.0010122366493102162
1746576177513956900,5.827956787109375,-0.09038929597735404,0.006551572501356713,0.01503368380703032
1746576177523971800,5.837971923828125,-0.08949205487668514,-0.004396257630991749,0.015727894882578402
1746576177533987800,5.84798779296875,-0.08500351128578186,-0.006919981122063473,0.011691031448775901
1746576177544003800,5.85800390625,-0.09069207831621169,0.001811711897351779,0.0020028825213201343
1746576177554018800,5.868018798828125,-0.08874503590166569,0.004146392789459787,0.008213929922739043
1746576177564034800,5.878034912109375,-0.08620002759397029,0.0060051221663132304,0.021006063614366573
1746576177574050600,5.888050537109375,-0.08620002759397029,0.007250112692150287,0.01710962243140675
1746576177584065800,5.898065673828125,-0.085751114782691,0.004746071149082854,0.0037537630429491397
1746576177594081800,5.908081787109375,-0.09113806851804256,-0.0024027411596383897,0.0010598660501651466
1746576177604096800,5.9180966796875,-0.08305880695879458,0.0008798378747189417,0.010875559480581432
1746576177614112800,5.92811279296875,-0.08635024971961974,0.0007844055430730804,0.014931301144789903
1746576177624128800,5.938128662109375,-0.0902390738517046,-0.002608894723607227,0.0026339834990911186
1746576177634143700,5.948143798828125,-0.08290975387692451,-0.0037639054110506546,0.006201950779510661
1746576177644159700,5.95815966796875,-0.08246084106564522,-0.003156034611817449,0.018309079615352674
1746576177654175700,5.96817578125,-0.09532967498898505,0.005094144801236689,0.011555952093331143
1746576177664190700,5.978190673828125,-0.09188859462440013,-0.0021759831990581006,0.010365828993311151
1746576177674206700,5.988206787109375,-0.09772387664914131,-0.006334121225238777,0.023258473050501195
1746576177684222700,5.99822265625,-0.09652677581906319,-0.002275224056141451,0.014851221645902841
1746576177694237700,6.00823779296875,-0.08605506616532801,0.00340632871161215,0.009478588696848601
1746576177704253700,6.018253662109375,-0.08770049528479576,0.008145385598018764,0.015504790183808653
1746576177714270000,6.02827001953125,-0.0894938084423542,-0.00043018984450027346,0.009257712487783282
1746576177724285000,6.038284912109375,-0.0933843861401081,0.004429945271462202,0.00793877537632361
1746576177734301000,6.048301025390625,-0.08590192143023014,-0.005099136070185341,0.00932037506098859
1746576177744316000,6.05831591796875,-0.09053893358111381,-0.0020764729139162224,0.003428257415629923
1746576177754332000,6.068331787109375,-0.092334584826231,-0.0026197494777617973,0.01258396170050837
1746576177764348000,6.078347900390625,-0.09218553174436092,-0.0028590700923930854,0.024266471916111185
1746576177774363000,6.08836279296875,-0.08769523458778858,0.0014381065117195248,0.018048483317252246
1746576177784379000,6.09837890625,-0.08709668417274952,0.003836491156648844,0.00922143559800461
1746576177794394600,6.10839453125,-0.08769523458778858,-0.006362840429646894,0.006681203930126503
1746576177804409900,6.118409912109375,-0.09143383659422397,-0.00594675217573531,0.021053400754276662
1746576177814425600,6.128425537109375,-0.08918751897215843,-0.006509422993217595,0.0141336662273854
1746576177824441600,6.138441650390625,-0.09143149850666522,0.000527960263704881,0.0012611699090804905
1746576177834456600,6.14845654296875,-0.09128127638101577,0.0006615783144254238,0.011483928036736323
1746576177844472800,6.158472900390625,-0.09127952281534671,-0.007008088663779199,0.023086934142187238
1746576177854488800,6.16848876953125,-0.0834983674198389,0.0011231725107645615,0.013104725038446485
1746576177864503800,6.17850390625,-0.09292670550048351,-0.0007443064281251281,0.0088836641441565
1746576177874519800,6.188519775390625,-0.08484627489745616,0.00235742701345589,-0.0032142219393048433
1746576177884534800,6.19853466796875,-0.08664367970824241,0.004651935725379735,0.0189401257941965
1746576177894550800,6.20855078125,-0.09457564175128937,0.004993807965610176,0.01915809766012244
1746576177904566800,6.21856689453125,-0.09173018919229507,0.0008839477942558005,0.014191104636201634
1746576177914581800,6.228581787109375,-0.09083353261351584,-0.001827142361924052,0.00816398070063442
1746576177924597800,6.23859765625,-0.08694412395954132,0.0006844294670503586,0.008680451455945148
1746576177934613800,6.24861376953125,-0.0832020148217678,0.004127295363345183,0.0032233916264493017
1746576177944628700,6.258628662109375,-0.09128361446857453,0.004213863968523219,0.014987232583109288
1746576177954644700,6.268644775390625,-0.08963584726154804,-0.000959844308369793,0.027484210119908675
1746576177964661000,6.278660888671875,-0.088138302180171,-0.0008788651937618852,0.019661672401241958
1746576177974675700,6.28867578125,-0.08320084577798843,0.00279179527615197,-0.0055418794355820864
1746576177984692000,6.29869189453125,-0.07945873664021491,0.0006393893155036493,-0.003009127821261063
1746576177994707700,6.308707763671875,-0.08993219985961913,0.0034307462002383543,0.016677222363511098
1746576178004723000,6.318722900390625,-0.08918459636270999,0.0034913857797160743,0.029833284863550216
1746576178014738700,6.32873876953125,-0.09068038787841796,-0.0061565772678237405,0.015057676603971048
1746576178024754700,6.338754638671875,-0.08723813847005367,-0.0121001237063203,0.005259025639900937
1746576178034769700,6.348769775390625,-0.08948328704833984,-0.003520347012719139,0.010578193102357908
1746576178044785700,6.35878564453125,-0.08215104446411133,-0.002411572920065373,0.017970038653025402
1746576178054800600,6.368800537109375,-0.09576631284058093,-0.0009365045319776981,0.01685168388127349
1746576178064816600,6.378816650390625,-0.09247487007975577,0.002800257143820636,0.003444587495923042
1746576178074832600,6.38883251953125,-0.09681552963256836,0.002043872118834406,0.01196888027577661
1746576178084847600,6.39884765625,-0.0849929898917675,0.005934034258057363,0.021631164109613746
1746576178094864000,6.40886376953125,-0.09830898306071757,0.009557101859734393,0.007846630980307237
1746576178104879900,6.4188798828125,-0.0935194106966257,0.00425544265450444,-0.0019519103859085589
1746576178114894800,6.428894775390625,-0.0902262143701315,0.0020834780434379353,0.003661554714851081
1746576178124910800,6.438910888671875,-0.0968090998917818,0.006056509860255755,0.01340892301625572
1746576178134926800,6.4489267578125,-0.08558920221924782,0.002214607309550047,0.02142825281550176
1746576178144941800,6.45894189453125,-0.08349544481039047,-0.011681131109269336,0.01105055985446088
1746576178154957800,6.468957763671875,-0.08588906194865703,-0.004117641619010828,0.0021999211970716716
1746576178164973800,6.478973876953125,-0.09232114082276821,0.0005645248478511348,0.019702314938884226
1746576178174988800,6.48898876953125,-0.08453940090537071,-0.001250653081643395,0.021444254102231934
1746576178185004800,6.4990048828125,-0.09292027575969695,0.0033737872820347545,0.01680383528470993
1746576178195019800,6.509019775390625,-0.08319324699342251,-0.0047149499250343065,0.012505599234672262
1746576178205035800,6.519035888671875,-0.08992752368450165,0.0034345547256758435,0.014033913913648575
1746576178215051800,6.5290517578125,-0.08723404681682587,0.0021146221003727986,0.016863200789131224
1746576178225066800,6.539066650390625,-0.08588672386109829,0.00489317886903882,0.007940720738237723
1746576178235082800,6.549082763671875,-0.0942646761059761,-0.0014511943221557884,0.016573414929164573
1746576178245098800,6.5590986328125,-0.08588438577353953,0.0019059980181045828,0.01865850497437641
1746576178255113700,6.56911376953125,-0.08438800973594188,-0.004457723760954104,0.015666711880406362
1746576178265129700,6.579129638671875,-0.07286474520266055,0.008186539592314511,0.007382520599896088
1746576178275145700,6.589145751953125,-0.07361117965579032,0.006076333372155204,-0.002673804052826017
1746576178285160700,6.59916064453125,-0.09800210906863212,0.0018297361778095364,0.019509075655415653
1746576178295176700,6.6091767578125,-0.09246434868574142,0.0026689589143497868,0.02212225382849574
1746576178305192700,6.619192626953125,-0.09365969595015049,-0.005578138059051707,0.015535331452544777
1746576178315207700,6.629207763671875,-0.0927612858057022,-0.004998374542873352,0.011490138581814243
1746576178325223700,6.6392236328125,-0.0993453403711319,-0.005095030717225745,0.020445324459066612
1746576178335240000,6.649239990234375,-0.09231178847253323,-0.0022930245743133125,0.003527918397821486
1746576178345254700,6.659254638671875,-0.08812427365481854,-0.0006565231133950874,0.0011495353613048792
1746576178355271000,6.66927099609375,-0.06268821910321712,0.0006918547216802835,0.015367929863231256
1746576178365286000,6.679285888671875,-0.13257073362469673,-0.00033877610084600743,0.015121334691019728
1746576178375302000,6.689302001953125,-0.06717968530356884,0.0045945658152224495,0.007694426960125565
1746576178385318000,6.69931787109375,-0.11895312716066836,-0.003980557536147534,-0.002805805535195395
1746576178395332900,6.709332763671875,-0.08184533951580523,0.006200681271031499,0.01651804974642582
1746576178405348900,6.719348876953125,-0.10055237807333468,0.00644318479001522,0.031197933413414283
1746576178415364900,6.72936474609375,-0.08648819688558577,-0.006691597459977492,0.02119093692828901
1746576178425380000,6.739380126953125,-0.08873159189820289,-0.006139932093699462,0.005274862529849633
1746576178435395800,6.749395751953125,-0.09217208774089812,-0.00013282346627674997,0.010928129918035118
1746576178445411800,6.759411865234375,-0.07556056015789508,0.003050797838787548,0.01594960220870562
1746576178455426800,6.7694267578125,-0.09905015681684017,0.0014817858232418074,0.013326879889145493
1746576178465442800,6.77944287109375,-0.08184300142824649,-0.0007067326304037124,0.010729538606014102
1746576178475459000,6.789458984375,-0.07929974668622017,0.0016961637928616254,0.016488668388314545
1746576178485473800,6.799473876953125,-0.07750584900677204,0.005610396360838785,0.022368319277744738
1746576178495490000,6.809489990234375,-0.09321779740154743,-0.00573784953225404,0.012025478434376418
1746576178505506000,6.819506103515625,-0.09187222801148891,-0.006422347497963346,0.008668139963643625
1746576178515521000,6.82952099609375,-0.09576514379680157,0.001607092703343369,0.010088573821354656
1746576178525537000,6.839537109375,-0.10489420666992663,0.005896058601536787,0.01582072426518425
1746576178535552000,6.849552001953125,-0.0954676221549511,0.000005763020506128669,0.007112206625379622
1746576178545568000,6.859568115234375,-0.09426876775920391,0.0014375082900980488,0.012464490906149149
1746576178555584000,6.869583984375,-0.09067804979085922,0.0009734253091504797,0.01182603773898445
1746576178565599000,6.879598876953125,-0.08574117791056632,0.008137494552507996,0.003099317722208798
1746576178575615000,6.889614990234375,-0.09172785110473632,-0.0019932333435630427,0.010052141667949035
1746576178585631000,6.899630859375,-0.09397358420491218,0.005086710413452237,0.0028227384036872533
1746576178595646000,6.90964599609375,-0.09337328022420406,0.0027801413709763437,0.007731452768575399
1746576178605662000,6.919661865234375,-0.08768705128133296,-0.00552420221499633,0.010982134260749444
1746576178615678000,6.929677978515625,-0.08828501717448234,-0.0024494937776587903,0.017338070025574415
1746576178625693200,6.939693115234375,-0.08289747891724109,-0.002159310625470243,0.0022686847175005824
1746576178635709000,6.949708984375,-0.08035363965332508,-0.008660646210354752,0.004034077821671963
1746576178645725000,6.959724853515625,-0.09860942731201648,-0.002615730889770202,0.015861531199608
1746576178655740000,6.969739990234375,-0.0900818374633789,0.000727117831306532,0.011155956457694991
1746576178665756000,6.979755859375,-0.0945697965323925,0.0030375319318380204,0.009763296522898599
1746576178675772000,6.98977197265625,-0.08798515744507313,0.00360686538554728,0.010893807523325085
1746576178685787000,6.999786865234375,-0.09457038105428218,-0.0011749985961243509,0.02014275218276307
1746576178695803000,7.009802978515625,-0.08933306492269039,-0.0017766497171251103,0.01608638033089228
1746576178705817900,7.01981787109375,-0.08993161533772945,0.0007211036490509286,0.006763932043826207
1746576178715833900,7.029833740234375,-0.08604162216186523,-0.0009860062295105308,0.008652430937858297
1746576178725849900,7.039849853515625,-0.09097732499837875,-0.0004272261358564719,0.01194559073173441
1746576178735864800,7.04986474609375,-0.07900339408814906,0.0018272291268920525,0.01770049186348915
1746576178745881000,7.059881103515625,-0.0876812060624361,0.0006013908260967582,0.002958347482094541
1746576178755897000,7.06989697265625,-0.09426642967164515,0.0028440095205791295,0.021759786324808374
1746576178765912000,7.079912109375,-0.09606149639487266,-0.00037139516223687677,0.019873534186789766
1746576178775928000,7.089927978515625,-0.08887889141440392,0.000011526041012257337,0.011913478560419752
1746576178785944000,7.099944091796875,-0.10309504829347133,-0.002099725925340317,0.0097737631179858
1746576178795959000,7.109958984375,-0.08678454948365688,0.004067372736497782,0.009331499243201688
1746576178805975000,7.11997509765625,-0.08244447445273399,0.0023845205163583157,0.011921095611294731
1746576178815991000,7.129990966796875,-0.0873801772892475,0.0004726727127796039,0.01714734235960059
1746576178826006000,7.140006103515625,-0.09561141453981399,0.0012466070941882206,0.011203430594922974
1746576178836022000,7.15002197265625,-0.07870528792440891,0.0022495416256133466,0.0077519293010234825
1746576178846037800,7.160037841796875,-0.08963117108643054,0.014199899864010513,0.017456353509845212
1746576178856053000,7.170052978515625,-0.09112637808024883,0.004326512296451255,0.014544694713689386
1746576178866069000,7.180069091796875,-0.08813362600505352,0.006225966409337706,0.009490242602024227
1746576178876085000,7.1900849609375,-0.08379238193035125,0.006477886210638098,0.010231361559219658
1746576178886100000,7.200099853515625,-0.0926221695959568,-0.0034183251100825146,0.011497298974962905
1746576178896116000,7.210115966796875,-0.09172317492961883,0.004103256900631822,0.022913294608332215
1746576178906131000,7.220130859375,-0.08124912718832493,-0.0013657034292118622,0.006148193031968548
1746576178916147000,7.23014697265625,-0.08738543798625469,0.0009639450947521254,0.010471956248907371
1746576178926163000,7.240162841796875,-0.09352174878418446,0.00287348221023567,0.014213042473373934
1746576178936178000,7.250177978515625,-0.09352057974040508,-0.002361313170706853,0.014869350957637651
1746576178946194000,7.26019384765625,-0.09681494511067866,0.0025461179859703406,0.006652726754313334
1746576178956210000,7.2702099609375,0.039192192703485486,-0.006433234218158759,-0.008865982356993481
1746576178966225000,7.280224853515625,-0.2524474053710699,-0.004850152578065171,0.047054624041123316
1746576178976241000,7.290240966796875,0.006722586253285407,0.008051725098351016,0.00037309849555604155
1746576178986257200,7.300257080078125,-0.12406184847652911,-0.006652247263700701,0.02443526174491271
1746576178996272000,7.310272216796875,-0.08006663940548896,0.01698082668627612,0.015274168898863717
1746576179006288100,7.3202880859375,-0.09862111774981021,0.0012155132696032524,0.009350404873071238
1746576179016304000,7.33030419921875,-0.0935322701781988,-0.019675595895317383,0.01855202152575366
1746576179026319000,7.340319091796875,-0.08096388050615787,0.0025498534461716187,0.006556262376205995
1746576179036335000,7.350335205078125,-0.10744856732785701,-0.004320425048959441,0.01888791154976934
1746576179046350800,7.360350830078125,-0.07422960381507873,0.005336767051229253,0.013597148197889328
1746576179056366000,7.370365966796875,-0.08993979864418507,-0.004774123633210547,0.016231003832817077
1746576179066381800,7.3803818359375,-0.0875461815059185,-0.003752730996487662,0.008856465609977021
1746576179076397800,7.390397705078125,-0.102508188316226,-0.001502814911538735,0.0069909548658877605
1746576179086412800,7.400412841796875,-0.09472761744260788,-0.0026232246430590747,0.009104065429186448
1746576179096428800,7.4104287109375,-0.08410159400999545,-0.003504345725988969,0.016396807120088487
1746576179106443800,7.42044384765625,-0.08380407236814498,-0.004343719159578904,0.0035685426691547035
1746576179116460000,7.4304599609375,-0.09278057502806186,0.0014712050637230277,0.007265798885049298
1746576179126476000,7.44047607421875,-0.09697101245522499,0.003835705705359578,0.014825703612156212
1746576179136491000,7.450490966796875,-0.0817073923498392,-0.00641776722096838,0.012073984618065877
1746576179146507000,7.460507080078125,-0.07736731731891631,-0.003395273028058,0.0051953127539251
1746576179156523000,7.47052294921875,-0.0906833104878664,0.0002554954312974587,0.019200101037789134
1746576179166538000,7.4805380859375,-0.08634557354450226,-0.0028114224252291024,0.02774998491662554
1746576179176554000,7.490553955078125,-0.09128419899046421,0.009172258127457462,0.008844957835273816
1746576179186570000,7.500570068359375,-0.08275544009804725,0.005218346569640562,0.006721919533004984
1746576179196585000,7.5105849609375,-0.09846738849282265,0.008292296955152415,0.00713640035171993
1746576179206601000,7.52060107421875,-0.09756956287026405,0.00688374989805743,0.010256203739531337
1746576179216617000,7.530616943359375,-0.08365209667682648,0.0045706004177452995,0.02003067924357019
1746576179226632000,7.5406318359375,-0.08080839768350125,0.001845180342113599,0.009711447604652493
1746576179236648200,7.550648193359375,-0.09457681079506873,0.007643760785390623,0.00678596121254377
1746576179246664000,7.560663818359375,-0.09532441429197788,-0.004292413664027117,0.01681710575823672
1746576179256679200,7.57067919921875,-0.08365385024249553,-0.0030286271061748266,0.016343350766645743
1746576179266695000,7.58069482421875,-0.09996610261797904,-0.0008699010025942697,0.009803774663759394
1746576179276711000,7.5907109375,-0.0820084211230278,0.0021409666846040633,0.011508066964149475
1746576179286726000,7.600725830078125,-0.09233283126056194,0.0004989533649291843,0.02336844536415301
1746576179296742000,7.610741943359375,-0.09038812693357468,0.002421683322126046,0.017211977694183585
1746576179306758000,7.6207578125,-0.0811105955004692,0.0008274455337785184,0.006889467252790928
1746576179316772900,7.63077294921875,-0.08649754923582076,0.00620259466690477,0.015447032114583998
1746576179326788900,7.640788818359375,-0.09113865303993225,-0.0011517775507410987,0.016554938557557762
1746576179336803800,7.650803955078125,-0.08455576751828194,-0.006039371495787054,0.0189956462405622
1746576179346819800,7.66081982421875,-0.08799509431719779,-0.005734283035411499,0.016623546814359725
1746576179356836000,7.670836181640625,-0.08859364473223685,-0.008524119249917566,0.012937971903104334
1746576179366851000,7.68085107421875,-0.09382979182004927,-0.0017722018708707765,0.020306610108120366
1746576179376867000,7.6908671875,-0.08948971678912639,0.0011546955936122686,0.015370806806907058
1746576179386883000,7.700883056640625,-0.0903869578897953,-0.00029716088224668053,0.011899029909959061
1746576179396898000,7.71089794921875,-0.086944708481431,-0.0017058860358549282,0.002397270400077104
1746576179406914000,7.7209140625,-0.09038812693357468,-0.003427010740037076,0.016536078593460842
1746576179416930600,7.7309306640625,-0.09218319365680218,-0.00011400460137519984,0.016242328944429753
1746576179426945500,7.740945556640625,-0.0927829131156206,-0.0019620938532054423,0.0025818149204365906
1746576179436961500,7.75096142578125,-0.09427870463132858,0.0015267483429750428,0.011427393810218199
1746576179446977500,7.7609775390625,-0.09338321709632873,-0.0002442616512300447,0.012442306473804636
1746576179456992500,7.770992431640625,-0.08590192143023014,-0.0020846973195672034,0.021973794401669872
1746576179467008500,7.781008544921875,-0.08440320730507374,0.005223543334566056,-0.0018824710120446978
1746576179477024500,7.7910244140625,-0.09442951127886771,-0.0014488745009060948,0.007943451551441104
1746576179487039500,7.80103955078125,-0.09622750061154366,0.004684522820729762,0.015281511955102904
1746576179497055500,7.811055419921875,-0.08635024971961974,0.001775037715351209,0.016571807493967933
1746576179507071500,7.821071533203125,-0.08335632860064505,0.005975439414102584,0.00516628758884035
1746576179517086500,7.83108642578125,-0.09503039978146552,0.005091327223065309,0.0038143706563860177
1746576179527102500,7.8411025390625,-0.0954798971146345,0.0007384520760737359,0.01656622713655233
1746576179537117400,7.851117431640625,-0.08246201010942458,0.014264585430943406,0.019521697674971073
1746576179547133400,7.861133544921875,-0.09682838911414146,0.0007924472856335341,0.006588292349129915
1746576179557149400,7.8711494140625,-0.09607961657345294,-0.006750835100235417,0.013171935922605916
1746576179567164400,7.881164306640625,-0.08919453323483467,0.0013023878354579208,0.008675857479218393
1746576179577180700,7.8911806640625,-0.08081424290239811,0.00172164529399015,0.014791737410472705
1746576179587196700,7.90119677734375,-0.09158815037310122,-0.0034432768882485107,0.016714129440952092
1746576179597211600,7.911211669921875,-0.09338380161821842,0.0002902699171565473,0.012094479416823014
1746576179607227600,7.9212275390625,-0.08934300179481505,0.0007486309767933562,0.01183302460219711
1746576179617243600,7.93124365234375,-0.0909884309142828,0.0028029970901785415,0.012208936109347267
1746576179627258600,7.941258544921875,-0.0842524006575346,0.0005407603797735646,0.011607390019623562
1746576179637274600,7.951274658203125,-0.09218319365680218,-0.005271154469111934,0.012351504651503637
1746576179647290400,7.961290283203125,-0.08754442794024944,-0.0008246553550707176,0.01528144802302122
1746576179657305600,7.9713056640625,-0.09143792824745178,-0.0030000266327755523,0.01520331388604827
1746576179667321300,7.9813212890625,-0.09742577048540114,0.00003674724723678082,0.006589927183790132
1746576179677337300,7.99133740234375,-0.08979308364987373,0.0016224044369067996,0.009908742008730768
1746576179687352300,8.001352294921874,-0.09877075535356998,-0.0014247903724201023,0.014701063452335074
1746576179697368600,8.01136865234375,-0.08185819899737834,0.0007873327190987766,0.016260257326764983
1746576179707384600,8.021384521484375,-0.0838034878462553,0.004119043558230623,0.01161678803563118
1746576179717399600,8.031399658203124,-0.09173486536741256,0.004902645383705385,0.007502119258418679
1746576179727415600,8.04141552734375,-0.08724515273272991,0.006266197955026291,0.022091009306861087
1746576179737431600,8.051431640625,-0.0894891322672367,-0.007090433184988796,0.01646023687827401
1746576179747446500,8.061446533203124,-0.09143383659422397,-0.0019724417172838,0.008557108204066752
1746576179757462500,8.071462646484376,-0.0894891322672367,0.0025566576462937515,0.005113059564260765
1746576179767478500,8.081478515625,-0.0933802944868803,0.004474542465014383,0.02653617041376419
1746576179777493500,8.091493408203124,-0.08829203143715858,0.00071029456066899,0.017614384482614695
1746576179787509500,8.101509521484376,-0.09113397686481475,0.002532336055790074,0.013773445479711518
1746576179797524500,8.1115244140625,-0.08245499584674834,-0.004317639436828904,0.011985575682250782
1746576179807540500,8.12154052734375,-0.08993804507851601,0.001492124554165639,0.014471976537350564
1746576179817556700,8.131556640625,-0.09712298814654349,0.00568993243703153,0.0153447590501979
1746576179827571700,8.14157177734375,-0.09353110113441944,-0.0011550654863705858,0.01402078043743968
1746576179837587700,8.151587646484375,-0.09368190778195858,0.0020904420737642795,0.012465924811409786
1746576179847603500,8.161603515625,-0.09712532623410225,0.006549458176083862,0.01012457671649754
1746576179857618700,8.17161865234375,-0.08634908067584038,0.0027686107633868233,0.01042047265684232
1746576179867634400,8.181634521484375,-0.08634557354450226,0.001731431469065137,0.014939283521845936
1746576179877650400,8.191650390625,-0.0842518161356449,0.0028173589756712316,0.004382626397861167
1746576179887665400,8.20166552734375,-0.08649754923582076,0.002794927948154509,0.01522825653105974
1746576179897681400,8.211681396484375,-0.09128945968747139,0.0013732611145824193,0.011041024841135368
1746576179907697400,8.221697509765624,-0.08365852641761302,-0.0003907620164100081,0.004612069505872204
1746576179917712400,8.23171240234375,-0.08994447481930255,-0.0019280637194402516,0.004128003182820975
1746576179927728400,8.241728271484375,-0.09009469694495201,0.0018592362669296561,0.017458454135386273
1746576179937744600,8.25174462890625,-0.08650222541093826,0.002775899020698853,0.011790692430967465
1746576179947759600,8.261759521484375,-0.07572597985267639,0.007733283966057934,0.009491119384858757
1746576179957775600,8.271775634765625,-0.09951777432858944,0.003053204425005242,0.00950100145805627
1746576179967791600,8.28179150390625,-0.08799801692664623,0.001603055849042721,0.01306579953385517
1746576179977806600,8.291806640625,-0.0809668031156063,-0.00042902993387542663,0.011473160047549754
1746576179987822600,8.301822509765625,-0.07947159612178802,0.009437010010867379,0.0077237352530006315
1746576179997837600,8.311837646484374,-0.0814203921020031,0.001609759584465064,0.004857413435913622
1746576180007853600,8.321853515625,-0.04117781356275081,-0.0033398576129693536,0.014304237021319567
1746576180017869600,8.33186962890625,-0.1710579929292202,-0.019004336437094024,0.016512852981500327
1746576180027884500,8.341884521484374,-0.08770867859125137,0.010469887589407152,0.0012960494262166322
1746576180037900500,8.351900634765625,-0.08845335947871208,-0.008193060664646328,0.015618881550151854
1746576180047916300,8.361916259765625,-0.05373801992833614,-0.005560205110139213,0.01783968113847077
1746576180057931500,8.371931640625,-0.1010229181945324,-0.010133107082825154,0.02084650740479119
1746576180067947500,8.381947509765626,-0.08022212222814559,0.007089305240404791,0.015538500657165421
1746576180077963500,8.391963623046875,-0.07722937015295028,-0.00459698153459467,0.006169427616242319
1746576180087978500,8.401978515625,-0.09264087429642677,-0.0004905188967240974,0.015836524622514843
1746576180097994500,8.411994384765626,-0.07274024204015732,0.004557028550119139,0.012345065777562558
1746576180108010500,8.422010498046875,-0.09967384167313575,0.0038381122915772717,0.019716800121963023
1746576180118025500,8.432025390625,-0.08052139743566512,0.003766001470014453,0.010998811400914564
1746576180128041500,8.44204150390625,-0.09713292501866817,-0.0023558150116819885,0.0016046769839711487
1746576180138057500,8.452057373046875,-0.09054945497512817,0.007170065159304067,0.017450462625175713
1746576180148072400,8.462072509765624,-0.08995441169142722,-0.0002712866554735228,0.007465075183659791
1746576180158088400,8.47208837890625,-0.0936982743948698,-0.006175957821728661,0.009089032256836072
1746576180168104400,8.4821044921875,-0.09205284527540207,-0.004331092573446221,0.006699780766433104
1746576180178119400,8.492119384765624,-0.09370061248242854,-0.0006660581267205998,0.012129112338786944
1746576180188135700,8.5021357421875,-0.09085808253288269,-0.0059466973768081514,0.013009886361844837
1746576180198151700,8.512151611328125,-0.0886135184764862,-0.003907117840601131,0.007020199226681143
1746576180208166700,8.522166748046875,-0.08607084825634956,0.0055615294175455346,0.0011122812239918857
1746576180218182700,8.5321826171875,-0.08517185359001159,-0.002933550967555493,0.003412904582871124
1746576180228198700,8.54219873046875,-0.08233049268424511,-0.004747692284011282,0.013631251396890729
1746576180238213600,8.552213623046875,-0.10552490578889846,-0.0073651676062960175,0.015705491254525257
1746576180248229400,8.5622294921875,-0.09939151760041713,-0.0002499470399226993,0.011989292876143007
1746576180258245400,8.572245361328125,-0.0926566563874483,0.0027642999144503843,0.0070646868223790075
1746576180268260400,8.58226025390625,-0.0904126768529415,-0.0038712610759306697,0.007350865086307749
1746576180278276400,8.5922763671875,-0.086670567715168,-0.00010191687135957181,0.00949964975118637
1746576180288291300,8.602291259765625,-0.09130933343172074,-0.000006854432472027838,0.024287204176886006
1746576180298307300,8.612307373046875,-0.09774491943717002,-0.005070576695981435,0.015866727964533492
1746576180308323600,8.622323486328124,-0.08547522045075893,-0.00616045885849744,0.0017661420228425413
1746576180318338600,8.632338623046875,-0.08786942211091518,-0.0014136113912798464,-0.00316279314616695
1746576180328354600,8.6423544921875,-0.09131225604116916,-0.0028257386449491604,0.01505637056287378
1746576180338370600,8.65237060546875,-0.08727496334910392,-0.001901239644596353,0.022834219756443053
1746576180348385500,8.662385498046875,-0.09326046749949454,0.003455149989132769,0.011108436654694378
1746576180358401500,8.672401611328125,-0.10059446364939212,-0.0014135200597345829,0.00304346848228015
1746576180368417500,8.68241748046875,-0.09131985482573508,0.004573427129071206,0.014535324097145348
1746576180378432500,8.6924326171875,-0.08249006716012955,0.0010736936461180448,0.01701656471993774
1746576180388448500,8.702448486328125,-0.08847615583240985,0.004820629656058736,0.01982834333819337
1746576180398464500,8.712464599609374,-0.0913192703038454,-0.0032983519922243428,0.006012008564826101
1746576180408479500,8.7224794921875,-0.09012450756132602,-0.0020038460691226647,0.004695519138779491
1746576180418494700,8.73249462890625,-0.08937748858630656,-0.005311481912923045,0.017522678478015585
1746576180428510700,8.7425107421875,-0.09700900637805461,-0.0003565537861315533,0.008444971332792192
1746576180438525700,8.752525634765625,-0.09551321486234664,-0.011559048232715577,0.006002208690019324
1746576180448541700,8.762541748046875,-0.09147358408272266,-0.009862660677568054,0.017318863001605494
1746576180458557700,8.7725576171875,-0.0895282952338457,-0.0017795768931508063,0.01851231056987308
1746576180468572700,8.78257275390625,-0.0811497584670782,0.006104956678440794,0.011533758527832104
1746576180478588700,8.792588623046875,-0.10359481450915337,-0.0007693130052182823,0.007356335845869034
1746576180488604700,8.802604736328124,-0.09312018224596977,-0.005065699591464363,0.00315901202019304
1746576180498619600,8.81261962890625,-0.09132570004463195,0.0043980157632380725,0.01283756200224161
1746576180508635600,8.8226357421875,-0.08324760752916335,0.00021511318855918943,0.012902352600451559
1746576180518651600,8.832651611328124,-0.10030629435777663,0.0018014599313959478,0.006127725632674992
1746576180528666600,8.84266650390625,-0.10135141949653625,0.0036395620787516235,0.004129108294518664
1746576180538682600,8.8526826171875,-0.08833294796943664,-0.004960006160708144,0.0073883201530203215
1746576180548698600,8.86269873046875,-0.0836947667747736,-0.00604277359584812,-0.0008628456407226622
1746576180558713600,8.872713623046875,-0.0890799669444561,-0.006589150865655392,0.0064704381231218576
1746576180568729600,8.8827294921875,-0.08474106095731258,-0.004786024133558385,0.01616530905230902
1746576180578745600,8.89274560546875,-0.09416706095039844,0.0005792520595248788,0.004223417248157784
1746576180588760600,8.902760498046876,-0.08818447940945624,-0.0004747779048979282,0.004662548450939357
1746576180598776600,8.912776611328125,-0.08953121784329414,-0.0025196409709984436,0.003010707856994122
1746576180608791600,8.92279150390625,-0.07696165912747382,-0.00235450897058472,0.012568197875795885
1746576180618807600,8.9328076171875,-0.0901297682583332,0.0016738560629310085,0.005558200382720679
1746576180628823600,8.942823486328125,-0.08638765912055969,-0.0006780636583454907,0.010403265793714672
1746576180638838500,8.952838623046874,-0.08324936109483241,0.002668712319177575,0.0076609722150955345
1746576180648854500,8.9628544921875,-0.09267769917547702,0.0006094188689254224,0.016590831854846326
1746576180658870800,8.972870849609375,-0.08220657404363155,-0.0009059541300870477,0.01369222433650866
1746576180668885800,8.9828857421875,-0.08909165738224983,-0.0008323957035318017,0.008355174157489091
1746576180678901800,8.99290185546875,-0.09223170897364616,-0.0006411154817091301,0.0012774543236009775
1746576180688917800,9.002917724609375,-0.09283025938868522,-0.006535699078789912,0.01202036386784166
1746576180698932700,9.0129326171875,-0.07921382196843624,0.0031458968102931976,0.018539819631306454
1746576180708948700,9.02294873046875,-0.09043664225041866,0.0007469139437424018,0.005940587296430021
1746576180718964500,9.032964599609375,-0.08863865291774273,-0.004447106468817219,0.005336913181701675
1746576180728979700,9.042979736328125,-0.08729366804957389,-0.0016152440437581389,0.004651643464434892
1746576180738995500,9.052995361328126,-0.0910363617092371,0.002600145161570981,0.015034807185037061
1746576180749011500,9.063011474609375,-0.08340484391748905,0.0006080123631283641,0.015297659372305497
1746576180759026400,9.0730263671875,-0.088343469363451,-0.005888847976038232,0.001619207832822576
1746576180769042400,9.08304248046875,-0.07981061881780624,-0.0007972239254508167,0.009613147462485358
1746576180779058700,9.09305859375,-0.0834025058299303,0.0009858509658835827,0.013741013647988437
1746576180789073700,9.10307373046875,-0.08370178103744984,-0.0048813057681545615,0.012399444579612463
1746576180799089700,9.113089599609374,-0.09013619799911975,-0.00002162274334114045,0.011023845377471298
1746576180809105700,9.123105712890625,-0.0929793124705553,0.0019013629421824588,0.014497110978607088
1746576180819120600,9.13312060546875,-0.08549743228256702,-0.0012554251548834144,0.018913146455725654
1746576180829136600,9.14313671875,-0.08579963009953498,-0.009897453429736197,0.00997237269631587
1746576180839152600,9.153152587890625,-0.09088672410547732,-0.003527662669494748,0.0034165487115271386
1746576180849167600,9.163167724609375,-0.08430500762760638,0.0058965152592631055,0.014042398614203557
1746576180859183600,9.17318359375,-0.08849544505476951,0.0005890473677543922,0.01189402494127862
1746576180869199600,9.18319970703125,-0.08939210163354873,0.002191683091688901,0.007761455181194469
1746576180879214600,9.193214599609375,-0.08340952009260653,0.0013731971825007348,0.002068431171355769
1746576180889230600,9.203230712890624,-0.0852063403815031,0.0018979882415849714,0.015032386899087577
1746576180899246600,9.21324658203125,-0.08610650409162043,-0.00038462910314556207,0.006828722642036155
1746576180909261800,9.22326171875,-0.0798205556899309,0.006473808257142081,0.003890139306336641
1746576180919277600,9.233277587890624,-0.08670330094099045,0.000808206543768756,0.011112455242685972
1746576180929293600,9.24329345703125,-0.0937374373614788,-0.00046475426780525595,0.018521133197145535
1746576180939308500,9.25330859375,-0.09538286648094653,0.003868215168896131,0.00791578722638078
1746576180949324500,9.263324462890624,-0.0911930135756731,-0.004261776497168466,-0.001654744937084615
1746576180959340500,9.273340576171876,-0.09254092105329036,-0.01211486005114857,0.01038671651771292
1746576180969355500,9.28335546875,-0.0995756419956684,-0.004032114193448797,0.013155578442849218
1746576180979371500,9.29337158203125,-0.09479016128480434,-0.004324155942583456,0.017804536759853364
1746576180989387500,9.303387451171876,-0.07982815447449684,-0.0022334992396878077,-0.0019691629148088394
1746576180999402500,9.313402587890625,-0.08297054415345191,-0.0033802626885939386,0.0006664919515606015
1746576181009418800,9.323418701171875,-0.08476736444234848,0.006294054076331667,0.006390513887861743
1746576181019434800,9.333434814453126,-0.08132745312154292,0.0008574662127066404,0.013442213364504277
1746576181029449700,9.34344970703125,-0.09674012630879879,0.00115960009759292,0.013855305943731218
1746576181039465700,9.3534658203125,-0.09733867672383785,0.0005836816394701599,0.010031637736037373
1746576181049481700,9.363481689453126,-0.09105448188781738,0.0015364842857001348,0.01045546177183278
1746576181059496700,9.37349658203125,-0.08746259487569331,-0.0003700343222124502,0.004062838125275448
1746576181069512700,9.3835126953125,-0.0924000512778759,0.006185492835054173,0.0047891157063655555
1746576181079527700,9.393527587890626,-0.08806231433451175,-0.003016553075890988,0.012040639470890164
1746576181089543700,9.403543701171875,-0.09135317257344722,-0.007998835000488907,0.008195471817441284
1746576181099559400,9.413559326171875,-0.08761340152323245,-0.0013930891930591313,0.002741489861020818
1746576181109574700,9.42357470703125,-0.09045710051655768,-0.0024944517308147624,0.0016049875112250447
1746576181119590400,9.43359033203125,-0.08851064262390136,-0.005217387588415294,0.008371458572009579
1746576181129606700,9.443606689453125,-0.09329904594421386,-0.0008013292784104123,0.01724782532569952
1746576181139621400,9.453621337890626,-0.09210019154846667,0.00924413605357986,0.013433564267167821
1746576181149637600,9.4636376953125,-0.08476853348612785,0.004258968052151613,0.002514056047005579
1746576181159653600,9.473653564453125,-0.0892588306427002,-0.0006626103608869015,-0.006659530954435468
1746576181169668600,9.483668701171876,-0.09838730899393558,-0.003288232457009144,0.0024590013915207235
1746576181179684600,9.4936845703125,-0.08940905276834964,-0.0005182608535978943,0.018584243294922635
1746576181189700600,9.50370068359375,-0.09030629386901855,-0.0025620142414234577,0.008001364884292707
1746576181199715600,9.513715576171874,-0.08865969570577144,-0.0021135306884068994,0.0039978922634385525
1746576181209731600,9.523731689453125,-0.09718903912007808,-0.0003313645459478721,0.0005719272695947438
1746576181219747600,9.53374755859375,-0.10003215359151363,0.001963020868389867,0.008227063398947939
1746576181229762600,9.543762451171874,-0.09015431817770003,0.001907272093161009,0.011488238885672762
1746576181239778600,9.553778564453125,-0.08746142583191395,-0.003238493297458626,0.011256823016284032
1746576181249794800,9.563794921875,-0.08432020519673823,0.0010886948524275793,0.005529166084481403
1746576181259809500,9.5738095703125,-0.09030687839090823,0.0018503497075755147,0.01770609962036833
1746576181269825800,9.58382568359375,-0.08582184193134307,0.0011250585071742533,-0.0011310681228525936
1746576181279841500,9.593841552734375,-0.0867184985101223,0.005927965276874602,0.002053215335914865
1746576181289856800,9.603856689453124,-0.10138298367857933,0.004409961929358542,0.011310297636035829
1746576181299872500,9.61387255859375,-0.09240589649677276,-0.0004777644464280456,0.014423543418897315
1746576181309888500,9.623888427734375,-0.08282908985614776,0.0002694143587956205,0.006048276321450248
1746576181319903500,9.633903564453124,-0.08282908985614776,0.002851297777891159,0.007428359902463853
1746576181329919500,9.64391943359375,-0.0939034415781498,0.0063727362025761975,0.011958970803115516
1746576181339935500,9.653935546875,-0.09375614206194877,0.004116029617236927,0.013869535398483275
1746576181349950500,9.663950439453124,-0.09240765006244182,0.0016440774125978349,0.001098079168703407
1746576181359966500,9.673966552734376,-0.08208148635923862,0.0024340267804684114,0.0013149733223952352
1746576181369982700,9.683982666015625,-0.09539806405007839,-0.0010442848885431886,0.013354443749506026
1746576181379997400,9.69399755859375,-0.08851531879901886,0.004575651052198372,0.012281645152531563
1746576181390013700,9.704013671875,-0.09255378053486346,0.0013147678264183924,0.004613923536241054
1746576181400029700,9.71402978515625,-0.09000877222716808,-0.0036471745630493385,-0.001775220378441736
1746576181410044700,9.724044677734375,-0.08372340834736823,-0.0027276987976860255,0.004532419265247881
1746576181420061200,9.734061279296874,-0.08836334310770035,-0.00026529530610423536,0.01957997633400373
1746576181430077200,9.7440771484375,-0.0850713158249855,0.00549665662094485,0.007610164476465433
1746576181440092200,9.754092041015625,-0.09599369185566901,0.00045958946892060335,0.007349221118493005
1746576181450108200,9.764108154296874,-0.09210486772358417,0.0011041116172680631,0.015030158409383147
1746576181460124000,9.7741240234375,-0.08986088818907738,-0.0014689857071731238,0.01667078348957002
1746576181470139100,9.78413916015625,-0.08597089501321316,0.002207807676005177,0.008716015959670767
1746576181480155000,9.79415478515625,-0.08178162662982941,0.0009429662388050928,0.007226736383140087
1746576181490171100,9.804171142578125,-0.09958733243346214,0.001956705292034894,0.014883397749299183
1746576181500186000,9.81418603515625,-0.09240648101866245,0.004667233759211376,0.013456552417110652
1746576181510202000,9.8242021484375,-0.0904611921697855,-0.0031394807692384347,0.0067363681834656745
1746576181520218000,9.834218017578126,-0.08298223459124565,-0.003245425361744128,0.005508305959543213
1746576181530233000,9.844233154296875,-0.08926818299293518,0.0015100483699236064,0.008365439823176711
1746576181540249000,9.8542490234375,-0.09180968416929244,0.0005898647850845008,0.011318700138200074
1746576181550265000,9.86426513671875,-0.09105915806293487,0.009818963099736719,0.009212749968050047
1746576181560280000,9.874280029296875,-0.086269585698843,-0.00024030242874287068,-0.007519855844508856
1746576181570296000,9.884296142578124,-0.09240531197488308,-0.004909212121809833,0.006509573690267279
1746576181580312000,9.89431201171875,-0.08237900800108909,0.0001216901509091258,0.0164522636343725
1746576181590327000,9.9043271484375,-0.08866320283710956,-0.004656758030969649,0.005956661648396402
1746576181600343300,9.91434326171875,-0.0885129807114601,-0.0031764883113792166,0.003624592838482931
1746576181610359300,9.924359375,-0.09509411266744136,0.002955155444587581,0.012020747460331768
1746576181620374300,9.934374267578125,-0.08776011651754378,0.0012795732154510914,0.02115108897509053
1746576181630390300,9.944390380859375,-0.09494096793234348,-0.00847337544336915,0.009424456489970907
1746576181640406000,9.954406005859376,-0.08730828109681606,0.00006137479841709136,0.00010089395805262028
1746576181650421200,9.964421142578125,-0.08566285197734833,0.0033812947350554167,0.008525525755714625
1746576181660437000,9.97443701171875,-0.09344517641663551,0.004241299964720383,0.018177005067747085
1746576181670453000,9.984452880859376,-0.0891056859076023,0.00086543032345362,0.002155470133991912
1746576181680468000,9.994468017578125,-0.09449322416484356,0.0005861475911922752,-0.005462932447856292
1746576181690484000,10.00448388671875,-0.10077975708842277,-0.0016971045077778398,0.009562988177826628
1746576181700500000,10.0145,-0.09150164113342761,0.004847572461911477,0.019940023551741615
1746576181710515000,10.024514892578125,-0.09165127873718738,0.005098652012995444,0.015948405765462664
1746576181720531200,10.03453125,-0.08775894747376442,0.0024753314718138427,0.008274245275231077
1746576181730546000,10.0445458984375,-0.08252280038595199,-0.010365988823515363,0.012552616714173927
1746576181740562200,10.054562255859375,-0.07997954564392566,-0.002398160882643424,0.016954203540831804
1746576181750578200,10.064578125,-0.09224982915222645,0.0028094405306968834,0.01859323945213109
1746576181760593200,10.07459326171875,-0.09240122032165526,-0.003201558820554055,0.005621666673524305
1746576181770609200,10.084609130859375,-0.08940788372457027,-0.0021757777030812575,0.006403775228234008
1746576181780625200,10.094625244140625,-0.08626549404561519,0.006596064663631841,0.005245563370129093
1746576181790640000,10.10464013671875,-0.0919511384665966,-0.006117683729273266,0.004400015924079344
1746576181800656100,10.11465625,-0.08895838639140129,-0.001417045457381755,0.004302400768501684
1746576181810672000,10.124672119140625,-0.0867138223350048,0.00444174530711025,0.006122117875795811
1746576181820687000,10.13468701171875,-0.09943477222025394,0.0010006649425253272,0.014563289816305041
1746576181830703000,10.144703125,-0.08731295727193356,0.0012721022950485349,0.008746529828943311
1746576181840719000,10.154718994140625,-0.0840215145111084,0.004415272858715616,0.010204765813238918
1746576181850734000,10.164734130859374,-0.09285013313293457,0.001511564473574981,0.001955517981946468
1746576181860750000,10.17475,-0.09015782530903815,-0.002760874981503002,0.0032055363093502817
1746576181870766000,10.18476611328125,-0.09225333628356457,0.003058716283761896,0.005856407011160626
1746576181880781000,10.194781005859374,-0.08088204744160175,-0.0020853686064248905,-0.004656283106934279
1746576181890797000,10.204797119140625,-0.09165537039041519,0.004886502533080056,0.004055001878691837
1746576181900813000,10.21481298828125,-0.09644552727639674,0.00042671924578025936,0.005619894841546192
1746576181910828000,10.224828125,-0.08791735290586948,-0.010362193997809663,0.00896069316943176
1746576181920844000,10.234843994140626,-0.08387596856057643,0.001407364313583821,0.0052900144332088525
1746576181930860000,10.244860107421875,-0.09225392080545425,-0.0021173118143808095,-0.001492256984906271
1746576181940875000,10.254875,-0.09719137720763683,0.004926309387083165,0.007231147696776315
1746576181950891000,10.26489111328125,-0.09090718237161635,0.005697015198366716,0.0009652100366540253
1746576181960907300,10.2749072265625,-0.08791501481831074,0.002614694276731461,-0.0038567119607701896
1746576181970922000,10.284921875,-0.09345277520120143,0.0011349268806399777,0.009969057361222803
1746576181980938200,10.294938232421876,-0.08073533244729042,0.00122557343931403,0.01364757234402932
1746576181990954200,10.304954345703125,-0.08836860380470753,0.0021813397941878063,0.0013705211682245135
1746576182000969200,10.31496923828125,-0.09629998132586479,0.001424580309865996,-0.0006358045523520558
1746576182010985200,10.324985107421876,-0.08881517852842807,0.007155876803747378,0.007440799258928745
1746576182021001200,10.335001220703125,-0.09330255307555198,0.008837943572597578,0.016071246693842113
1746576182031016200,10.34501611328125,-0.07863806790709495,0.0007828346404945477,0.019306100429221987
1746576182041032200,10.3550322265625,-0.0888140094846487,-0.0045580742963124065,0.011035901141446083
1746576182051048000,10.3650478515625,-0.08836392762959003,0.003338852965971455,0.006142758805025368
1746576182061063200,10.375063232421875,-0.08581833480000495,-0.003107583227055147,0.011462392058363184
1746576182071079000,10.385078857421876,-0.09434592464864254,-0.0033210478812223296,0.012718684862926601
1746576182081095200,10.39509521484375,-0.08132686859965324,-0.009545324656972661,0.010340110030164941
1746576182091110000,10.40510986328125,-0.08626666308939457,-0.0022054787216009572,0.010705089151347056
1746576182101126100,10.415126220703126,-0.09599193828999995,0.004005682844249531,0.01330495118512772
1746576182111142100,10.42514208984375,-0.08072948722839356,0.001611599915102124,0.008763343966426328
1746576182121157000,10.4351572265625,-0.09269932648539543,-0.006886549209919757,0.012412705919984727
1746576182131173000,10.445173095703124,-0.09075462215840815,-0.0034813256100052967,0.0035753012035042047
1746576182141189000,10.455189208984375,-0.0879120922088623,0.0027189629353815688,0.006525483645452186
1746576182151204000,10.4652041015625,-0.07683832500874996,0.0003519780757138505,0.007328068732609972
1746576182161220000,10.47522021484375,-0.09165186325907707,-0.001246666459692642,0.015875203531933946
1746576182171236000,10.485236083984375,-0.09374678971171378,-0.0027703049635514616,0.010059018933307379
1746576182181251000,10.4952509765625,-0.08701368206441402,0.0036057876733131705,0.006271015694038942
1746576182191267000,10.50526708984375,-0.08865969570577144,0.0026602641512406986,0.004448293778905645
1746576182201283300,10.515283447265626,-0.09329904594421386,0.005925723087438382,-0.007986276913015171
1746576182211298000,10.525298095703125,-0.08866086474955082,-0.002413098156871274,0.01949749481547624
1746576182221314300,10.535314208984374,-0.07893558954894542,-0.003807959181908518,0.01869779580514878
1746576182231330000,10.545330078125,-0.08522212247252464,-0.0050268151860684155,0.009751733949268235
1746576182241345300,10.55534521484375,-0.082679452252388,-0.0034623469148995353,0.00008246325221844017
1746576182251361000,10.565361083984374,-0.08552315124571323,0.0045282773796701805,0.016017041421728207
1746576182261377000,10.575376953125,-0.08821896620094775,0.0010893022072035819,0.0253652817371767
1746576182271392000,10.58539208984375,-0.08941489798724651,-0.0012587952889036387,0.015087825147062538
1746576182281408000,10.595407958984374,-0.08642389947772025,-0.0028812636578921225,-0.00764024908747524
1746576182291424000,10.605424072265626,-0.1000420904636383,0.002408257584972307,-0.004526820641523227
1746576182301439000,10.61543896484375,-0.09749883572161197,0.0017633198780938981,0.015949410412460563
1746576182311455000,10.625455078125,-0.09091244306862353,0.0018007064461475237,0.013977671948075294
1746576182321471200,10.63547119140625,-0.09764438167214393,0.004006198867480271,0.008435052726976573
1746576182331486200,10.645486328125,-0.09854103825092315,-0.004583834358653984,0.006074707670649513
1746576182341502200,10.655502197265625,-0.08342822479307652,-0.0022712237344589084,0.013707933362293988
1746576182351518200,10.665518310546876,-0.07849018386900425,0.0012933916782494634,0.015895141208264976
1746576182361533200,10.675533203125,-0.09195639916360378,-0.006228213165351189,0.005329259598208591
1746576182371549200,10.685549072265625,-0.10392740746438503,0.0017035205488326027,0.006534068810706958
1746576182381565200,10.695565185546876,-0.09689268652200698,-0.006069666169350967,0.008571392457745968
1746576182391580200,10.705580078125,-0.0897112505853176,0.0003165368695743382,0.009844499399792402
1746576182401596200,10.71559619140625,-0.08821545906960963,0.0051896319318097085,0.0017115896908566355
1746576182411612200,10.725612060546876,-0.09599778350889682,-0.0014108577451901509,0.0019594635047018526
1746576182421628200,10.735628173828125,-0.09150865539610385,-0.001795386383635923,0.015582568127755075
1746576182431643100,10.74564306640625,-0.09061082977354526,-0.00010234156304504722,0.00973744969558902
1746576182441659100,10.7556591796875,-0.08627250830829143,0.007705500909988768,0.0026324765285942703
1746576182451675100,10.765675048828125,-0.0973451064646244,0.004117102762893773,0.0054885052805300795
1746576182461690000,10.775690185546875,-0.09525134905576706,0.002025856971531175,0.01395293936561793
1746576182471706000,10.7857060546875,-0.08806815955340862,0.0009635615022620186,0.0043787904729600995
1746576182481722000,10.79572216796875,-0.08747077818214893,-0.0029679281611926854,0.010851840678276494
1746576182491737000,10.805737060546875,-0.09809621709287165,0.0003873370834626257,0.016931809045933187
1746576182501753300,10.81575341796875,-0.09151450061500072,-0.008157888886565342,0.009156480603013188
1746576182511769300,10.825769287109376,-0.08912205252051353,-0.00040706013066228475,-0.0009601320027373731
1746576182521784300,10.835784423828125,-0.08328443240821361,0.0022095521085197106,0.003569775645015761
1746576182531800300,10.84580029296875,-0.09435703056454658,0.001343619461567141,0.007186988894641399
1746576182541816300,10.85581640625,-0.08672551277279854,-0.00507177770580165,0.025258944419026375
1746576182551831300,10.865831298828125,-0.09779986449480056,-0.000566082050697878,0.009073971685022116
1746576182561847300,10.875847412109374,-0.08463175536394119,0.0018911338091129437,-0.002441493134293705
1746576182571863300,10.88586328125,-0.0949573345452547,-0.000709002219303511,0.0069940784047357735
1746576182581878300,10.895878173828125,-0.09017010026872158,0.010721492296876385,0.011232611023634672
1746576182591894300,10.905894287109374,-0.08792787429988384,0.009038580711232497,0.006528999909944832
1746576182601910000,10.915909912109376,-0.08164192589819431,0.005128193201310932,0.006463688721926882
1746576182611925200,10.92592529296875,-0.09106675684750079,0.0016159655629657207,-0.001061637882143259
1746576182621941200,10.935941162109375,-0.08956921176612377,0.0031691863543353974,0.00931952567761764
1746576182631957200,10.945957275390626,-0.08403145138323306,0.005281036542309448,0.010290964525658636
1746576182641972200,10.95597216796875,-0.08373334521949291,0.002180476711085066,0.0010774839052464812
1746576182651988200,10.96598828125,-0.089419574162364,0.0038955096011981365,-0.0001399290604982525
1746576182662004200,10.976004150390626,-0.08403262042701244,0.006773745618364773,0.01031677482035011
1746576182672019200,10.986019287109375,-0.0900169555336237,0.000917840930703096,0.014293313768506049
1746576182682035200,10.99603515625,-0.09166180013120175,-0.00227835672814399,0.006428151617664844
1746576182692051200,11.00605126953125,-0.0843307265907526,-0.00010584869438316672,0.011238620639313012
1746576182702066200,11.016066162109375,-0.09121639445126056,0.004612261302117258,0.008276071906136348
1746576182712082200,11.026082275390625,-0.08837386450171471,0.0032987081852508707,0.001081876952573657
1746576182722098400,11.036098388671874,-0.09450959077775478,0.0032408861839445307,0.004078547151060775
1746576182732113200,11.046113037109375,-0.0934632965952158,0.0009905545404646544,0.002301828935276717
1746576182742129400,11.05612939453125,-0.08702887963354587,0.016032371421600692,0.012291088834311813
1746576182752145400,11.0661455078125,-0.09046820643246173,0.00615155859941151,0.02020302186948247
1746576182762160400,11.076160400390625,-0.0874766234010458,0.0022433767463080584,-0.0005137125426437706
1746576182772176400,11.08617626953125,-0.1000467666387558,0.003083270769705996,0.0013376235456205904
1746576182782192000,11.096192138671874,-0.0861304694890976,0.008173707510204985,0.00988913312596269
1746576182792207400,11.106207275390625,-0.0801432117730379,0.0013745854219887404,0.014190903706802054
1746576182802223000,11.11622314453125,-0.08747545435726642,0.0009622371948556973,0.013194558746367692
1746576182812239000,11.126239013671874,-0.09271510857641696,0.0025681654209969563,0.005726487888023257
1746576182822254000,11.136254150390625,-0.08793021238744259,-0.0017785357135348021,0.004659434045245871
1746576182832270000,11.14627001953125,-0.07925064684748649,-0.002301052617141977,0.007159470700053498
1746576182842286300,11.156286376953124,-0.116956400385499,0.008974516198807396,0.00507538530183956
1746576182852301000,11.166301025390625,-0.06637596770524978,-0.004180865881219506,0.017529720140155403
1746576182862317300,11.1763173828125,-0.093009707608819,0.0005975868672365323,0.006865255260141566
1746576182872333300,11.186333251953124,-0.09091361211240291,0.0026898647050606086,0.006071730262273922
1746576182882348300,11.196348388671876,-0.09794599496722221,0.0028724866963922976,-0.000011690437793731688
1746576182892364300,11.2063642578125,-0.08806991311907768,0.0035426364763407035,0.006720220766263082
1746576182902380300,11.21638037109375,-0.08133329834043979,0.004532442098134197,0.01466741691105999
1746576182912395300,11.226395263671876,-0.08986264175474643,-0.0017762752577895299,0.010182015125313772
1746576182922411300,11.236411376953125,-0.08327683362364768,0.003385783680505119,0.004576258406974375
1746576182932427300,11.24642724609375,-0.08911270017027854,0.003537576708733104,0.009044946519937366
1746576182942442200,11.256442138671876,-0.08716858036518096,-0.003617816037824377,0.011553084282809867
1746576182952458200,11.266458251953125,-0.09255611862242222,-0.0034066346722887828,0.011706649143015965
1746576182962474200,11.27647412109375,-0.07714344543516635,-0.0035871195054613053,0.013797821869142352
1746576182972490200,11.286490234375,-0.0925567031443119,0.0038008079219143836,0.006884809343982488
1746576182982505200,11.296505126953125,-0.08358020048439502,0.0008731661053374409,0.008275213389610871
1746576182992521200,11.306521240234375,-0.08657587516903877,0.00025693846971262243,0.0014098667979240416
1746576183002537200,11.316537109375,-0.08074293123185634,0.003302936835796572,0.0079947433472611
1746576183012552200,11.32655224609375,-0.0958545756459236,0.0038914544805884357,0.006002574016200378
1746576183022568200,11.336568115234375,-0.09420739296078681,-0.00017455741588491945,0.014570231013745069
1746576183032584200,11.346584228515624,-0.07340951960384845,0.00021096216982696204,0.01431259385771118
1746576183042599200,11.35659912109375,-0.08927285916805267,-0.0030204209668328983,0.007373981100413948
1746576183052615200,11.366615234375,-0.101392920550704,0.011219235518830828,0.007092095419112592
1746576183062631200,11.376631103515624,-0.09720248312354088,0.0035302975845756005,0.016416123741911724
1746576183072646100,11.386646240234375,-0.09166413821876049,-0.0011855245567159727,-0.001008656452735886
1746576183082662400,11.396662353515625,-0.08478080844581126,-0.0004603018549736589,-0.0032722357368562367
1746576183092678400,11.406678466796874,-0.08537935886085032,0.0001782106776954606,0.012216891086939722
1746576183102693400,11.416693359375,-0.09405950892269611,0.005245992628391832,0.02003103543659672
1746576183112709400,11.42670947265625,-0.08897416848242283,-0.003958500967966392,0.010925316906441003
1746576183122725400,11.436725341796874,-0.0898725786268711,-0.00509216290670447,-0.014230532464291899
1746576183132740400,11.446740234375,-0.09660627079606056,-0.006511176558886654,-0.002076952404528856
1746576183142756000,11.456756103515625,-0.09241524884700775,0.001274335351330228,0.0119497463170439
1746576183152772000,11.466772216796874,-0.09346095850765705,0.0011208755224011839,0.00995819804049097
1746576183162787000,11.476787109375,-0.08867255518734454,0.002087377900420688,0.010804375674203037
1746576183172803000,11.486802978515625,-0.08612813140153884,0.006337523325299844,0.004549123804876581
1746576183182819000,11.496819091796874,-0.08702537250220775,0.00456728051607497,0.009011345644434914
1746576183192834000,11.506833984375,-0.08882336183488368,-0.002213337801070884,0.004397897032229229
1746576183202850300,11.516850341796875,-0.08178922541439533,0.0011309174258029087,0.00655349503038451
1746576183212866300,11.5268662109375,-0.0840343739926815,0.004007870234758593,0.02206645938749425
1746576183222881300,11.53688134765625,-0.08448387132585049,0.011035791543591767,0.013070046450709923
1746576183232897300,11.546897216796875,-0.08448328680396079,0.003617007753648795,0.005132558849174529
1746576183242913300,11.556913330078125,-0.09555530043840407,-0.0024720207032980397,-0.0133983102906961
1746576183252929300,11.56692919921875,-0.09001987814307212,-0.0044607377019478004,0.007005577046284452
1746576183262944300,11.5769443359375,-0.09690320791602135,0.0043768085784278805,0.017309063126798717
1746576183272960300,11.586960205078125,-0.09047171356379985,0.008136941996659151,0.0076840699628926805
1746576183282976300,11.596976318359374,-0.0801473034262657,0.0074565767833730204,-0.0005472494860645383
1746576183292991200,11.6069912109375,-0.09585983634293078,0.003898911701259203,0.000311614099284634
1746576183303007200,11.61700732421875,-0.08493395318090916,-0.00254682123886887,0.0077696476208046076
1746576183313023200,11.627023193359374,-0.0870277105897665,0.00013976466371677814,0.013683757902262731
1746576183323038500,11.63703857421875,-0.09510755667090415,-0.0013660687553929164,0.00725933261164464
1746576183333054200,11.64705419921875,-0.09136486301124096,0.0015886071985820307,0.004111654836218804
1746576183343070200,11.6570703125,-0.09226151959002017,-0.005761741864494979,0.009694204208906739
1746576183353085200,11.667085205078125,-0.08837211093604565,-0.0009221289467532187,0.006924739495571703
1746576183363101200,11.67710107421875,-0.08358429213762283,0.007317999429744668,0.007196350378030911
1746576183373117200,11.6871171875,-0.08597849379777908,-0.009040147047233767,0.007859234733553603
1746576183383132200,11.697132080078125,-0.0879249516904354,0.0008402319501154124,0.00333733686232008
1746576183393148200,11.707148193359375,-0.08927052108049392,0.00900100234693382,0.004575938746565953
1746576183403164200,11.7171640625,-0.08403495851457118,0.0026455871719168497,0.00025415742415934797
1746576183413179100,11.72717919921875,-0.08403612755835056,-0.0010770957461791113,0.001204763546725735
1746576183423195000,11.73719482421875,-0.09211772720515728,0.0007342325586825609,0.013546459190268069
1746576183433211100,11.747211181640624,-0.0867313579916954,0.005536742036161012,0.012001229909108952
1746576183443226000,11.75722607421875,-0.0889753375262022,0.0016499865635763852,0.007266967928828671
1746576183453242000,11.7672421875,-0.09032207596004009,-0.00480381551857572,0.00024532566373236476
1746576183463258000,11.777258056640624,-0.08793079690933227,-0.0010331835392164066,0.0009890019041951744
1746576183473273000,11.787273193359376,-0.08703297128677367,-0.0028920453468104824,0.0037886516932398077
1746576183483289000,11.7972890625,-0.09002455431818962,-0.0002666013472015038,0.007433647998934611
1746576183493305000,11.80730517578125,-0.08284136481583118,0.007221128626260906,0.019852390934061256
1746576183503320800,11.81732080078125,-0.0840384656459093,0.0010822788113728165,0.013428038708679377
1746576183513336000,11.827336181640625,-0.08374094400405883,-0.002814317635213956,0.007908763830550015
1746576183523351800,11.837351806640624,-0.08972703267633915,-0.0021155262826709075,-0.0023097747797146437
1746576183533367800,11.847367919921876,-0.08418927229344844,0.0027980788864661005,0.0034415004896931347
1746576183543382800,11.8573828125,-0.08448971654474735,0.009009382016211747,0.011908610589057206
1746576183553399000,11.86739892578125,-0.08164718659520148,0.008337579135294072,0.01782996346205473
1746576183563415000,11.8774150390625,-0.08793255047500133,0.00635791765935719,0.0026701325247064233
