time,seconds_elapsed,z,y,x
1746735746531661800,0.024661865234375,-0.0008031437173485756,-0.0008401940576732159,-0.0020451387390494347
1746735746541628000,0.0346279296875,0.0001565595157444477,-0.00032952334731817245,-0.0018534534610807896
1746735746551593700,0.04459375,-0.000035720644518733025,-0.0021809530444443226,-0.0025352230295538902
1746735746561559800,0.054559814453125,0.0009254869073629379,0.001605447381734848,-0.0017989096231758595
1746735746571526000,0.06452587890625,-0.0011224837508052588,-0.0003812708891928196,-0.0002750488929450512
1746735746581492000,0.074491943359375,-0.00023036147467792034,-0.0013649300672113895,-0.0022394098341464996
1746735746591457800,0.084457763671875,0.00048709427937865257,0.000383701641112566,-0.0034444904886186123
1746735746601423600,0.094423583984375,0.001031497959047556,0.00011982489377260208,-0.003236662596464157
1746735746611390000,0.104389892578125,-0.0002135296817868948,-0.00013317540287971497,-0.00313359871506691
1746735746621355800,0.114355712890625,-0.0002806815318763256,0.000680070836097002,-0.00013648904860019684
1746735746631321900,0.12432177734375,-0.001279367133975029,-0.00034125102683901787,-0.0019242693670094013
1746735746641287700,0.13428759765625,0.0007909778505563736,-0.0006704838015139103,-0.0024635219015181065
1746735746651254000,0.14425390625,-0.0010780284646898508,-0.00008991453796625137,-0.0011287452653050423
1746735746661219800,0.1542197265625,-0.0006015764083713293,-0.0005417889915406704,-0.0020552845671772957
1746735746671186000,0.16418603515625,-0.00015709479339420795,-0.0005258098244667053,-0.00412855576723814
1746735746681151700,0.17415185546875,0.0006096314173191786,-0.0002861670218408108,-0.0005668052472174168
1746735746691117800,0.184117919921875,-0.0000479032751172781,-0.0001958855427801609,0.0009256303310394287
1746735746701084000,0.194083984375,-0.00018631643615663052,0.0002921619452536106,-0.000019969884306192398
1746735746711050800,0.20405078125,-0.0007604940328747034,0.0021395967341959476,0.000655940268188715
1746735746721016800,0.214016845703125,-0.0017350115813314915,0.00001059751957654953,0.0007828157395124435
1746735746730982700,0.223982666015625,0.0009212254080921412,0.0011584199965000153,0.0010683066211640835
1746735746740949000,0.233948974609375,0.0017328322865068913,-0.00020825769752264023,-0.0012083039619028568
1746735746750914800,0.243914794921875,0.0018875619862228632,-0.0013912338763475418,0.00017893686890602112
1746735746760881000,0.253880859375,-0.0006097962614148855,-0.0014810389839112759,-0.000473550520837307
1746735746770846700,0.2638466796875,-0.0006489448715001345,-0.0005452041514217854,-0.0006391988135874271
1746735746780812800,0.273812744140625,-0.0002884927671402693,0.0013443529605865479,0.0011079609394073486
1746735746790779000,0.28377880859375,-0.0011484276037663221,0.0009057302959263325,0.0017609680071473122
1746735746800744700,0.29374462890625,-0.0005932832136750221,-0.00003276951611042023,0.0006933640688657761
1746735746810710800,0.303710693359375,0.0009833083022385836,0.0001885388046503067,-0.0003375457599759102
1746735746820676900,0.3136767578125,-0.0012967772781848907,-0.0008285096846520901,-0.0013334406539797783
1746735746830643000,0.323642822265625,-0.00011220341548323631,-0.000030360184609889984,0.0008618026040494442
1746735746840608800,0.33360888671875,-0.0010161767713725567,0.000048247165977954865,-0.0008007632568478584
1746735746850574800,0.343574951171875,-0.0002659643068909645,0.0006125709041953087,-0.0010524317622184753
1746735746860541000,0.353541015625,-0.00003879191353917122,0.00015090033411979675,-0.00014181528240442276
1746735746870506800,0.3635068359375,0.000009144889190793037,0.0005714134313166142,0.0004613902419805527
1746735746880472800,0.373472900390625,-0.0007453074213117361,0.0009257039055228233,0.00023656245321035385
1746735746890439000,0.38343896484375,0.00025817169807851315,-0.00004741549491882324,0.001917283283546567
1746735746900405000,0.393405029296875,-0.0014095406513661146,0.0008075074292719364,-0.00045969337224960327
1746735746910370800,0.403370849609375,0.0010624055285006762,0.00018805591389536858,0.0014383415691554546
1746735746920337000,0.4133369140625,0.0007289834320545197,0.00007469439879059792,0.00023865653201937675
1746735746930303000,0.423302978515625,0.0018264721147716045,-0.00022917240858078003,0.00028046825900673866
1746735746940268800,0.433268798828125,-0.0002646343782544136,0.000349181704223156,-0.00019623758271336555
1746735746950235000,0.44323486328125,-0.0012076599523425102,-0.00028944434598088264,-0.00047294003888964653
1746735746960200700,0.45320068359375,0.0009716090280562639,-0.00006088335067033768,0.0014929971657693386
1746735746970167000,0.4631669921875,-0.0003589061088860035,-0.0009911255910992622,-0.00006894674152135849
1746735746980132900,0.4731328125,0.0025044367648661137,0.00048493780195713043,0.000055598095059394836
1746735746990099000,0.483098876953125,-0.0014623417519032955,-0.0002543558366596699,0.0021866594906896353
1746735747000064800,0.493064697265625,-0.0004085260443389416,-0.0004078769125044346,0.0015779808163642883
1746735747010030800,0.50303076171875,-0.00018455414101481438,-6.793998181819916e-7,-0.000039356760680675507
1746735747019997000,0.512996826171875,0.0007577186916023493,0.0010465183295309544,0.0016187210567295551
1746735747029962800,0.522962646484375,0.000043192412704229355,0.0006952476687729359,-0.0013887868262827396
1746735747039928800,0.5329287109375,-0.00018409127369523048,0.0014751316048204899,0.0010455376468598843
1746735747049895000,0.54289501953125,-0.0003790343180298805,-0.0002537928521633148,0.0011888155713677406
1746735747059861000,0.552861083984375,0.0000683723483234644,0.0005934033542871475,-0.000004219356924295425
1746735747069826800,0.562826904296875,0.0008750439155846834,-0.0002010175958275795,0.0008408012799918652
1746735747079794000,0.5727939453125,-0.00039099319837987423,-0.0001874081790447235,0.00016301963478326797
1746735747089759700,0.582759765625,-0.0013468016404658556,0.0003870357759296894,0.00024238182231783867
1746735747099726000,0.59272607421875,-0.00047873659059405327,0.0001476067118346691,0.0005347426049411297
1746735747109692000,0.60269189453125,-0.00036661745980381966,0.0002677156589925289,0.001005855854600668
1746735747119657700,0.61265771484375,-0.000490882433950901,-0.0000028102658689022064,0.0006543905474245548
1746735747129623800,0.622623779296875,-0.0011534770019352436,-0.00033224327489733696,0.0008381488732993603
1746735747139590000,0.63258984375,-0.0008955125231295824,0.0005036201328039169,0.000296927522867918
1746735747149556000,0.642555908203125,-0.0014475856442004442,-0.0005994611419737339,0.0004995940253138542
1746735747159521800,0.652521728515625,-0.00013789418153464794,-0.0003195726312696934,0.0009599053300917149
1746735747169488000,0.66248779296875,0.0010072651784867048,-0.00041278358548879623,-0.0012310775928199291
1746735747179454000,0.672453857421875,-0.0010351440869271755,-0.00043615326285362244,-0.00006855931133031845
1746735747189419800,0.682419677734375,0.000810959143564105,0.0017801295034587383,0.0001234547235071659
1746735747199385900,0.6923857421875,0.0018151954282075167,-0.0011288211680948734,0.0007879366166889668
1746735747209351700,0.7023515625,0.000002914341166615486,0.0010235453955829144,0.00023506442084908485
1746735747219318000,0.712318115234375,0.0004061709623783827,-0.0005224533379077911,-0.00004752445966005325
1746735747229283800,0.722283935546875,-0.0009091643150895834,-0.0009048832580447197,-0.000056312885135412216
1746735747239250000,0.73225,-0.00028969766572117805,-0.0007367115467786789,-0.0010038688778877258
1746735747249215700,0.7422158203125,-0.00040554488077759743,0.0013863607309758663,-0.00099907536059618
1746735747259181800,0.752181884765625,-0.0005404909607023001,-0.001016298308968544,0.0007363720797002316
1746735747269148000,0.76214794921875,-0.0010014839936047792,0.000368279404938221,0.00028949370607733727
1746735747279113700,0.77211376953125,-0.0010475839953869581,-0.0006732749752700329,-0.00008205464109778404
1746735747289079800,0.782079833984375,-0.001338933827355504,0.00004684366285800934,-0.0004564952105283737
1746735747299046100,0.792046142578125,-0.0003324211575090885,-0.0008528651669621468,0.0011124047450721264
1746735747309012000,0.802011962890625,0.00000340375117957592,-0.00020518433302640915,0.0006591351702809334
1746735747318978000,0.81197802734375,0.0010603806003928185,0.00009853392839431763,-0.00019188225269317627
1746735747328943900,0.82194384765625,-0.00046854023821651936,0.00008255522698163986,-0.00037004798650741577
1746735747338910200,0.83191015625,0.0009234093595296144,-0.0006910939700901508,0.000009456649422645569
1746735747348877000,0.841876953125,0.0003170075360685587,-0.0002295682206749916,-0.00038469117134809494
1746735747358843100,0.851843017578125,-0.002077570417895913,0.0005690022371709347,-0.000051559414714574814
1746735747368809000,0.86180908203125,-0.0004024424124509096,0.00004862062633037567,0.000260296743363142
1746735747378775000,0.871775146484375,0.00175743387080729,0.00018126238137483597,0.0013639098033308983
1746735747388741000,0.8817412109375,0.00045994180254638195,0.0007597007788717747,0.0008600396104156971
1746735747398707000,0.89170703125,-0.0008968641050159931,-0.0002663722261786461,0.00013212347403168678
1746735747408673000,0.901673095703125,0.0003340488765388727,-0.00005704769864678383,0.0004847259260714054
1746735747418638800,0.911638916015625,0.0008399004582315683,-0.00034287991002202034,0.0008900724351406097
1746735747428605200,0.921605224609375,-0.0011430894955992699,-0.00019747111946344376,-0.00022685760632157326
1746735747438571000,0.931571044921875,-0.0000740711111575365,-0.000569476280361414,-0.00036558276042342186
1746735747448537000,0.941537109375,-0.000854110810905695,0.000449448823928833,0.0005199182778596878
1746735747458503000,0.9515029296875,-0.0007205456495285034,0.000595651101320982,0.0011734310537576675
1746735747468469000,0.961468994140625,0.0016776309348642826,-0.001299188006669283,-0.0006961082108318806
1746735747478435000,0.97143505859375,0.0002283705398440361,0.0016492572613060474,0.0000834297388792038
1746735747488401000,0.98140087890625,0.0012049516662955284,0.00037333695217967033,0.0010906374081969261
1746735747498367000,0.991366943359375,-0.0029542497359216213,-0.000004003755748271942,-0.001256016083061695
1746735747508333000,1.0013330078125,0.001848228508606553,-0.0005504842847585678,-0.0010682633146643639
1746735747518299100,1.011299072265625,0.0009539495222270489,-0.0004628528840839863,0.0006175143644213676
1746735747528265000,1.021264892578125,0.0017060262616723776,0.0003699176013469696,-0.000047476962208747864
1746735747538231000,1.03123095703125,0.000491476384922862,-0.0003418782725930214,-0.0011827200651168823
1746735747548197000,1.041197021484375,-0.00007551070302724838,-0.000024961773306131363,0.0006268979050219059
1746735747558163000,1.051162841796875,-0.0004063837695866823,0.00088139483705163,-0.00025583989918231964
1746735747568129000,1.06112890625,0.0017201504670083523,0.00019856030121445656,0.0007124855183064938
1746735747578094800,1.0710947265625,-0.0000065583735704422,-0.0004690159112215042,0.00027974648401141167
1746735747588061200,1.081061279296875,-0.00033199647441506386,-0.00020083552226424217,-0.00004515890032052994
1746735747598027000,1.091027099609375,0.0005292836576700211,0.00029374612495303154,0.0003933357074856758
1746735747607993000,1.1009931640625,0.0006049172952771187,-0.0002665831707417965,-0.0004405002109706402
1746735747617960000,1.1109599609375,0.0003303498961031437,-0.0009140972979366779,0.0016317262779921293
1746735747627926000,1.120926025390625,0.00024219928309321404,-0.0005055684596300125,0.0007246537134051323
1746735747637892000,1.13089208984375,-0.0012576866429299116,-0.0008439561352133751,0.0013610916212201118
1746735747647858000,1.14085791015625,-0.00018895999528467655,0.0004143877886235714,-0.0015819673426449299
1746735747657824000,1.150823974609375,0.0008011236786842346,0.00012340815737843513,0.0009524975903332233
1746735747667789800,1.160789794921875,-0.00022419355809688568,0.0005977172404527664,-0.00031596608459949493
1746735747677756200,1.170756103515625,0.0011920384131371975,-0.0008008363656699657,-0.0001798509620130062
1746735747687722000,1.180721923828125,-0.00027989083901047707,0.0008199634030461311,0.00016156630590558052
1746735747697688000,1.19068798828125,0.0017180321738123894,-0.0002200249582529068,-0.000726048368960619
1746735747707654000,1.20065380859375,0.002094603143632412,-0.0007222970016300678,0.001407143659889698
1746735747717620200,1.2106201171875,0.00009159836918115616,0.0007612709887325764,-0.0027735172770917416
1746735747727586000,1.2205859375,0.0008322233334183693,0.0006488854996860027,0.0009053731337189674
1746735747737552000,1.2305517578125,-0.00001758616417646408,-0.0012039747089147568,-0.0003814869560301304
1746735747747518000,1.24051806640625,-0.0005808449350297451,0.00012733926996588707,0.00012477999553084373
1746735747757484000,1.250484130859375,0.0009196889586746693,-0.0004987763240933418,-0.0008621332235634327
1746735747767450000,1.2604501953125,-0.00003665219992399216,0.000351571012288332,0.0013618730008602142
1746735747777416000,1.270416015625,-0.0014224783517420292,-0.0009320909157395363,0.00009994069114327431
1746735747787382000,1.280382080078125,0.0005051176995038986,-0.0007062549702823162,-0.00007689325138926506
1746735747797348000,1.29034814453125,0.0009024413302540779,-0.0003154650330543518,-0.00018086330965161324
1746735747807314000,1.30031396484375,-0.002055531833320856,-0.0005823136307299137,-0.0006477152928709984
1746735747817280000,1.310280029296875,-0.000331599498167634,-0.0009909304790198803,-0.0007195533253252506
1746735747827245800,1.320245849609375,-0.00027487403713166714,-0.0010447259992361069,0.0010554436594247818
1746735747837212200,1.330212158203125,-0.001077962340787053,0.0014710808172821999,0.00004481244832277298
1746735747847178000,1.340177978515625,0.00030155526474118233,0.00008703628554940224,0.0006032772362232208
1746735747857144000,1.35014404296875,-0.00036978814750909805,0.0005692755803465843,-0.0001965719275176525
1746735747867110000,1.36010986328125,0.0008941481355577707,-0.00028453394770622253,0.00003166124224662781
1746735747877077000,1.370076904296875,0.0004519729409366846,-0.00013857800513505936,-0.0002611614763736725
1746735747887043000,1.38004296875,-0.0005400546360760927,0.00006488757207989693,0.00002459576353430748
1746735747897009200,1.390009033203125,-0.0011007138527929783,-0.0005753524601459503,0.0015656861942261457
1746735747906975000,1.39997509765625,0.0006108996458351612,0.0005652792751789093,-0.0018266486003994942
1746735747916940800,1.40994091796875,-0.000032181618735194206,-0.00013680150732398033,-0.00045004161074757576
1746735747926907100,1.4199072265625,-0.0000473617110401392,0.00020834384486079216,-0.00011421693488955498
1746735747936873000,1.429873046875,-0.0006074062548577785,0.0003179321065545082,0.00018014060333371162
1746735747946839000,1.439839111328125,0.0016006208024919033,0.00022605294361710548,-0.0003447681665420532
1746735747956804900,1.449804931640625,-0.0010081254877150059,-0.000967077910900116,-0.0005059586837887764
1746735747966771200,1.459771240234375,-0.0013596625067293644,-0.00008210958912968636,-0.000611686147749424
1746735747976737000,1.469737060546875,-0.0010425325017422438,-0.0010581845417618752,0.0011845710687339306
1746735747986702800,1.479702880859375,0.00031035346910357475,0.0008435789495706558,-0.0006841691210865974
1746735747996669000,1.4896689453125,-0.0008922170381993055,-0.0005158483982086182,0.0010478398762643337
1746735748006635000,1.499635009765625,-0.0017835770267993212,-0.0003992021083831787,-0.0002658977173268795
1746735748016601000,1.50960107421875,-0.0012787794694304466,-0.0006943144835531712,-0.00016249390318989754
1746735748026567000,1.51956689453125,-0.0012657297775149345,-0.0011324044317007065,0.001634873216971755
1746735748036533000,1.529532958984375,-0.0005171755328774452,-0.0001991591416299343,0.0009267148561775684
1746735748046499000,1.5394990234375,0.0007709953933954239,-0.00008837133646011353,0.002345380838960409
1746735748056465000,1.54946484375,-0.00005992664955556393,-0.0004320363514125347,0.0011995979584753513
1746735748066431000,1.559430908203125,-0.00007084570825099945,-0.00001738220453262329,-0.0012837997637689114
1746735748076397000,1.56939697265625,-0.0014031031168997288,-0.00023485161364078522,-0.0006096819415688515
1746735748086363100,1.579363037109375,-0.0027376129291951656,-0.00013658078387379646,0.0014840951189398766
1746735748096329000,1.589328857421875,-0.0008460995741188526,-0.001978381769731641,-0.0005348389968276024
1746735748106295000,1.599294921875,-0.001784597523510456,0.00028743548318743706,0.0019403030164539814
1746735748116261000,1.60926123046875,0.0002693014685064554,-0.000337439589202404,-0.0009911786764860153
1746735748126227200,1.619227294921875,-0.00022551370784640312,0.001023435965180397,0.0006546550430357456
1746735748136193000,1.629193115234375,0.000022809021174907684,0.00006172154098749161,-0.00048179272562265396
1746735748146160000,1.63916015625,0.000567425275221467,0.001017796341329813,-0.0002072211354970932
1746735748156126000,1.6491259765625,-0.0006949955131858587,-0.0002731657586991787,0.0007806434296071529
1746735748166092000,1.659092041015625,-0.0016087258700281382,0.001428327988833189,0.0011420347727835178
1746735748176058000,1.66905810546875,0.0002633091062307358,0.0007598279044032097,0.0001821424812078476
1746735748186024000,1.67902392578125,0.00003267941065132618,0.0007872581481933594,0.0005003903061151505
1746735748195990000,1.688989990234375,0.00018766429275274277,-0.00004256749525666237,0.0008219103328883648
1746735748205956000,1.6989560546875,0.0001029756385833025,0.0009087137877941132,-0.0003754468634724617
1746735748215922200,1.708922119140625,-0.0005551180802285671,0.001074979081749916,0.0009918655268847942
1746735748225888000,1.718887939453125,-0.0011551282368600368,0.0016502216458320618,0.000590793788433075
1746735748235853800,1.728853759765625,-0.00043052108958363533,-0.00006411457434296608,0.00001171184703707695
1746735748245820200,1.738820068359375,-0.0004057534970343113,0.0008711875416338444,-0.00010520080104470253
1746735748255786000,1.748785888671875,-0.0008712520357221365,-0.0007599359378218651,-0.002055362332612276
1746735748265752000,1.758751953125,-0.000046204542741179466,-0.0016329202335327864,-0.0006180540658533573
1746735748275718000,1.7687177734375,-0.0013879842590540648,-0.0006000888533890247,0.00029729772359132767
1746735748285684200,1.778684326171875,-0.002095852280035615,0.0000662337988615036,-0.001954937819391489
1746735748295650000,1.788650146484375,-0.00023604976013302803,-0.001964584458619356,-0.0007715360261499882
1746735748305616100,1.7986162109375,0.00022680754773318768,0.00043039629235863686,-0.0011912500485777855
1746735748315582000,1.80858203125,-0.001211879076436162,-0.0006426181644201279,-0.00012883171439170837
1746735748325548300,1.81854833984375,0.0012635288294404745,0.0007078708149492741,-0.00040127290412783623
1746735748335514000,1.82851416015625,0.0007430750411003828,-0.0007935147732496262,-0.001625180710107088
1746735748345480200,1.838480224609375,-0.00028676935471594334,-0.00002812221646308899,0.0004944293759763241
1746735748355446000,1.848446044921875,0.0007238611578941345,-0.000710824504494667,-0.0006675682961940765
1746735748365412000,1.858412109375,0.0020559742115437984,-0.0006088251248002052,0.0003039529547095299
1746735748375378200,1.868378173828125,-0.0009381044656038284,-0.00020601367577910423,0.0014977373648434877
1746735748385344000,1.878343994140625,0.0007772373501211405,0.0004030512645840645,-0.0000010896474123001099
1746735748395310000,1.88831005859375,-0.0007054016459733248,0.0010855230502784252,0.0004255985841155052
1746735748405276200,1.898276123046875,-0.00001191464252769947,-0.00009345868602395058,-0.000827152281999588
1746735748415243300,1.9082431640625,-0.0005052054766565561,-0.00042830267921090126,0.00021618511527776718
1746735748425209000,1.918208984375,-0.0009691279847174883,0.001357346773147583,0.0011320458725094795
1746735748435175200,1.928175048828125,-0.00044754985719919205,-0.00038479501381516457,-0.0021899212151765823
1746735748445141000,1.93814111328125,-0.00072079012170434,0.0004109572619199753,0.0010221172124147415
1746735748455107300,1.948107421875,0.00022987066768109798,0.000048813410103321075,-0.001058240421116352
1746735748465073200,1.9580732421875,-0.00008092029020190239,0.001097832340747118,-0.001055310945957899
1746735748475039000,1.9680390625,-0.00019452697597444057,0.00005915900692343712,0.00025572394952178
1746735748485005000,1.978005126953125,-0.0018731171730905771,-0.00033871736377477646,-0.0005490831099450588
1746735748494971100,1.98797119140625,0.00015851203352212906,-0.0012954049743711948,-0.001457949634641409
1746735748504937200,1.997937255859375,-0.00010301056317985058,0.0000684000551700592,0.00071732047945261
1746735748514903000,2.007903076171875,0.00011018035002052784,-0.0007447022944688797,-0.0009360224939882755
1746735748524869000,2.017869140625,0.00097277807071805,0.0002835439518094063,0.0005755876190960407
1746735748534835200,2.027835205078125,0.00014886818826198578,0.00020494917407631874,0.00005787750706076622
1746735748544801000,2.037801025390625,0.0010133301839232445,-0.00012874510139226913,-0.0013991380110383034
1746735748554767000,2.04776708984375,0.00010202731937170029,0.0007449002005159855,0.0011308570392429829
1746735748564733000,2.05773291015625,0.0014668973162770271,0.0003491542302072048,-0.00048115430399775505
1746735748574699300,2.06769921875,0.0012348033487796783,0.0010668965987861156,0.001203687395900488
1746735748584665000,2.0776650390625,-0.0001290016807615757,0.0010202913545072079,0.00024202000349760056
1746735748594631200,2.087631103515625,-0.00017109117470681667,-0.001791780348867178,-0.0018121697939932346
1746735748604597000,2.097596923828125,0.0008558237459510565,0.00030066538602113724,0.00015057995915412903
1746735748614563000,2.10756298828125,-0.000419877702370286,-0.000032700132578611374,-2.8870999813079834e-8
1746735748624529200,2.117529052734375,0.00012314063496887684,-0.0015379185788333416,-0.0006365245208144188
1746735748634495000,2.127494873046875,0.0009501606691628695,0.00007789954543113708,-0.0010571586899459362
1746735748644461000,2.1374609375,-0.0017090055625885725,0.00008295942097902298,-0.0010840562172234058
1746735748654428000,2.147427978515625,0.00036319857463240623,-0.0013365144841372967,-0.0005978592671453953
1746735748664394200,2.157394287109375,-0.0007252355571836233,-0.0002267756499350071,0.00034037232398986816
1746735748674360000,2.167360107421875,0.0010311738587915897,-0.00045445049181580544,-0.0004984354600310326
1746735748684326100,2.177326171875,-0.0012367742601782084,0.0002382379025220871,-0.0015961905010044575
1746735748694292000,2.1872919921875,0.0007658293470740318,-0.00023578712716698647,0.001127057708799839
1746735748704258300,2.19725830078125,-0.00043445732444524765,0.00015756161883473396,-0.0006932131946086884
1746735748714224000,2.20722412109375,0.0006424109451472759,-0.0010402649641036987,0.0018274255562573671
1746735748724190000,2.21718994140625,0.0005172423552721739,0.000021004583686590195,-0.0005366625264286995
1746735748734156000,2.227156005859375,-0.00055732112377882,-0.00226423772983253,0.0003536483272910118
1746735748744122000,2.2371220703125,0.00005014589987695217,-0.000051151029765605927,0.0013866883236914873
1746735748754088200,2.247088134765625,-0.0007668673060834408,-0.00008744979277253151,0.00012804754078388214
1746735748764054000,2.257053955078125,-0.000036362092941999435,0.0012230915017426014,-0.0001433286815881729
1746735748774020000,2.26702001953125,-0.00009827432222664356,-0.00006231293082237244,-0.00015460001304745674
1746735748783986200,2.276986083984375,-0.000027966918423771858,-0.0023528977762907743,-0.0003924202173948288
1746735748793952000,2.286951904296875,0.00025649135932326317,0.00035825371742248535,0.0009498223662376404
1746735748803918000,2.29691796875,0.001495660049840808,-0.00038103992119431496,0.0005010794848203659
1746735748813884000,2.3068837890625,-0.001904292032122612,-0.0005388157442212105,0.00037140073254704475
1746735748823850200,2.316850341796875,0.00026112422347068787,0.0023328708484768867,0.00016979919746518135
1746735748833816000,2.326816162109375,0.00041506136767566204,0.0007680431008338928,-0.0013169213198125362
1746735748843782100,2.3367822265625,0.0006347722373902798,0.00002528773620724678,-0.00008973665535449982
1746735748853748000,2.346748046875,0.0005018021911382675,-0.0003244420513510704,-0.000272638164460659
1746735748863715000,2.356715087890625,-0.00029102060943841934,0.0008611972443759441,0.0007702554576098919
1746735748873681200,2.36668115234375,-0.0015268856659531593,0.00030385470017790794,0.000009645242244005203
1746735748883647200,2.376647216796875,0.0011378731578588486,-0.00010121194645762444,-0.0015485701151192188
1746735748893613000,2.386613037109375,-0.0002898124512284994,0.00044430093839764595,-0.0013391007669270039
1746735748903579000,2.396578857421875,-0.0004647818859666586,-0.00021376600489020348,-0.00007143616676330566
1746735748913545200,2.406545166015625,-0.000550552736967802,0.0006602080538868904,0.0003484669141471386
1746735748923511000,2.416510986328125,0.0009717100765556097,-0.000597070436924696,-0.0014275950379669666
1746735748933477000,2.42647705078125,-0.0007801763713359833,-0.0009975302964448929,-0.00037955306470394135
1746735748943443000,2.43644287109375,-0.00031066127121448517,-0.0011732992716133595,-0.001271978486329317
1746735748953409300,2.4464091796875,-0.001764706103131175,-0.000053388066589832306,-0.0009201420471072197
1746735748963375000,2.456375,-0.0007074314635246992,-0.0000512576662003994,-0.0002897721715271473
1746735748973341000,2.4663408203125,-0.0006635352037847042,0.002124547492712736,-0.0013754265382885933
1746735748983307000,2.47630712890625,-0.00007950374856591225,-0.0009186468087136745,-0.00045530451461672783
1746735748993273000,2.486273193359375,0.0005664504133164883,0.0005501550622284412,-0.00011336291208863258
1746735749003239200,2.4962392578125,0.00012809410691261292,0.0007759910076856613,-0.0015152511186897755
1746735749013205000,2.506205078125,-0.00015879631973803043,-0.0002019437961280346,-0.001153294462710619
1746735749023171000,2.516171142578125,0.0011378969065845013,-0.0005050115287303925,0.00017349235713481903
1746735749033137200,2.52613720703125,-0.0006669033318758011,0.0003577377647161484,-0.0004603876732289791
1746735749043103200,2.536103271484375,-0.0016733119264245033,-0.00023534800857305527,0.001813685754314065
1746735749053069000,2.546069091796875,-0.0008224498014897108,0.0000614020973443985,0.0017489097081124783
1746735749063035100,2.55603515625,-0.00042057898826897144,-0.00020198477432131767,-0.0019310461357235909
1746735749073002000,2.566001953125,-0.00032412982545793056,0.00009324774146080017,0.0014935366343706846
1746735749082968000,2.575968017578125,0.0005808121059089899,-0.00040289899334311485,-0.0007642912678420544
1746735749092934100,2.58593408203125,0.00040711904875934124,-0.0015868737827986479,-0.0020685414783656597
1746735749102900000,2.59589990234375,-0.00043896702118217945,-0.0011125649325549603,-0.00006184959784150124
1746735749112866000,2.605865966796875,-0.0009239204227924347,0.0007560253143310547,-0.00030877720564603806
1746735749122832100,2.61583203125,-0.00020646443590521812,0.00017119525000452995,0.0026475980412214994
1746735749132798200,2.625798095703125,0.0004253231454640627,-0.00059875613078475,-0.001325719989836216
1746735749142764000,2.635763916015625,-0.0012916165869683027,0.0008097896352410316,0.0000455416738986969
1746735749152730000,2.645730224609375,0.0004015723243355751,-0.000634289812296629,0.001559084514155984
1746735749162696200,2.6556962890625,-0.001145191490650177,-0.000366908498108387,-0.0010825050994753838
1746735749172662000,2.665662109375,0.00013608066365122795,0.0006274073384702206,0.0003595682792365551
1746735749182628000,2.675628173828125,0.0009720467496663332,-0.00019577564671635628,-0.0012580356560647488
1746735749192594200,2.68559423828125,-0.00033763074316084385,-0.0009080362506210804,0.00034097349271178246
1746735749202560300,2.695560302734375,0.0021777250804007053,-0.0011192248202860355,-0.0012068557552993298
1746735749212526000,2.705526123046875,0.000029979506507515907,0.00010661827400326729,-0.001077720895409584
1746735749222492200,2.7154921875,-0.001463787630200386,-0.0009754239581525326,0.0011734492145478725
1746735749232458200,2.725458251953125,0.0012978860177099705,-0.00004131533205509186,-0.00029968610033392906
1746735749242424000,2.735424072265625,0.00012289942242205143,-0.0011822134256362915,-0.0010560238733887672
1746735749252390100,2.74539013671875,0.0005583839956671,0.0008446043357253075,-0.0009601591154932976
1746735749262356000,2.75535595703125,0.0004910060670226812,-0.0011029653251171112,0.0006326772272586823
1746735749272322300,2.765322265625,-0.0004297585692256689,-0.0009757382795214653,0.0008019446395337582
1746735749282288000,2.7752880859375,0.0017990409396588802,-0.0006249998696148396,0.0001627863384783268
1746735749292254200,2.785254150390625,0.00039801490493118763,0.0010179267264902592,0.0005832193419337273
1746735749302220300,2.79522021484375,-0.00027230242267251015,0.00036278925836086273,0.00038667814806103706
1746735749312186400,2.805186279296875,0.00014576595276594162,-0.0015849997289478779,-0.0007774611003696918
1746735749322152200,2.815152099609375,0.00013245013542473316,-0.0004608794115483761,0.00002175336703658104
1746735749332118300,2.8251181640625,0.00043306266888976097,-0.000567165669053793,-0.00022492790594696999
1746735749342084000,2.835083984375,0.0008610326331108809,-0.00023080827668309212,0.0006845416501164436
1746735749352050400,2.845050537109375,0.0009091133251786232,0.00012387428432703018,-0.00032395217567682266
1746735749362016300,2.855016357421875,-0.00171250244602561,-0.00040289899334311485,-0.0016763051971793175
1746735749371982300,2.864982421875,-0.0003847610205411911,-0.0005811434239149094,0.0005423193797469139
1746735749381948200,2.8749482421875,0.0008775773458182812,-0.0017875554040074348,-0.001053712796419859
1746735749391914200,2.884914306640625,-0.0006991734262555838,-0.0005131624639034271,-0.0012749438174068928
1746735749401880300,2.89488037109375,-0.00011940323747694492,-0.00015496741980314255,0.0010225651785731316
1746735749411846100,2.90484619140625,-0.0010368723887950182,-0.0005435245111584663,0.0011383602395653725
1746735749421812200,2.914812255859375,0.001241994323208928,-0.0010580471716821194,-0.0006848396733403206
1746735749431778300,2.9247783203125,-0.0015798932872712612,-0.0008312230929732323,0.001036074012517929
1746735749441744400,2.934744384765625,-0.00023339921608567238,-0.00030471617355942726,0.00044911354780197144
1746735749451710200,2.944710205078125,-0.00021999632008373737,-0.00048237061128020287,-0.0009908191859722137
1746735749461676000,2.954676025390625,-0.000014400109648704529,0.0003336220979690552,0.0017812650185078382
1746735749471642400,2.964642333984375,-0.0009903302416205406,-0.0010343887843191624,-0.00034443801268935204
1746735749481608200,2.974608154296875,0.00018332479521632195,-0.00110948970541358,-0.0013034427538514137
1746735749491574300,2.98457421875,0.0014457921497523785,0.00039700092747807503,0.00041833752766251564
1746735749501541000,2.994541015625,-0.0008296128362417221,0.000035875942558050156,0.0007469719275832176
1746735749511507200,3.004507080078125,-0.00016807671636343002,0.00026239920407533646,-0.00018402375280857086
1746735749521473300,3.014473388671875,0.0011475246865302324,-0.001272913534194231,-0.0007073348388075829
1746735749531439400,3.024439453125,-0.0012374164070934057,0.0009251735173165798,-0.0001633395440876484
1746735749541405200,3.0344052734375,-0.0004818777088075876,0.000638351310044527,0.0011946060694754124
1746735749551371300,3.044371337890625,0.00007001194171607494,-0.00041330792009830475,0.00012294063344597816
1746735749561337300,3.05433740234375,0.0015390117187052965,-0.0005376772023737431,-0.00022034067660570145
1746735749571303200,3.06430322265625,0.0005598159041255713,0.0008303010836243629,0.0013596408534795046
1746735749581269200,3.074269287109375,0.00003863545134663582,0.0004492024891078472,0.00040489761158823967
1746735749591235000,3.084235107421875,-0.0015553943812847137,-0.0009982641786336899,-0.0005069924518465996
1746735749601201400,3.094201416015625,-0.0011636433191597462,0.0005612829700112343,0.00002670520916581154
1746735749611167200,3.104167236328125,0.00016509904526174068,-0.0007597729563713074,-0.0005957437679171562
1746735749621133300,3.11413330078125,-0.0004045511595904827,-0.000561100896447897,0.002205102937296033
1746735749631099100,3.12409912109375,0.0006196470931172371,-0.0004565063863992691,-0.0009011160582304001
1746735749641065200,3.134065185546875,0.0013666637241840363,-0.0008738236501812935,-0.0004249424673616886
1746735749651031300,3.14403125,-0.000806913711130619,0.0003180932253599167,0.0008675702847540379
1746735749660997000,3.1539970703125,-0.000562968198210001,-0.00011360505595803261,0.0008619776926934719
1746735749670963200,3.163963134765625,-0.0006483523175120354,-0.0004300372675061226,-0.0006931405514478683
1746735749680929300,3.17392919921875,-0.0001181168481707573,-0.00046945177018642426,0.0017612285446375608
1746735749690895400,3.183895263671875,0.0005590701475739479,-0.0005266442894935608,-0.0007218490354716778
1746735749700861200,3.193861083984375,-0.0005091235507279634,-0.0019256025552749634,-0.00014234520494937897
1746735749710827000,3.203826904296875,0.000007286667823791504,-0.00016419775784015656,0.000757499597966671
1746735749720793300,3.21379345703125,-0.0002739429473876953,-0.0012608873657882214,-0.0015621138736605644
1746735749730759200,3.22375927734375,-0.001168401911854744,0.00018478929996490479,-0.00128945242613554
1746735749740726300,3.233726318359375,0.0008753077127039433,-0.001593669643625617,0.0005316170863807201
1746735749750692000,3.243692138671875,-0.0006234145257622004,0.00044916197657585144,0.0003126799128949642
1746735749760658200,3.253658203125,0.001361439237371087,0.00008537434041500092,0.00045143067836761475
1746735749770624300,3.263624267578125,-0.0009789126925170422,-0.0005586179904639721,-0.0007501551881432533
1746735749780590300,3.27359033203125,-0.0002665175125002861,-0.000521599780768156,0.000467175617814064
1746735749790556200,3.28355615234375,-0.0002952972427010536,-0.00046801986172795296,0.0015859603881835938
1746735749800522200,3.293522216796875,0.00011429702863097191,0.0000925753265619278,-0.000885719433426857
1746735749810488300,3.30348828125,-0.0006438624113798141,0.0006507099606096745,0.0008248505182564259
1746735749820454100,3.3134541015625,0.0004035588353872299,-0.0006462493911385536,-0.00037144171074032784
1746735749830420200,3.323420166015625,0.00010899826884269714,0.0010270047932863235,-0.0008701267652213573
1746735749840386000,3.333385986328125,0.0008067465387284756,-0.00020177755504846573,-0.001722071785479784
1746735749850352400,3.343352294921875,0.0013995831832289696,0.00038900552317500114,-0.00048351986333727837
1746735749860318200,3.353318115234375,-0.0002553050871938467,-0.0013492396101355553,0.000016355421394109726
1746735749870284300,3.3632841796875,0.0000833489466458559,0.00039752479642629623,-0.0015197386965155602
1746735749880250000,3.37325,0.0007392854895442724,0.0008417400531470776,-0.0007775155827403069
1746735749890216200,3.38321630859375,-0.0007602726109325886,0.0009595896117389202,0.0007727728225290775
1746735749900182300,3.393182373046875,0.0010104633402079344,0.00012575369328260422,0.00020179105922579765
1746735749910148000,3.403148193359375,0.0004729481879621744,-0.0012000002898275852,0.00037765735760331154
1746735749920114200,3.4131142578125,0.001370433485135436,0.00008763791993260384,0.00037659192457795143
1746735749930080300,3.423080322265625,-0.0008751624263823032,-0.0001169978640973568,-0.0006537600420415401
1746735749940046300,3.43304638671875,-0.000939877238124609,-0.00001606391742825508,0.0007497258484363556
1746735749950012200,3.44301220703125,-0.00039040367119014263,0.0002998453564941883,0.00031561870127916336
1746735749959978200,3.452978271484375,0.0007736640982329845,0.00027880631387233734,0.0011989893391728401
1746735749969944300,3.4629443359375,0.001649192301556468,-0.0010197870433330536,-0.0007532644085586071
1746735749979910100,3.47291015625,0.000014810357242822647,-0.0007646563462913036,0.002198583446443081
1746735749989876200,3.482876220703125,0.00004217051900923252,-0.0006235344335436821,0.0007694433443248272
1746735749999843000,3.492843017578125,-0.0006758174858987331,0.0005280165933072567,-0.0007948973216116428
1746735750009809200,3.50280908203125,0.0012553601991385221,-0.0015561450272798538,-0.0007028542459011078
1746735750019775200,3.512775146484375,-0.00039739743806421757,0.0017445767298340797,0.0009009013883769512
1746735750029741300,3.5227412109375,-0.0001526176929473877,-0.0005122721195220947,-0.0010717506520450115
1746735750039707100,3.53270703125,0.0015075970441102982,-0.000030506402254104614,-0.0007630903273820877
1746735750049673200,3.542673095703125,0.0009143655188381672,0.0004105055704712868,-0.0008238246664404869
1746735750059639300,3.552639404296875,-0.0010574387852102518,-0.0008640834130346775,-0.0006962595507502556
1746735750069605000,3.562605224609375,0.0019260440021753311,-0.0006281575188040733,0.0008623674511909485
1746735750079571200,3.5725712890625,-0.00015122140757739544,-0.0016502789221704006,-0.0009893281385302544
1746735750089537000,3.582537109375,0.0007617429364472628,0.00006348686292767525,-0.0018058414570987225
1746735750099503400,3.59250341796875,0.000059467507526278496,0.0007346030324697495,0.0002618366852402687
1746735750109469200,3.60246923828125,-0.0007011969573795795,0.001351003535091877,0.00042606424540281296
1746735750119435300,3.612435302734375,-0.0002332795411348343,0.0016348962672054768,0.0010170196183025837
1746735750129401000,3.622401123046875,0.0001611984334886074,0.0005010855384171009,-0.00010286085307598114
1746735750139367400,3.632367431640625,-0.0003479979932308197,0.0005514193326234818,-0.0018000933341681957
1746735750149333200,3.642333251953125,-0.00013570929877460003,-0.00017194682732224464,-0.00008174637332558632
1746735750159299000,3.652299072265625,-0.0013067012187093496,-0.0006782137788832188,0.0006157355383038521
1746735750169265200,3.66226513671875,-0.001070734579116106,0.0008577480912208557,0.0013569302391260862
1746735750179231200,3.672231201171875,0.0008158485870808363,-0.0007153814658522606,0.0005374755710363388
1746735750189197300,3.682197265625,-0.00037685688585042953,0.00006799725815653801,-0.0017278795130550861
1746735750199163100,3.6921630859375,-0.0010517020709812641,-0.0009056543931365013,0.0009941374883055687
1746735750209129200,3.702129150390625,-0.00012569455429911613,0.0016605672426521778,-0.0009022471494972706
1746735750219095300,3.71209521484375,-0.00037230318412184715,-0.0004470585845410824,0.001323622651398182
1746735750229061000,3.72206103515625,-0.0001044832170009613,-0.0013969759456813335,-0.001062110997736454
1746735750239027200,3.732027099609375,-0.00003044726327061653,-0.0015756741631776094,0.00013418123126029968
1746735750248993300,3.7419931640625,-0.0007219954859465361,-0.0008684052154421806,-0.0005967929027974606
1746735750258959400,3.75195947265625,-0.00037072435952723026,-0.0009054229594767094,-0.000025544781237840652
1746735750268926200,3.76192626953125,-0.00003406871110200882,0.0008580056019127369,0.0022012372501194477
1746735750278892300,3.771892333984375,-0.001573375891894102,0.00042976904660463333,0.000524511095136404
1746735750288858600,3.781858642578125,-0.000849768053740263,-0.0002712099812924862,-0.0012105079367756844
1746735750298824400,3.791824462890625,-0.0009536310099065304,-0.000117545947432518,-0.00043153343722224236
1746735750308790800,3.801790771484375,0.0009822119027376175,0.00013960571959614754,-0.000864170491695404
1746735750318756600,3.811756591796875,-0.00009343889541924,-0.0007200627587735653,0.0003020279109477997
1746735750328722700,3.82172265625,0.0006582802161574364,-0.0009742206893861294,-0.00006082514300942421
1746735750338688500,3.8316884765625,-0.00043414835818111897,-0.0013587810099124908,0.00019350694492459297
1746735750348654600,3.841654541015625,-0.00013910559937357903,-0.0005457610823214054,0.0017621936276555061
1746735750358620700,3.85162060546875,-0.0006333882920444012,0.0002742260694503784,0.0016388893127441406
1746735750368586500,3.86158642578125,0.0008947113528847694,-0.0011555538512766361,-0.0013492493890225887
1746735750378552600,3.871552490234375,0.001822024118155241,-0.0004618004895746708,-0.0006752032786607742
1746735750388518700,3.8815185546875,-0.0008156669791787863,-0.0001873113214969635,0.0012883557938039303
1746735750398484700,3.891484619140625,0.00018887757323682308,-0.0002645431086421013,0.0010651829652488232
1746735750408450600,3.901450439453125,0.00014937156811356544,-0.0009317807853221893,-0.0012582102790474892
1746735750418416400,3.91141650390625,0.0003264716360718012,0.0007787677459418774,0.00015219999477267265
1746735750428382700,3.9213828125,-0.0005129468627274036,0.0012289369478821754,-0.00001759454607963562
1746735750438348500,3.9313486328125,0.0010764277540147305,-0.0006989254616200924,0.0005011889152228832
1746735750448314600,3.941314697265625,-0.0006513935513794422,-0.0000020386651158332825,-0.0026189936324954033
1746735750458280400,3.951280517578125,0.0010738023556768894,0.0009284699335694313,-0.0011220304295420647
1746735750468246800,3.961246826171875,0.0013092684093862772,0.00022995704784989357,-0.0004095551557838917
1746735750478212600,3.971212646484375,-0.001026590121909976,0.00046005425974726677,-0.00037386873736977577
1746735750488178400,3.981178466796875,0.0003463707398623228,0.0018020891584455967,-0.0020671882666647434
1746735750498144500,3.99114453125,-0.0009601761121302843,-0.0002698497846722603,-0.0013923430815339088
1746735750508110600,4.001110595703125,-0.00029719085432589054,-0.0017247230280190706,0.00015633134171366692
1746735750518076700,4.01107666015625,-0.00023220968432724476,0.0014287261292338371,0.00020986096933484077
1746735750528042500,4.02104248046875,-0.0013321687001734972,0.0012152628041803837,-0.0022696349769830704
1746735750538008600,4.031008544921875,0.0006774524226784706,-0.0013608131557703018,-0.001008894294500351
1746735750547974700,4.040974609375,-0.0009915870614349842,-0.0010133362375199795,-0.0009043249301612377
1746735750557940700,4.050940673828125,-0.00033831363543868065,-0.00017231004312634468,0.0002821134403347969
1746735750567907600,4.060907470703125,-0.00013940688222646713,0.0001230216585099697,0.00125841423869133
1746735750577873700,4.070873779296875,0.001428395975381136,-0.0007925732061266899,-0.0008044703863561153
1746735750587839500,4.080839599609375,-0.0008936326485127211,0.00014325371012091637,-0.000782388262450695
1746735750597805600,4.0908056640625,0.00013115187175571918,0.000013824086636304855,0.0010306918993592262
1746735750607771600,4.100771728515625,-0.0009126390796154737,-0.0005331616848707199,-0.0002818368375301361
1746735750617737500,4.110737548828125,-0.0005376662593334913,-0.0001888149417936802,0.00027769338339567184
1746735750627703600,4.12070361328125,-0.001826099818572402,0.00005625095218420029,-0.001139551866799593
1746735750637669600,4.130669677734375,-0.0020111894700676203,-0.00031179795041680336,0.0007630102336406708
1746735750647635700,4.1406357421875,-0.0015017322730273008,-0.0008257515728473663,0.000036011915653944016
1746735750657601500,4.1506015625,0.0015222872607409954,0.001240595243871212,0.00045066606253385544
1746735750667567600,4.160567626953125,-0.0002896273508667946,0.0013288259506225586,-0.0006487620994448662
1746735750677533700,4.17053369140625,-0.0001972154714167118,0.00032055284827947617,-0.0008650105446577072
1746735750687499500,4.18049951171875,-0.002210373291745782,-0.00044728023931384087,0.0001249886117875576
1746735750697465600,4.190465576171875,-0.0006188682746142149,0.0003753700293600559,0.00017132749781012535
1746735750707431700,4.200431640625,-0.0014562099240720272,-0.00026655709370970726,0.0003889012150466442
1746735750717397800,4.210397705078125,0.0005811082664877176,-0.0007065110839903355,0.0006506899371743202
1746735750727363600,4.220363525390625,-0.0008200781885534525,-0.0002375156618654728,-0.002194636035710573
1746735750737329700,4.23032958984375,-0.0006437769625335932,-0.00021594436839222908,-0.0007682470604777336
1746735750747295700,4.240295654296875,-0.00034408969804644585,-0.0005590184591710567,-0.0005279257893562317
1746735750757261600,4.250261474609375,0.001282036304473877,-0.0002072150819003582,0.0004228227771818638
1746735750767227600,4.2602275390625,-0.0008118606638163328,0.0022011143155395985,-0.0004882263019680977
1746735750777193500,4.270193359375,0.0007463546935468912,-0.0002444665879011154,-0.00047783972695469856
1746735750787159800,4.280159912109375,-0.0003872120287269354,-0.000057023484259843826,0.0010472070425748825
1746735750797125600,4.290125732421875,-0.0007201067637652159,0.0003858604468405247,-0.0011341883800923824
1746735750807091700,4.300091796875,-0.0013430379331111908,0.0007872218266129494,0.00017536897212266922
1746735750817057500,4.3100576171875,0.00019307341426610947,-0.0013944399543106556,0.00030320044606924057
1746735750827023600,4.320023681640625,-0.0004388007801026106,0.00009175390005111694,0.00016335537657141685
1746735750836989700,4.32998974609375,-0.0016010042745620012,-0.00012396182864904404,-0.0004387851804494858
1746735750846955500,4.33995556640625,-0.0015758974477648735,0.0005012862384319305,-0.0007531219162046909
1746735750856921600,4.349921630859375,-0.0000938482116907835,-0.0000023175962269306183,-0.0010716360993683338
1746735750866887700,4.3598876953125,0.000007569091394543648,0.001877922099083662,0.00015605660155415535
1746735750876853800,4.369853759765625,-0.0022353450767695904,0.00012556230649352074,0.00008681416511535645
1746735750886820600,4.379820556640625,-0.0015031988732516766,-0.0007407893426716328,-0.0014654123224318027
1746735750896786700,4.38978662109375,-0.000587870366871357,-0.0008840677328407764,-0.0013112155720591545
1746735750906752500,4.39975244140625,-0.0009001158177852631,-0.0008137151598930359,0.001281648175790906
1746735750916718800,4.40971875,-0.0007991823367774487,0.0006339792162179947,-0.0007468815892934799
1746735750926684700,4.4196845703125,0.0003786508459597826,0.0007844911888241768,-0.0012298417277634144
1746735750936650500,4.429650390625,0.0005381742957979441,-0.0002887630835175514,-0.00011743931099772453
1746735750946616600,4.439616455078125,0.0016355146653950214,-0.00006947526708245277,0.00019333837553858757
1746735750956582700,4.449582763671875,-0.0013845101930201054,0.0011494536884129047,-0.0008697956800460815
1746735750966548700,4.459548828125,-0.0011127465404570103,0.0009304448030889034,0.0009031775407493114
1746735750976514600,4.4695146484375,-0.00004774820990860462,-0.0012118020094931126,0.00025869254022836685
1746735750986480600,4.479480712890625,-0.0003934113774448633,-0.0013816729187965393,-0.0007329853251576424
1746735750996446700,4.48944677734375,-0.002118873642757535,0.00018053734675049782,-0.0013092933222651482
1746735751006412500,4.49941259765625,-0.0016030562110245228,-0.00040282588452100754,-0.00008083740249276161
1746735751016378600,4.509378662109375,-0.00017427001148462296,0.000509040430188179,-0.0007958961650729179
1746735751026344400,4.519344482421875,0.00055921939201653,0.000028514303267002106,-0.0008434448391199112
1746735751036310800,4.529310791015625,-0.001731898169964552,0.00025887787342071533,0.0013067915569990873
1746735751046276600,4.539276611328125,-0.0002638646401464939,-0.0017242878675460815,0.0004903259687125683
1746735751056242700,4.54924267578125,0.00027169729582965374,-0.0006182771176099777,-0.001244456972926855
1746735751066208500,4.55920849609375,-0.00034231552854180336,-0.00043748971074819565,-0.00005385419353842735
1746735751076174600,4.569174560546875,-0.00019903713837265968,0.0002607908099889755,-0.0011638598516583443
1746735751086140700,4.579140625,-0.00031359540298581123,0.0014681029133498669,-0.0004281485453248024
1746735751096106500,4.5891064453125,-0.0010425029322504997,0.0009083067998290062,-0.00029632216319441795
1746735751106072600,4.599072509765625,-0.000050559407100081444,0.000301925465464592,0.0014846224803477526
1746735751116038700,4.60903857421875,0.0015057919081300497,0.0010034018196165562,-0.0012435195967555046
1746735751126004700,4.619004638671875,-0.00016384758055210114,-0.00008350750431418419,-0.0003286730498075485
1746735751135970600,4.628970458984375,-0.0015241899527609348,0.0006874776445329189,-0.0019223084673285484
1746735751145936400,4.638936279296875,-0.000120905926451087,0.00011524604633450508,0.00026806769892573357
1746735751155902700,4.64890283203125,0.0008777794428169727,-0.00029727770015597343,-0.0018350309692323208
1746735751165868500,4.65886865234375,-0.0019316284451633692,0.0006293132901191711,-0.0017326809465885162
1746735751175834600,4.668834716796875,-0.0005371973384171724,-0.00006816862151026726,0.0008327425457537174
1746735751185800400,4.678800537109375,0.001224942272529006,0.0007212655618786812,0.0012544463388621807
1746735751195766800,4.688766845703125,-0.0006240904331207275,-0.00023134704679250717,-0.0003727450966835022
1746735751205732600,4.698732666015625,0.0011744990479201078,0.0017384057864546776,-0.0002416609786450863
1746735751215698700,4.70869873046875,-0.000006879214197397232,0.001334137748926878,0.0003455663099884987
1746735751225665500,4.71866552734375,0.0007746927440166473,0.0005330108106136322,0.0008524334989488125
1746735751235630600,4.728630615234375,0.0005278177559375763,0.0006145033985376358,-0.0020706518553197384
1746735751245597700,4.73859765625,0.0013271414209157228,0.00046057580038905144,0.0007660496048629284
1746735751255563500,4.7485634765625,-0.00009658443741500378,-0.0006121452897787094,0.00013541290536522865
1746735751265529600,4.758529541015625,-0.0008032491896301508,-0.0002969014458358288,-0.00111288670450449
1746735751275495400,4.768495361328125,-0.0007097723428159952,0.00011908402666449547,0.0007430701516568661
1746735751285461200,4.778461181640625,-0.001567228464409709,-0.00007325736805796623,-0.000044543761759996414
1746735751295427300,4.78842724609375,-0.0016481888014823198,0.0008106455206871033,0.00013521965593099594
1746735751305393200,4.79839306640625,0.000326650682836771,-0.0014719476457685232,-0.002345029264688492
1746735751315359200,4.808359130859375,0.0005149361677467823,0.00027535250410437584,-0.00021130451932549477
1746735751325325300,4.8183251953125,0.0008503817953169346,0.0003900006413459778,-0.0002692248672246933
1746735751335291400,4.82829150390625,-0.0006718810182064772,-0.0006241309456527233,-0.001118240412324667
1746735751345257200,4.83825732421875,-0.0020115086808800697,-0.0006088768132030964,0.00014101434499025345
1746735751355223300,4.848223388671875,0.001165642635896802,-0.0014997043181210756,-0.0011080079711973667
1746735751365189400,4.858189453125,-0.0004703251179307699,0.000632094219326973,0.0006203306838870049
1746735751375155200,4.8681552734375,0.00023514637723565102,-0.0005247825756669044,-0.000021224841475486755
1746735751385121300,4.878121337890625,0.0011714242864400148,-0.00010032812133431435,-0.0012882635928690434
1746735751395087400,4.88808740234375,-0.0013351431116461754,-0.0012348350137472153,-0.0009798691608011723
1746735751405053400,4.898053466796875,-0.0000329453032463789,-0.0006596343591809273,0.0010402346961200237
1746735751415019300,4.908019287109375,0.00018436857499182224,0.0006607607938349247,0.00014061853289604187
1746735751424985000,4.917985107421875,-0.00025929813273251057,-0.0003288327716290951,0.00036138342693448067
1746735751434951400,4.927951416015625,-0.00026222760789096355,-0.00020393077284097672,0.00033368635922670364
1746735751444917200,4.937917236328125,-0.00015517906285822392,-0.00001335982233285904,0.00028026383370161057
1746735751454883300,4.94788330078125,0.0009684085380285978,-0.0010461336933076382,-0.000046772416681051254
1746735751464849200,4.95784912109375,-0.0008395842742174864,0.0003267331048846245,0.0008343006484210491
1746735751474815500,4.9678154296875,-0.0005913774948567152,-0.0012192316353321075,0.00039381347596645355
1746735751484781300,4.97778125,-0.00028548063710331917,0.0005000540986657143,-0.0018662270158529282
1746735751494747100,4.9877470703125,-0.0005603190511465073,-0.0010853256098926067,-0.001363155897706747
1746735751504713200,4.997713134765625,0.00019449880346655846,0.00007355818524956703,-0.0007667937316000462
1746735751514679300,5.00767919921875,0.0011167514603585005,-0.00035414518788456917,0.00021964125335216522
1746735751524645400,5.017645263671875,0.0012350061442703009,-0.00018331967294216156,-0.00012305518612265587
1746735751534611200,5.027611083984375,-0.0008068396709859371,-0.0006557642482221127,-0.00011719623580574989
1746735751544577300,5.037577392578125,0.0007084980607032776,-0.0007536821067333221,-0.00008956948295235634
1746735751554543400,5.04754345703125,-0.0011666335631161928,0.0009502083994448185,-0.0000709271989762783
1746735751564509200,5.05750927734375,0.0013580424711108208,-0.00006424076855182648,-0.000010600313544273376
1746735751574475300,5.067475341796875,0.0006336627993732691,-0.0004860851913690567,-0.0014207442291080952
1746735751584441000,5.077441162109375,-0.000029502902179956436,-0.0009455066174268723,0.0006648292765021324
1746735751594407400,5.087407470703125,0.0002980658318847418,0.0012241709046065807,0.0008810777217149734
1746735751604374300,5.097374267578125,-0.0004123218823224306,-0.0007374444976449013,-0.0003353394567966461
1746735751614340400,5.10734033203125,0.00006491667591035366,0.0007504639215767384,-0.0016472125425934792
1746735751624306200,5.11730615234375,-0.0016462700441479683,0.0013526822440326214,-0.000777161680161953
1746735751634272300,5.127272216796875,-0.0021645212545990944,0.0007358938455581665,0.0002622697502374649
1746735751644238300,5.13723828125,-0.00043309060856699944,-0.0003963196650147438,0.0003089592792093754
1746735751654204400,5.147204345703125,0.000044147949665784836,0.0000324491411447525,0.001011235173791647
1746735751664170200,5.157170166015625,-0.0012140711769461632,0.0008506886661052704,0.0005006338469684124
1746735751674136000,5.167135986328125,-0.0011717267334461212,-0.0008755726739764214,-0.0017025992274284363
1746735751684102400,5.177102294921875,-0.001417519524693489,-0.000597064383327961,-0.00019085360690951347
1746735751694068200,5.187068115234375,-0.0006446703337132931,-0.00083168875426054,-0.000007894355803728104
1746735751704034300,5.197034423828125,0.0005617961287498474,-0.00015647290274500847,0.00040791044011712074
1746735751714000100,5.207000244140625,0.0004667213652282953,0.00031197723001241684,0.00007714610546827316
1746735751723966500,5.216966552734375,0.0003222571685910225,0.00012681446969509125,-0.0003445739857852459
1746735751733932300,5.226932373046875,0.0009148104581981897,0.0004144357517361641,-0.0010870634578168392
1746735751743898000,5.236898193359375,0.002569116186350584,-0.0012942152097821236,0.0003660013899207115
1746735751753864200,5.2468642578125,-0.0007752813398838043,-0.0005706343799829483,-0.00048594409599900246
1746735751763830300,5.256830322265625,-0.0008049735333770514,0.00031967833638191223,-0.000931532122194767
1746735751773796400,5.26679638671875,-0.0010531803127378225,0.00003179023042321205,0.0005728877149522305
1746735751783762200,5.27676220703125,0.0007588453590869904,0.0012758639641106129,0.000837401021271944
1746735751793728300,5.286728271484375,-0.0012222803197801113,0.0003312407061457634,0.001093064434826374
1746735751803694300,5.2966943359375,-0.0003294427879154682,-0.0001627509482204914,-0.0008013066835701466
1746735751813660400,5.306660400390625,-0.0010255929082632065,0.0023083961568772793,0.00024158740416169167
1746735751823626200,5.316626220703125,0.0011818429920822382,-0.0006957505829632282,0.000814155675470829
1746735751833592000,5.326592041015625,0.0006396232638508081,-0.0013487576507031918,0.000022664200514554977
1746735751843558400,5.336558349609375,0.0017359755001962185,0.0011732769198715687,-0.0007063224911689758
1746735751853524200,5.346524169921875,0.0006099911406636238,-0.0013713734224438667,0.0007917056791484356
1746735751863490300,5.356490234375,0.00046152458526194096,0.0013929931446909904,0.00029801251366734505
1746735751873456000,5.3664560546875,0.000434626592323184,0.0008502406999468803,-0.0006426158361136913
1746735751883422500,5.37642236328125,-0.0009953849948942661,-0.0005442537367343903,-0.0002479138784110546
1746735751893388300,5.38638818359375,-0.0014830096624791622,-0.000001768115907907486,0.0010658237151801586
1746735751903354000,5.39635400390625,0.0006602306384593248,0.000053849536925554276,-0.0002537798136472702
1746735751913320200,5.4063203125,-0.0006327340379357338,0.0005537252873182297,-0.0009446037001907825
1746735751923286300,5.416286376953125,-0.0003247437998652458,0.0007181926630437374,0.001088086050003767
1746735751933252400,5.42625244140625,-0.0017636497505009174,-0.0020826540421694517,0.0007559899240732193
1746735751943218200,5.43621826171875,-0.00005017220973968506,0.0008181948214769363,-0.00010641245171427727
1746735751953184300,5.446184326171875,-0.00011355569586157799,0.0007577412761747837,0.0007870779372751713
1746735751963150300,5.456150390625,-0.00018338533118367195,-0.0001720278523862362,-0.0007699336856603622
1746735751973116200,5.4661162109375,0.00037774257361888885,0.00015101348981261253,0.00005138525739312172
1746735751983082200,5.476082275390625,0.0003046488855034113,0.00001619197428226471,-0.0001085861586034298
1746735751993049300,5.48604931640625,0.0000812094658613205,0.001258024014532566,0.001815281342715025
1746735752003015200,5.49601513671875,0.0008816577028483152,-0.000548983458429575,-0.0012981109321117401
1746735752012981200,5.505981201171875,-0.00012128893285989761,0.0013748840428888798,-0.0017705559730529785
1746735752022947300,5.515947265625,-0.00024830223992466927,-0.0005389801226556301,-0.00036816298961639404
1746735752032913200,5.5259130859375,-0.0023814942687749863,0.00009059114381670952,-0.0003575100563466549
1746735752042879200,5.535879150390625,0.000433401670306921,0.00004818988963961601,-0.0013930350542068481
1746735752052845300,5.54584521484375,0.00028932467103004456,-0.00007751164957880974,-0.0020686788484454155
1746735752062811400,5.555811279296875,-0.00003866152837872505,-0.00032030558213591576,0.00032330863177776337
1746735752072777200,5.565777099609375,0.00019729463383555412,-0.0003514643758535385,-0.00004500662907958031
1746735752082743000,5.575742919921875,0.0009708183351904154,0.0009372751228511333,-0.0005858787335455418
1746735752092709400,5.58570947265625,-0.0008174944669008255,0.0005945260636508465,-0.0012535331770777702
1746735752102675200,5.59567529296875,0.0009275737684220076,-0.0004892437718808651,-0.0006768517196178436
1746735752112641300,5.605641357421875,0.0018951001111418009,0.0014953436329960823,0.0010131904855370522
1746735752122607000,5.615607177734375,0.00042881956323981285,0.001093860249966383,0.0008549927733838558
1746735752132573400,5.625573486328125,0.0008091188501566648,-0.0009668935090303421,-0.0006044195033609867
1746735752142539300,5.635539306640625,-0.0005012936890125275,-0.00015948479995131493,0.0017525192815810442
1746735752152505000,5.645505126953125,0.0010396114084869623,0.00041788816452026367,0.0007170825265347958
1746735752162471200,5.65547119140625,-0.0002554235979914665,0.0004166876897215843,-0.00016038212925195694
1746735752172437200,5.665437255859375,-0.0005635512061417103,0.0000672810710966587,0.00048703234642744064
1746735752182403300,5.6754033203125,0.0010833402629941702,0.0005599353462457657,-0.002249902579933405
1746735752192369200,5.685369140625,-0.0006335997022688389,0.0007887012325227261,-0.00019846949726343155
1746735752202335200,5.695335205078125,0.00002986961044371128,-0.0005643619224429131,-0.001071303617209196
1746735752212301300,5.70530126953125,0.0009470623917877674,-0.00021815113723278046,-0.000020952429622411728
1746735752222267400,5.715267333984375,-0.0012149368412792683,0.001151970587670803,0.00041542574763298035
1746735752232233200,5.725233154296875,-0.00015100417658686638,-0.0015231745783239603,-0.00014277268201112747
1746735752242199300,5.73519921875,-0.00113999517634511,0.0015262467786669731,0.0010219751857221127
1746735752252165400,5.745165283203125,-0.0006041671149432659,0.00009559653699398041,0.0002629742957651615
1746735752262131200,5.755131103515625,-0.0010261754505336285,0.00047408323734998703,-0.0001279306598007679
1746735752272097300,5.76509716796875,0.0009701303206384182,0.0002628946676850319,-0.00021980935707688332
1746735752282063400,5.7750634765625,0.0007474564481526613,-0.0006707264110445976,-0.0006087319925427437
1746735752292030200,5.7850302734375,0.0007778163999319077,0.0006920131854712963,0.001305015292018652
1746735752301996000,5.79499609375,0.0002391529269516468,0.0003344421274960041,-0.00013001961633563042
1746735752311962000,5.804962158203125,0.0014476955402642488,0.0005866433493793011,-0.00023761112242937088
1746735752321928000,5.814927978515625,-0.00012416532263159752,-0.00015894509851932526,-0.00006976956501603127
1746735752331894300,5.824894287109375,-0.000478631816804409,0.0006812824867665768,-0.0004982724785804749
1746735752341860000,5.834860107421875,-0.0005172295495867729,-0.0006593763828277588,0.0006869081407785416
1746735752351826200,5.844826171875,-0.0001148260198533535,0.0004604831337928772,0.0002512149512767792
1746735752361792000,5.8547919921875,-0.00019674794748425484,-0.0004438464529812336,-0.0010596825741231441
1746735752371758300,5.86475830078125,0.0004144473932683468,0.0009268824942409992,0.0006985361687839031
1746735752381724200,5.87472412109375,0.0011151747312396765,0.0019401665776968002,-0.00014492543414235115
1746735752391691300,5.884691162109375,0.0005311435088515282,-0.000022849533706903458,0.0018407274037599564
1746735752401657000,5.894656982421875,0.00007576844654977322,0.0007757022976875305,0.0008091484196484089
1746735752411623000,5.904622802734375,-0.0009199874475598335,-0.0007359078153967857,-0.00005611265078186989
1746735752421589200,5.91458935546875,-0.000268545001745224,0.0007079350762069225,-0.00045522022992372513
1746735752431555000,5.92455517578125,-0.000010484829545021057,0.0009787785820662975,-0.0007700058631598949
1746735752441521200,5.934521240234375,-0.0012526442296802998,0.0003042262978851795,0.00006174994632601738
1746735752451487000,5.944487060546875,-0.0011024419218301773,0.000047497451305389404,0.0007773414254188538
1746735752461453300,5.954453369140625,-0.00009543215855956078,-0.0005461527034640312,-0.0008471878245472908
1746735752471419100,5.964419189453125,-0.00003444543108344078,0.0008112606592476368,0.0015086443163454533
1746735752481385000,5.974385009765625,-0.00039301253855228424,-0.0003185020759701729,-0.0012278943322598934
1746735752491351000,5.98435107421875,-0.0005770367570221424,-0.00005777878686785698,0.0013423222117125988
1746735752501317000,5.994317138671875,-0.00160280242562294,-0.0011083236895501614,-0.0029517761431634426
1746735752511283200,6.004283203125,-0.0007852115668356419,-0.000380747951567173,0.0012698667123913765
1746735752521249000,6.0142490234375,-0.00044608348980546,0.000939349178224802,0.00012086564674973488
1746735752531215000,6.024215087890625,0.00040133437141776085,0.0011326950043439865,-0.0005702245980501175
1746735752541181200,6.03418115234375,-0.0005832742899656296,0.0006746542640030384,-0.0005239136517047882
1746735752551147300,6.044147216796875,-0.00028073880821466446,-0.0006321589462459087,-0.0005058040842413902
1746735752561113000,6.054113037109375,-0.00015800818800926208,-0.0007799300365149975,0.00014983909204602242
1746735752571079000,6.064078857421875,0.0003437311388552189,-0.0008539659902453423,0.0007168264128267765
1746735752581045200,6.074045166015625,-0.00046026241034269333,0.00018263747915625572,-0.00035990914329886436
1746735752591011000,6.084010986328125,0.00005905400030314922,-0.00021896697580814362,0.000848633237183094
1746735752600977200,6.09397705078125,0.0008023730479180813,0.000909474678337574,-0.0004839673638343811
1746735752610943000,6.10394287109375,-0.0004948526620864868,0.00019894307479262352,0.0012052757665514946
1746735752620909300,6.113909423828125,0.0010255388915538788,0.0009475029073655605,0.00006070174276828766
1746735752630875100,6.123875244140625,0.0011206136550754309,0.0007525593973696232,-0.0008911122567951679
1746735752640841000,6.133841064453125,-0.0008893217891454697,0.00011429563164710999,0.0002477685920894146
1746735752650807000,6.14380712890625,-0.0007686805911362171,0.0021236506290733814,0.0005843918770551682
1746735752660773000,6.153773193359375,-0.0001692569348961115,0.0013203355483710766,0.0022089467383921146
1746735752670739200,6.1637392578125,-0.0011274621356278658,-0.000636022537946701,-0.00004701688885688782
1746735752680705000,6.173705078125,-0.00023856223560869694,-0.0007793228141963482,-0.00003146333619952202
1746735752690671000,6.183671142578125,0.00013108435086905956,0.00032908469438552856,-0.0016578556969761848
1746735752700637200,6.19363720703125,-0.000005165114998817444,-0.0004946044646203518,0.0005178214050829411
1746735752710603000,6.20360302734375,-0.0010153017938137054,-0.0009369552135467529,0.0004898584447801113
1746735752720569000,6.213569091796875,0.0032906036358326674,-0.00003383588045835495,0.0006568185053765774
1746735752730535000,6.223534912109375,0.0016423731576651335,-0.0014554313383996487,0.0008504302240908146
1746735752740501200,6.233501220703125,0.0009607246611267328,-0.0001688934862613678,0.0011150608770549297
1746735752750467000,6.243467041015625,0.00005018990486860275,0.000927529763430357,0.0038514588959515095
1746735752760433200,6.25343310546875,0.00007726089097559452,0.001241916324943304,0.0021251828875392675
1746735752770399000,6.26339892578125,-0.0008417961653321981,-0.0001586400903761387,0.0006111757829785347
1746735752780365000,6.273364990234375,0.0010886357631534338,0.0010924674570560455,0.002754594897851348
1746735752790331100,6.2833310546875,-0.0007529400754719973,0.00047860853374004364,-0.00009019393473863602
1746735752800297000,6.293296875,-0.0004062608350068331,-0.0016431754920631647,-0.0003752829506993294
1746735752810263000,6.303262939453125,0.0012800528202205896,0.0013286462053656578,0.002684689126908779
1746735752820230000,6.31322998046875,-0.0004496593028306961,0.0005002222023904324,-0.0004382575862109661
1746735752830195200,6.3231953125,-0.0001777508296072483,0.0005510887131094933,0.001147388480603695
1746735752840162000,6.333162109375,0.0007000304758548737,0.0010093138553202152,-0.0002524568699300289
1746735752850128100,6.343128173828125,-0.00013886508531868458,0.000003970693796873093,0.0008223950862884521
1746735752860094000,6.353093994140625,0.00163368065841496,-0.00010420149192214012,-0.0009975996799767017
1746735752870060300,6.363060302734375,0.0016086469404399395,0.000402065459638834,0.001230667345225811
1746735752880026000,6.373026123046875,-0.0000031297095119953156,-0.00008777342736721039,-0.00120964040979743
1746735752889992000,6.382991943359375,0.00043362868018448353,0.0020171888172626495,0.0004487098194658756
1746735752899958000,6.3929580078125,-0.0003209887072443962,-0.001002478413283825,0.00020454591140151024
1746735752909924000,6.402924072265625,0.00021617067977786064,-0.00009513925760984421,0.0012319933157414198
1746735752919890200,6.41289013671875,0.0013093447778373957,0.00021975813433527946,0.00032276054844260216
1746735752929856000,6.42285595703125,-0.0011839065700769424,0.00028367387130856514,-0.0011664791963994503
1746735752939822000,6.432822021484375,0.00041636149398982525,-0.00036308635026216507,-0.000038755591958761215
1746735752949788200,6.4427880859375,0.00025923503562808037,0.0002568974159657955,-0.00045873597264289856
1746735752959754000,6.45275390625,-0.0010309582576155663,-0.0008309916593134403,-0.0009500160813331604
1746735752969720000,6.462719970703125,-0.0004929997958242893,-0.0010046297684311867,-0.00027543725445866585
1746735752979686100,6.47268603515625,-0.0003091010730713606,0.0003071441315114498,-0.00014993362128734589
1746735752989652200,6.48265234375,0.0007058298215270042,0.00006319861859083176,-0.0010114661417901516
1746735752999618000,6.4926181640625,-0.0008212609682232141,0.0018065557815134525,-0.0016831541433930397
1746735753009584000,6.502584228515625,0.0005542619619518518,-0.00032131001353263855,0.00003032386302947998
1746735753019550200,6.51255029296875,-0.00014953268691897392,-0.00008095987141132355,-0.00007292162626981735
1746735753029516300,6.522516357421875,-0.0009335670620203018,-0.0002537989057600498,0.00039845751598477364
1746735753039482000,6.532482177734375,-0.0011203424073755741,0.00006662821397185326,-0.0010084486566483974
1746735753049448000,6.542447998046875,0.00037555512972176075,-0.0006548222154378891,0.0007156818173825741
1746735753059414300,6.552414306640625,-0.00046648597344756126,-0.00012155994772911072,0.0003057783469557762
1746735753069380000,6.562380126953125,-0.0015804865397512913,-0.00034872768446803093,0.00022188900038599968
1746735753079346200,6.57234619140625,0.0002865374553948641,-0.0003283340483903885,-0.0012300638481974602
1746735753089312000,6.58231201171875,-0.0009899158030748367,0.0013153692707419395,-0.0008628140203654766
1746735753099278300,6.5922783203125,0.0006248315330594778,-0.0009037149138748646,-0.0005767634138464928
1746735753109244200,6.602244140625,-0.0002047428861260414,0.0002683419734239578,-0.00004785927012562752
1746735753119210000,6.6122099609375,0.000984823564067483,-0.00038395868614315987,-0.0013467203825712204
1746735753129176000,6.622176025390625,-0.00043251062743365765,0.0012261886149644852,0.0007582423277199268
1746735753139142100,6.63214208984375,0.0006986272055655718,0.0002806573174893856,-0.001497027464210987
1746735753149108200,6.642108154296875,-0.0009123189374804497,-0.0010623745620250702,-0.00019154604524374008
1746735753159074000,6.652073974609375,0.00035039568319916725,-0.00014359783381223679,0.0004780399613082409
1746735753169040100,6.6620400390625,0.00037010316736996174,0.00042791664600372314,-0.0011345036327838898
1746735753179006200,6.672006103515625,-0.00021826988086104393,-0.0004375362768769264,-0.00045648496598005295
1746735753188972000,6.681971923828125,0.001381490845233202,0.001051437109708786,-0.0011720764450728893
1746735753198938000,6.691938232421875,0.0018988533411175013,-0.0011810371652245522,-0.0020730658434331417
1746735753208904000,6.701904052734375,0.0004357127472758293,0.0012227324768900871,-0.0020909090526401997
1746735753218870300,6.711870361328125,-0.0011193091049790382,0.0002668793313205242,0.00007045455276966095
1746735753228836000,6.721836181640625,0.0007046898826956749,-0.0003064991906285286,-0.001782040111720562
1746735753238802200,6.73180224609375,-0.0009337584488093853,-0.0008813007734715939,-0.0014222157187759876
1746735753248768000,6.74176806640625,-0.00005518179386854172,-0.000261582899838686,-0.001851517241448164
1746735753258734000,6.751734130859375,-0.00008568866178393364,-0.0009651049040257931,-0.0016301516443490982
1746735753268701200,6.761701171875,0.00045093847438693047,-0.00018107052892446518,-0.0033851750195026398
1746735753278667300,6.771667236328125,-0.00006131548434495926,-0.00028381170704960823,-0.00006161769852042198
1746735753288632600,6.781632568359375,-0.0010115313343703747,0.000974798109382391,-0.0016469978727400303
1746735753298598400,6.791598388671875,-0.00070790178142488,0.0019322172738611698,0.0011641732417047024
1746735753308564700,6.801564697265625,0.0020125170703977346,0.0013782796449959278,0.0008850740268826485
1746735753318530600,6.811530517578125,0.001553103793412447,0.0007308651693165302,-0.0014281119219958782
1746735753328496600,6.82149658203125,-0.00006050523370504379,-0.0010180328972637653,-0.0020891083404421806
1746735753338462500,6.83146240234375,-0.0008240197785198689,0.0006665419787168503,-0.00006527826189994812
1746735753348428800,6.8414287109375,-0.0022048689424991608,-0.00014146137982606888,0.0018106524366885424
1746735753358394600,6.85139453125,0.0004255915991961956,0.0006064292974770069,-0.0000010230578482151031
1746735753368360700,6.861360595703125,-0.0016583316028118134,0.0002642129547894001,-0.0019813496619462967
1746735753378326500,6.871326416015625,-0.001009128987789154,0.0008274181745946407,0.0012409526389092207
1746735753388292600,6.881292724609375,0.0007283170707523823,0.00029292190447449684,-0.0012618862092494965
1746735753398258700,6.8912587890625,0.0005737210158258677,0.0008379346691071987,0.00008382974192500114
1746735753408224500,6.901224609375,-0.0011653229594230652,-0.0012598372995853424,-0.000407257117331028
1746735753418190600,6.911190673828125,0.001549519831314683,-0.0007925876416265965,-0.0011982624419033527
1746735753428156700,6.92115673828125,0.0002767951227724552,0.00013898639008402824,-0.0022185193374753
1746735753438122800,6.931122802734375,-0.00036472221836447716,0.0009492575190961361,0.0009002303704619408
1746735753448088600,6.941088623046875,-0.000670186709612608,0.00022674212232232094,0.00046959705650806427
1746735753458054700,6.9510546875,0.001989693846553564,0.00046830717474222183,0.000993506982922554
1746735753468020700,6.961020751953125,0.001185419037938118,-0.0011034905910491943,-0.0012067966163158417
1746735753477986600,6.970986572265625,-0.0005093237850815058,0.0008231820538640022,0.001554710790514946
1746735753487952600,6.98095263671875,-0.000953006325289607,0.0007715169340372086,0.0007986393757164478
1746735753497918700,6.990918701171875,-0.0013592871837317944,0.00019703153520822525,0.0010521691292524338
1746735753507884800,7.000884765625,0.0008940130937844515,-5.75091689825058e-7,-0.0011409437283873558
1746735753517850600,7.0108505859375,-0.0008853988256305456,0.000640427228063345,-0.0008706706576049328
1746735753527816400,7.02081640625,-0.001248653745278716,-0.0011012800969183445,-0.00013404060155153275
1746735753537782800,7.03078271484375,0.00011520017869770527,0.0012375270016491413,-0.0005795545876026154
1746735753547748600,7.04074853515625,0.00012398860417306423,0.0004867818206548691,-0.001208593137562275
1746735753557714700,7.050714599609375,0.000754169188439846,0.0002115825191140175,-0.00043328478932380676
1746735753567680500,7.060680419921875,0.0003421781584620476,0.0013210554607212543,-0.001139288768172264
1746735753577646800,7.070646728515625,-0.00017040804959833622,0.0005258200690150261,0.0005881623364984989
1746735753587612700,7.08061279296875,-0.0000399129930883646,0.0007351445965468884,-0.002023865934461355
1746735753597578800,7.090578857421875,0.00004061451181769371,0.001083646435290575,0.0008996673859655857
1746735753607544600,7.100544677734375,-0.0021013657096773386,0.00246689235791564,0.000503122340887785
1746735753617510700,7.1105107421875,0.0016030489932745695,0.00044841086491942406,0.00045314477756619453
1746735753627476700,7.120476806640625,-0.0016787643544375896,0.00007743248715996742,-0.0006267670542001724
1746735753637442600,7.130442626953125,-0.001147041330114007,0.0003140387125313282,0.001458943821489811
1746735753647408600,7.14040869140625,-0.0008775291498750448,-0.0008202018216252327,0.00003362027928233147
1746735753657374700,7.150374755859375,-0.000152933644130826,0.00020770402625203133,0.00012492062523961067
1746735753667340800,7.1603408203125,0.00031738076359033585,0.00015017995610833168,-0.0005275537259876728
1746735753677306600,7.170306640625,-0.0003718275111168623,-0.001299566589295864,-0.0017545409500598907
1746735753687272400,7.1802724609375,0.0013347261119633913,0.0005140462890267372,-0.0020040790550410748
1746735753697238800,7.19023876953125,-0.0000014468096196651459,0.000670221634209156,-0.000021488871425390244
1746735753707204600,7.20020458984375,-0.0001732204109430313,0.0002470454201102257,-0.0012196451425552368
1746735753717170700,7.210170654296875,-0.0005536903627216816,0.0014632833190262318,0.0005418374203145504
1746735753727136500,7.220136474609375,-0.0010538320057094097,-0.0000011888332664966583,-0.0013665836304426193
1746735753737102800,7.230102783203125,-0.0005584314931184053,0.0009683701209723949,-0.0029881573282182217
1746735753747068700,7.240068603515625,-0.00014697271399199963,0.0015790332108736038,-0.0014134305529296398
1746735753757034500,7.250034423828125,0.00030707404948771,0.0004947767592966557,0.0018987881485372782
1746735753767001600,7.260001708984375,-0.0008740376215428114,0.0008604289032518864,0.0001541515812277794
1746735753776967700,7.2699677734375,-0.0009090695530176163,-0.0011856178753077984,-0.0026516299694776535
1746735753786933800,7.279933837890625,-0.0008598011918365955,-0.0005424642004072666,-0.003145913127809763
1746735753796899600,7.289899658203125,-0.0008422599639743567,-0.0004003094509243965,-0.0011920002289116383
1746735753806865700,7.29986572265625,-0.00001987605355679989,-0.0017619833815842867,-0.0008982536382973194
1746735753816831500,7.30983154296875,0.001197396544739604,-0.0006331782788038254,-0.0024317936040461063
1746735753826797800,7.3197978515625,-0.0007174161728471518,-0.0015295983757823706,-0.0024472400546073914
1746735753836763600,7.329763671875,-0.00023481762036681175,-0.0008102837018668652,-0.001771652139723301
1746735753846729700,7.339729736328125,0.001274661859497428,-0.0004459633491933346,-0.0024877763353288174
1746735753856695600,7.349695556640625,0.0001969197764992714,-0.0014441106468439102,-0.002274205908179283
1746735753866661600,7.35966162109375,0.00043314206413924694,-0.00008616456761956215,-0.004191948100924492
1746735753876627700,7.369627685546875,-0.0019260621629655361,-0.0015586279332637787,-0.0035585109144449234
1746735753886593500,7.379593505859375,-0.00015905452892184258,-0.0017128249164670706,-0.002758496440947056
1746735753896559600,7.3895595703125,0.00008908170275390148,0.00007680058479309082,0.001629726029932499
1746735753906525700,7.399525634765625,0.0002834924962371588,-0.0008087004534900188,-0.0011886972934007645
1746735753916491800,7.40949169921875,0.001709707546979189,-0.001129385083913803,-0.0017369640991091728
1746735753926457600,7.41945751953125,0.00016534049063920975,0.0005508032627403736,-0.0026488304138183594
1746735753936423400,7.42942333984375,-0.0013373980764299631,-0.00015060463920235634,0.0000698859803378582
1746735753946389800,7.4393896484375,-0.000868149334564805,0.0006478107534348965,-0.0021240264177322388
1746735753956355600,7.44935546875,-0.00029357336461544037,-0.0005003982223570347,-0.0019335472024977207
1746735753966321700,7.45932177734375,0.0009163008071482182,0.00031745852902531624,-0.0008882563561201096
1746735753976287500,7.46928759765625,0.000012802425771951675,0.00041504204273223877,-0.0011083385907113552
1746735753986253800,7.47925390625,0.00204798998311162,0.0009769690223038197,-0.00121300108730793
1746735753996219600,7.4892197265625,0.0001997295767068863,0.00029916735365986824,0.001401963410899043
1746735754006185500,7.499185546875,0.001754749333485961,-0.00015170592814683914,-0.002672672737389803
1746735754016151600,7.509151611328125,0.001180529361590743,-0.0001625996083021164,-0.0010084370151162148
1746735754026117600,7.51911767578125,0.0002058125101029873,-0.0004153335466980934,0.0004046359099447727
1746735754036083700,7.529083740234375,0.000042084138840436935,0.00011668587103486061,-0.0008321204222738743
1746735754046049500,7.539049560546875,-0.0004953416064381599,0.0011726291850209236,-0.0009682080708444118
1746735754056015600,7.549015625,0.001450805924832821,-0.0006499942392110825,0.000019161030650138855
1746735754065981700,7.558981689453125,0.000995671609416604,0.00022485433146357536,-0.0001158611848950386
1746735754075947800,7.56894775390625,-0.0003143560606986284,-0.000490803737193346,-0.0010535968467593193
1746735754085913600,7.57891357421875,0.0015285515692085028,0.0005616773851215839,-0.0004250910133123398
1746735754095879700,7.588879638671875,0.0001483915839344263,0.00017364509403705597,-0.001242093276232481
1746735754105845800,7.598845703125,-0.0009416399989277124,-0.000622906256467104,0.0003329003229737282
1746735754115811600,7.6088115234375,-0.0008677623700350523,-0.00043515395373106003,-0.0008090334013104439
1746735754125777700,7.618777587890625,-0.000010224292054772377,-0.00031744223088026047,-0.0004910524003207684
1746735754135743700,7.62874365234375,0.0011691099498420954,0.001319337636232376,0.0001300252042710781
1746735754145709800,7.638709716796875,-0.000029312213882803917,0.00035660481080412865,-0.0012857113033533096
1746735754155675600,7.648675537109375,0.0016970268916338682,-0.00005764514207839966,-0.0016627991572022438
1746735754165641500,7.658641357421875,0.00009486940689384937,0.0003769826143980026,0.0013937109615653753
1746735754175607800,7.66860791015625,-0.0004781938623636961,0.0008763177320361137,-0.00044423481449484825
1746735754185573600,7.67857373046875,0.001360985217615962,0.0008169291540980339,-0.0018370677717030048
1746735754195539700,7.688539794921875,-0.003062908072024584,0.0004886197857558727,-0.0007139644585549831
1746735754205505500,7.698505615234375,-0.001737719401717186,0.00037703337147831917,-0.001308648381382227
1746735754215471900,7.708471923828125,0.0010185670107603073,-0.0009081349708139896,-0.002636235672980547
1746735754225437700,7.718437744140625,-0.0005436430219560862,-0.0020615500397980213,-0.0004433891735970974
1746735754235403500,7.728403564453125,0.0003036642447113991,-0.001036777626723051,-0.0002753818407654762
1746735754245369600,7.73836962890625,-0.00015013827942311764,-0.00017924001440405846,-0.0009273234754800797
1746735754255336700,7.748336669921875,-0.00023478991352021694,0.00039303768426179886,-0.00025403499603271484
1746735754265302800,7.758302734375,0.00025017140433192253,0.000625798013061285,0.0002463730052113533
1746735754275268600,7.7682685546875,0.0006370944902300835,0.0013791886158287525,-0.0002625538036227226
1746735754285234700,7.778234619140625,0.00026265415363013744,0.0011384389363229275,-0.0012412657961249352
1746735754295200500,7.788200439453125,0.000891723670065403,-0.0002700984477996826,-0.0014439839869737625
1746735754305166600,7.79816650390625,-0.0009503846522420645,0.0014668148942291737,0.0006106449291110039
1746735754315132700,7.808132568359375,0.000068234046921134,0.0013517537154257298,0.00013786368072032928
1746735754325098500,7.818098388671875,-0.001428196206688881,-0.0004653208889067173,-0.0005574878305196762
1746735754335064300,7.828064208984375,-0.0002939971163868904,-0.00046511320397257805,-0.002156895585358143
1746735754345030700,7.83803076171875,0.0012514351401478052,-0.00005205674096941948,0.0003302306868135929
1746735754354996500,7.84799658203125,-0.0011664063204079866,0.0009327614679932594,-0.00011789146810770035
1746735754364962600,7.857962646484375,-0.000029502669349312782,-0.00009042490273714066,0.0013654893264174461
1746735754374928400,7.867928466796875,0.00019207061268389225,-0.0007678484544157982,-0.0009018774144351482
1746735754384894700,7.877894775390625,0.00003973790444433689,0.0004332372918725014,-0.0016060173511505127
1746735754394860500,7.887860595703125,-0.0006367077585309744,-0.0006740917451679707,-0.0010320222936570644
1746735754404826600,7.89782666015625,0.0023178032133728266,0.0011123567819595337,-0.0004349416121840477
1746735754414792400,7.90779248046875,0.0017517625819891691,-0.00040409062057733536,-0.001029247883707285
1746735754424758500,7.917758544921875,0.00037677260115742683,-0.00006107520312070847,-0.0016513625159859657
1746735754434724600,7.927724609375,0.00005379575304687023,0.00012659048661589622,-0.0015994817949831486
1746735754444690400,7.9376904296875,-0.0001922803930938244,0.0005082213319838047,0.000864208210259676
1746735754454656500,7.947656494140625,-0.0014551596250385046,-0.0011795740574598312,-0.0013151122257113457
1746735754464622600,7.95762255859375,-0.0002069359179586172,0.00025373930111527443,0.0005640145391225815
1746735754474588700,7.967588623046875,-0.00006017647683620453,-0.0010867845267057419,-0.0008392864838242531
1746735754484554500,7.977554443359375,0.00042638322338461876,-0.0007704012095928192,-0.0025612865574657917
1746735754494520300,7.987520263671875,0.00009836815297603607,-0.00019095651805400848,0.0012321341782808304
1746735754504486700,7.997486572265625,-0.00013732141815125942,-0.0006785811856389046,-0.0004496523179113865
1746735754514452500,8.007452392578125,0.0010136037599295378,0.0004378054291009903,-0.0009151478298008442
1746735754524418600,8.01741845703125,0.0005419577937573195,-0.0003401036374270916,0.00039965473115444183
1746735754534384400,8.02738427734375,-0.00008231913670897484,0.0006342250853776932,-0.0023427950218319893
1746735754544350700,8.037350830078125,-0.00048445630818605423,-0.0005764481611549854,-0.0015078936703503132
1746735754554316500,8.047316650390625,-0.0008662922773510218,-0.0010935389436781406,-0.0009032394737005234
1746735754564282400,8.057282470703125,-0.0006753432098776102,-0.0009710337035357952,-0.0007303999736905098
1746735754574248400,8.06724853515625,-0.00024038692936301231,-0.00031425803899765015,-0.0008553792722523212
1746735754584214500,8.077214599609375,0.00025389576330780983,0.0012823068536818027,-0.0006452561356127262
1746735754594180600,8.0871806640625,0.0007640779949724674,0.0001994050107896328,-0.0018002870492637157
1746735754604146400,8.097146484375,0.00007831398397684097,0.0014960980042815208,-0.0001392732374370098
1746735754614112500,8.107112548828125,0.00002252776175737381,-0.000019469764083623886,-0.0019639693200588226
1746735754624078600,8.11707861328125,0.0007599571254104376,-0.0003952416591346264,0.00024938350543379784
1746735754634044400,8.12704443359375,-0.0009859898127615452,-0.000496571883559227,-0.000958319753408432
1746735754644010500,8.137010498046875,0.0009035228285938501,-0.0005447752773761749,0.0008302591741085052
1746735754653976300,8.146976318359375,0.001069708727300167,0.00019914284348487854,-0.000741422176361084
1746735754663942700,8.156942626953125,0.0010284297168254852,-0.0008480125106871128,-0.0010711215436458588
1746735754673908500,8.166908447265625,0.00021686311811208725,0.0011776955798268318,-0.00017152167856693268
1746735754683874600,8.17687451171875,0.0010232683271169662,0.000041857361793518066,0.00037043169140815735
1746735754693840400,8.18684033203125,-0.000989388208836317,-0.00016961758956313133,-0.00041907886043190956
1746735754703806700,8.196806640625,-0.0005390476435422897,-0.00032940739765763283,0.0022621918469667435
1746735754713772500,8.2067724609375,-0.00002103741280734539,0.00021942565217614174,-0.0009147254750132561
1746735754723738400,8.21673828125,-0.0009808407630771399,0.00005830451846122742,0.001118863932788372
1746735754733704400,8.226704345703125,0.000547108706086874,-0.0010945345275104046,0.00002888636663556099
1746735754743670500,8.23667041015625,-0.00001295376569032669,0.0017779506742954254,-0.0012627467513084412
1746735754753636600,8.24663671875,0.0015755989588797092,0.0017299889586865902,-0.00004965066909790039
1746735754763603500,8.256603515625,-0.0007504059467464685,0.000940361525863409,-0.0007964009419083595
1746735754773569500,8.266569580078125,0.0004424992948770523,0.00021706568077206612,-0.00019689509645104408
1746735754783535400,8.276535400390625,0.000229712575674057,0.00029562925919890404,-0.0010773357935249805
1746735754793501700,8.286501708984375,0.0009990900289267302,0.00006063096225261688,-0.0019972072914242744
1746735754803467500,8.296467529296875,-0.0021612832788378,0.0006294823251664639,-0.00044165458530187607
1746735754813433300,8.306433349609375,-0.00019694585353136063,-0.0007943054661154747,-0.00024728477001190186
1746735754823399400,8.3163994140625,0.00030772294849157333,0.0013921498320996761,0.0018550145905464888
1746735754833365500,8.326365478515624,0.0008197147399187088,-0.0011210194788873196,-0.002036875579506159
1746735754843331600,8.33633154296875,-0.0000910863745957613,0.00017620669677853584,0.0005021821707487106
1746735754853297400,8.34629736328125,0.00027395482175052166,0.0002476973459124565,0.001076861284673214
1746735754863263500,8.356263427734374,0.0011607874184846878,0.0004969695582985878,-0.00002488819882273674
1746735754873229600,8.3662294921875,-0.0014114498626440763,-0.00022940617054700851,0.00016812514513731003
1746735754883195600,8.376195556640624,0.0012623637448996305,0.00005901418626308441,0.0004488225094974041
1746735754893161500,8.386161376953124,-0.00010999804362654686,-0.00008484581485390663,-0.002045614179223776
1746735754903127600,8.39612744140625,0.0002679044846445322,-0.00018418161198496819,0.0010684197768568993
1746735754913093600,8.40609375,-0.00003580236807465553,0.0007902830839157104,0.0009412867948412895
1746735754923059500,8.4160595703125,0.00032132724300026894,-0.00023583276197314262,-0.0011034882627427578
1746735754933025500,8.426025634765624,-0.0005431214813143015,0.0006985003128647804,-0.0019559497013688087
1746735754942991600,8.43599169921875,0.0005754062440246344,0.0007365834899246693,0.0018869917839765549
1746735754952957700,8.445957763671874,0.0009067775681614876,-0.00020005088299512863,-0.0005807788111269474
1746735754962923500,8.455923583984376,-0.00038512214086949825,-0.0007872777059674263,-0.001197566743940115
1746735754972889300,8.465889404296876,0.0002580038271844387,0.0016626184806227684,-0.0008991272188723087
1746735754982855700,8.475855712890626,0.0009373761713504791,0.0006412961520254612,0.0005733347497880459
1746735754992821500,8.485821533203126,0.0007147903088480234,-0.0004998729564249516,0.0007350994274020195
1746735755002787600,8.49578759765625,-0.000122773926705122,-0.000692686066031456,-0.0022646854631602764
1746735755012753400,8.50575341796875,0.001037391135469079,-0.00045413244515657425,0.000703408382833004
1746735755022719700,8.5157197265625,-0.0019006079528480768,0.0005211168900132179,-0.0007669227197766304
1746735755032685600,8.525685546875,0.0017677978612482548,-0.00007372582331299782,-0.000851667020469904
1746735755042651400,8.5356513671875,0.0009129231330007315,0.0005771508440375328,-0.00011263974010944366
1746735755052617500,8.545617431640625,-0.0005610683001577854,-0.0011336496099829674,-0.00214772904291749
1746735755062583600,8.55558349609375,0.0017537514213472605,-0.0006396332755684853,0.001026758924126625
1746735755072549600,8.565549560546875,0.0006542012561112642,-0.0009552929550409317,0.0006287130527198315
1746735755082515500,8.575515380859375,-0.0008648657239973545,0.00005297968164086342,0.0006798454560339451
1746735755092481500,8.5854814453125,0.00033124559558928013,0.00016537262126803398,0.0008136522956192493
1746735755102447600,8.595447509765625,-0.00011083902791142464,-0.00020054588094353676,-0.0007727923803031445
1746735755112413400,8.605413330078125,-0.0007858662866055965,0.00029508722946047783,0.0012569776736199856
1746735755122379500,8.615379638671875,0.00026501715183258057,-0.00008254870772361755,-0.0012402688153088093
1746735755132345300,8.625345458984375,-0.00007313769310712814,-0.0005151755176484585,-0.00012935558333992958
1746735755142311700,8.635311767578125,-0.0014641066081821918,-0.000052850693464279175,-0.0003466694615781307
1746735755152277500,8.645277587890625,0.0002941153943538666,-0.0005652615800499916,-0.0005498877726495266
1746735755162243600,8.65524365234375,-0.0014614402316510677,-0.00010560033842921257,0.00004745926707983017
1746735755172209400,8.66520947265625,0.00024128425866365433,-0.000007698778063058853,-0.003294244408607483
1746735755182175700,8.67517578125,-0.0007086652331054211,-0.00023646419867873192,-0.000011898111552000046
1746735755192141600,8.6851416015625,-0.0001891590654850006,0.00013121869415044785,0.0008931206539273262
1746735755202107400,8.695107421875,0.0013027437962591648,-0.000959878321737051,-0.0012848125770688057
1746735755212073500,8.705073486328125,-0.00003960262984037399,-0.0008597997948527336,-0.0011819466017186642
1746735755222039600,8.71503955078125,-0.000012970995157957077,0.000524511095136404,0.0002423119731247425
1746735755232005600,8.725005615234375,0.00047515262849628925,0.0003837607800960541,0.00017775874584913254
1746735755241971500,8.734971435546875,-0.00017412612214684486,-0.00039548007771372795,-0.0007764515466988087
1746735755251937500,8.7449375,-0.0007129721343517303,-0.0002220766618847847,-0.0012528910301625729
1746735755261903600,8.754903564453125,-0.0006868732161819935,0.0007366612553596497,0.0022201372776180506
1746735755271869400,8.764869384765625,0.00011071143671870232,0.00047907838597893715,-0.0022362354211509228
1746735755281836500,8.77483642578125,-0.00024721724912524223,0.00001701992005109787,0.0004982985556125641
1746735755291802600,8.784802734375,-0.00141147430986166,0.0010140505619347095,0.001475825672969222
1746735755301768700,8.794768798828125,-0.0014074798673391342,-0.00020674243569374084,-0.001016360241919756
1746735755311734800,8.80473486328125,-0.000056195538491010666,0.00040589459240436554,0.00028293486684560776
1746735755321700900,8.814700927734375,-0.000039150938391685486,0.0012469207867980003,-0.00008484767749905586
1746735755331666700,8.824666748046875,-0.0010092519223690033,0.0007500741630792618,0.00035792822018265724
1746735755341632800,8.8346328125,0.0006786596495658159,0.0004723062738776207,0.00019813887774944305
1746735755351598800,8.844598876953125,0.0027618613094091415,-0.00024255085736513138,0.0011915499344468117
1746735755361564700,8.854564697265625,-0.00035483622923493385,0.0013255183584988117,0.00004745554178953171
1746735755371530800,8.86453076171875,-0.0014296481385827065,-0.00041700806468725204,-0.0015227231197059155
1746735755381496600,8.87449658203125,-0.0009233811870217323,0.00036995625123381615,-0.0006532007828354836
1746735755391463000,8.884462890625,-0.0002696709707379341,0.0005078311078250408,-0.00026273075491189957
1746735755401428700,8.8944287109375,0.0007199598476290703,-3.3527612686157227e-8,0.000384417362511158
1746735755411394800,8.904394775390625,-0.0007584667764604092,0.000012040138244628906,0.0008179596625268459
1746735755421360600,8.914360595703124,-0.0009901616722345352,0.0009550657123327255,0.0007990514859557152
1746735755431326700,8.92432666015625,0.00016087526455521584,-0.0005659894086420536,-0.00031535979360342026
1746735755441292800,8.934292724609374,0.0007065569516271353,0.0001051267609000206,0.0008516372181475163
1746735755451258600,8.944258544921874,-0.0010732775554060936,-0.000172534491866827,-0.00002959277480840683
1746735755461224700,8.954224609375,0.00011182925663888454,-0.0006734752096235752,-0.002402735408395529
1746735755471190800,8.964190673828124,0.000751221552491188,-0.00025697890669107437,-0.0003126002848148346
1746735755481156900,8.974156982421874,0.00028996216133236885,-0.001984571572393179,0.00018141604959964752
1746735755491122700,8.984122802734374,0.00043563381768763065,0.0006301328539848328,-0.00021921982988715172
1746735755501088500,8.994088623046874,0.00003988808020949364,-0.0008505848236382008,0.000858294777572155
1746735755511054800,9.004054931640624,-0.00023606233298778534,0.0006512170657515526,0.00005668913945555687
1746735755521020700,9.014020751953124,0.0010707506444305182,-0.00009659864008426666,0.0003035641275346279
1746735755530986800,9.02398681640625,0.00100059830583632,0.000962916761636734,-0.0005251816473901272
1746735755540952600,9.03395263671875,0.0006858126726001501,0.0001176297664642334,-0.0015598195604979992
1746735755550919000,9.0439189453125,-0.0016430611722171307,0.0008036750368773937,-0.00020431866869330406
1746735755560884700,9.053884765625,-0.0009232088923454285,0.00024813972413539886,-0.00006263842806220055
1746735755570850800,9.063850830078126,-0.00047110486775636673,0.0007831607945263386,-0.0010116719640791416
1746735755580816600,9.073816650390626,0.0012309213634580374,-0.00021765520796179771,-0.0020766700617969036
1746735755590782700,9.08378271484375,-0.0002886829897761345,-0.00010079704225063324,0.001386887626722455
1746735755600748800,9.093748779296876,-0.0007491437718272209,0.000409731175750494,0.0001887315884232521
1746735755610714600,9.103714599609376,-0.00004179030656814575,-0.0007921899668872356,0.000914416741579771
1746735755620680700,9.1136806640625,-0.0004170294851064682,-0.00016714632511138916,-0.0005447296425700188
1746735755630646800,9.123646728515626,0.0006312346085906029,-0.001195085234940052,0.0006992463022470474
1746735755640612900,9.13361279296875,0.0013963608071208,0.0004709884524345398,-0.0006512426771223545
1746735755650578700,9.14357861328125,0.0003122393973171711,0.0007472597062587738,-0.00009706756100058556
1746735755660544500,9.15354443359375,0.0007639115210622549,0.0002290084958076477,-0.00035246461629867554
1746735755670510800,9.1635107421875,-0.0007749819196760654,0.00011016335338354111,0.00045378226786851883
1746735755680476700,9.1734765625,0.00017363578081130981,-0.0005867858417332172,-0.0013837991282343864
1746735755690442800,9.18344287109375,-0.0001656981185078621,0.00007067760452628136,-0.0004858491010963917
1746735755700408600,9.19340869140625,-0.0012139184400439262,-0.00003265310078859329,-0.00027093198150396347
1746735755710375000,9.203375,0.0009951768442988396,0.0007366989739239216,0.00010998314246535301
1746735755720340700,9.2133408203125,0.0011009043082594872,-0.00015945453196763992,0.0002942737191915512
1746735755730306600,9.223306640625,0.0018929741345345974,-0.00029469002038240433,-0.0011693714186549187
1746735755740272600,9.233272705078125,0.0002559290733188391,0.0005266289226710796,-0.001541148405522108
1746735755750238700,9.24323876953125,0.00026257080025970936,0.0003955862484872341,-0.0010265512391924858
1746735755760204800,9.253204833984375,0.0012476739939302206,-0.002204990480095148,0.00004883343353867531
1746735755770170600,9.263170654296875,0.00044209673069417477,-0.0009183608926832676,0.0012328270822763443
1746735755780136700,9.27313671875,0.0012245334219187498,0.0006214790046215057,-0.001879076473414898
1746735755790102800,9.283102783203125,0.00032567279413342476,0.00019296584650874138,-0.00004732562229037285
1746735755800068600,9.293068603515625,0.0019616526551544666,0.00042785657569766045,0.000799825880676508
1746735755810034700,9.30303466796875,-0.0002729743719100952,-0.00016015488654375076,-0.0006177839823067188
1746735755820000800,9.313000732421875,-0.0010053436271846294,-0.0007023741491138935,-0.00034640775993466377
1746735755829967600,9.322967529296875,-0.00009223399683833122,-0.00006479769945144653,0.0003000558353960514
1746735755839932700,9.3329326171875,-0.001234197523444891,-0.0006150067783892155,0.00021403562277555466
1746735755849899800,9.342899658203125,0.0008393505122512579,0.00007760664448142052,-0.0019190269522368908
1746735755859865600,9.352865478515625,0.0012121929321438074,0.0009548519738018513,0.0015010046772658825
1746735755869831700,9.362831787109375,0.0008062578272074461,-0.00021657440811395645,0.0010974896140396595
1746735755879797800,9.3727978515625,-0.00002784421667456627,0.00018076924607157707,0.0005978806875646114
1746735755889763800,9.382763916015625,0.0000322714913636446,0.0023428136482834816,0.00045523839071393013
1746735755899729700,9.392729736328125,-0.0009051612578332424,0.000399238895624876,0.001267502550035715
1746735755909695700,9.40269580078125,-0.0009720860980451107,-0.001096284482628107,0.00008673872798681259
1746735755919661800,9.412661865234375,-0.001474092248827219,-0.00014819903299212456,-0.00020008394494652748
1746735755929627600,9.422627685546875,0.0003926432691514492,0.001001062337309122,0.0007482348009943962
1746735755939593700,9.43259375,0.0008741426281630993,-0.0001544831320643425,0.0002584792673587799
1746735755949559800,9.442559814453125,-0.0009502191096544266,-0.0000340132974088192,0.0005156854167580605
1746735755959526000,9.45252587890625,0.0008591325022280216,0.0005854382179677486,-0.0006332020275294781
1746735755969491700,9.46249169921875,-0.0007951934821903706,-0.00042975228279829025,-0.00021616602316498756
1746735755979457500,9.47245751953125,0.0014487863518297672,-0.00015810970216989517,0.0010578902438282967
1746735755989423900,9.482423828125,0.0009233437012881041,0.0005384953692555428,-0.0001527918502688408
1746735755999389700,9.4923896484375,-0.0009246240369975567,0.0004593995399773121,-0.0010947519913315773
1746735756009355800,9.502355712890624,-0.000917511060833931,-0.0002792123705148697,0.0005560172721743584
1746735756019321600,9.512321533203124,-0.000011770054697990417,0.0006225337274372578,0.0010289945639669895
1746735756029288000,9.522287841796874,0.00043404032476246357,0.00029916083440184593,0.0010708137415349483
1746735756039253800,9.532253662109374,-0.00005012238398194313,0.0003356458619236946,0.0012108958326280117
1746735756049219800,9.5422197265625,0.00010934751480817795,0.0002524605952203274,0.0005705039948225021
1746735756059185700,9.552185546875,-0.0020960159599781036,-0.0005539446137845516,0.00019073719158768654
1746735756069151700,9.56215185546875,-0.0009907055646181107,0.0007322379387915134,0.0006539006717503071
1746735756079117800,9.572117919921874,-0.00043170806020498276,-0.000534361694008112,-0.00041376054286956787
1746735756089083600,9.582083740234374,0.00012409081682562828,0.0002968013286590576,0.0008053714409470558
1746735756099049700,9.5920498046875,0.001535832416266203,-0.00035061314702033997,0.00017100665718317032
1746735756109015800,9.602015869140626,0.00017192494124174118,0.0005624177865684032,-0.0005799122154712677
1746735756118982000,9.61198193359375,0.0005125431343913078,0.0003064880147576332,-0.0011261263862252235
1746735756128947700,9.62194775390625,0.0009641631040722132,-0.000222052913159132,-0.00005098292604088783
1746735756138913500,9.63191357421875,-0.0005160216242074966,-0.0005552144721150398,-0.00014312798157334328
1746735756148880000,9.6418798828125,-0.00014046905562281609,-0.000010790303349494934,0.0018990726675838232
1746735756158845700,9.651845703125,0.0005977591499686241,0.00014287419617176056,0.00010703178122639656
1746735756168811800,9.661811767578126,0.0002098800614476204,-0.0006172163411974907,-0.00040680961683392525
1746735756178777600,9.671777587890626,0.00007379241287708282,-0.0006126887165009975,-0.0013138819485902786
1746735756188744000,9.681743896484376,-0.001898095477372408,-0.0011008856818079948,0.0013309321366250515
1746735756198709800,9.691709716796876,0.0004827706143260002,0.0011904980055987835,-0.001473909243941307
1746735756208675600,9.701675537109375,-0.0009850217029452324,0.001003962941467762,0.00003157183527946472
1746735756218641700,9.7116416015625,-0.000783952884376049,0.0007368479855358601,0.0008275904692709446
1746735756228607700,9.721607666015625,-0.0009482186287641525,-0.00007806951180100441,0.0006834832020103931
1746735756238573800,9.73157373046875,0.0022909839171916246,0.00029424065724015236,0.00021503306925296783
1746735756248539600,9.74153955078125,0.00023763347417116165,-0.00040984246879816055,0.00007494399324059486
1746735756258505700,9.751505615234375,0.00034895376302301884,-0.000538473017513752,0.0010379431769251823
1746735756268471800,9.761471923828125,-0.0006829272024333477,-0.0011346968822181225,0.0008731628768146038
1746735756278437600,9.771437744140625,-0.00038918061181902885,-0.001008995808660984,0.0014095236547291279
1746735756288403700,9.78140380859375,-0.0007304241880774498,0.0006310688331723213,0.0007549677975475788
1746735756298369800,9.791369873046875,0.00045681302435696125,-0.0005037044174969196,-0.000038920436054468155
1746735756308335900,9.8013359375,-0.00010532746091485023,0.0012569762766361237,0.002850854769349098
1746735756318301700,9.8113017578125,0.00046538817696273327,0.000025530345737934113,0.0001330990344285965
1746735756328267800,9.821267822265625,-0.00013956939801573753,0.00036452990025281906,-0.0005157091654837132
1746735756338233600,9.831233642578125,-0.0009046955965459347,-0.00021284352988004684,0.0006712619215250015
1746735756348200000,9.841199951171875,0.0007379814051091671,0.0009600161574780941,0.0005250745452940464
1746735756358165800,9.851165771484375,0.0005078841932117939,0.00018530245870351791,0.0008659595623612404
1746735756368131800,9.8611318359375,0.0004079591017216444,-0.00030410662293434143,0.00020446209236979485
1746735756378097700,9.87109765625,0.0007387239020317793,-0.0015022624284029007,0.0005669184029102325
1746735756388064800,9.881064697265625,0.00039058877155184746,-0.00017922883853316307,0.0012771496549248695
1746735756398030800,9.89103076171875,-0.00028079445473849773,0.00015153596177697182,0.0011969883926212788
1746735756407996700,9.90099658203125,0.0013852720148861408,0.00109472731128335,-0.0006903461180627346
1746735756417962800,9.910962646484375,0.001195921329781413,-0.0006451155059039593,-0.000039735808968544006
1746735756427928600,9.920928466796875,0.0006665338296443224,-0.00009462051093578339,-0.001199894119054079
1746735756437895000,9.93089501953125,-0.001152937998995185,0.0007227035239338875,0.0009165201336145401
1746735756447860700,9.94086083984375,0.001207937952131033,0.00044481270015239716,0.0016385938506573439
1746735756457826800,9.950826904296875,0.0021051568910479546,0.0008442867547273636,-0.001223771832883358
1746735756467792600,9.960792724609375,-0.0014449120499193668,-0.00021171802654862404,-0.0015782215632498264
1746735756477759000,9.970759033203125,0.001972455997020006,-0.0005499394610524178,-0.00016008829697966576
1746735756487724800,9.980724853515625,-0.00017991522327065468,-0.00016209948807954788,-0.0018568150699138641
1746735756497690600,9.990690673828125,0.0011759002227336168,0.0005497634410858154,0.0006484203040599823
1746735756507656700,10.00065673828125,0.001499054254963994,-0.0007853759452700615,-0.0005668574012815952
1746735756517622800,10.010622802734375,-0.0012112448457628489,0.0002764263190329075,-0.0006427578628063202
1746735756527588900,10.0205888671875,0.00019501731730997562,-0.0000818176195025444,-0.0001310957595705986
1746735756537554700,10.0305546875,-0.0007373550906777382,0.0005813096649944782,-0.0001870221458375454
1746735756547520800,10.040520751953125,0.000682526733726263,-0.0003384617157280445,-0.0006251409649848938
1746735756557486800,10.05048681640625,0.000411150511354208,-0.0004625651054084301,-0.0009369971230626106
1746735756567452700,10.06045263671875,-0.0007010838016867638,0.0003340877592563629,-0.00027702003717422485
1746735756577418800,10.070418701171874,-0.0006102700717747211,0.0006440798752009869,0.0009285933338105679
1746735756587384600,10.080384521484374,0.0004190737381577492,-0.00044365227222442627,-0.00026052119210362434
1746735756597351000,10.090350830078124,0.0003298576921224594,-0.0014580502174794674,0.0009826426394283772
1746735756607316700,10.100316650390624,-0.0006287998985499144,0.00013322243466973305,-0.00034974701702594757
1746735756617282800,10.11028271484375,0.00090251793153584,0.0008277748711407185,-0.0015601539053022861
1746735756627248600,10.12024853515625,0.0003290819004178047,-0.0005091330967843533,-0.0008790199644863605
1746735756637214700,10.130214599609374,0.00037781777791678905,-0.0006145942024886608,0.0004072869196534157
1746735756647180800,10.140180908203124,0.0006525563076138496,0.000026901252567768097,0.00011552544310688972
1746735756657146600,10.150146728515624,0.0006275225896388292,0.00007696868851780891,-0.0002187010832130909
1746735756667112700,10.16011279296875,-0.0002799967769533396,-0.0006814724765717983,0.0004732995294034481
1746735756677078800,10.170078857421874,-0.0007646919693797827,0.00013611791655421257,-0.00007850769907236099
1746735756687044900,10.180044921875,0.0011920370161533356,0.0004900870844721794,-0.0015726033598184586
1746735756697010700,10.1900107421875,-0.0017486256547272205,-0.000776778906583786,0.001266060397028923
1746735756706976800,10.199976806640626,-0.00018570991232991219,-0.0019847447983920574,0.001186454202979803
1746735756716942800,10.20994287109375,-0.0005018273368477821,0.0001772092655301094,0.0007824525237083435
1746735756726908700,10.21990869140625,-0.0003811472561210394,-0.00009857118129730225,0.0003873775713145733
1746735756736874800,10.229874755859376,-0.000026680761948227882,0.00028625549748539925,0.0014640935696661472
1746735756746840800,10.2398408203125,-0.0000822714064270258,0.00014765234664082527,-0.0002540517598390579
1746735756756807000,10.249806884765626,0.0010437129531055689,-0.00027099670842289925,-0.0001794835552573204
1746735756766772700,10.259772705078126,0.0001153701450675726,0.0006143045611679554,-0.00026508746668696404
1746735756776738800,10.26973876953125,0.001101272413507104,-0.0007644142024219036,0.0008132266812026501
1746735756786705000,10.279704833984376,0.0016161375679075718,-0.0012243585661053658,0.00027640489861369133
1746735756796670700,10.289670654296875,-0.0008733852300792933,0.00022892840206623077,0.00043939054012298584
1746735756806636800,10.29963671875,-0.0002212377730756998,0.0007815458811819553,-0.0002553733065724373
1746735756816602600,10.3096025390625,0.000224309042096138,-0.0007223412394523621,-0.0004431260749697685
1746735756826569000,10.31956884765625,0.0003171921707689762,-0.00007956475019454956,0.0008078692480921745
1746735756836534800,10.32953466796875,0.00040214695036411285,-0.0010734563693404198,0.0008648610673844814
1746735756846500900,10.3395009765625,0.00007774564437568188,0.0004294016398489475,0.0011299210600554943
1746735756856466700,10.349466796875,0.00013127527199685574,-0.00006408244371414185,-0.0010035373270511627
1746735756866432800,10.359432861328125,0.00022700871340930462,0.0011393041349947453,0.000690065324306488
1746735756876398800,10.36939892578125,-0.000764752272516489,-0.0010215844959020615,0.0009960625320672989
1746735756886364700,10.37936474609375,0.0007219850085675716,-0.0009514037519693375,0.0004362608306109905
1746735756896330800,10.389330810546875,-0.0016149389557540417,-0.0006699077785015106,-0.0009211525321006775
1746735756906296800,10.399296875,0.0008909469470381737,0.00008075917139649391,0.00017995433881878853
1746735756916263000,10.409262939453125,0.0003359441179782152,-0.0006627952679991722,-0.00034442218020558357
1746735756926228700,10.419228759765625,0.00004253862425684929,0.0007538758218288422,-0.0011953948996961117
1746735756936194600,10.429194580078125,-0.0005028769373893738,-0.00007170392200350761,0.0013684302102774382
1746735756946161000,10.439160888671875,-0.0009837239049375057,0.000042885541915893555,0.001072801649570465
1746735756956126700,10.449126708984375,-0.0006188708357512951,-0.0007123867981135845,-0.0011448124423623085
1746735756966092800,10.4590927734375,-0.0005651137325912714,0.0003149821422994137,-0.0006049009971320629
1746735756976059600,10.4690595703125,-0.0010846962686628103,0.00019940081983804703,0.000043046195060014725
1746735756986025700,10.479025634765625,-0.0005417722277343273,0.00010892888531088829,0.0014573377557098866
1746735756995991800,10.48899169921875,0.00036530056968331337,0.0008514183573424816,-0.00187587458640337
1746735757005958000,10.4989580078125,-0.0008804586250334978,0.0007403325289487839,-0.0007958649657666683
1746735757015923700,10.508923828125,0.001214384101331234,-0.0006298637017607689,0.003191952360793948
1746735757025889800,10.518889892578125,-0.0004107432905584574,-0.0003742063418030739,-0.0003457465209066868
1746735757035856000,10.52885595703125,-0.0006339165847748518,-0.0014328127726912498,0.0006034043617546558
1746735757045821700,10.53882177734375,-0.0010376088321208954,-0.00018902122974395752,-0.0013489797711372375
1746735757055787800,10.548787841796875,-0.0009100437164306641,0.0011228518560528755,-0.004255021456629038
1746735757065753600,10.558753662109375,0.0009236398618668318,-0.00023446464911103249,0.0031053991988301277
1746735757075720000,10.568719970703125,0.001013122033327818,0.001484073232859373,0.005913969129323959
1746735757085685800,10.578685791015625,0.0005291772540658712,-0.0017429646104574203,-0.007917960174381733
1746735757095651800,10.58865185546875,0.0005560752470046282,-0.0007730415090918541,-0.0011745700612664223
1746735757105617700,10.59861767578125,0.00005302531644701958,0.000607337336987257,0.006048885639756918
1746735757115583700,10.608583740234375,-0.0006971871480345726,0.0005724495276808739,0.0026299194432795048
1746735757125549800,10.6185498046875,0.0006354912184178829,-0.000989607535302639,-0.004979285411536694
1746735757135515600,10.628515625,0.0002791602164506912,-0.00012115063145756721,0.00021680863574147224
1746735757145481700,10.638481689453124,0.0016066895332187414,0.00042221229523420334,0.002428945153951645
1746735757155447800,10.64844775390625,-0.00016884016804397106,0.000025934074074029922,0.0005327747203409672
1746735757165414000,10.658413818359374,-0.0004257450345903635,-0.0008273194544017315,-0.00382714020088315
1746735757175379700,10.668379638671874,-0.0003045711200684309,-0.0005665961652994156,-0.0009277565404772758
1746735757185345800,10.678345703125,-0.0003623659722507,0.00015697116032242775,0.002204096643254161
1746735757195311900,10.688311767578124,-0.0002648942172527313,-0.00027898838743567467,-0.000867859460413456
1746735757205277700,10.698277587890624,-0.0005675267893821001,-0.0006242040544748306,-0.0017413310706615448
1746735757215243800,10.708243896484374,-0.0002519420813769102,0.00022507831454277039,0.0010699019767343998
1746735757225209600,10.718209716796874,-0.0006412016227841377,-0.00028107501566410065,0.0010418407618999481
1746735757235176000,10.728176025390624,0.0006751988548785448,-0.0013559269718825817,-0.0013957507908344269
1746735757245141800,10.738141845703124,-0.0005084027070552111,0.0008513894863426685,-0.0000215945765376091
1746735757255107800,10.74810791015625,-0.00004794239066541195,0.00033633410930633545,0.0012308903969824314
1746735757265073700,10.75807373046875,0.0017663559410721064,-0.00011831894516944885,-0.00036765262484550476
1746735757275039700,10.768039794921876,0.0012491701636463404,-0.0006677289493381977,-0.0010379701852798462
1746735757285005800,10.778005859375,0.0008425391279160976,0.0016000163741409779,0.0006044162437319756
1746735757294972200,10.78797216796875,-0.00015401584096252918,0.0010671182535588741,0.002097916789352894
1746735757304938000,10.79793798828125,0.000544428825378418,0.0007077539339661598,-0.001603622455149889
1746735757314904300,10.807904296875,0.0008858460932970047,-0.0010014628060162067,-0.0019903131760656834
1746735757324870100,10.8178701171875,-0.000618538586422801,0.00008327048271894455,-0.0006643361411988735
1746735757334836000,10.8278359375,-0.0020664993207901716,-0.00028637610375881195,-0.0005093403160572052
1746735757344802000,10.837802001953126,0.0002263335045427084,-0.0008133691735565662,0.0014813656453043222
1746735757354768100,10.84776806640625,0.00009663752280175686,0.00012752553448081017,-0.0005455659702420235
1746735757364734200,10.857734130859376,-0.00010589370504021645,0.0007503200322389603,-0.0004885755479335785
1746735757374700000,10.867699951171875,0.0004986438434571028,0.00013433070853352547,0.00014685466885566711
1746735757384666000,10.877666015625,0.0002459874376654625,-0.00001797545701265335,-0.0009009628556668758
1746735757394632200,10.887632080078125,0.0005906003061681986,0.0000406140461564064,0.00021729851141571999
1746735757404598000,10.897597900390625,-0.0014604376628994942,-0.00022902339696884155,-0.00012371642515063286
1746735757414564000,10.907564208984375,-0.000026857946068048477,0.0003337026573717594,-0.0029248292557895184
1746735757424530000,10.917530029296875,-0.0005895874928683043,0.0004612402990460396,0.00006547151133418083
1746735757434496300,10.927496337890625,0.0003853959497064352,0.0004665665328502655,0.0010516401380300522
1746735757444462000,10.937462158203125,0.0007384843192994595,-0.000779992900788784,0.000363972969353199
1746735757454428200,10.94742822265625,-0.0016788672655820847,0.001354264561086893,-0.0011116848327219486
1746735757464394000,10.95739404296875,0.0012867357581853867,-0.00019714515656232834,0.0002280212938785553
1746735757474360000,10.967360107421875,0.0006084286142140627,0.00015385961160063744,0.0005912766791880131
1746735757484326100,10.977326171875,0.0016731743235141039,0.0000360952690243721,0.0005683084018528461
1746735757494292000,10.9872919921875,-0.0005886484868824482,0.0009655384346842766,0.00001783343032002449
1746735757504258000,10.997258056640625,-0.0015678138006478548,-0.0004929080605506897,-0.0005344538949429989
1746735757514224000,11.00722412109375,-0.001593646826222539,0.0010591819882392883,-0.001564031932502985
1746735757524190200,11.017190185546875,-0.00065634585916996,-0.0006626062095165253,-0.000550352968275547
1746735757534156000,11.027156005859375,0.001473117619752884,0.0010713781230151653,0.0018880371935665607
1746735757544122000,11.0371220703125,-0.00046966993249952793,-0.00038771238178014755,-0.00038691237568855286
1746735757554088200,11.047088134765625,0.0008661714382469654,-0.0000348435714840889,0.0009822188876569271
1746735757564054000,11.057053955078125,0.0009392485953867435,0.00021645845845341682,-0.0005148472264409065
1746735757574020000,11.06702001953125,-0.0006165702361613512,-0.00003680773079395294,0.0006039468571543694
1746735757583986000,11.07698583984375,-0.0011325839441269636,0.0009023835882544518,0.00133190443739295
1746735757593952300,11.0869521484375,0.00029566907323896885,0.000791595783084631,-0.0016590915620326996
1746735757603918000,11.09691796875,-0.0017918827943503857,0.000004005152732133865,-0.00038294028490781784
1746735757613884200,11.10688427734375,-0.0009271544404327869,-0.0018325105775147676,-0.0006663003005087376
1746735757623851000,11.11685107421875,0.0006657852791249752,0.000023966189473867416,-0.002199858892709017
1746735757633817000,11.126817138671875,-0.0012482285965234041,0.000056723132729530334,-0.0020850766450166702
1746735757643783200,11.136783203125,-0.00004708068445324898,0.0004517943598330021,0.0008705528452992439
1746735757653749000,11.1467490234375,0.0004980685189366341,0.000493339728564024,0.00010675843805074692
1746735757663715000,11.156715087890625,0.0006406924221664667,0.000005228910595178604,-0.0009853900410234928
1746735757673681000,11.166680908203125,0.0007299082353711128,0.00009657535701990128,-0.00036993343383073807
1746735757683647200,11.176647216796875,0.0008458634838461876,-0.0012606200762093067,-0.0006215251050889492
1746735757693613000,11.186613037109375,0.000493261031806469,-0.0004265177994966507,-0.0010865130461752415
1746735757703579100,11.1965791015625,-0.0002430963795632124,0.0007813107222318649,-0.0005726367235183716
1746735757713545000,11.206544921875,-0.00004362547770142555,-0.00028848089277744293,-0.0013521439395844936
1746735757723511300,11.21651123046875,-0.000591047341004014,-0.0002254704013466835,-0.0008360282517969608
1746735757733477000,11.22647705078125,0.001155720092356205,-0.0013357424177229404,0.0005070040933787823
1746735757743443000,11.23644287109375,0.00039743538945913315,0.0004747794009745121,-0.001319090835750103
1746735757753409000,11.246408935546874,0.0006445767357945442,-0.0012892982922494411,0.0009797499515116215
1746735757763375000,11.256375,0.0002829902805387974,0.0007118978537619114,-0.0017389832064509392
1746735757773341200,11.266341064453124,-0.0011684324126690626,-0.0013371380046010017,-0.0004428229294717312
1746735757783307000,11.27630712890625,-0.00040283380076289177,0.00024496857076883316,0.000264972448348999
1746735757793273000,11.286273193359374,0.00035377033054828644,0.0001893085427582264,-0.0008958992548286915
1746735757803239200,11.2962392578125,0.0001656799577176571,-0.0003704237751662731,-0.0015783607959747314
1746735757813205000,11.306205078125,-0.0007938568014651537,-0.0012886817567050457,-0.0009208261035382748
1746735757823171000,11.316171142578124,0.001667430391535163,-0.00007967837154865265,-0.000556988175958395
1746735757833137200,11.32613720703125,-0.001721442211419344,-0.00046770088374614716,-0.0023405072279274464
1746735757843103200,11.336103271484374,-0.00016156770288944244,-0.00019897380843758583,0.00046418700367212296
1746735757853069000,11.346069091796876,0.0006754638161510229,-0.000200571957975626,-0.0020162812434136868
1746735757863035100,11.35603515625,-0.0013015810400247574,0.000069416593760252,0.000008746981620788574
1746735757873001200,11.366001220703126,0.0013224314898252487,-0.00015109311789274216,-0.0010948670096695423
