time,seconds_elapsed,z,y,x
1746729092744758000,0.022758056640625,0.0014943461865186691,0.0007479111663997173,-0.00111940479837358
1746729092754774800,0.03277490234375,-0.0007325825281441212,0.0008431100286543369,0.001021421980112791
1746729092764792000,0.0427919921875,0.0004954012110829353,-0.0011140471324324608,0.0008187552448362112
1746729092774809900,0.052809814453125,-0.0019985251128673553,0.0016737915575504303,-0.00022861803881824017
1746729092784827000,0.062826904296875,-0.001539129763841629,-0.0017819260247051716,-0.0014089308679103851
1746729092794845000,0.072844970703125,0.001091226004064083,0.0013765818439424038,-0.0037627110723406076
1746729092804862000,0.082862060546875,-0.00035806605592370033,-0.0007358375005424023,-0.0012691935990005732
1746729092814880000,0.0928798828125,0.003048195270821452,-0.0011065560393035412,-0.00023479736410081387
1746729092824896800,0.102896728515625,-0.0002932730130851269,-0.0008362452499568462,0.00024350639432668686
1746729092834914000,0.1129140625,-0.00019426969811320305,0.0012064240872859955,0.000326644629240036
1746729092844931800,0.122931884765625,0.0007484895177185535,-0.00023754173889756203,-0.00013674539513885975
1746729092854948000,0.132947998046875,0.00033889012411236763,0.000347403809428215,-0.001400545472279191
1746729092864966100,0.142966064453125,0.0017056241631507874,0.0008536707609891891,-0.00041064852848649025
1746729092874983200,0.152983154296875,-0.0029500159434974194,-0.0005851350724697113,0.002019142732024193
1746729092885000000,0.163,0.00033392803743481636,0.0037310500629246235,0.000913131982088089
1746729092895018000,0.17301806640625,0.0006117257289588451,-0.0025021054316312075,0.00022893142886459827
1746729092905035000,0.183034912109375,-0.0009310436435043812,0.0004548020660877228,0.0012910000514239073
1746729092915053000,0.193052978515625,-0.0022216439247131348,-0.00018684379756450653,0.0016003497876226902
1746729092925070000,0.203070068359375,-0.00022081099450588226,0.00005124276503920555,0.0008024666458368301
1746729092935088000,0.213088134765625,0.0004059509374201298,0.00021428614854812622,0.000982923898845911
1746729092945105200,0.223105224609375,-0.0016081980429589748,-0.002117577940225601,-0.0020181923173367977
1746729092955122000,0.233121826171875,-0.0011393879540264606,-0.0013504079543054104,-0.0014413823373615742
1746729092965140200,0.24314013671875,-0.0002456312067806721,0.0015247408300638199,-0.0037807030603289604
1746729092975157000,0.253156982421875,0.0015152127016335726,0.0018089599907398224,0.0012841789284721017
1746729092985175000,0.263175048828125,0.0005793781019747257,0.002509904094040394,0.0005238463636487722
1746729092995192000,0.273192138671875,-0.00008581625297665596,0.002937568351626396,0.0023810165002942085
1746729093005210000,0.283210205078125,-0.0031066397204995155,0.0028214547783136368,0.0010803285986185074
1746729093015227100,0.29322705078125,-0.0019714906811714172,0.00018208660185337067,0.00025247340090572834
1746729093025244000,0.303243896484375,0.0012514665722846985,-0.00037291599437594414,0.0005984180606901646
1746729093035262200,0.31326220703125,0.00047623133286833763,-0.0005909367464482784,-0.0009983719792217016
1746729093045279000,0.323279052734375,0.0002842177636921406,0.00009722402319312096,0.0009840850252658129
1746729093055297000,0.333297119140625,-0.0019626356661319733,0.0019512600265443325,-0.0009743750561028719
1746729093065314000,0.34331396484375,0.002146089216694236,0.0005802647210657597,-0.0005123165901750326
1746729093075332000,0.35333203125,0.0010417976882308722,-0.002084107371047139,-0.0005073281936347485
1746729093085349000,0.36334912109375,0.0016535257454961538,0.00018437346443533897,0.0016192059265449643
1746729093095366000,0.373365966796875,-0.00032836152240633965,0.00016049854457378387,-0.0015253769233822823
1746729093105384200,0.38338427734375,0.0006410288624465466,0.0007242895662784576,-0.0013775713741779327
1746729093115401000,0.39340087890625,-0.00003545265644788742,-0.0008404371328651905,-0.0010774550028145313
1746729093125419300,0.403419189453125,0.0007999811787158251,0.0003824862651526928,-0.000021245330572128296
1746729093135436000,0.41343603515625,0.0009246189147233963,0.0007027876563370228,0.0009549565147608519
1746729093145454000,0.4234541015625,-0.00045862700790166855,-0.0005102823488414288,-0.0020008860155940056
1746729093155471000,0.43347119140625,0.0006812969222664833,0.001571662724018097,-0.0026177805848419666
1746729093165488000,0.443488037109375,-0.0004273774102330208,0.000042475759983062744,-0.00013065431267023087
1746729093175506200,0.453506103515625,-0.00032091327011585236,-0.0012894072569906712,-0.001121756387874484
1746729093185523000,0.46352294921875,-0.0002838955260813236,0.00040809158235788345,-0.0007822036277502775
1746729093195541200,0.473541259765625,0.00008607469499111176,0.0004941383376717567,-0.0023383735679090023
1746729093205558000,0.48355810546875,-0.000035365577787160873,-0.000023846514523029327,-0.001615059096366167
1746729093215576000,0.493576171875,0.0007258406840264797,0.0003881780430674553,0.0011669129598885775
1746729093225593000,0.503593017578125,-0.0002816328778862953,-0.001964192371815443,-0.0011068936437368393
1746729093235610000,0.513610107421875,-0.0013493644073605537,-0.0006402749568223953,0.0030659670010209084
1746729093245628200,0.523628173828125,0.0015092729590833187,0.0015501747839152813,-0.0004169149324297905
1746729093255645000,0.53364501953125,-0.00038307346403598785,0.00038465065881609917,0.001493023126386106
1746729093265663200,0.543663330078125,0.0009050972294062376,-0.00022228388115763664,0.0005079198163002729
1746729093275680000,0.553679931640625,-0.0000585322268307209,-0.0009253681637346745,0.0008354170713573694
1746729093285698000,0.563697998046875,0.0016592068132013083,0.00029941927641630173,0.001879110001027584
1746729093295715000,0.573715087890625,0.0008152064401656389,-0.0018755504861474037,0.0022395446430891752
1746729093305732000,0.583732177734375,-0.0006929417140781879,0.001125033013522625,0.00245579332113266
1746729093315750100,0.593750244140625,-0.0009288634173572063,0.0006100917235016823,-0.0011796713806688786
1746729093325767200,0.60376708984375,0.0017076658550649881,0.00196457514539361,-0.00022199866361916065
1746729093335785200,0.61378515625,0.00037127314135432243,-0.00024576857686042786,-0.0009467657655477524
1746729093345802000,0.623802001953125,0.0015976589638739824,0.001351329032331705,-0.0024802139960229397
1746729093355819000,0.633819091796875,-0.0001814262941479683,-0.0009388360194861889,-0.0002975484821945429
1746729093365837000,0.643837158203125,-0.0004940815269947052,-0.0010421667248010635,0.0010819691233336926
1746729093375854000,0.65385400390625,0.00018173083662986755,0.001614152453839779,-0.001696320716291666
1746729093385872100,0.6638720703125,0.0016624482814222574,0.0008229273371398449,-0.0025911428965628147
1746729093395889200,0.67388916015625,-0.0016040345653891563,0.0018439139239490032,-0.00044822506606578827
1746729093405907200,0.6839072265625,-0.0007763239555060863,0.0005810433067381382,0.001251937123015523
1746729093415924000,0.693924072265625,-0.0022012200206518173,0.0017583700828254223,0.0022091809660196304
1746729093425941000,0.70394091796875,0.0007895100861787796,-0.001164715737104416,-0.0017496077343821526
1746729093435959000,0.713958984375,-0.00011718785390257835,0.0017165374010801315,0.0019404911436140537
1746729093445976000,0.72397607421875,0.0007049296982586384,-0.0009253183379769325,-0.0012984455097466707
1746729093455994000,0.733994140625,-0.00044319452717900276,-0.0032163679134100676,0.0010464917868375778
1746729093466011100,0.74401123046875,0.00047346577048301697,0.000522177666425705,-0.0022568930871784687
1746729093476029200,0.754029296875,0.0001924862153828144,0.00010651303455233574,0.0013337468262761831
1746729093486046000,0.7640458984375,0.0001964811235666275,0.0004370114766061306,0.0012543846387416124
1746729093496063000,0.77406298828125,0.0018067017663270235,0.0005757315084338188,0.0004107952117919922
1746729093506081000,0.7840810546875,-0.0000399341806769371,-0.0013947412371635437,0.0012901710579171777
1746729093516098000,0.79409814453125,0.0005667838267982006,-0.0002339482307434082,-0.0017845467664301395
1746729093526116000,0.8041162109375,-0.0001706453040242195,-0.001113856676965952,-0.002495876979082823
1746729093536133000,0.814133056640625,-0.0004199664108455181,-0.00019409414380788803,0.00045703956857323647
1746729093546151200,0.824151123046875,0.0006604776717722416,-0.0026918728835880756,-0.0024023964069783688
1746729093556168200,0.834168212890625,0.000735217472538352,0.000005991198122501373,-0.002169522223994136
1746729093566185000,0.84418505859375,-0.0007987632416188717,-0.0015729968436062336,-0.0014659150037914515
1746729093576203000,0.854203125,0.0009411019273102283,0.0004918212071061134,0.0011696922592818737
1746729093586220000,0.864219970703125,0.0009853104129433632,-0.001267729327082634,0.000959302531555295
1746729093596238000,0.874238037109375,0.001249651424586773,0.001135779544711113,0.0007257757242769003
1746729093606255000,0.884255126953125,-0.0019791647791862488,0.0006225882098078728,-0.0008265806827694178
1746729093616273200,0.894273193359375,0.0005377763882279396,-0.0014326241798698902,-0.0006549227982759476
1746729093626290200,0.904290283203125,0.0008198053110390902,0.0018316125497221947,0.0008055549114942551
1746729093636307000,0.914306884765625,0.001233057351782918,-0.0007992712780833244,0.0023825946263968945
1746729093646325000,0.924324951171875,-0.0017542103305459023,0.0021730829030275345,-0.0010379697196185589
1746729093656342000,0.934342041015625,-0.0006098723970353603,-0.0002339784987270832,-0.0020912657491862774
1746729093666360000,0.944360107421875,0.00029187416657805443,0.00008080713450908661,-0.0002470265608280897
1746729093676377000,0.954377197265625,-0.0010307012125849724,0.0002080281265079975,-0.002333051059395075
1746729093686395100,0.96439501953125,-0.0002690372057259083,-0.0005283360369503498,0.002289397642016411
1746729093696412200,0.974412109375,0.0024363361299037933,0.0003573782742023468,0.00022398889996111393
1746729093706429000,0.984428955078125,-0.0012787734158337116,0.00036510126665234566,-0.002382447011768818
1746729093716447200,0.994447265625,-0.0009226175025105476,-0.0002830266021192074,-0.0021810228936374187
1746729093726464000,1.004464111328125,0.000756771769374609,0.0001036645844578743,-0.002109117340296507
1746729093736482000,1.01448193359375,0.002388424938544631,0.0010659676045179367,-0.001081384252756834
1746729093746499000,1.0244990234375,-0.0012467899359762669,0.0018412135541439056,-0.0013317214325070381
1746729093756517000,1.03451708984375,-0.0007558041252195835,-0.001195200253278017,-0.001518740551546216
1746729093766534100,1.0445341796875,-0.0005579311400651932,-0.0010918695479631424,-0.0007935615722090006
1746729093776551000,1.054551025390625,0.0008927762974053621,-0.0002211509272456169,-0.00015022745355963707
1746729093786569200,1.0645693359375,-0.0023616068065166473,-0.0025713907089084387,0.0010908055119216442
1746729093796586000,1.0745859375,0.0002927277237176895,0.0002790936268866062,-0.00012178695760667324
1746729093806604000,1.08460400390625,-0.0014191525988280773,-0.001301758922636509,-0.00010394374839961529
1746729093816621000,1.09462109375,-0.0013031931594014168,-0.001160451676696539,-0.003046100027859211
1746729093826639000,1.10463916015625,0.0001455666497349739,0.0007703402079641819,0.0005473028868436813
1746729093836656000,1.11465625,-0.00018866872414946556,0.0023908517323434353,0.00029166159220039845
1746729093846673000,1.1246728515625,-0.0009735021740198135,0.0007841666229069233,0.00027301954105496407
1746729093856691500,1.13469140625,-0.0003338530659675598,0.00039800209924578667,0.001591168693266809
1746729093866708200,1.144708251953125,-0.0006510354578495026,-0.00012956978753209114,0.0027272733859717846
1746729093876726300,1.154726318359375,-0.002132606692612171,0.00029835011810064316,-0.0004576474893838167
1746729093886743300,1.164743408203125,-0.0008305874653160572,0.00044775335118174553,0.0012542323675006628
1746729093896761000,1.174760986328125,-0.00020369607955217361,-0.0008371644653379917,0.0011306395754218102
1746729093906778400,1.1847783203125,0.0006194869056344032,-0.0006797714158892632,-0.0014861826784908772
1746729093916795100,1.194795166015625,0.0012445165775716305,0.0005784896202385426,0.00023596175014972687
1746729093926813400,1.2048134765625,-0.0014487383887171745,-0.0005387063138186932,-0.0018548858352005482
1746729093936830200,1.214830322265625,-0.00007720803841948509,0.0018787393346428871,0.003115344326943159
1746729093946848500,1.2248486328125,-0.0005275486037135124,-0.002152487635612488,-0.0009920489974319935
1746729093956865300,1.234865234375,0.003640349954366684,-0.0008677267469465733,-0.001517277443781495
1746729093966883000,1.244883056640625,0.0029577817767858505,-0.0009241858497262001,0.0005248342640697956
1746729093976900400,1.254900390625,-0.0007528271526098251,-0.0005733314901590347,0.0011502711568027735
1746729093986917400,1.26491748046875,-0.0022825468331575394,-0.0010574939660727978,0.0022413681726902723
1746729093996935400,1.274935302734375,0.0010668314062058926,-0.0008995584212243557,0.002428441308438778
1746729094006952200,1.2849521484375,0.00004151463508605957,-0.0006359051913022995,0.0003533060662448406
1746729094016970500,1.294970458984375,-0.00016596587374806404,0.002708318643271923,0.0041190264746546745
1746729094026987300,1.3049873046875,-0.0011036652140319347,0.000006008893251419067,-0.0012291339226067066
1746729094037005300,1.31500537109375,-0.00015204772353172302,-0.00033319974318146706,0.0005642084870487452
1746729094047022300,1.325022216796875,0.0001731240190565586,-0.0012019230052828789,0.00342897092923522
1746729094057039400,1.335039306640625,-0.0017373100854456425,-0.00026346230879426,0.006502114236354828
1746729094067057400,1.345057373046875,0.0005034739151597023,-0.0005694595165550709,0.0030762238893657923
1746729094077074200,1.35507421875,-0.00042551662772893906,-0.0007423167116940022,0.00005735526792705059
1746729094087092200,1.36509228515625,-0.0018796026706695557,0.0010143043473362923,0.0029641955625265837
1746729094097109200,1.375109130859375,-0.00021195271983742714,0.004933461081236601,-0.003805444110184908
1746729094107127300,1.385127197265625,-0.0006913221441209316,0.0012692175805568695,0.00367324473336339
1746729094117144300,1.395144287109375,-0.0007032598368823528,-0.004152553156018257,0.0026049299631267786
1746729094127161300,1.405161376953125,0.0009289917070418596,0.0010307570919394493,-0.001480625243857503
1746729094137179400,1.415179443359375,0.00010254932567477226,0.0017347624525427818,0.0017186130862683058
1746729094147196400,1.425196533203125,-0.0005672359839081764,-0.0010977755300700665,-0.0016042129136621952
1746729094157214200,1.435214111328125,0.000927049433812499,0.0004181498661637306,-0.00034513347782194614
1746729094167231200,1.445231201171875,-0.0002316916361451149,-0.0005973130464553833,0.00007351557724177837
1746729094177249300,1.455249267578125,0.0025657699443399906,0.0011289333924651146,-0.00023024831898510456
1746729094187266300,1.465266357421875,0.0006674686446785927,0.00027219438925385475,-0.0015927213244140148
1746729094197283300,1.475283447265625,-0.0002676895819604397,-0.0018079178407788277,-0.0020424185786396265
1746729094207301400,1.48530126953125,-0.0005784803070127964,-0.0021735699847340584,-0.0008738234173506498
1746729094217318400,1.495318359375,-0.0009984415955841541,0.0025642625987529755,0.0019604340195655823
1746729094227336200,1.505336181640625,-0.002140937838703394,-0.0011087688617408276,-0.00007661781273782253
1746729094237353200,1.515353271484375,0.00012346124276518822,0.000422054436057806,-0.0012031143996864557
1746729094247371300,1.525371337890625,0.0006038951687514782,0.0018308665603399277,-0.00010029925033450127
1746729094257388300,1.53538818359375,0.0008205447811633348,-0.0006787911988794804,0.002453149063512683
1746729094267405300,1.5454052734375,0.00048179086297750473,-0.003028764622285962,-0.0014521102420985699
1746729094277423400,1.55542333984375,0.0022152340970933437,0.00011920882388949394,0.0009860433638095856
1746729094287440400,1.5654404296875,-0.001323840580880642,-0.0008126311004161835,0.000874723307788372
1746729094297458200,1.575458251953125,0.003062113653868437,0.0006636446341872215,0.0011893853079527617
1746729094307475500,1.585475341796875,0.0019118944182991982,-0.001373673789203167,0.0013510390417650342
1746729094317493200,1.5954931640625,-0.0003167050890624523,-0.0011514639481902122,0.001309035113081336
1746729094327510300,1.60551025390625,-0.000940417405217886,0.00019796006381511688,-0.00008246651850640774
1746729094337527300,1.61552734375,-0.0005379826761782169,-0.0010746624320745468,-0.0016923178918659687
1746729094347545300,1.62554541015625,-0.0004298584535717964,0.0009690476581454277,-0.0030228327959775925
1746729094357562400,1.635562255859375,-0.0018168608658015728,0.0010619345121085644,0.00026262388564646244
1746729094367580200,1.645580078125,-0.002258146647363901,-0.002835602033883333,0.00008818693459033966
1746729094377597400,1.655597412109375,-0.0007633278146386147,0.0013383491896092892,0.0009315696079283953
1746729094387615200,1.665615234375,-0.0000032614916563034058,0.0008834809996187687,-0.0005435552448034286
1746729094397632300,1.67563232421875,0.0009204566013067961,-0.00002576131373643875,-0.001948671881109476
1746729094407649300,1.685649169921875,0.0008706555236130953,-0.0003703744150698185,-0.0005664911586791277
1746729094417667300,1.695667236328125,-0.00043150968849658966,0.0009622941724956036,-0.0020315777510404587
1746729094427684400,1.705684326171875,-0.000015257392078638077,0.0010704188607633114,0.0007197342347353697
1746729094437702100,1.7157021484375,0.0009794486686587334,0.0026118378154933453,-0.0008337905164808035
1746729094447719400,1.725719482421875,-0.002096502110362053,-0.00164708960801363,-0.00040582031942903996
1746729094457737200,1.7357373046875,0.0009661114308983088,0.0014374013990163803,-0.0006688330322504044
1746729094467754200,1.745754150390625,-0.001594517845660448,-0.0001522395759820938,-0.0022116019390523434
1746729094477771300,1.755771240234375,0.0005307057872414589,0.00017366651445627213,-0.0004222129937261343
1746729094487789300,1.765789306640625,-0.0018213982693850994,-0.0014617806300520897,0.0005106923636049032
1746729094497806300,1.775806396484375,0.000489543192088604,0.0001928703859448433,0.0003188648261129856
1746729094507824000,1.78582421875,-0.000593298114836216,0.0009228428825736046,0.0002568131312727928
1746729094517841400,1.79584130859375,0.0027529308572411537,0.0002834177576005459,-0.0008306007366627455
1746729094527859200,1.805859130859375,0.0013819355517625809,0.0003316211514174938,0.00023093516938388348
1746729094537876500,1.81587646484375,0.003502944950014353,0.0002965168096125126,-0.0014828331768512726
1746729094547893200,1.825893310546875,-0.000560239888727665,-0.00012745847925543785,-0.0012522037141025066
1746729094557911300,1.835911376953125,-0.00036516087129712105,0.0005997479893267155,-0.001139175146818161
1746729094567928300,1.84592822265625,-0.00035291025415062904,-0.00029960134997963905,0.00035086367279291153
1746729094577946000,1.855946044921875,0.000809613848105073,-0.0004437579773366451,-0.002576391911134124
1746729094587963400,1.86596337890625,-0.00030811456963419914,-0.0009889071807265282,-0.0026408403646200895
1746729094597981200,1.875981201171875,-0.001001670490950346,-0.0009357496164739132,0.0002392726019024849
1746729094607998500,1.88599853515625,-0.0007998025976121426,-0.00015570968389511108,-0.00007657823152840137
1746729094618015200,1.89601513671875,-0.0011773365549743176,-0.002737957052886486,0.0011649513617157936
1746729094628033300,1.906033203125,-0.001336593646556139,0.001516709104180336,0.002281082095578313
1746729094638050300,1.91605029296875,0.000745509285479784,-0.0002880343236029148,0.0025529032573103905
1746729094648068000,1.926068115234375,-0.001076625194400549,0.0009881523437798023,0.0008809708524495363
1746729094658085400,1.93608544921875,-0.00023423228412866592,0.0008069616742432117,0.001613331027328968
1746729094668103200,1.946103271484375,0.00017269840463995934,-0.00003299955278635025,0.0025366488844156265
1746729094678120400,1.956120361328125,0.0010889717377722263,0.00033230287954211235,0.0012782400008291006
1746729094688137200,1.96613720703125,-0.0016407682560384274,-0.001176910474896431,-0.0002288429532200098
1746729094698155300,1.9761552734375,0.00041803857311606407,0.000886191613972187,0.0009735813364386559
1746729094708172300,1.98617236328125,-0.00044589070603251457,0.0036944947205483913,-0.0006884974427521229
1746729094718190000,1.996190185546875,0.001884271390736103,-0.0005739950574934483,-0.002582395449280739
1746729094728207400,2.006207275390625,-0.00006542867049574852,0.002287571784108877,-0.002812226302921772
1746729094738225200,2.01622509765625,0.0006796824745833874,-0.002869547577574849,-0.0024266077671200037
1746729094748242400,2.026242431640625,-0.0003128773532807827,0.001507624052464962,-0.00036958232522010803
1746729094758259200,2.03625927734375,0.00037128571420907974,-0.0018914728425443172,0.0013852478004992008
1746729094768277200,2.04627734375,-0.0022474005818367004,-0.0018784231506288052,-0.00013941200450062752
1746729094778294300,2.056294189453125,-0.001095751766115427,0.0010771793313324451,-0.0007171682082116604
1746729094788312300,2.066312255859375,-0.00028987880796194077,-0.0019487040117383003,0.0011558330152183771
1746729094798329300,2.076329345703125,0.002250432036817074,-0.0016869781538844109,-0.0006304443813860416
1746729094808347100,2.08634716796875,-0.0022063679061830044,0.0008555417880415916,0.001444157911464572
1746729094818364400,2.096364501953125,0.0006694518961012363,0.00036563538014888763,-0.0020816372707486153
1746729094828381200,2.106381103515625,-0.000575309619307518,0.0006125103682279587,0.0026294945273548365
1746729094838399200,2.116399169921875,-0.0005610240623354912,0.00021127751097083092,0.00022590160369873047
1746729094848416300,2.126416259765625,-0.00012692855671048164,-0.0006515863351523876,0.0003153837751597166
1746729094858435000,2.13643505859375,0.000013472512364387512,-0.0012279953807592392,-0.0001329360529780388
1746729094868452000,2.1464521484375,-0.0005101049318909645,-0.0019899257458746433,0.0004907762631773949
1746729094878470100,2.15647021484375,0.0014896178618073463,0.0005473471246659756,0.00138610671274364
1746729094888487200,2.166487060546875,-0.002221763599663973,-0.0005863606929779053,0.0003932802937924862
1746729094898504000,2.17650390625,0.0037939739413559437,0.002336045727133751,-0.0026260532904416323
1746729094908522200,2.186522216796875,0.0001244042068719864,0.0001631723716855049,-0.00023586628958582878
1746729094918539000,2.1965390625,0.0015175857115536928,-0.001887795515358448,-0.0015141763724386692
1746729094928557000,2.20655712890625,-0.0003700628876686096,-0.0004068114794790745,-0.0033120764419436455
1746729094938574000,2.216573974609375,0.002884264336898923,0.0004773125983774662,-0.00009316974319517612
1746729094948592000,2.226592041015625,-0.002853516023606062,0.0006437604315578938,-0.0032759136520326138
1746729094958609200,2.236609130859375,0.00047234585508704185,0.0009135487489402294,-0.000869102543219924
1746729094968627000,2.246626953125,-0.0002379193902015686,-0.0019805084448307753,0.0006081529427319765
1746729094978644200,2.256644287109375,0.0009065174963325262,-0.0009035863913595676,-0.0006026399787515402
1746729094988661000,2.266660888671875,0.00020690495148301125,0.003116454929113388,-0.00008838344365358353
1746729094998679000,2.276678955078125,-0.0013051084242761135,-0.0014295978471636772,0.0014328372199088335
1746729095008696000,2.286696044921875,0.0009127720259130001,-0.000654617790132761,0.0018693292513489723
1746729095018713900,2.2967138671875,0.0009184442460536957,0.0012922286987304688,0.0008780835196375847
1746729095028731100,2.306731201171875,0.0034380611032247543,-0.0001908852718770504,-0.0010082335211336613
1746729095038749000,2.3167490234375,0.0000010542571544647217,0.0001483825035393238,-0.00037267222069203854
1746729095048766200,2.32676611328125,-0.00021679233759641647,0.002553749829530716,0.0025581365916877985
1746729095058783000,2.336782958984375,0.00013588368892669678,0.0007287776097655296,-0.00014171237125992775
1746729095068801300,2.34680126953125,-0.0006108665838837624,0.00040626898407936096,-0.00041788211092352867
1746729095078818000,2.356818115234375,0.000772691797465086,0.0004567895084619522,-0.0022335208486765623
1746729095088835800,2.3668359375,-0.00041481154039502144,-0.0024010487832129,-0.00013894448056817055
1746729095098853000,2.37685302734375,-0.0022444776259362698,0.0003126668743789196,-0.0001834274735301733
1746729095108871000,2.386870849609375,-0.00036588357761502266,0.0004908326081931591,-0.0015541564207524061
1746729095118888200,2.39688818359375,0.0009243751410394907,0.0010412922129034996,0.00042060064151883125
1746729095128905000,2.406905029296875,0.003954785875976086,-0.000662331935018301,0.0016464537475258112
1746729095138923300,2.41692333984375,0.0007169037126004696,0.0005682338960468769,-0.001474637072533369
1746729095148940000,2.42693994140625,0.0005914685316383839,-0.001251237466931343,-0.003688789438456297
1746729095158958000,2.4369580078125,-0.0008597346022725105,0.0005058213137090206,-0.0014747045934200287
1746729095168975000,2.44697509765625,0.00030380068346858025,0.0009420467540621758,-0.0006736256182193756
1746729095178993000,2.456992919921875,0.00008302833884954453,-0.0020604159217327833,-0.001194393029436469
1746729095189010200,2.46701025390625,-0.00035772472620010376,0.00018169917166233063,0.00025942642241716385
1746729095199027000,2.47702685546875,0.00013040145859122276,0.00008274288848042488,0.0009586487431079149
1746729095209045200,2.487045166015625,-0.0022041257470846176,-0.0010373829863965511,0.0014790304703637958
1746729095219062000,2.49706201171875,-0.0017619682475924492,-0.00009119277819991112,-0.0014809700660407543
1746729095229080000,2.507080078125,-0.000752896536141634,-0.002286702860146761,0.00104184215888381
1746729095239097000,2.51709716796875,0.0021751606836915016,0.0012613702565431595,0.0004948009736835957
1746729095249115000,2.527114990234375,-0.0022219843231141567,0.00008079083636403084,0.0010106551926583052
1746729095259132200,2.537132080078125,-0.001171954907476902,0.0008407854475080967,0.0014197650598362088
1746729095269149200,2.547149169921875,-0.001512040849775076,0.0017667668871581554,-0.0007696198299527168
1746729095279167200,2.557167236328125,-0.0006553265266120434,-0.0012446027249097824,-0.0010459702461957932
1746729095289184000,2.56718408203125,-0.0006361519917845726,0.002062777057290077,0.0003753586206585169
1746729095299202000,2.5772021484375,0.00008110702037811279,-0.0006250147707760334,-0.002191624604165554
1746729095309219000,2.587218994140625,0.0004459600895643234,-0.00037414534017443657,0.000775669701397419
1746729095319237000,2.597237060546875,0.001542522106319666,-0.0005460991524159908,0.00022531230933964252
1746729095329254100,2.607254150390625,0.000441571231931448,-0.0006465003825724125,-0.0014602022711187601
1746729095339272000,2.61727197265625,0.0009750183671712875,-0.000665043480694294,0.0004852302372455597
1746729095349289200,2.627289306640625,-0.0015086457133293152,-0.0008794278837740421,-0.0029531773179769516
1746729095359306000,2.637305908203125,-0.000008198898285627365,0.0012809224426746368,-0.0001817371230572462
1746729095369324000,2.647323974609375,-0.002034065779298544,0.00024974625557661057,0.0005016298964619637
1746729095379341000,2.657341064453125,-0.00021068891510367393,-0.002063948195427656,0.0004686168394982815
1746729095389359000,2.667359130859375,-0.00046741729602217674,-0.0003350242041051388,-0.0020944091957062483
1746729095399376100,2.677376220703125,-0.0006763827987015247,0.00008258968591690063,0.0026575319934636354
1746729095409394000,2.687393798828125,-0.0019546998664736748,0.0007675550878047943,0.002941691316664219
1746729095419411200,2.6974111328125,0.00013246480375528336,-0.001558865886181593,-0.0011451693717390299
1746729095429428200,2.70742822265625,0.0008038477972149849,0.001052096951752901,0.00007429183460772038
1746729095439446000,2.717446044921875,0.000784013420343399,0.00043949251994490623,0.0004277578555047512
1746729095449463000,2.727463134765625,-0.0020578457042574883,-0.00006810622289776802,0.00019419868476688862
1746729095459481000,2.737481201171875,0.0017502463888376951,0.0006470014341175556,0.0016082583460956812
1746729095469498000,2.747498046875,0.0008327874820679426,0.0008275634609162807,0.0013129138387739658
1746729095479516000,2.757515869140625,-0.0010690470226109028,-0.00024344772100448608,0.0015854128869250417
1746729095489533200,2.767533203125,-0.0018336409702897072,0.00017067370936274529,-0.0018221018835902214
1746729095499551000,2.777551025390625,-0.0008936137892305851,-0.0017328625544905663,-0.00019737868569791317
1746729095509568000,2.787568115234375,-0.0018046814948320389,-0.0004015485756099224,-0.0007928614504635334
1746729095519585000,2.7975849609375,0.00029501039534807205,0.0023550535552203655,0.0016059991903603077
1746729095529603000,2.80760302734375,-0.0014512240886688232,0.0015611653216183186,-0.001133594661951065
1746729095539620000,2.8176201171875,-0.0008516381494700909,0.00006899749860167503,-0.00042215920984745026
1746729095549638100,2.82763818359375,-0.002136879600584507,0.0020661023445427418,0.0036495476961135864
1746729095559655000,2.837655029296875,0.0013261300045996904,0.00011712545529007912,0.0013947065453976393
1746729095569673000,2.8476728515625,0.0016835262067615986,-0.00006317021325230598,0.002279674867168069
1746729095579690000,2.85768994140625,0.00038006389513611794,-0.0006052115932106972,0.00035387370735406876
1746729095589707300,2.867707275390625,0.0018376116640865803,-0.0003058724105358124,0.0018700114451348782
1746729095599725000,2.87772509765625,0.0006170221604406834,0.0005645514465868473,0.0008883189875632524
1746729095609742000,2.8877421875,-0.00047167809680104256,0.0008393898606300354,0.0006912450771778822
1746729095619760000,2.897760009765625,0.0018050537910312414,0.0009869849309325218,0.0008431850001215935
1746729095629777000,2.90777685546875,-0.0005838018842041492,-0.00015098368749022484,0.0002421096432954073
1746729095639795000,2.917794921875,0.000955821480602026,0.00038789818063378334,-0.00006482680328190327
1746729095649812000,2.92781201171875,-0.001716128084808588,-0.0003556562587618828,0.0002670029643923044
1746729095659829200,2.937829345703125,-0.0017003449611365795,0.0018229619599878788,-0.0009343258570879698
1746729095669847000,2.947846923828125,0.002920505590736866,0.000756632536649704,-0.0012214144226163626
1746729095679864000,2.957864013671875,0.0004749670624732971,-0.0016782861202955246,0.0007145465351641178
1746729095689882000,2.967882080078125,-0.001585786696523428,0.00017820345237851143,0.0006210694555193186
1746729095699899000,2.97789892578125,0.0001835743896663189,0.0007216348312795162,0.00047098309732973576
1746729095709917200,2.987917236328125,0.0007905089296400547,-0.0002927635796368122,0.0009287805296480656
1746729095719934000,2.997933837890625,0.00022661453112959862,-0.00026854174211621284,-0.001801603939384222
1746729095729952000,3.007951904296875,-0.0009116204455494881,-0.0010677562095224857,-0.0007240893319249153
1746729095739969000,3.017968994140625,-0.0005514859221875668,0.0017840517684817314,-0.002541030989959836
1746729095749986000,3.027986083984375,-0.00008037267252802849,-0.0010210559703409672,-0.002450483152642846
1746729095760004000,3.038004150390625,0.0004642498679459095,-0.00045574409887194633,-0.0002559616696089506
1746729095770020900,3.048020751953125,-0.00008942140266299248,0.0005197715945541859,-0.001271957764402032
1746729095780039200,3.0580390625,0.001513120485469699,-0.0002796291373670101,-0.0002540014684200287
1746729095790056000,3.068055908203125,0.00000577140599489212,0.00019521266222000122,0.003009968902915716
1746729095800074000,3.078073974609375,-0.0004834975115954876,-0.00022446690127253532,-0.004371520131826401
1746729095810091000,3.088091064453125,0.00026245415210723877,-0.0037624763790518045,-0.0017562960274517536
1746729095820108300,3.0981083984375,-0.0009129401296377182,0.002649764996021986,-0.00003866082988679409
1746729095830126000,3.1081259765625,-0.0004516802728176117,0.0005914075300097466,0.0015123640187084675
1746729095840142800,3.118142822265625,0.0011645578779280186,-0.00038622086867690086,0.0010355073027312756
1746729095850161200,3.1281611328125,0.0003829202614724636,-0.0014208587817847729,-0.0014422978274524212
1746729095860177700,3.138177734375,0.000584285706281662,0.0014836969785392284,0.00012542097829282284
1746729095870195700,3.14819580078125,0.0005802907980978489,-0.0005506915040314198,-0.00021865940652787685
1746729095880212500,3.15821240234375,-0.0003442023880779743,-0.0010981541126966476,-0.002095121657475829
1746729095890229800,3.168229736328125,-0.0018938956782221794,0.0005370266735553741,0.00023461156524717808
1746729095900247600,3.17824755859375,-0.002019715029746294,0.0001364080235362053,0.0006073301192373037
1746729095910264800,3.188264892578125,-0.00045297713950276375,0.0003989958204329014,0.0006803006399422884
1746729095920282600,3.19828271484375,0.0002708369866013527,0.0020668269135057926,0.0019592465832829475
1746729095930299600,3.208299560546875,-0.0035478691570460796,-0.0006333519704639912,-0.0007782166358083487
1746729095940317700,3.218317626953125,0.000050449278205633163,-0.0010561388917267323,0.00006804568693041801
1746729095950334500,3.22833447265625,-0.0006776591762900352,0.0010935645550489426,-0.0008829692378640175
1746729095960352800,3.238352783203125,0.00016847671940922737,-0.0010312995873391628,-0.002615652745589614
1746729095970369500,3.24836962890625,-0.002637962345033884,0.0002496810629963875,0.000170812476426363
1746729095980386800,3.25838671875,0.0021943324245512486,0.0004982268437743187,-0.00038144621066749096
1746729095990404600,3.268404541015625,0.0010853921994566917,-0.00041070999577641487,-0.0007470983546227217
1746729096000422000,3.278421875,-0.0010739504359662533,-0.0003615249879658222,0.000866845715790987
1746729096010439700,3.288439697265625,-0.0010166922584176064,0.000018241815268993378,0.0039177630096673965
1746729096020456400,3.29845654296875,0.0005400171503424644,-0.0004423190839588642,0.0014675050042569637
1746729096030474800,3.308474853515625,-0.0014259284362196922,-0.0011155661195516586,0.0016211693873628974
1746729096040491500,3.318491455078125,-0.0007109213620424271,-0.0020895139314234257,0.000703431898728013
1746729096050508800,3.3285087890625,0.00021506007760763168,0.0005459501408040524,-0.00019991234876215458
1746729096060526600,3.338526611328125,0.00009850319474935532,0.0009791883639991283,-0.0004207862075418234
1746729096070544000,3.3485439453125,0.002187752863392234,0.000513934064656496,-0.0013390439562499523
1746729096080561700,3.358561767578125,0.00010266900062561035,-0.0010374723933637142,0.0003847826737910509
1746729096090578400,3.368578369140625,-0.0004336917772889137,-0.0010169660672545433,0.001295317430049181
1746729096100596700,3.3785966796875,0.00009231036528944969,-0.0006057154387235641,-0.0010249610058963299
1746729096110613500,3.388613525390625,0.001713908975943923,-0.0008414052426815033,-0.003370939288288355
1746729096120631800,3.3986318359375,0.0002073482610285282,0.0006523039191961288,0.0028285894077271223
1746729096130648600,3.408648681640625,0.001084593590348959,0.0005356576293706894,0.0007332141976803541
1746729096140665900,3.418665771484375,0.0022028631065040827,0.0007853545248508453,-0.0008926363661885262
1746729096150683600,3.42868359375,0.0011485174763947725,0.0022729961201548576,-0.0009600142948329449
1746729096160700700,3.43870068359375,0.0003557000309228897,0.00040153227746486664,-0.0008590912912040949
1746729096170718700,3.44871875,-0.002041411120444536,0.000386619009077549,0.0014884850243106484
1746729096180735500,3.458735595703125,-0.0008529848419129848,0.0018534236587584019,0.0007185135036706924
1746729096190753800,3.46875390625,0.0016953942831605673,-0.0003037368878722191,0.0002801571972668171
1746729096200770600,3.4787705078125,0.0020486831199377775,0.0009054401889443398,-0.0014469549059867859
1746729096210787600,3.48878759765625,-0.00003816979005932808,0.0003754710778594017,-0.00008634594269096851
1746729096220805600,3.4988056640625,-0.00010664388537406921,0.00017953524366021156,0.0012216372415423393
1746729096230822700,3.50882275390625,-0.0018637971952557564,0.00027727335691452026,-0.0007088880520313978
1746729096240840700,3.5188408203125,-0.0004028966650366783,-0.0011049690656363964,-0.0016227003652602434
1746729096250857500,3.528857421875,0.000817629974335432,0.002271919511258602,0.0010721520520746708
1746729096260875800,3.538875732421875,-0.0011951574124395847,-0.0004824381321668625,-0.00026621250435709953
1746729096270892500,3.548892578125,-0.002928874921053648,-0.0008875047788023949,-0.00008831336162984371
1746729096280909600,3.55890966796875,-0.0013396409340202808,0.00046948203817009926,-0.000365131301805377
1746729096290927600,3.568927734375,-0.0015795915387570858,-0.00034411391243338585,0.0007286288309842348
1746729096300944600,3.578944580078125,0.00012022070586681366,0.0011448157019913197,0.0036620115861296654
1746729096310962700,3.588962646484375,-0.001809505745768547,0.0011330978013575077,0.000691521679982543
1746729096320979700,3.598979736328125,0.0022069907281547785,-0.00010369252413511276,0.00036806357093155384
1746729096330997800,3.608997802734375,0.001416830811649561,0.00031495653092861176,0.00012092222459614277
1746729096341014500,3.6190146484375,0.0009327242150902748,0.001549363136291504,-0.0011327669490128756
1746729096351032800,3.62903271484375,-0.0002393326722085476,-0.00020699156448245049,-0.0014789777342230082
1746729096361049600,3.639049560546875,0.0016451324336230755,-0.0020217655692249537,-0.002655695891007781
1746729096371066600,3.649066650390625,0.0011194245889782906,0.000029933638870716095,0.000051141250878572464
1746729096381084700,3.659084716796875,-0.0005070362240076065,-0.000010033603757619858,-0.00009636091999709606
1746729096391101700,3.669101806640625,0.0006314651109278202,0.0004802541807293892,0.0003731544129550457
1746729096401119700,3.67911962890625,0.0009534298442304134,0.00010932795703411102,0.0004904656670987606
1746729096411136500,3.689136474609375,0.002980894409120083,-0.0018307850696146488,0.0015338921220973134
1746729096421154800,3.69915478515625,0.002432537265121937,-0.0012963078916072845,-0.0002453196793794632
1746729096431171600,3.709171630859375,0.00007617240771651268,-0.0005434323102235794,0.0008167489431798458
1746729096441188600,3.719188720703125,0.0007519787177443504,-0.00040679238736629486,0.00034416699782013893
1746729096451206700,3.72920654296875,-0.0007758769206702709,-0.0018467637710273266,0.00018890481442213058
1746729096461223700,3.7392236328125,-0.001616436056792736,0.00030801165848970413,0.0016972030280157924
1746729096471241700,3.74924169921875,0.001525028608739376,0.0016193524934351444,0.0013792215613648295
1746729096481258800,3.7592587890625,0.0020256026182323694,0.0013940399512648582,-0.000005172332748770714
1746729096491276800,3.76927685546875,-0.001252482645213604,-0.0006051948294043541,0.0013037712778896093
1746729096501293600,3.77929345703125,-0.0013621486723423004,0.0010397308506071568,0.0024694656021893024
1746729096511312000,3.789311767578125,0.0010000751353800297,-0.00000529363751411438,-0.0005622769240289927
1746729096521328600,3.79932861328125,0.0012020883150398731,0.0019036689773201942,0.0002872433979064226
1746729096531345700,3.809345703125,-0.0016919691115617752,0.0030874437652528286,-0.0024211914278566837
1746729096541363700,3.81936376953125,-0.0006552408449351788,0.0003689676523208618,0.0007485738024115562
1746729096551380700,3.829380615234375,-0.001920508686453104,-0.0004275836981832981,-0.00048100785352289677
1746729096561398800,3.839398681640625,0.0017429045401513577,0.0009434763342142105,-0.00013875868171453476
1746729096571415600,3.84941552734375,-0.0016371794044971466,0.00285083195194602,-0.000010926974937319756
1746729096581433600,3.85943359375,-0.0002632755786180496,0.00144640589132905,0.0011210578959435225
1746729096591450600,3.86945068359375,0.003192708594724536,0.0005814111791551113,-0.0006973482668399811
1746729096601468700,3.87946875,-0.000005790963768959045,-0.00013720383867621422,0.002444992307573557
1746729096611485700,3.889485595703125,0.00020113633945584297,-0.0010895500890910625,0.0005123363807797432
1746729096621502700,3.899502685546875,0.0006282106041908264,0.00012519769370555878,-0.0012429039925336838
1746729096631520800,3.909520751953125,-0.0007430510595440865,-0.001268967054784298,-0.0008330433629453182
1746729096641537800,3.919537841796875,0.0014003512915223837,0.0025760363787412643,0.0013771421508863568
1746729096651555600,3.9295556640625,0.00028874771669507027,-0.000238924752920866,-0.00008812895976006985
1746729096661572600,3.939572509765625,0.001253185560926795,-0.0006750607863068581,-0.00047247763723134995
1746729096671590700,3.949590576171875,-0.001544465310871601,0.00018647173419594765,0.0010516494512557983
1746729096681607700,3.959607666015625,0.001297371694818139,-0.0007807957008481026,-0.00021861819550395012
1746729096691624700,3.969624755859375,-0.0008936109952628613,-0.00040582288056612015,-0.001307318452745676
1746729096701642800,3.979642822265625,0.0017780070193111897,0.0010611964389681816,-0.0014541572891175747
1746729096711659800,3.98965966796875,-0.0005655745044350624,-0.0009388374164700508,0.0005187126807868481
1746729096721677600,3.999677490234375,-0.000912209041416645,0.0017066271975636482,-0.0005164069589227438
1746729096731694600,4.009694580078125,-0.001508224755525589,0.000666662584990263,0.0013320931466296315
1746729096741712600,4.019712646484375,-0.000937185250222683,0.001395124476402998,-0.0008823452517390251
1746729096751729700,4.029729736328125,-0.0006767278537154198,0.0017767557874321938,-0.0007835417054593563
1746729096761747700,4.039747802734375,0.000355488620698452,-0.0007078042253851891,0.0011623415630310774
1746729096771764700,4.0497646484375,0.0007989048026502132,0.001431779470294714,-0.0004949436988681555
1746729096781781800,4.05978173828125,0.0012506279163062572,0.0013682972639799118,-0.00005710194818675518
1746729096791799600,4.069799560546875,-0.0002537914551794529,-0.0002620895393192768,0.0025157779455184937
1746729096801816600,4.079816650390625,-0.0008395081385970116,0.0030244099907577038,0.0023235436528921127
1746729096811834600,4.089834716796875,-0.0019708191975951195,-0.0008547501638531685,0.00022577191703021526
1746729096821851600,4.0998515625,-0.00004981923848390579,0.0017604087479412556,-0.0001269953791052103
1746729096831869700,4.10986962890625,0.0012876202818006277,-0.00024282140657305717,0.00025756494142115116
1746729096841886700,4.11988671875,-0.0007620975375175476,0.0007987646386027336,-0.0004402133636176586
1746729096851904500,4.129904541015625,-0.000044109299778938293,-0.0010468061082065105,0.0007318437565118074
1746729096861921300,4.13992138671875,-0.0006771967746317387,-0.00034238118678331375,-0.00030150823295116425
1746729096871938300,4.149938232421875,-0.00012112874537706375,-0.0004582284018397331,-0.001330287428572774
1746729096881956000,4.1599560546875,0.00014477502554655075,0.00028499122709035873,0.0013004266656935215
1746729096891973400,4.169973388671875,0.0022263017017394304,0.0001726057380437851,-0.0024034976959228516
1746729096901991200,4.1799912109375,-0.000919621903449297,-0.0006448184140026569,0.00010298262350261211
1746729096912008200,4.19000830078125,0.004334262106567621,-0.0005617276765406132,0.001200737664476037
1746729096922026200,4.200026123046875,0.0002681654877960682,0.00023058941587805748,0.0008696739096194506
1746729096932043000,4.21004296875,0.0018194566946476698,0.002050593961030245,0.0009442423470318317
1746729096942060300,4.220060302734375,0.00043425895273685455,-0.00032478291541337967,-0.00045459228567779064
1746729096952078000,4.230078125,0.0011224199552088976,-0.0008904379792511463,-0.0003150426782667637
1746729096962095400,4.240095458984375,-0.0016906233504414558,-0.00024126050993800163,-0.0005807296838611364
1746729096972113200,4.250113037109375,0.0005296538583934307,-0.0015296977944672108,-0.0006648856215178967
1746729096982130200,4.260130126953125,-0.0008759666234254837,0.0013521164655685425,0.00037204986438155174
1746729096992148200,4.270148193359375,0.0011403125245124102,0.001283140853047371,0.001908427570015192
1746729097002165000,4.2801650390625,-0.0001936410553753376,-0.0010135839693248272,0.0014629665529355407
1746729097012183300,4.290183349609375,-0.0021300255320966244,0.0015084296464920044,-0.0014979359693825245
1746729097022200000,4.300199951171875,0.0008179754950106144,-0.0031923968344926834,0.0007874700240790844
1746729097032217300,4.31021728515625,0.0005729650147259235,-0.00022749975323677063,0.0022956181783229113
1746729097042235100,4.320235107421875,0.0010287624318152666,0.0010762452147901058,0.0011456578504294157
1746729097052252400,4.33025244140625,-0.0007893778383731842,-0.00017517432570457458,-0.0000426445621997118
1746729097062270200,4.340270263671875,-0.0007583452388644218,-0.0014887028373777866,-0.002701259683817625
1746729097072287000,4.350286865234375,-0.0005610049702227116,-0.00017523206770420074,-0.0002554126549512148
1746729097082305300,4.36030517578125,-0.00026518944650888443,0.0016420753672719002,0.0017815909814089537
1746729097092322000,4.370322021484375,-0.0024303393438458443,-0.0008620950393378735,-0.0016536202747374773
1746729097102340000,4.380340087890625,0.0006869835779070854,-0.00038798386231064796,-0.0015717553906142712
1746729097112357000,4.390357177734375,-0.000007302500307559967,0.0003233463503420353,0.0024216545280069113
1746729097122374400,4.40037451171875,-0.0012850528582930565,0.0003951713442802429,0.0027153752744197845
1746729097132392200,4.41039208984375,-0.0005665319040417671,-0.00036116596311330795,0.002065297681838274
1746729097142409000,4.420408935546875,-0.000927396584302187,0.0008655237033963203,0.0011586875189095736
1746729097152427300,4.43042724609375,0.00179968005977571,-0.000014118384569883347,0.0006327133160084486
1746729097162444000,4.440444091796875,0.0011483952403068542,0.0014234809204936028,0.000945627223700285
1746729097172462300,4.45046240234375,0.0013276259414851665,-0.0017374251037836075,0.0026098366361111403
1746729097182479000,4.46047900390625,0.0008788378909230232,-0.000376909039914608,0.0034220130182802677
1746729097192496400,4.470496337890625,0.00016644224524497986,0.0003501339815557003,-0.004457482136785984
1746729097202514200,4.48051416015625,-0.0003776317462325096,-0.0007358635775744915,0.0011291056871414185
1746729097212531200,4.49053125,-0.00009906478226184845,0.0020170463249087334,0.0008582621812820435
1746729097222549200,4.50054931640625,0.0008204462938010693,-0.0018949499353766441,0.0022188706789165735
1746729097232566000,4.51056591796875,-0.0012371120974421501,-0.00010637054219841957,0.0005618520081043243
1746729097242584300,4.520584228515625,0.0015822204295545816,-0.0002742498181760311,-0.0016495888121426105
1746729097252601000,4.53060107421875,0.00105384923517704,-0.0008111433126032352,-0.002581695094704628
1746729097262619100,4.540619140625,-0.0030418522655963898,0.0010320087894797325,-0.0002968301996588707
1746729097272636200,4.55063623046875,-0.0005238340236246586,-0.0017957352101802826,0.0006877405103296041
1746729097282653200,4.560653076171875,-0.0018223384395241737,0.0007844069041311741,-0.0013359682634472847
1746729097292671200,4.570671142578125,-0.0015384452417492867,-0.0012704883702099323,-0.004484890028834343
1746729097302688000,4.58068798828125,0.000109164509922266,0.0008037257939577103,-0.00022917683236300945
1746729097312706300,4.590706298828125,0.0027041486464440823,0.0002449946478009224,0.0007761665619909763
1746729097322723000,4.60072314453125,-0.002691995818167925,0.0000322023406624794,-0.00000663241371512413
1746729097332741400,4.610741455078125,0.0006505372002720833,0.0007528536953032017,0.001546789426356554
1746729097342758100,4.620758056640625,0.0014653936959803104,-0.0007725721225142479,0.00214838283136487
1746729097352776200,4.630776123046875,-0.002201779279857874,0.0011590183712542057,-0.00005351868458092213
1746729097362793200,4.640793212890625,0.000761908944696188,-0.00042795436456799507,-0.0001254191156476736
1746729097372810200,4.650810302734375,0.0007922686636447906,-0.0009496677666902542,0.0002860391978174448
1746729097382828300,4.660828369140625,-0.0008078697137534618,-0.0008338317275047302,0.0011629997752606869
1746729097392845000,4.670844970703125,-0.0000376836396753788,0.0009978902526199818,-0.00023089861497282982
1746729097402863400,4.68086328125,0.0009582415223121643,0.0011132434010505676,0.0011863845866173506
1746729097412880100,4.690880126953125,-0.00007985858246684074,0.002621924038976431,-0.0009595907758921385
1746729097422898200,4.700898193359375,0.000944941770285368,-0.00008342321962118149,-0.001320966286584735
1746729097432915200,4.710915283203125,-0.002242595888674259,0.002525143325328827,0.002535823732614517
1746729097442933000,4.72093310546875,-0.0014169332571327686,-0.0003378167748451233,-0.0005936736706644297
1746729097452950300,4.7309501953125,0.0007503470405936241,-0.0017394386231899261,-0.0006056579295545816
1746729097462967000,4.740967041015625,-0.0016833520494401455,-0.0010990290902554989,-0.0013882184866815805
1746729097472985300,4.7509853515625,-0.0018207710236310959,0.0012517431750893593,0.003100805915892124
1746729097483002000,4.761002197265625,-0.00032385485246777534,0.0007579522207379341,0.0015117875300347805
1746729097493020400,4.7710205078125,0.00003247614949941635,-0.00007641594856977463,0.0009759594686329365
1746729097503037200,4.781037109375,0.0006680954247713089,-0.0010802256874740124,0.00224914588034153
1746729097513055000,4.791054931640625,0.0011946021113544703,-0.001658664084970951,0.00012181280180811882
1746729097523072300,4.801072265625,-0.00046561937779188156,-0.0027438041288405657,0.0015409395564347506
1746729097533090000,4.811090087890625,0.0015863461885601282,-0.000403418205678463,0.0011963264551013708
1746729097543107300,4.821107421875,-0.00041572563350200653,-0.0002684560604393482,0.0012748886365443468
1746729097553124000,4.8311240234375,0.0004061260260641575,0.0022338503040373325,-0.0025544706732034683
1746729097563142400,4.841142333984375,0.0008618361316621304,-0.0001435144804418087,-0.0011564013548195362
1746729097573159200,4.8511591796875,-0.0005839942023158073,-0.0008095712400972843,0.0007003545761108398
1746729097583177200,4.86117724609375,-0.0005600964650511742,-0.0009003994055092335,0.0010865749791264534
1746729097593194200,4.8711943359375,0.0019619169179350138,-0.0001714923419058323,0.0006618006154894829
1746729097603212000,4.8812119140625,-0.0008415305055677891,-0.00038290955126285553,-0.0024514636024832726
1746729097613229300,4.891229248046875,0.0014402656815946102,-0.0024172982666641474,0.0007421993650496006
1746729097623247000,4.9012470703125,-0.00030771270394325256,-0.003186579793691635,0.0017098034732043743
1746729097633264400,4.911264404296875,-0.0021482231095433235,-0.00011062901467084885,-0.00022817892022430897
1746729097643281200,4.92128125,-0.00044694356620311737,0.0013791988603770733,-0.0010302597656846046
1746729097653299200,4.93129931640625,-0.0004647867754101753,0.0014484408311545849,0.0002480577677488327
1746729097663316200,4.941316162109375,0.0007996284402906895,-0.001441318541765213,-0.0012556773144751787
1746729097673334000,4.951333984375,0.00044516194611787796,-0.0020575737580657005,0.0006450209766626358
1746729097683351300,4.961351318359375,0.0008277883753180504,-0.0012012026272714138,-0.0005477748345583677
1746729097693369000,4.971369140625,-0.0008934126235544682,0.00043557630851864815,0.0003893913235515356
1746729097703386400,4.981386474609375,0.000002387445420026779,0.0015498343855142593,0.0008440751116722822
1746729097713404200,4.991404052734375,0.0006769662722945213,0.001671541016548872,0.0006571211852133274
1746729097723421200,5.001421142578125,0.0004953299649059772,-0.0004833964630961418,-0.0012327248696237803
1746729097733438200,5.011438232421875,-0.0010421127080917358,0.00031874747946858406,-0.00019941828213632107
1746729097743456000,5.0214560546875,-0.0013024518266320229,0.00039860140532255173,0.0015471549704670906
1746729097753473300,5.031473388671875,0.00002326956018805504,-0.0008189957588911057,-0.000674187671393156
1746729097763491000,5.041490966796875,0.0013142295647412539,0.0024368111044168472,0.000975010683760047
1746729097773508400,5.05150830078125,0.0017033172771334648,0.000733720138669014,-0.0006982535123825073
1746729097783526100,5.061526123046875,0.000263286754488945,-0.000812828540802002,-0.00027210661210119724
1746729097793543200,5.071543212890625,0.001879293005913496,-0.001050648745149374,-0.0015815829392522573
1746729097803560200,5.081560302734375,-0.00018623517826199532,-0.0014368081465363503,-0.001509157009422779
1746729097813578200,5.091578125,0.001727778697386384,0.0002833278849720955,-0.0011467006988823414
1746729097823595300,5.10159521484375,-0.0009541274048388004,-0.0005940473638474941,0.00195782957598567
1746729097833613000,5.111613037109375,0.0009902466554194689,0.002862735651433468,-0.0025509020779281855
1746729097843630300,5.12163037109375,-0.0005057370290160179,-0.00010465923696756363,-0.0007344242185354233
1746729097853648100,5.131648193359375,0.0018114792183041573,-0.0013448931276798248,0.0017918504308909178
1746729097863665400,5.14166552734375,0.0014551267959177494,-0.0015059174038469791,-0.0013869339600205421
1746729097873683500,5.151683349609375,0.0009043850004673004,-0.0013117729686200619,0.0019097930053249002
1746729097883700500,5.161700439453125,-0.0007228977046906948,0.00006494764238595963,0.0004980883095413446
1746729097893718500,5.171718505859375,0.0010201409459114075,-0.0005574328824877739,-0.00019300193525850773
1746729097903735300,5.1817353515625,-0.0008711451664566994,-0.0009441375732421875,0.0014473597984761
1746729097913752300,5.19175244140625,-0.0014253491535782814,-0.0007625101134181023,-0.002652843249961734
1746729097923770400,5.201770263671875,-0.0007400577887892723,0.0005075186491012573,0.000988418236374855
1746729097933787400,5.211787353515625,-0.000569615513086319,-0.0008959672413766384,-0.0006904385518282652
1746729097943805400,5.221805419921875,-0.0005411766469478607,0.0025446456857025623,0.000505449716001749
1746729097953822500,5.231822509765625,-0.0006719375960528851,0.0015278509818017483,-0.00212122593075037
1746729097963840500,5.241840576171875,-0.00035956548526883125,-0.0009281705133616924,0.0020009437575936317
1746729097973857300,5.251857177734375,-0.00034944573417305946,0.0009765224531292915,0.0013343545142561197
1746729097983875600,5.26187548828125,0.0016378727741539478,0.00020836340263485909,0.0018468396738171577
1746729097993892400,5.271892333984375,-0.0027243848890066147,-0.0014928639866411686,-0.001577719347551465
1746729098003909400,5.281909423828125,-0.0005980152636766434,0.0014367569237947464,-0.00245661404915154
1746729098013927400,5.291927490234375,0.001553552458062768,-0.0014967150054872036,-0.0007426037918776274
1746729098023944400,5.3019443359375,-0.0005522235296666622,-0.000691720750182867,-0.0019211077596992254
1746729098033962500,5.31196240234375,0.000021954067051410675,0.0006007114425301552,0.00004909886047244072
1746729098043979500,5.3219794921875,0.0006107795052230358,-0.0019319793209433556,-0.0004153719637542963
1746729098053997600,5.33199755859375,-0.0007650097832083702,0.0005362383089959621,-0.0007511964067816734
1746729098064014300,5.342014404296875,0.00028495630249381065,0.0010216664522886276,-0.000729625578969717
1746729098074032400,5.352032470703125,-0.00024181697517633438,-0.0020569476764649153,0.001314616994932294
1746729098084049400,5.36204931640625,-0.0002897433005273342,-0.001681298017501831,-0.0002065831795334816
1746729098094066400,5.37206640625,-0.0015486194752156734,-0.00008047185838222504,-0.00042043509893119335
1746729098104084500,5.38208447265625,0.0015557187143713236,-0.00003607897087931633,-0.0004536875057965517
1746729098114101500,5.3921015625,-0.00013166014105081558,-0.00005765073001384735,0.0008800236973911524
1746729098124119600,5.40211962890625,-0.0007765158079564571,0.0009533939883112907,-0.0009254664182662964
1746729098134136300,5.41213623046875,0.0013524149544537067,0.0003605745732784271,0.0003248876892030239
1746729098144154400,5.422154296875,-0.00047122081741690636,-0.0036600539460778236,-0.0011814464814960957
1746729098154171400,5.43217138671875,0.00018045492470264435,0.0003722384572029114,-0.002117547672241926
1746729098164189400,5.442189453125,-0.0010219360701739788,-0.0005428777076303959,-0.0007556283380836248
1746729098174206500,5.45220654296875,-0.000701291486620903,-0.001341293565928936,0.0006758207455277443
1746729098184223500,5.462223388671875,0.000012300442904233932,0.0009758090600371361,-0.0011265515349805355
1746729098194241300,5.4722412109375,-0.00044656218960881233,-0.0010764230974018574,0.002164849080145359
1746729098204258600,5.482258544921875,0.0002704276703298092,-0.001005040481686592,0.000020900508388876915
1746729098214276400,5.4922763671875,-0.0027088504284620285,-0.0006561665795743465,-0.0014259947929531336
1746729098224293400,5.50229345703125,0.0019280172418802977,-0.0013156612403690815,0.0012277085334062576
1746729098234311400,5.5123115234375,0.002109111985191703,-0.0018554842099547386,-0.0016181454993784428
1746729098244328400,5.522328369140625,-0.0002409759908914566,0.0027735582552850246,-0.0030881529673933983
1746729098254346500,5.532346435546875,0.0015364177525043488,-0.001812404952943325,0.00023094471544027328
1746729098264363300,5.54236328125,-0.0020062015391886234,0.00035855313763022423,0.000850361306220293
1746729098274380500,5.552380615234375,-0.0015398822724819183,0.0011108960025012493,-0.0024162721820175648
1746729098284398300,5.5623984375,-0.00035452237352728844,-0.0000599580816924572,0.0009674972388893366
1746729098294415400,5.572415283203125,0.0005911658518016338,-0.0016847527585923672,-0.00250792782753706
1746729098304433400,5.582433349609375,0.0017656644340604544,-0.0006339033134281635,0.00027620396576821804
1746729098314450400,5.592450439453125,0.00035472167655825615,0.0011866339482367039,0.0007398603484034538
1746729098324468500,5.602468505859375,0.0008314000442624092,-0.00014468375593423843,-0.0002615076955407858
1746729098334485200,5.6124853515625,0.0013459227047860622,-0.001573735848069191,0.000609612325206399
1746729098344503300,5.62250341796875,-0.0003007231280207634,0.000670404639095068,0.002428377280011773
1746729098354520300,5.632520263671875,-0.0006762286648154259,0.001199308317154646,-0.00014556781388819218
1746729098364537600,5.64253759765625,0.00004241056740283966,0.002020886167883873,0.0003480524756014347
1746729098374555400,5.652555419921875,0.0007540071383118629,0.0004517515189945698,0.002500152913853526
1746729098384572400,5.662572509765625,-0.0005196379497647285,-0.0003071748651564121,0.0037343602161854506
1746729098394590500,5.672590576171875,-0.00017582392320036888,0.0004068184643983841,0.0015660144854336977
1746729098404607200,5.682607177734375,0.0009295097552239895,0.0004317359998822212,0.000014049699530005455
1746729098414625300,5.692625244140625,0.0009998173918575048,-0.00019224267452955246,0.0013403039192780852
1746729098424642300,5.702642333984375,-0.00035313377156853676,-0.0004191421903669834,-0.0011087385937571526
1746729098434660400,5.712660400390625,0.0014474294148385525,0.0017015333287417889,-0.0005233755800873041
1746729098444677400,5.722677490234375,0.0019707120954990387,-0.002151516266167164,-0.00111403688788414
1746729098454695400,5.7326953125,-0.00016514305025339127,0.0020440276712179184,0.0007160871755331755
1746729098464712400,5.74271240234375,-0.0005473983474075794,0.00126350624486804,0.0010041480418294668
1746729098474729200,5.752729248046875,0.002542667556554079,0.0007676254026591778,-0.00015406077727675438
1746729098484747500,5.76274755859375,-0.0019636270590126514,0.0017919219098985195,0.0009581167250871658
1746729098494764300,5.772764404296875,0.0009786330629140139,-0.0008105188608169556,-0.0019553813617676497
1746729098504782300,5.7827822265625,0.0003061695024371147,-0.002804278861731291,-0.00142803811468184
1746729098514799400,5.79279931640625,-0.002736758440732956,0.0007822001352906227,0.0014622907619923353
1746729098524817400,5.8028173828125,0.0025305338203907013,-0.0003465590998530388,0.0001946217380464077
1746729098534834400,5.81283447265625,-0.0007877647876739502,-0.0019351348746567965,0.0014385842951014638
1746729098544852500,5.8228525390625,0.0011478373780846596,0.0009692544117569923,0.0015637228498235345
1746729098554869500,5.832869384765625,-0.0014327657409012318,0.0005455454811453819,0.0023909006267786026
1746729098564886300,5.84288623046875,0.0010267256293445826,-0.0007376382127404213,0.0008797240443527699
1746729098574904300,5.852904296875,0.0002080700360238552,-7.413327693939209e-7,0.0015002405270934105
1746729098584921300,5.86292138671875,0.0019833920523524284,0.001558551099151373,0.003251847578212619
1746729098594939400,5.872939453125,-0.0019612819887697697,-0.0007749106734991074,0.000976709183305502
1746729098604956400,5.882956298828125,0.0016733400989323854,-0.000047091394662857056,0.0010159173980355263
1746729098614974500,5.892974365234375,-0.000454791821539402,-0.0006617489270865917,0.0015805074945092201
1746729098624991500,5.902991455078125,-0.000015810132026672363,-0.0010445145890116692,0.0010507367551326752
1746729098635009300,5.91300927734375,-0.002029160037636757,-0.0015313401818275452,0.00040438747964799404
1746729098645026600,5.923026611328125,-0.0010126852430403233,-0.0005207033827900887,-0.0005091703496873379
1746729098655043300,5.933043212890625,-0.0000600726343691349,0.0008628088980913162,-0.0015083886682987213
1746729098665061400,5.943061279296875,0.0009935100097209215,-0.001900393981486559,0.0004217184614390135
1746729098675078400,5.953078369140625,-0.00016736192628741264,-0.00044577568769454956,0.0003636616747826338
1746729098685096400,5.963096435546875,-0.0020579309202730656,0.0017225779592990875,0.00037702801637351513
1746729098695113500,5.973113525390625,-0.0012555206194519997,-0.0004353816621005535,0.0012886279728263617
1746729098705131300,5.98313134765625,-0.00007189717143774033,0.0016071945428848267,-0.002243428723886609
1746729098715148500,5.9931484375,-0.001204539556056261,0.000170951709151268,0.00036460510455071926
1746729098725166300,6.003166259765625,-0.0010382295586168766,-0.0008311215788125992,0.002428545616567135
1746729098735183400,6.013183349609375,0.000394551083445549,-0.0009778616949915886,-0.000950473127886653
1746729098745201400,6.023201416015625,0.0012892135418951511,-0.0006551677361130714,0.0006057615391910076
1746729098755218400,6.033218505859375,-0.0015108343213796616,0.0003392565995454788,0.0010694179218262434
1746729098765235500,6.0432353515625,0.00029379967600107193,0.001059228554368019,-0.0009678849019110203
1746729098775253200,6.053253173828125,-0.00019036326557397842,-0.0016377544961869717,0.002027638489380479
1746729098785270500,6.0632705078125,-0.00023713195696473122,0.0014550131745636463,0.002509156009182334
1746729098795288300,6.073288330078125,0.0012204160448163748,0.0002877498045563698,-0.0010387070942670107
1746729098805305600,6.0833056640625,-0.0002047535963356495,0.0004805503413081169,-0.0001007311511784792
1746729098815323400,6.093323486328125,-0.00046308012679219246,0.0004366077482700348,-0.0035705636255443096
1746729098825340400,6.10334033203125,-0.0008280356414616108,0.00007519545033574104,-0.003438372164964676
1746729098835358500,6.1133583984375,0.0015493680257350206,-0.00011894898489117622,-0.0008343332447111607
1746729098845375200,6.123375244140625,0.00005979789420962334,0.001539374701678753,-0.00022938288748264313
1746729098855392500,6.133392578125,-0.0010459464974701405,0.00042004790157079697,0.0024143371265381575
1746729098865410300,6.143410400390625,-0.0008681882172822952,-0.0008005625568330288,-0.0002473099157214165
1746729098875427600,6.153427490234375,0.0002615246921777725,-0.0004471610300242901,0.0015356764197349548
1746729098885445400,6.1634453125,-0.0019932552240788937,0.0007482143118977547,0.0026190653443336487
1746729098895462400,6.17346240234375,-0.0011884481646120548,0.0000027958303689956665,-0.0008595555555075407
1746729098905480400,6.18348046875,0.0026486068964004517,-0.000007417518645524979,0.003326656762510538
1746729098915497200,6.193497314453125,0.0007915846072137356,0.0008069770410656929,0.0023034701589494944
1746729098925515500,6.203515625,0.00018036458641290665,0.0021489118225872517,-0.002415474969893694
1746729098935532300,6.2135322265625,-0.000984768383204937,-0.000401331577450037,-0.0026293271221220493
1746729098945549600,6.223549560546875,-0.00044724438339471817,0.0010912399739027023,-0.0011628016363829374
1746729098955567400,6.2335673828125,0.000567952636629343,0.002587404102087021,-0.0010964886751025915
1746729098965584600,6.243584716796875,-0.00002160482108592987,-0.0005799918435513973,0.00010705436579883099
1746729098975602400,6.2536025390625,0.0013107748236507177,-0.0014170235954225063,0.0012817747192457318
1746729098985619200,6.263619140625,0.0014028525911271572,0.00012672320008277893,0.0009019521530717611
1746729098995637500,6.273637451171875,-0.002015847247093916,-0.0008932673372328281,-0.00259424583055079
1746729099005654300,6.283654296875,0.00177478208206594,-0.0000618835911154747,-0.0013646383304148912
1746729099015672300,6.29367236328125,-0.00015654228627681732,-0.0006757420487701893,0.0008881294634193182
1746729099025689300,6.303689453125,0.00018522562459111214,0.0018279924988746643,-0.000019188271835446358
1746729099035707400,6.313707275390625,0.00012210849672555923,0.00109455781057477,0.0006633799057453871
1746729099045724400,6.323724365234375,-0.00012692203745245934,0.0005752472206950188,-0.002760624047368765
1746729099055741200,6.3337412109375,0.002048614202067256,0.0021774047054350376,-0.0017843092791736126
1746729099065759500,6.343759521484375,-0.00028440915048122406,0.0004927385598421097,0.000007509486749768257
1746729099075776300,6.3537763671875,0.000738510861992836,0.0010924823582172394,0.0023319164756685495
1746729099085794600,6.363794677734375,0.0008089221082627773,0.0019495519809424877,0.0033727993723005056
1746729099095811300,6.373811279296875,0.00101238745264709,0.00215967558324337,0.001496868790127337
1746729099105829400,6.383829345703125,-0.000170873012393713,-0.00007062824442982674,-0.0010778710711747408
1746729099115846400,6.393846435546875,-0.002400738187134266,-0.0021702644880861044,0.002551751211285591
1746729099125864400,6.403864501953125,0.0005638650618493557,-0.0006466316990554333,0.0007800341118127108
1746729099135881500,6.413881591796875,0.002028337214142084,0.0007858830504119396,0.00004313746467232704
1746729099145899300,6.423899169921875,-0.0001335623674094677,-0.0004769153892993927,0.0020516756922006607
1746729099155916500,6.43391650390625,-0.00043130386620759964,-0.0008100769482553005,-0.00008817436173558235
1746729099165933300,6.443933349609375,0.000634755939245224,-0.00108338613063097,0.0014458070509135723
1746729099175951400,6.453951416015625,-0.0008707288652658463,0.0020189303904771805,-0.00045648892410099506
1746729099185968400,6.463968505859375,0.0015907238703221083,-0.0009044180624186993,-0.00009723333641886711
1746729099195986400,6.473986328125,0.0005196006968617439,-0.00019947951659560204,0.0019267690367996693
1746729099206003500,6.48400341796875,-0.000395909883081913,-0.001796023454517126,-0.0020598045084625483
1746729099216021200,6.494021240234375,0.00259988009929657,-0.0015470180660486221,-0.0011527317110449076
1746729099226038500,6.50403857421875,-0.0005886969156563282,-0.0015733339823782444,0.0012428207555785775
1746729099236056300,6.514056396484375,-0.0008480888791382313,-0.0007064747624099255,-0.0005034140776842833
1746729099246073600,6.524073486328125,-0.000005648471415042877,-0.0009770072065293789,0.0012129924725741148
1746729099256090400,6.53409033203125,0.002870831871405244,0.001969513949006796,0.00030032708309590816
1746729099266108400,6.5441083984375,0.0011220460291951895,-0.0011751065030694008,0.0023923793341964483
1746729099276125400,6.55412548828125,-0.0007616076618432999,0.00019002985209226608,0.0006783688440918922
1746729099286143200,6.564143310546875,-0.001877829898148775,0.0009410004131495953,0.0013582404935732484
1746729099296160500,6.574160400390625,0.0033044153824448586,-0.001977557549253106,-0.00042607751674950123
1746729099306178300,6.58417822265625,0.0002976786345243454,-0.00045780325308442116,-0.0022932644933462143
1746729099316195600,6.594195556640625,0.0009584086947143078,0.0005613882094621658,0.0019251828780397773
1746729099326213400,6.60421337890625,0.002217924455180764,-0.0024637077003717422,0.0005555972456932068
1746729099336230400,6.61423046875,-0.002951804082840681,0.0011166459880769253,0.0009998125024139881
1746729099346248400,6.62424853515625,-0.00158629659563303,-0.0007735337130725384,0.0015441925497725606
1746729099356265200,6.63426513671875,0.00044569559395313263,0.0006243595853447914,0.0009234098251909018
1746729099366282500,6.644282470703125,0.00040697352960705757,-0.0030178551096469164,-0.0019793955143541098
1746729099376300300,6.65430029296875,0.00017767539247870445,-0.0003560255281627178,-0.0022869904059916735
1746729099386317600,6.664317626953125,0.00013505946844816208,-0.0012603984214365482,-0.0011875452473759651
1746729099396335400,6.67433544921875,0.0007180254906415939,0.0014909133315086365,0.00026201363652944565
1746729099406352600,6.6843525390625,0.0004793205298483372,-0.0013746493496000767,-0.0007038649637252092
1746729099416370400,6.694370361328125,0.0006905090995132923,0.00192926824092865,0.0005323742516338825
1746729099426387200,6.70438720703125,0.00019189482554793358,0.0013105799444019794,0.0003414291422814131
1746729099436405500,6.714405517578125,0.0009298566728830338,0.0015947390347719193,-0.00016137585043907166
1746729099446422300,6.72442236328125,0.00018355203792452812,-0.00010477518662810326,-0.002511371159926057
1746729099456440600,6.734440673828125,-0.0028172978200018406,0.0017573069781064987,0.0008790991269052029
1746729099466457300,6.744457275390625,0.00017808424308896065,-0.0007729297503829002,0.0005955065134912729
1746729099476474400,6.754474365234375,0.0009727715514600277,0.0004340149462223053,0.0007435781881213188
1746729099486492400,6.764492431640625,-0.0026576374657452106,-0.0006429278291761875,-0.0025639194063842297
1746729099496509400,6.774509521484375,0.0000563901849091053,0.0007690801285207272,-0.00023738201707601547
1746729099506527500,6.784527587890625,-0.0007020668126642704,0.0010218811221420765,-0.0005185720510780811
1746729099516544300,6.794544189453125,-0.002175860106945038,0.0039247265085577965,0.0013448416721075773
1746729099526562600,6.8045625,-0.0006784829311072826,-0.00208827736787498,-0.0005511061754077673
1746729099536579300,6.814579345703125,-0.0003450550138950348,0.0002435864880681038,0.0014896742068231106
1746729099546597400,6.824597412109375,-0.0007757004350423813,0.0010328278876841068,0.00018065213225781918
1746729099556614400,6.834614501953125,0.0023646990302950144,0.0009065940976142883,-0.00007208180613815784
1746729099566631400,6.84463134765625,-0.0008049211464822292,0.0002605891786515713,-0.0011868779547512531
1746729099576649500,6.8546494140625,0.0004731300286948681,0.000911998562514782,-0.0021093967370688915
1746729099586666200,6.864666259765625,0.002072178525850177,0.00011104578152298927,-0.002594092395156622
1746729099596684500,6.8746845703125,0.0009062467142939568,0.0012111975811421871,0.0024073238018900156
1746729099606701300,6.884701416015625,-0.0004842630587518215,-0.00016763294115662575,-0.0026698638685047626
1746729099616719400,6.89471923828125,0.0001391828991472721,-0.0006901449523866177,-0.0032485686242580414
1746729099626736400,6.904736328125,0.0005052387714385986,0.00017909705638885498,0.000588809372857213
1746729099636754400,6.91475439453125,-0.0017328816466033459,0.0002656495198607445,-0.0020064411219209433
1746729099646771500,6.924771484375,0.0006183837540447712,0.0014435607008635998,0.00003515905700623989
1746729099656789200,6.934789306640625,-0.0005249115638434887,0.0007799011655151844,-0.0014562113210558891
1746729099666806500,6.944806640625,-0.0009086737409234047,-0.0018641678616404533,-0.00045416015200316906
1746729099676823300,6.9548232421875,-0.0018034959211945534,-0.0015238160267472267,0.001298466231673956
1746729099686841600,6.964841552734375,-0.0001078643836081028,-0.00018183840438723564,0.00255965837277472
1746729099696858400,6.9748583984375,0.00016777263954281807,0.0018272502347826958,-0.0008734224829822779
1746729099706876400,6.98487646484375,-0.001281040720641613,-0.00022793561220169067,0.001573445275425911
1746729099716893400,6.9948935546875,-0.00015532225370407104,-0.0002569640055298805,0.0028341857250779867
1746729099726911200,7.0049111328125,0.0001059272326529026,0.0005125114694237709,-0.0009557141456753016
1746729099736928500,7.014928466796875,0.0016146078705787659,0.0017428919672966003,-0.000006563728675246239
1746729099746946300,7.0249462890625,-0.0014052311889827251,0.00041777873411774635,0.0007276237010955811
1746729099756963600,7.034963623046875,0.0036651610862463713,-0.0003414885140955448,-0.00015388242900371552
1746729099766981400,7.0449814453125,-0.0007482003420591354,-0.000810607336461544,0.0006119227036833763
1746729099776998400,7.054998291015625,0.00002571428194642067,0.0008256388828158379,-0.000483435345813632
1746729099787015400,7.065015380859375,0.0015964650083333254,-0.00013784272596240044,-0.000985046150162816
1746729099797033200,7.075033203125,-0.0007921243086457253,0.0008011879399418831,-0.0014324572402983904
1746729099807050500,7.085050537109375,0.000341054517775774,-0.0006714155897498131,-0.002844354370608926
1746729099817068300,7.095068359375,0.0026409602724015713,-0.0004152199253439903,0.0007216185331344604
1746729099827085600,7.10508544921875,0.00023783231154084206,0.0020267334766685963,-0.0016838510055094957
1746729099837103400,7.115103271484375,0.0005251877009868622,0.0004506749100983143,-0.00045453570783138275
1746729099847120400,7.125120361328125,-0.00006246380507946014,0.0018993476405739784,-0.001450332347303629
1746729099857138400,7.135138427734375,-0.0012102862820029259,0.0005685663782060146,0.00010042637586593628
1746729099867155200,7.1451552734375,-0.00046913931146264076,0.0010839644819498062,0.0000689653679728508
1746729099877173200,7.15517333984375,-0.00028884317725896835,-0.0008151354268193245,-0.0008543524891138077
1746729099887190000,7.16518994140625,-0.0000029760412871837616,-0.0007243710570037365,-0.0002951212227344513
1746729099897207300,7.175207275390625,0.0010721420403569937,0.0011747288517653942,0.0007043632213026285
1746729099907225000,7.18522509765625,0.0008390308357775211,0.001014061737805605,-0.0002831446472555399
1746729099917242400,7.195242431640625,-0.0003660493530333042,0.001500887330621481,0.0005232605617493391
1746729099927260200,7.20526025390625,0.0007154191844165325,0.001289397943764925,-0.0011698163580149412
1746729099937277200,7.215277099609375,0.0018802857957780361,0.000015608035027980804,-0.0018220243509858847
1746729099947295200,7.225295166015625,-0.000578712671995163,0.0006391177885234356,0.00014742091298103333
1746729099957312000,7.23531201171875,0.0017875060439109802,0.0005309935659170151,-0.002608418231830001
1746729099967330300,7.245330322265625,-0.0008665169589221478,0.00042682792991399765,0.0004947986453771591
1746729099977347000,7.25534716796875,0.0009960976894944906,-0.0005332417786121368,0.0016399577725678682
1746729099987365000,7.265365234375,0.0009694378823041916,-0.00013684947043657303,-0.0006263006944209337
1746729099997382100,7.275382080078125,-0.0003469628281891346,0.0002431836910545826,0.0011830510338768363
1746729100007399200,7.285399169921875,0.00029021501541137695,-0.0015300526283681393,0.0000938749872148037
1746729100017417200,7.295417236328125,-0.0008285790681838989,-0.000824581366032362,-0.0007639292161911726
1746729100027434000,7.30543408203125,-0.0002883528359234333,0.0012387223541736603,-0.0008306524250656366
1746729100037452300,7.315452392578125,-0.00004786951467394829,0.0001087430864572525,-0.0011643462348729372
1746729100047469000,7.325468994140625,-0.0014994018711149693,-0.0022304856684058905,0.000256081810221076
1746729100057487400,7.3354873046875,0.0020769573748111725,-0.0004227319732308388,-0.00048108119517564774
1746729100067504000,7.345504150390625,-0.0001689898781478405,0.0014295084401965141,-0.0013265854213386774
1746729100077522200,7.355522216796875,0.0009364883881062269,-0.0013489676639437675,0.002154432237148285
1746729100087539200,7.365539306640625,-0.0002840152010321617,-0.0006809341721236706,-0.0005864028353244066
1746729100097557200,7.37555712890625,-0.0015788436867296696,-0.0022335571702569723,-0.0035073580220341682
1746729100107574300,7.38557421875,0.0009752893820405006,-0.0019925981760025024,0.00008294638246297836
1746729100117591000,7.395591064453125,0.0014088519383221865,-0.0002775224857032299,-0.0021868657786399126
1746729100127609300,7.405609375,0.0010016968008130789,-0.0011753849685192108,-0.0007153269834816456
1746729100137626000,7.415626220703125,0.0014911859761923552,-0.000081624835729599,0.001669533783569932
1746729100147644200,7.42564404296875,-0.00041607487946748734,0.002611023373901844,0.0010208315216004848
1746729100157661200,7.4356611328125,0.0011000626254826784,-0.00013070087879896164,-0.0007355231791734695
1746729100167679200,7.44567919921875,0.0017995226662606,0.0013288650661706924,0.0004660123959183693
1746729100177696300,7.4556962890625,0.0010093627497553825,-0.0033468466717749834,-0.002159065566956997
1746729100187714000,7.465714111328125,-0.0006735706701874733,-0.0005683507770299911,-0.0008676613215357065
1746729100197731300,7.4757314453125,0.00231636012904346,0.0006154244765639305,0.0013318435521796346
1746729100207749000,7.4857490234375,0.0012411896605044603,-0.00039549684152007103,0.0001831266563385725
1746729100217766400,7.495766357421875,0.0016987207345664501,-0.0013531697914004326,0.0010286802425980568
1746729100227783200,7.505783203125,0.0001356569118797779,-0.0020083733834326267,-0.0016336645931005478
1746729100237801200,7.51580126953125,-0.0023200437426567078,-0.0015090303495526314,-0.000987048726528883
1746729100247818200,7.525818359375,-0.0008567972108721733,-0.0000017937272787094116,-0.0018803260754793882
1746729100257836000,7.5358359375,-0.0007769023068249226,-0.0006140545010566711,-0.0008302412461489439
1746729100267853300,7.545853271484375,0.0009542163461446762,-0.0006766980513930321,-0.00044264644384384155
1746729100277871000,7.55587109375,0.0015017620753496885,-0.0008953437209129333,-0.0019561205990612507
1746729100287888400,7.565888427734375,-0.0007715648971498013,-0.001348754856735468,-0.0012729412410408258
1746729100297906200,7.57590625,-0.001127895899116993,-0.00043289363384246826,0.0006567852105945349
1746729100307923200,7.585923095703125,0.00026113633066415787,-0.00012532062828540802,-0.003808500710874796
1746729100317941200,7.595941162109375,0.0020909940358251333,0.00006110034883022308,0.00013191229663789272
1746729100327958000,7.6059580078125,0.0014394598547369242,0.0018251379951834679,0.0010426940862089396
1746729100337975300,7.615975341796875,0.001363825984299183,-0.0009019384160637856,0.0012056796113029122
1746729100347993000,7.6259931640625,-0.0006542708724737167,0.0011782748624682426,0.0007462564390152693
1746729100358010400,7.63601025390625,0.0020658818539232016,0.0016240878030657768,-0.002113179536536336
1746729100368028200,7.646028076171875,-0.001671480480581522,-0.0009076232090592384,0.00027064373716712
1746729100378045200,7.656045166015625,0.0016217846423387527,-0.0011853906325995922,0.0011907657608389854
1746729100388063200,7.666063232421875,-0.000996086746454239,-0.00013656215742230415,0.000217304565012455
1746729100398080000,7.676080078125,0.0009147312957793474,0.0006402819417417049,-0.0016413156408816576
1746729100408098300,7.686098388671875,-0.0016299807466566563,0.0000615464523434639,0.00026861741207540035
1746729100418115000,7.696114990234375,0.0003796406090259552,-0.00010569998994469643,0.00028885737992823124
1746729100428133400,7.70613330078125,-0.00041598640382289886,-0.002320153871551156,0.00035989820025861263
1746729100438150100,7.716150146484375,-0.0005193166434764862,0.00009719748049974442,0.0022342309821397066
1746729100448168200,7.726168212890625,-0.00013334723189473152,-0.0003703576512634754,0.0004639292601495981
1746729100458185200,7.736185302734375,-0.0019959621131420135,0.000376126728951931,-0.0015363709535449743
1746729100468202200,7.7462021484375,-0.0005729482509195805,-0.0001826714724302292,0.0004075791221112013
1746729100478220300,7.75622021484375,-0.000031527597457170486,0.0003944355994462967,0.000605718232691288
1746729100488237000,7.766237060546875,0.001341100549325347,-0.0017122095450758934,0.0009214840829372406
1746729100498255400,7.77625537109375,-0.0006195185706019402,0.0005400259979069233,0.00008285464718937874
1746729100508272000,7.786272216796875,-0.0003877091221511364,-0.0004933550953865051,0.0006085883360356092
1746729100518290200,7.796290283203125,0.0000775451771914959,-0.001855295617133379,0.0006277631036937237
1746729100528307200,7.80630712890625,-0.0004833419807255268,0.0006953100673854351,-0.0020539883989840746
1746729100538325200,7.8163251953125,-0.001206123735755682,-0.0021958178840577602,-0.0012281422968953848
1746729100548342300,7.82634228515625,-0.00010798824951052666,0.00014892546460032463,-0.0005082201678305864
1746729100558360000,7.836360107421875,-0.0010587363503873348,-0.0005986238829791546,0.001365047413855791
1746729100568377300,7.84637744140625,-0.00018519768491387367,-0.00030621886253356934,0.0015183136565610766
1746729100578394000,7.85639404296875,0.0006781988777220249,-0.0017850720323622227,0.00030764052644371986
1746729100588412200,7.866412109375,0.00010841106995940208,-0.0010939538478851318,0.001077489461749792
1746729100598429200,7.87642919921875,-0.0001549758017063141,-0.0002657109871506691,0.0018681819783523679
1746729100608447200,7.886447265625,0.000581816304475069,0.0005013709887862206,-0.0034394965041428804
1746729100618464300,7.89646435546875,0.00000257883220911026,0.0007208157330751419,0.0005637672729790211
1746729100628482000,7.90648193359375,-0.0007157037034630775,0.0005828719586133957,0.0008840982336550951
1746729100638499300,7.916499267578125,-0.003154892474412918,0.00018952321261167526,0.002052426803857088
1746729100648517000,7.92651708984375,-0.0010384740307927132,0.0004155263304710388,-0.0012011912185698748
1746729100658534400,7.936534423828125,0.001623089425265789,0.000617660116404295,0.0002046914305537939
1746729100668552200,7.94655224609375,0.0019138434436172247,-0.00046383729204535484,-0.001064387382939458
1746729100678569000,7.95656884765625,0.0016163683030754328,0.0007782611064612865,0.001097566680982709
1746729100688586200,7.966586181640625,-0.0010498804040253162,0.0006338106468319893,-0.001453411765396595
1746729100698604000,7.97660400390625,-0.0003377511166036129,-0.001919628120958805,-0.0015266486443579197
1746729100708621300,7.986621337890625,0.0008540870621800423,-0.0016501802019774914,0.002441155258566141
1746729100718639000,7.99663916015625,0.00030893832445144653,0.0007602469995617867,-0.001120290020480752
1746729100728656400,8.006656494140625,-0.0007002232596278191,0.00041724927723407745,-0.0006849092897027731
1746729100738674200,8.016674072265625,-0.0009745289571583271,-0.00013668788596987724,-0.001571742119267583
1746729100748691200,8.026691162109374,0.0003845510073006153,-0.0003664139658212662,-0.0002902161795645952
1746729100758709200,8.036709228515624,0.00035552261397242546,-0.0008151568472385406,0.0013265887973830104
1746729100768726000,8.04672607421875,-0.0001788209192454815,-0.0008608144707977772,-0.0005135599058121443
1746729100778744300,8.056744384765626,-0.002700035460293293,-0.0018144925124943256,-0.0027522132731974125
1746729100788761000,8.066760986328125,0.00132791418582201,0.0007662903517484665,0.0001831590197980404
1746729100798778400,8.0767783203125,0.0014022162649780512,-0.000661696307361126,0.0009661284275352955
1746729100808796200,8.086796142578125,0.0002162950113415718,0.00018782075494527817,-0.0035523921251296997
1746729100818813200,8.096813232421875,0.00023200735449790955,0.0019963732920587063,-0.0009843059815466404
1746729100828831200,8.106831298828125,-0.0007786541245877743,-0.00046253297477960587,-0.00423644483089447
1746729100838848000,8.116847900390624,-0.002226082142442465,-0.003097197972238064,0.0006224922835826874
1746729100848866300,8.1268662109375,0.0009857185650616884,0.0012981109321117401,-0.0008263050112873316
1746729100858883000,8.136883056640626,0.0015396559610962868,0.00013058120384812355,-0.0008281690534204245
1746729100868901400,8.1469013671875,-0.0004408075474202633,-0.0017809690907597542,0.0012493474641814828
1746729100878918400,8.15691845703125,-0.000757457222789526,-0.0003300788812339306,-0.0013975684996694326
1746729100888936400,8.1669365234375,-0.002048929687589407,-0.00010997941717505455,0.0016934918239712715
1746729100898953500,8.176953369140625,0.0007457914762198925,-0.000780563335865736,-0.001661025919020176
1746729100908971500,8.186971435546875,0.00014452869072556496,0.000505614560097456,0.00043482729233801365
1746729100918988500,8.196988525390625,-0.0007755933329463005,0.0001657949760556221,0.0015118097653612494
1746729100929005600,8.207005615234374,-0.0005859900265932083,-0.0010126749984920025,0.00010723131708800793
1746729100939023600,8.217023681640624,-0.0005007688887417316,-0.00043716607615351677,0.0027248524129390717
1746729100949040400,8.227040283203126,-0.0009055249392986298,-0.00167376222088933,0.0005106101743876934
1746729100959058400,8.237058349609375,-0.0007305550388991833,-0.00027400488033890724,0.0009348518215119839
1746729100969075500,8.247075439453125,-0.0003479146398603916,-0.00109415827319026,-0.0007731507066637278
1746729100979093500,8.257093505859375,0.0017024532426148653,-0.0008134609088301659,-0.0014261577744036913
1746729100989110500,8.267110595703125,-0.0008017253130674362,0.0008042831905186176,0.0016758630517870188
1746729100999128600,8.277128662109375,0.0009410474449396133,0.0018218769691884518,-0.0016288536135107279
1746729101009145600,8.2871455078125,0.0013232086785137653,-0.0007506408728659153,-0.001765772933140397
1746729101019163600,8.29716357421875,0.000025982968509197235,0.0015303567051887512,-0.0004698785487562418
1746729101029180400,8.307180419921876,0.0018500112928450108,0.0022464683279395103,0.00026044086553156376
1746729101039197400,8.317197509765625,0.00007341662421822548,-0.00019804760813713074,-0.0016016412992030382
1746729101049215500,8.327215576171875,-0.0013084984384477139,-0.0026195242535322905,0.00024171569384634495
1746729101059232500,8.337232421875,-0.0004935711622238159,0.0010790741071105003,0.0010324083268642426
1746729101069250600,8.34725048828125,0.0006187581457197666,-0.0010397029109299183,0.00017951056361198425
1746729101079267600,8.357267578125,0.001318370457738638,-0.0005558067932724953,-0.0001946636475622654
1746729101089285600,8.36728564453125,0.0006534713320434093,-0.00004226807504892349,0.000044898828491568565
1746729101099302700,8.377302734375,0.00027157412841916084,0.0011018258519470692,0.0012875297106802464
1746729101109320700,8.38732080078125,-0.000920331571251154,-0.0007431581616401672,0.002076126169413328
1746729101119337500,8.39733740234375,0.0006594555452466011,0.001087765209376812,-0.0003215176984667778
1746729101129355500,8.40735546875,-0.0008014324121177197,0.001890022773295641,-0.0004879345651715994
1746729101139372500,8.41737255859375,0.002328580943867564,-0.0024613162968307734,-0.00029698596335947514
1746729101149390300,8.427390380859375,0.0008063814602792263,-0.0015147775411605835,-0.0010118233039975166
1746729101159407600,8.43740771484375,-0.0009622238576412201,-0.0003549708053469658,-0.0003907743375748396
1746729101169424600,8.447424560546875,-0.0017742384225130081,0.001007783692330122,0.0003792447969317436
1746729101179442700,8.457442626953124,0.001981884241104126,-0.0002729305997490883,0.0006500883027911186
1746729101189459500,8.46745947265625,0.002788931131362915,-0.00002178596332669258,-0.001463090069591999
1746729101199477500,8.4774775390625,0.0001859576441347599,-0.0001940927468240261,-0.0011879857629537582
1746729101209494500,8.48749462890625,-0.0029391865245997906,0.0003073308616876602,0.0006119676399976015
1746729101219512600,8.4975126953125,-0.0005308897234499454,0.00018455926328897476,0.0013113137101754546
1746729101229529600,8.507529541015625,-0.0001679062843322754,-0.0004482823424041271,0.0011913657654076815
1746729101239547400,8.51754736328125,-0.00218072347342968,0.0010606646537780762,0.003647066652774811
1746729101249564400,8.527564453125,-0.0017506950534880161,-0.0005716891027987003,0.0005337574984878302
1746729101259582500,8.53758251953125,0.0014783877413719893,-0.000687004067003727,-0.0036436766386032104
1746729101269599500,8.547599609375,0.00048741139471530914,-0.0003199120983481407,-0.0002713063731789589
1746729101279617500,8.557617431640624,0.0008962068241089582,0.0019544274546205997,-0.0009227155242115259
1746729101289634600,8.567634521484376,-0.0012320587411522865,-0.00014419946819543839,0.0002776351757347584
1746729101299651600,8.577651611328125,0.001511795911937952,0.0018750093877315521,-0.0017120125703513622
1746729101309669400,8.58766943359375,0.0006100833415985107,-0.0018378566019237041,-0.0015607827808707952
1746729101319686400,8.597686279296875,-0.00288478285074234,-0.0008343774825334549,0.001999064814299345
1746729101329704400,8.607704345703125,-0.0006674760952591896,0.0002883346751332283,-0.0015985083300620317
1746729101339721500,8.617721435546875,0.00043986598029732704,0.00020843977108597755,-0.0014219407457858324
1746729101349739500,8.627739501953124,0.0005561835132539272,0.001151776872575283,0.000018432969227433205
1746729101359756500,8.637756591796874,0.0007828185334801674,0.0006585591472685337,0.0017883697291836143
1746729101369774600,8.647774658203126,-0.002853809390217066,0.0011107046157121658,-0.0004904088564217091
1746729101379791600,8.65779150390625,-0.0029270462691783905,0.0008161594159901142,0.0031261637341231108
1746729101389809700,8.6678095703125,-0.001025704201310873,-0.0003283531405031681,-0.0002475378569215536
1746729101399826400,8.677826416015625,0.002267294330522418,-0.0012838956899940968,0.0011141365393996239
1746729101409844700,8.6878447265625,0.00036509614437818527,0.002102468628436327,-0.0005284552462399006
1746729101419861500,8.697861572265625,0.000970698893070221,-0.0009540417231619358,-0.00018464098684489727
1746729101429878500,8.70787841796875,-0.002077204640954733,-0.0015912381932139397,0.002339109778404236
1746729101439896600,8.717896484375,0.0007502734661102295,-0.0007491465657949448,0.0002471967600286007
1746729101449913600,8.72791357421875,0.0014368784613907337,0.0016180379316210747,0.001507449778728187
1746729101459931600,8.737931640625,-0.001819102093577385,-0.0003673490136861801,0.0008874658960849047
1746729101469948400,8.747948486328125,0.0006510922685265541,0.00006740586832165718,-0.00047207996249198914
1746729101479966700,8.757966796875,0.0006668050773441792,0.0006876559928059578,-0.001329085323959589
1746729101489983500,8.7679833984375,-0.0019722110591828823,0.0013469816185534,-0.000608883798122406
1746729101500001500,8.77800146484375,-0.0007657990790903568,0.0010716104879975319,0.00009552249684929848
1746729101510018600,8.7880185546875,-0.00018120510503649712,-0.0006891088560223579,0.0019373124232515693
1746729101520036400,8.798036376953124,0.003033230546861887,0.0030198758468031883,-0.000297079561278224
1746729101530053600,8.8080537109375,0.002539423294365406,0.00010777497664093971,0.0013877160381525755
1746729101540071400,8.818071533203126,0.00009916862472891808,-0.002166830701753497,0.0014196739066392183
1746729101550088700,8.828088623046876,-0.0004521324299275875,-0.0005388944409787655,0.00047455262392759323
1746729101560105500,8.83810546875,0.003075224347412586,-0.0015703365206718445,0.0013848210219293833
1746729101570123500,8.84812353515625,-0.0006742952391505241,-0.001592549029737711,-0.0004621336702257395
1746729101580140500,8.858140625,-0.0000955900177359581,0.00017073005437850952,-0.0004078052006661892
1746729101590158300,8.868158447265625,-0.0003275880590081215,-0.00009620888158679008,0.0002590783406049013
1746729101600175600,8.878175537109374,0.0007741618901491165,0.0006545362994074821,-0.0014259035233408213
1746729101610193400,8.888193359375,-0.0016524228267371655,-0.0005135573446750641,0.0002923891879618168
1746729101620210400,8.89821044921875,0.0014240611344575882,0.0014843461103737354,-0.000038375379517674446
1746729101630228500,8.908228515625,-0.00020390842109918594,-0.0005862503312528133,-0.0010456510353833437
1746729101640245500,8.91824560546875,-0.0001514442265033722,0.001965856645256281,-0.0009825339075177908
1746729101650263600,8.928263671875,-0.0013777953572571278,0.0012171766720712185,0.00005787983536720276
1746729101660280600,8.938280517578125,0.0002802885137498379,0.0004280819557607174,-0.0003178922925144434
1746729101670298600,8.948298583984375,0.0018335555214434862,-0.00018233712762594223,0.0001300009898841381
1746729101680315400,8.9583154296875,0.0016205026768147945,0.0005199387669563293,-0.0001914424356073141
1746729101690332400,8.96833251953125,-0.0005635116249322891,0.0016727452166378498,-0.0011435092892497778
1746729101700350500,8.9783505859375,-0.001688164658844471,0.00020907213911414146,0.0010448102839291096
1746729101710367500,8.988367431640626,0.00003063306212425232,0.0007292828522622585,-0.000859878258779645
1746729101720385500,8.998385498046876,0.0011760587804019451,-0.0013855337165296078,0.0005928759928792715
1746729101730402600,9.008402587890625,0.0012888363562524319,-0.0007616188377141953,0.0021451199427247047
1746729101740420600,9.018420654296875,0.0009910948574543,0.0016059312038123608,0.000060930149629712105
1746729101750437400,9.028437255859375,0.00017417222261428833,-0.002051558345556259,0.0016547170234844089
1746729101760455700,9.03845556640625,0.0006468836218118668,0.001063274685293436,-0.001054250169545412
1746729101770472400,9.048472412109374,-0.0021130056120455265,0.0005158009007573128,-0.0029616467654705048
1746729101780490800,9.05849072265625,0.001978408545255661,-0.001131097786128521,-0.0016425829380750656
1746729101790507500,9.068507568359376,-0.0000515948049724102,-0.0014198771677911282,-0.000817376421764493
1746729101800525300,9.078525390625,0.0013777236454188824,0.0014653918333351612,-0.0023372427094727755
1746729101810542600,9.08854248046875,-0.001097375527024269,0.0002064141444861889,0.00019142706878483295
1746729101820559600,9.0985595703125,0.000011298339813947678,0.0010458421893417835,-0.001187025336548686
1746729101830577700,9.10857763671875,-0.0020486260764300823,-0.0006029000505805016,-0.0001009244006127119
1746729101840594400,9.118594482421875,-0.0018158657476305962,-0.0017384719103574753,-0.000628496753051877
1746729101850612700,9.12861279296875,0.00014033354818820953,-0.00007576029747724533,-0.00031910790130496025
1746729101860629800,9.138629638671874,-0.0009624813683331013,-0.0006528673693537712,0.00005426723510026932
1746729101870647800,9.148647705078124,-0.00033303117379546165,-0.0010389280505478382,0.0012317171785980463
1746729101880664800,9.158664794921876,-0.0005593998357653618,0.0013773581013083458,0.0019494390580803156
1746729101890683000,9.168682861328126,0.000874621095135808,-0.00026849377900362015,0.00026133935898542404
1746729101900700000,9.178699951171875,0.0006320071406662464,0.00023644138127565384,-0.000020156847313046455
1746729101910718000,9.188718017578125,-0.0009389603510499001,0.0020944285206496716,0.0013100506039336324
1746729101920735000,9.19873486328125,0.0005702530033886433,-0.001234256662428379,0.001047196565195918
1746729101930753000,9.2087529296875,-0.000038963742554187775,-0.001828143373131752,0.00010466994717717171
1746729101940769800,9.218769775390625,0.000321095809340477,0.0005047856830060482,-0.0006450100336223841
1746729101950786800,9.228786865234374,-0.001434342935681343,-0.00014732405543327332,0.00030823657289147377
1746729101960804900,9.238804931640624,-0.00168654415756464,0.00043590832501649857,-0.0011455831117928028
1746729101970822000,9.24882177734375,0.0006692521274089813,-0.0010532187297940254,0.0009699913207441568
1746729101980840000,9.25883984375,0.000234091654419899,-0.000370916910469532,0.0014006244018673897
1746729101990857000,9.26885693359375,0.000338483601808548,0.000010128132998943329,-0.0020605779718607664
1746729102000875000,9.278875,0.0023875196930021048,-0.0014418275095522404,0.003052691463381052
1746729102010892000,9.28889208984375,0.0000973111018538475,0.0008309464901685715,-0.000617185840383172
1746729102020909800,9.298909912109375,0.0015521959867328405,0.0001867278479039669,-0.0003213086165487766
1746729102030926800,9.3089267578125,0.0005631484091281891,-0.001626430545002222,0.002066747285425663
1746729102040945000,9.31894482421875,-0.0006464594043791294,-0.0009246873669326305,-0.0032103066332638264
1746729102050962000,9.3289619140625,-0.0012117903679609299,-0.002078444231301546,-0.0005636094138026237
1746729102060980000,9.33897998046875,0.0010604187846183777,-0.00011356407776474953,0.002387439366430044
1746729102070997000,9.3489970703125,0.00014434615150094032,-0.0010047717951238155,0.00022819987498223782
1746729102081014000,9.359013916015625,-0.0007866951636970043,0.003110344987362623,-0.0005055009387433529
1746729102091031800,9.36903173828125,-0.000010750256478786469,0.0038982033729553223,-0.002421742305159569
1746729102101048800,9.379048828125,0.0005964506417512894,-0.0007119947113096714,-0.0025873910635709763
1746729102111067000,9.38906689453125,0.00005728425458073616,0.002199208829551935,0.00044723786413669586
1746729102121084000,9.399083984375,0.001637337962165475,0.00016002636402845383,0.00016201334074139595
1746729102131102000,9.40910205078125,-0.000815447885543108,0.00028247106820344925,-0.000295302364975214
1746729102141119000,9.419118896484376,0.00043756933882832527,0.0010063182562589645,-0.00042872666381299496
1746729102151136800,9.42913671875,0.0007746007759124041,0.0005268864333629608,0.0011024866253137589
1746729102161153800,9.43915380859375,-0.0031663449481129646,0.0004760199226438999,-0.0011311064008623362
1746729102171171800,9.449171875,0.0005884114652872086,-0.001077188178896904,-0.00009604846127331257
1746729102181188900,9.45918896484375,0.001390555640682578,-0.004068450536578894,0.0014371334109455347
1746729102191207000,9.46920703125,0.0002821679227054119,0.0016691247001290321,-0.00007215002551674843
1746729102201224000,9.479223876953125,0.001856628805398941,0.00047922413796186447,-0.002684710780158639
1746729102211242000,9.489241943359374,-0.0012044361792504787,-0.00020028278231620789,0.00045081833377480507
1746729102221258800,9.4992587890625,0.00033513735979795456,-0.00034649018198251724,0.001848977874033153
1746729102231275800,9.50927587890625,0.0015232041478157043,0.00008062552660703659,0.0018564483616501093
1746729102241293800,9.5192939453125,-0.000266440212726593,0.0019810572266578674,0.00030302652157843113
1746729102251310800,9.529310791015625,-0.000476091168820858,-0.0010668877512216568,0.00035468232817947865
1746729102261329000,9.539328857421875,0.0009092849213629961,0.00030330847948789597,-0.0009910131338983774
1746729102271346000,9.549345947265625,-0.001764087937772274,0.0005907346494495869,0.0001145342830568552
1746729102281364000,9.559364013671875,0.00015685008838772774,0.0037218127399683,-0.001265515573322773
1746729102291381000,9.569381103515624,-0.0005842880345880985,-0.0005139010027050972,0.0023962929844856262
1746729102301399000,9.57939892578125,-0.000984028447419405,0.000011274125427007675,-0.0001432974822819233
1746729102311415800,9.589415771484376,-0.0007680431008338928,-0.00042017269879579544,0.0015051900409162045
1746729102321434000,9.59943408203125,-0.0002689664252102375,0.001850971020758152,0.0005959868431091309
1746729102331451000,9.609450927734375,-0.00034467224031686783,-0.0010393867269158363,0.0003410039935261011
1746729102341469000,9.619468994140625,-0.00348720233887434,-0.0018852069042623043,0.0021381049882620573
1746729102351486000,9.62948583984375,0.000015940982848405838,-0.00039285933598876,-0.0005380159709602594
1746729102361503700,9.639503662109375,0.0027597956359386444,-0.0004120338708162308,-0.0025244681164622307
1746729102371521000,9.64952099609375,0.0003563207574188709,-0.00015037506818771362,0.001896698959171772
1746729102381537800,9.659537841796874,-0.0021840683184564114,0.0009614946320652962,-0.0013851146213710308
1746729102391555800,9.669555908203124,0.0000833636149764061,-0.000054012052714824677,-0.000044750282540917397
1746729102401572900,9.67957275390625,-0.001523321494460106,-0.001109156757593155,0.0007206422742456198
1746729102411591000,9.6895908203125,-0.0005524074658751488,-0.0006798845715820789,0.001604885095730424
1746729102421608000,9.69960791015625,0.0005967468023300171,0.0017166943289339542,0.001063997158780694
1746729102431625700,9.709625732421875,-0.0004545268602669239,-0.0008924850262701511,0.0019314156379550695
1746729102441643000,9.71964306640625,-0.0016193934716284275,0.0009062141180038452,0.003276844508945942
1746729102451660800,9.729660888671875,-0.0023479918017983437,-0.00022529251873493195,-0.00029665022157132626
1746729102461677800,9.739677734375,-0.00124278012663126,0.0008386406116187572,0.000009346986189484596
1746729102471696000,9.74969580078125,-0.001490759663283825,0.001064365729689598,-0.0014837803319096565
1746729102481713000,9.759712890625,0.0029199677519500256,-0.0008863997645676136,-0.00000945432111620903
1746729102491731000,9.76973095703125,-0.002123612444847822,-0.00010610418394207954,0.0005423319526016712
1746729102501748000,9.779748046875,-0.0006969571113586426,-0.000517828855663538,0.0002778798807412386
1746729102511766000,9.78976611328125,0.0004694364033639431,0.0006482098251581192,0.0011260127648711205
1746729102521782800,9.79978271484375,0.002389841713011265,0.001333441585302353,0.0024426793679594994
1746729102531799800,9.8097998046875,-0.0007697949185967445,0.0005530393682420254,-0.0003529251553118229
1746729102541817900,9.81981787109375,0.0014965550508350134,0.000917892437428236,0.0006598748732358217
1746729102551835000,9.8298349609375,0.0007204776629805565,0.0007619727402925491,-0.0006284010596573353
1746729102561853000,9.83985302734375,-0.0012012594379484653,-0.0006095552816987038,0.0002344630192965269
1746729102571870000,9.849869873046876,-0.0006444472819566727,-0.0009056595154106617,0.000230689300224185
1746729102581888000,9.859887939453126,0.0014972668141126633,-0.002140833530575037,0.0006655834149569273
1746729102591904800,9.86990478515625,-0.0012067942880094051,0.0017359363846480846,-0.002801106311380863
1746729102601923000,9.879923095703125,0.0018222848884761333,0.00034203752875328064,0.0006333061028271914
1746729102611939800,9.88993994140625,0.0000945073552429676,0.001518018078058958,-0.001569048035889864
1746729102621958100,9.899958251953125,0.00006254948675632477,-0.0011877533979713917,0.0014182195300236344
1746729102631975000,9.909974853515624,-0.00014925049617886543,-0.0005207895301282406,0.0002731385175138712
1746729102641992700,9.91999267578125,0.0005538240075111389,-0.0021791402250528336,0.00037327338941395283
1746729102652010000,9.930010009765626,0.000627175671979785,0.0016430900432169437,0.0009260287042707205
1746729102662027000,9.940027099609376,-0.00019893702119588852,-0.00044003454968333244,-0.0026987995952367783
1746729102672045000,9.950045166015625,-0.0011658566072583199,-0.0005424665287137032,-0.0011245093774050474
1746729102682061800,9.960061767578125,-0.0003059222362935543,0.0004919050261378288,-0.0004478003829717636
1746729102692080000,9.970080078125,0.000008222181349992752,0.00021311361342668533,-0.00040631298907101154
1746729102702097000,9.980096923828125,-0.0010442589409649372,-0.00033762818202376366,0.0011612235102802515
1746729102712114700,9.99011474609375,0.0017545882146805525,-0.00029343413189053535,-0.0020042292308062315
1746729102722132000,10.000132080078124,-0.00014930590987205505,-0.0009919814765453339,0.0001779648009687662
1746729102732149800,10.010149658203124,0.001230753492563963,-0.0006908020004630089,0.0012073090765625238
1746729102742167000,10.0201669921875,-0.0012640957720577717,-0.0003864024765789509,-0.0007016446907073259
1746729102752184800,10.030184814453126,0.0018151088152080774,0.00007200939580798149,0.0013509657001122832
1746729102762201900,10.040201904296875,0.000611892668530345,0.0007833396084606647,0.0003616013564169407
1746729102772220000,10.050219970703125,-0.000989218708127737,-0.000974366907030344,-0.00001721736043691635
1746729102782237000,10.06023681640625,0.0027301518712192774,0.0007878467440605164,-0.0010252236388623714
1746729102792255000,10.0702548828125,-0.00010967208072543144,0.000170764047652483,-0.0005139373242855072
1746729102802271700,10.080271728515624,-0.002809318248182535,0.002660021185874939,0.0004490616265684366
1746729102812289000,10.0902890625,-0.0011353292502462864,0.0004962836392223835,-0.0014528294559568167
1746729102822306800,10.100306884765626,0.0007746899500489235,0.0008259830065071583,-0.002434470457956195
1746729102832323800,10.11032373046875,-0.00014732824638485909,-0.001026857178658247,0.00019064429216086864
1746729102842342000,10.120341796875,-0.0004029916599392891,0.0019644051790237427,-0.0009396013338118792
1746729102852359000,10.13035888671875,-0.001156478188931942,0.0006094556301832199,0.0025108703412115574
1746729102862376200,10.140376220703125,-0.00025686249136924744,-0.002942668506875634,0.00022747600451111794
1746729102872393200,10.150393310546875,0.0004502725787460804,0.0020247381180524826,-0.0017344518564641476
1746729102882411300,10.160411376953125,0.0013767865020781755,0.0005775764584541321,0.0002477387897670269
1746729102892428000,10.170427978515624,-0.0022466727532446384,0.000808358658105135,0.0007012798450887203
1746729102902446300,10.1804462890625,0.000005296431481838226,0.0006557595916092396,0.0012927678180858493
1746729102912463000,10.190463134765626,-0.0009887367486953735,-0.000471312552690506,0.0029380822088569403
1746729102922481200,10.200481201171876,-0.00004411349073052406,0.0005710488185286522,-0.0007408084347844124
1746729102932498200,10.210498291015625,0.0005762954242527485,-0.0001247781328856945,0.0007183095440268517
1746729102942516000,10.220515869140625,0.0015835030935704708,0.000583090353757143,-0.00018876302056014538
1746729102952533200,10.230533203125,0.0006825856398791075,-0.00038852402940392494,-0.0010660237167030573
1746729102962551000,10.240551025390625,-0.0011584577150642872,0.0005704807117581367,-0.00029264180921018124
1746729102972568000,10.250568115234374,0.0019818528089672327,-0.000648892018944025,0.0035995598882436752
1746729102982585000,10.260585205078126,0.0013932944275438786,-0.0008052196353673935,-0.001654057763516903
1746729102992603100,10.27060302734375,-0.0007107751443982124,-0.001413140445947647,-0.0015938247088342905
1746729103002620200,10.2806201171875,-0.00047082407400012016,0.0005038031376898289,-0.0007304279133677483
1746729103012638200,10.29063818359375,-0.000024727080017328262,-0.0008326959796249866,-0.0004185971338301897
1746729103022655200,10.3006552734375,-0.002013842109590769,0.0021359301172196865,-0.003131026867777109
1746729103032673000,10.310673095703125,-0.000974754337221384,0.0014896518550813198,-0.0012760220561176538
1746729103042690000,10.32068994140625,-0.00254575302824378,-0.0009111878462135792,-0.0022059979382902384
1746729103052708000,10.3307080078125,0.00020150933414697647,-0.002839365741237998,-0.00005451519973576069
1746729103062725000,10.34072509765625,-0.00028558261692523956,-0.0010664993897080421,-0.0017879668157547712
1746729103072743200,10.3507431640625,0.0015630803536623716,-0.0012437463738024235,0.002356158569455147
1746729103082760200,10.36076025390625,0.0012174020521342754,-0.0021044802851974964,0.0001507950946688652
1746729103092778200,10.3707783203125,0.0001992792822420597,-0.001440088264644146,-0.00014974083751440048
1746729103102795000,10.380794921875,0.0015143484342843294,0.0014084288850426674,0.0003059261944144964
1746729103112813300,10.390813232421875,0.0005928166210651398,-0.0021962944883853197,0.0018743897089734674
1746729103122830000,10.400830078125,0.0007342305034399033,0.000021053478121757507,0.00007116328924894333
1746729103132847000,10.41084716796875,0.000719322357326746,-0.0005200672894716263,0.0027302128728479147
1746729103142865200,10.420865234375,0.0012934999540448189,-0.00046786945313215256,-0.0016605406999588013
1746729103152882200,10.430882080078124,-0.0004489002749323845,0.0012018978595733643,0.0008441237732768059
1746729103162900200,10.440900146484376,-0.0021541225723922253,0.000742768868803978,0.0013655705843120813
1746729103172917200,10.450917236328126,-0.00021702423691749573,0.0019475878216326237,0.0002089417539536953
1746729103182935300,10.460935302734375,0.0005427757278084755,-0.0010769637301564217,-0.0015026717446744442
1746729103192952000,10.4709521484375,-0.0010841474868357182,-0.0015733256004750729,-0.0008071474730968475
1746729103202970400,10.480970458984375,0.0014405292458832264,-0.00013841455802321434,0.0002482631243765354
1746729103212987100,10.490987060546875,-0.0003147474490106106,-0.002640143036842346,-0.0007120482623577118
1746729103223005200,10.501005126953125,0.0016711715143173933,-0.0014196163974702358,0.001929274876601994
1746729103233022200,10.511022216796874,-0.0007782187312841415,0.0002588927745819092,0.002076157834380865
1746729103243040000,10.5210400390625,0.00026014773175120354,0.0020208400674164295,0.0001925039105117321
1746729103253057300,10.531057373046876,-0.0008603832684457302,-0.0011356170289218426,0.0005488754250109196
1746729103263075000,10.541074951171876,0.0007468343246728182,-0.001801939681172371,0.001376852160319686
1746729103273092400,10.55109228515625,0.0002484251745045185,-0.0013977829366922379,-0.0008867925498634577
1746729103283110100,10.561110107421875,0.0006851833313703537,-0.0004278598353266716,-0.001623423071578145
1746729103293127200,10.571127197265625,-0.0023632561787962914,-0.001606125384569168,-0.00010059820488095284
1746729103303144200,10.581144287109375,-0.0020194421522319317,0.000786192249506712,0.00045067607425153255
1746729103313162000,10.591161865234374,0.0006514829583466053,-0.0006735599599778652,0.0015450195642188191
1746729103323179300,10.60117919921875,0.0010006234515458345,-0.0007044528611004353,0.0007404785137623549
1746729103333197000,10.611197021484376,-0.0006581493653357029,-0.0008737966418266296,0.0030619895551353693
1746729103343214000,10.621214111328126,-0.0011508343741297722,-0.001994455000385642,-0.0008142415899783373
1746729103353232100,10.631232177734375,-0.0020696045830845833,-0.0017606033943593502,0.001573309418745339
1746729103363249200,10.641249267578125,0.0009395009838044643,0.00019176024943590164,0.002365333493798971
1746729103373267200,10.65126708984375,0.002042182721197605,0.0022270609624683857,-0.00025132973678410053
1746729103383284000,10.661283935546875,-0.00040020234882831573,0.00076312106102705,-0.0026439137291163206
1746729103393302300,10.67130224609375,-0.00015976140275597572,0.00020356150344014168,0.0013728790218010545
1746729103403319000,10.681319091796874,-0.0011821486987173557,0.00040676072239875793,-0.0030061567667871714
1746729103413337300,10.69133740234375,0.0005704271607100964,0.0010240129195153713,-0.00019095884636044502
1746729103423354000,10.70135400390625,0.0006295491475611925,0.0016794167459011078,-0.0004335728008300066
1746729103433372200,10.7113720703125,0.00231065577827394,0.001504015177488327,-0.001343944575637579
1746729103443389200,10.72138916015625,-0.0018326900899410248,0.00028535258024930954,-0.00009412295185029507
1746729103453406200,10.73140625,-0.0013439292088150978,-0.00017410144209861755,0.0014072138583287597
1746729103463424300,10.74142431640625,-0.000009685754776000977,0.0006184550002217293,0.0021062935702502728
1746729103473441000,10.75144091796875,0.0008835454937070608,-0.0011490313336253166,-0.000783050898462534
1746729103483459300,10.761459228515625,-0.0014025121927261353,0.00048508448526263237,0.0017229835502803326
1746729103493476000,10.77147607421875,-0.002558015752583742,0.0006787995807826519,0.0010134298354387283
1746729103503494100,10.781494140625,0.002860984532162547,-0.0006711571477353573,-0.00016368739306926727
1746729103513511200,10.79151123046875,-0.00041595473885536194,-0.0015563149936497211,0.000611139228567481
1746729103523529000,10.801529052734375,0.0013744884636253119,0.002462129108607769,-0.001577446237206459
1746729103533546200,10.811546142578125,-0.0009202677756547928,0.0003626779653131962,-0.0008257115259766579
1746729103543564000,10.82156396484375,-0.0015658177435398102,-0.001228294800966978,-0.0004206448793411255
1746729103553581300,10.831581298828125,-0.001771929208189249,-0.0005522109568119049,0.001909515354782343
1746729103563599000,10.84159912109375,-0.00023475289344787598,0.0009418223053216934,0.00003757956437766552
1746729103573616400,10.851616455078124,-0.001800154335796833,0.00036768708378076553,-0.001501633320003748
1746729103583634200,10.86163427734375,0.0014054926577955484,0.001570104155689478,-0.0031943386420607567
1746729103593651000,10.87165087890625,-0.0021480806171894073,-0.0004451768472790718,0.000059810467064380646
1746729103603669200,10.881669189453126,0.00019363686442375183,-0.0011200220324099064,0.00006167474202811718
1746729103613686000,10.89168603515625,-0.000027870293706655502,0.0007888623513281345,-0.001508691580966115
1746729103623703300,10.901703369140625,-0.0018697124905884266,-0.000703839585185051,-0.0005270505789667368
1746729103633721000,10.91172119140625,0.00007070694118738174,0.00034691300243139267,-0.000814744271337986
1746729103643738400,10.92173828125,0.0015780560206621885,-0.002961265854537487,0.0007445367518812418
1746729103653756200,10.931756103515625,0.00024681026116013527,-0.00043925223872065544,-0.00040429667569696903
1746729103663773200,10.941773193359374,0.0016255290247499943,0.00019111810252070427,0.0002524387091398239
1746729103673791200,10.951791259765624,0.0009758712258189917,-0.0005959337577223778,-0.00152181601151824
1746729103683808000,10.96180810546875,0.00028185127303004265,0.00022645015269517899,0.0010603847913444042
1746729103693826300,10.971826416015626,0.000476060900837183,0.00033965008333325386,0.0004918111953884363
1746729103703843000,10.981843017578125,-0.0003260830417275429,-0.0019128513522446156,0.0013168584555387497
1746729103713861000,10.991861083984375,0.0022811852395534515,-0.0009994362480938435,0.001983160153031349
1746729103723878100,11.001878173828125,0.0000936649739742279,-0.001111289020627737,0.0014910080935806036
1746729103733896200,11.011896240234375,0.0012462371960282326,-0.0008606803603470325,0.0004923923406749964
1746729103743913200,11.021913330078124,0.001655032392591238,-0.0020295416470617056,0.00040291016921401024
1746729103753931000,11.031930908203124,-0.0008969930931925774,0.00040811486542224884,0.0015078909927979112
1746729103763948300,11.0419482421875,-0.00101816700771451,0.0008584554307162762,-0.0014484841376543045
1746729103773965000,11.051965087890625,-0.0013077473267912865,-0.0002662963233888149,-0.0002199986483901739
1746729103783983000,11.061983154296875,0.0005820316728204489,-0.0011206385679543018,0.001930237514898181
1746729103794000100,11.072000244140625,-0.002207447774708271,0.0007105674594640732,0.00009712227620184422
1746729103804018200,11.08201806640625,-0.0010961107909679413,0.000498846173286438,-0.0015732122119516134
1746729103814035200,11.09203515625,0.001495156204327941,0.0003530653193593025,0.002480969298630953
1746729103824053000,11.102052978515625,0.0005382825620472431,-0.00038782600313425064,0.0023075975477695465
1746729103834070300,11.1120703125,-0.00031936774030327797,0.0015084627084434032,-0.0005676534492522478
1746729103844088000,11.122088134765624,0.0003831740468740463,-0.0008292598649859428,0.000708267092704773
1746729103854105300,11.132105224609376,-0.0010292506776750088,-0.0006909486837685108,0.0026948340237140656
1746729103864124200,11.142124267578126,0.0007345606572926044,-0.000305855181068182,0.0022189272567629814
1746729103874141000,11.152140869140625,-0.0010536867193877697,0.002688818611204624,-0.0027300722431391478
1746729103884159000,11.162158935546875,-0.0011796541512012482,0.0024387482553720474,-0.00012763100676238537
1746729103894176000,11.172176025390625,-0.0016307071782648563,-0.0001399712637066841,0.0008741067722439766
1746729103904193800,11.18219384765625,-0.00011670030653476715,-0.0013937875628471375,-0.0018345944117754698
1746729103914211000,11.192211181640625,-0.0018809926696121693,-0.0008926908485591412,0.001598538481630385
1746729103924228900,11.202228759765624,-0.00023409398272633553,-0.0011233207769691944,0.0008376732002943754
1746729103934246100,11.21224609375,-0.00200876547023654,-0.0005004615522921085,-0.0013736551627516747
1746729103944264000,11.222263916015624,0.0010959478095173836,0.0004031490534543991,0.0007033443544059992
1746729103954281000,11.232281005859376,0.000016437843441963196,-0.0006946921348571777,-0.0007131595630198717
1746729103964298000,11.242298095703125,0.000060912687331438065,0.002583925612270832,-0.0010937254410237074
1746729103974315800,11.252315673828125,-0.0009249844588339329,-0.0016129305586218834,0.0010139718651771545
1746729103984333000,11.2623330078125,0.0012263169046491385,-0.0007202387787401676,0.0011511247139424086
1746729103994350800,11.272350830078125,-0.004244831390678883,0.001485117245465517,-0.002383922692388296
1746729104004368000,11.282367919921874,-0.0000538150779902935,0.0015290593728423119,-0.0008544693700969219
1746729104014386000,11.292385986328124,0.0014226885978132486,-0.001631585881114006,-0.002487318590283394
1746729104024403000,11.30240283203125,-0.0005365991964936256,0.00012503517791628838,0.0005159282591193914
1746729104034421000,11.3124208984375,-0.0017375200986862183,-0.0032030416186898947,0.0002143383026123047
1746729104044437800,11.322437744140625,0.0015783815179020166,-0.000860258936882019,0.00033205002546310425
1746729104054456000,11.3324560546875,0.0015355502255260944,-0.00035534147173166275,0.002605107147246599
1746729104064472800,11.342472900390625,-0.0012314743362367153,0.0014931587502360344,0.0020072273910045624
1746729104074491100,11.3524912109375,-0.0013617966324090958,-0.0014537107199430466,0.0018879451090469956
1746729104084508000,11.3625078125,0.001228127395734191,0.0001833345741033554,0.002372906543314457
1746729104094526000,11.37252587890625,-0.004798502661287785,0.0024130460806190968,-0.0015026391483843327
1746729104104543000,11.38254296875,-0.0010250695049762726,0.0008138176053762436,0.0009421426802873611
1746729104114560800,11.392560791015624,0.0017174207605421543,-0.000040547922253608704,-0.0014538217801600695
1746729104124578000,11.402578125,0.001103562070056796,-0.000280765350908041,-0.00030520022846758366
1746729104134594800,11.4125947265625,-0.0012044552713632584,0.0002839849330484867,0.0013314400566741824
1746729104144613000,11.422613037109375,0.00046960776671767235,-0.003542711026966572,-0.0009154689032584429
1746729104154630000,11.4326298828125,-0.0012846975587308407,0.0008051474578678608,0.0007372940890491009
1746729104164648000,11.44264794921875,0.00017205160111188889,0.0006954255513846874,0.0011679271701723337
1746729104174665000,11.4526650390625,-0.00013541476801037788,-0.0009724651463329792,0.0015952021349221468
1746729104184682800,11.462682861328124,0.0002808370627462864,0.0013101305812597275,0.0005264754872769117
1746729104194700000,11.472699951171874,-0.00011892849579453468,0.001129330601543188,0.001021712552756071
1746729104204717800,11.4827177734375,-0.00008430704474449158,-0.0010736365802586079,-0.00006379187107086182
1746729104214735000,11.492735107421876,-0.0016690059565007687,0.0007528308779001236,-0.0010935966856777668
