time,seconds_elapsed,z,y,x
1746576171704889300,0.018889404296875,0.0012519394513219595,0.0006312117911875248,0.0020667114295065403
1746576171714905300,0.0289052734375,-0.00039362767711281776,-0.0007277992554008961,0.0010001156479120255
1746576171724921300,0.03892138671875,0.0010575284250080585,-0.0007701544091105461,-0.000930924667045474
1746576171734936300,0.048936279296875,-0.00285998173058033,0.0004261378198862076,-0.0012374541256576777
1746576171744952300,0.058952392578125,0.0004333662800490856,0.000047604553401470184,0.0019310828065499663
1746576171754968000,0.068968017578125,-0.0001666438765823841,-0.0005356278270483017,0.0005345211829990149
1746576171764983300,0.0789833984375,-0.001155434176325798,0.0014629676006734371,0.0009673985186964273
1746576171774999000,0.0889990234375,0.00037188874557614326,-0.00036955345422029495,0.0008243867196142673
1746576171785014300,0.09901416015625,0.0008807468693703413,0.0005763089284300804,0.0010848448146134615
1746576171795030000,0.109030029296875,0.00011402275413274765,0.00069375429302454,0.00037564500235021114
1746576171805046300,0.11904638671875,-0.0010282443836331367,0.0013294043019413948,-0.0023120020050555468
1746576171815061200,0.129061279296875,0.00009667500853538513,0.0009288648143410683,-0.0023325083311647177
1746576171825077200,0.1390771484375,0.00005963677540421486,-0.0013986681587994099,0.00021088449284434319
1746576171835093200,0.14909326171875,0.0008473999332636595,-0.00043540261685848236,-0.001089537050575018
1746576171845108200,0.159108154296875,0.001202634535729885,-0.001639918889850378,0.0016408588271588087
1746576171855124200,0.169124267578125,-0.0017856983467936516,-0.0019275404047220945,-0.0018167230300605297
1746576171865139200,0.17913916015625,-0.0015846570022404194,-0.0015077153220772743,-0.001770990202203393
1746576171875155200,0.1891552734375,-0.0013910448178648949,-0.0012504537589848042,-0.004186742939054966
1746576171885171200,0.199171142578125,0.0014969196636229753,-0.00011179875582456589,-0.000028635840862989426
1746576171895186200,0.209186279296875,0.0006851879879832268,0.000733222346752882,-0.0018209433183073997
1746576171905202200,0.2192021484375,-0.00019813189283013344,0.0010404693894088268,0.0009543644264340401
1746576171915217200,0.229217041015625,0.0019433156121522188,-0.0006533009000122547,0.0014806052204221487
1746576171925233200,0.239233154296875,-0.0010185018181800842,0.0011292905546724796,-0.0015144012868404388
1746576171935249400,0.24924951171875,0.0006478377617895603,-0.0011051017791032791,-0.0004499359056353569
1746576171945264400,0.259264404296875,-0.0007150610908865929,-0.0019193985499441624,0.00007881782948970795
1746576171955280400,0.2692802734375,0.0010021452326327562,0.00023856107145547867,0.0012327656149864197
1746576171965296400,0.27929638671875,0.0015798995736986399,0.0015954007394611835,-0.00029536522924900055
1746576171975311400,0.289311279296875,0.0002581728622317314,-0.0004722774028778076,-0.0004721991717815399
1746576171985327400,0.299327392578125,0.000752780819311738,0.0006933859549462795,0.00033850339241325855
1746576171995342300,0.30934228515625,-0.0000032908283174037933,-0.0000014328397810459137,0.002723364159464836
1746576172005358300,0.3193583984375,-0.0017894073389470577,-0.00026277778670191765,-0.0010666719172149897
1746576172015374000,0.3293740234375,0.0012119750026613474,-0.0006505339406430721,0.004121432080864906
1746576172025389300,0.339389404296875,-0.0017916434444487095,0.0010237209498882294,0.0002491697669029236
1746576172035405000,0.349405029296875,0.0021232033614069223,-0.000510792713612318,-0.0005308701656758785
1746576172045421000,0.359421142578125,0.001308065839111805,-0.0009015798568725586,-0.001841963967308402
1746576172055436000,0.36943603515625,0.0006766300648450851,-0.0008424576371908188,-0.000025422079488635063
1746576172065452300,0.379452392578125,0.0022845787461847067,-0.0002051754854619503,-0.0013417480513453484
1746576172075467300,0.38946728515625,0.001571384258568287,-0.0019018752500414848,-0.000028809532523155212
1746576172085483300,0.399483154296875,0.001856047660112381,-0.003144391579553485,-0.001365103293210268
1746576172095499300,0.409499267578125,0.00043205544352531433,0.0011227913200855255,-0.0001277988776564598
1746576172105514200,0.41951416015625,-0.0005963700823485851,-0.0015515722334384918,0.0009402851574122906
1746576172115530200,0.4295302734375,-0.0005170078948140144,0.00009798957034945488,-0.0017439147923141718
1746576172125546200,0.439546142578125,0.0006100344471633434,-0.00038137566298246384,0.0010043303482234478
1746576172135561200,0.449561279296875,-0.00000888388603925705,-0.0019316019024699926,-0.00003856373950839043
1746576172145577200,0.4595771484375,0.0012958443257957697,-0.003902086056768894,-0.0010833351407200098
1746576172155592200,0.46959228515625,-0.0019337711855769157,0.0004148981533944607,0.0017635838594287634
1746576172165608200,0.479608154296875,-0.000121294055134058,-0.0021122877951711416,0.00015981029719114304
1746576172175624200,0.489624267578125,-0.0014118617400527,0.00004567159339785576,0.0021899379789829254
1746576172185639200,0.49963916015625,-0.0009682010859251022,0.0009093880653381348,0.0003639739006757736
1746576172195655400,0.509655517578125,-0.0009213294833898544,-0.001827276311814785,-0.0005103421863168478
1746576172205670100,0.519670166015625,-0.0007826276123523712,-0.0007171444594860077,-0.002818542066961527
1746576172215686400,0.529686279296875,0.0006315107457339764,0.0006839446723461151,-0.001517055556178093
1746576172225702400,0.539702392578125,0.0016158719081431627,-0.0008335793390870094,0.0020304806530475616
1746576172235717400,0.54971728515625,0.0023708778899163008,-0.000046881381422281265,-0.002641769126057625
1746576172245733400,0.5597333984375,-0.0005562296137213707,0.0013001109473407269,0.0006676495540887117
1746576172255749000,0.5697490234375,0.0007844057399779558,0.0005861176177859306,-0.0028775501996278763
1746576172265764400,0.579764404296875,-0.001633253414183855,0.0008742613717913628,0.00009800749830901623
1746576172275780000,0.589780029296875,0.0017132747452706099,0.00008623208850622177,-0.002166478428989649
1746576172285796000,0.599796142578125,0.0012874293606728315,0.000007602386176586151,0.0008677213918417692
1746576172295811000,0.60981103515625,0.0006543961353600025,-0.0008470062166452408,-0.001324858982115984
1746576172305827000,0.6198271484375,-0.00006337044760584831,-0.0010399669408798218,-0.0007752019446343184
1746576172315842000,0.629842041015625,-0.0015118634328246117,0.0001531294547021389,0.00005730218254029751
1746576172325858000,0.639858154296875,-0.0005011707544326782,-0.0010518571361899376,0.0021690907888114452
1746576172335874300,0.649874267578125,0.0004620947875082493,0.000660821795463562,0.001897714682854712
1746576172345889300,0.65988916015625,-0.00032594241201877594,0.000795743428170681,0.002059607533738017
1746576172355905300,0.6699052734375,0.0009004431776702404,-0.0001715165562927723,-0.00045894389040768147
1746576172365921300,0.67992138671875,-0.0032035987824201584,-0.001148308627307415,-0.0008463750127702951
1746576172375936300,0.689936279296875,-0.00031673209741711617,-0.0006558899767696857,0.0015193107537925243
1746576172385952300,0.6999521484375,0.0017267121002078056,-0.0003326921723783016,-0.002065615961328149
1746576172395967200,0.70996728515625,0.00014133239164948463,0.003206382505595684,-0.0021409837063401937
1746576172405983200,0.719983154296875,-0.0020037149079144,-0.0008119675330817699,-0.001904224045574665
1746576172415999500,0.72999951171875,0.0003475900739431381,0.0008229473605751991,0.0007139297667890787
1746576172426014500,0.740014404296875,-0.00017984537407755852,0.0009210743010044098,0.00033721583895385265
1746576172436030500,0.750030517578125,-0.0006996947340667248,0.002062771003693342,-0.0010289859492331743
1746576172446045400,0.76004541015625,0.0003038044087588787,-0.0002974015660583973,0.0009828500915318727
1746576172456061700,0.770061767578125,-0.0011308402754366398,-0.00040605850517749786,-0.0012379598338156939
1746576172466077400,0.780077392578125,-0.00010609487071633339,0.0016108639538288116,-0.0007491889409720898
1746576172476092700,0.7900927734375,0.0006470470689237118,0.0005796882323920727,0.004065806046128273
1746576172486108400,0.8001083984375,0.001283491961658001,0.000979903619736433,0.002438128460198641
1746576172496124400,0.81012451171875,-0.001108292955905199,-0.0003125281073153019,0.000687100226059556
1746576172506139400,0.820139404296875,0.00031141191720962524,-0.0012208577245473862,-0.0010002574417740107
1746576172516155400,0.8301552734375,-0.0008968645706772804,-0.0000735679641366005,0.001369423232972622
1746576172526171400,0.84017138671875,0.0015634875744581223,-0.0007943408563733101,-0.0020113850478082895
1746576172536186400,0.850186279296875,0.000827922485768795,0.0019740150310099125,-0.0002915153745561838
1746576172546202400,0.860202392578125,-0.00044239358976483345,0.0009029018692672253,-0.0020712330006062984
1746576172556217300,0.87021728515625,0.0002574850805103779,0.0010837302543222904,0.0002577011473476887
1746576172566233300,0.8802333984375,0.000015038996934890747,-0.00012436788529157639,0.0006193567533046007
1746576172576249600,0.89024951171875,-0.000015321187674999237,-0.0003850911743938923,0.0005186893977224827
1746576172586264300,0.900264404296875,-0.00016560731455683708,-0.0004941918887197971,0.0003379702102392912
1746576172596280600,0.910280517578125,-0.0005530971102416515,0.0006349883042275906,-0.0037758147809654474
1746576172606295600,0.920295654296875,0.0018482934683561325,0.000546580646187067,-0.0013499222695827484
1746576172616311600,0.9303115234375,0.0007406848017126322,-0.0002398509532213211,-0.001732884906232357
1746576172626327600,0.94032763671875,0.000727831618860364,0.0008346894755959511,-0.0005539823323488235
1746576172636342500,0.950342529296875,-0.0010993634350597858,-0.0009096809662878513,-0.00038886629045009613
1746576172646358500,0.960358642578125,0.000548862386494875,0.000756062101572752,0.0004331246018409729
1746576172656374500,0.97037451171875,-0.0031025977805256844,0.00022795703262090683,-0.0005671586841344833
1746576172666389500,0.980389404296875,-0.0026903017424046993,0.0009520528838038445,0.000588984927162528
1746576172676405500,0.990405517578125,-0.0005901330150663853,-0.0005475729703903198,0.0008920526597648859
1746576172686421500,1.00042138671875,-0.0016588568687438965,-0.001264491118490696,0.0025702021084725857
1746576172696436500,1.0104365234375,0.0015180278569459915,-0.0007784641347825527,0.000321428757160902
1746576172706452500,1.020452392578125,-0.001365121454000473,-0.0014856201596558094,0.001149836229160428
1746576172716467500,1.030467529296875,-0.00005511287599802017,0.0008803317323327065,-0.00041237426921725273
1746576172726483500,1.0404833984375,-0.001988841686397791,-0.00009487895295023918,-0.0012514353729784489
1746576172736499500,1.05049951171875,0.0008961607236415148,-0.00027384329587221146,0.00044579734094440937
1746576172746514400,1.060514404296875,0.0016683714929968119,-0.0011653308756649494,-0.0006284085102379322
1746576172756530400,1.070530517578125,0.001100585563108325,0.00048503046855330467,-0.0010843416675925255
1746576172766546400,1.08054638671875,-0.00033707916736602783,-0.0010920315980911255,0.00002061552368104458
1746576172776561400,1.0905615234375,0.00005413917824625969,-0.00027683796361088753,-0.0012068352662026882
1746576172786577400,1.100577392578125,-0.0018137549050152302,-0.0013372856192290783,-0.000671332236379385
1746576172796592400,1.11059228515625,0.0012403579894453287,-0.00020730635151267052,-0.001435393001884222
1746576172806608400,1.1206083984375,-0.0005296943709254265,-0.000035373494029045105,-0.0010339985601603985
1746576172816624400,1.130624267578125,-0.0003280928358435631,-0.0024239628110080957,0.001620906637981534
1746576172826639400,1.140639404296875,0.0014260467141866684,0.001507436390966177,-0.0007721236906945705
1746576172836655400,1.1506552734375,0.0013549402356147766,0.00047759199514985085,0.00042043975554406643
1746576172846671600,1.160671630859375,0.0001911385916173458,-0.002231503603979945,0.0015153044369071722
1746576172856686600,1.1706865234375,-0.0006677308119833469,0.00004070531576871872,-0.0011992554645985365
1746576172866702600,1.18070263671875,0.00042058341205120087,-0.001051698811352253,-0.0013529330026358366
1746576172876717600,1.190717529296875,0.0023303362540900707,-0.002452787710353732,-0.0014187127817422152
1746576172886733600,1.200733642578125,0.0008971497882157564,-0.0004953797906637192,-0.0006523439660668373
1746576172896749600,1.21074951171875,-0.0005345656536519527,0.0008865343406796455,-0.0008342377841472626
1746576172906764500,1.2207646484375,0.0026634936220943928,-0.000465399120002985,-0.0002348572015762329
1746576172916780500,1.230780517578125,-0.0009371000342071056,-0.0010486310347914696,-0.00029131630435585976
1746576172926796500,1.240796630859375,-0.0007315408438444138,-0.0020585013553500175,0.0015302326064556837
1746576172936811500,1.2508115234375,-0.0005741477943956852,-0.0011716685257852077,0.00020877202041447163
1746576172946827500,1.26082763671875,-0.001499104779213667,-0.00048647448420524597,-0.0017275451682507992
1746576172956842500,1.270842529296875,0.0005501979030668736,-0.000754654873162508,-0.0009112865664064884
1746576172966858500,1.2808583984375,-0.0007960428483784199,-0.00029960833489894867,-0.00078582763671875
1746576172976874500,1.29087451171875,0.0025299787521362305,0.0013568778522312641,-0.000025495188310742378
1746576172986889700,1.3008896484375,-0.0008268994279205799,-0.000039546284824609756,0.0011032656766474247
1746576172996905500,1.310905517578125,-0.001025837380439043,-0.0010741841979324818,0.002386110369116068
1746576173006921500,1.32092138671875,0.0003585680387914181,-0.00023790355771780014,0.00016937055625021458
1746576173016936400,1.3309365234375,-0.00020495662465691566,-0.0003913012333214283,0.00012755882926285267
1746576173026952400,1.340952392578125,-0.00038782600313425064,-0.000791819766163826,0.0004821463953703642
1746576173036967400,1.350967529296875,0.001148817827925086,-0.0010219169780611992,0.0005420674569904804
1746576173046983400,1.3609833984375,-0.00033923471346497536,-0.004170258529484272,-0.0009145240765064955
1746576173056999400,1.37099951171875,-0.0003418978303670883,0.0018460890278220177,-0.0011392950545996428
1746576173067014400,1.381014404296875,0.00020841136574745178,-0.0017295563593506813,-0.0008418287616223097
1746576173077030400,1.391030517578125,0.00013650627806782722,-0.0008978508412837982,0.0015608749818056822
1746576173087046400,1.40104638671875,-0.0004502255469560623,0.0020078737288713455,0.0020882710814476013
1746576173097061400,1.411061279296875,0.0009476679842919111,0.0006512594409286976,0.0005841178353875875
1746576173107077600,1.42107763671875,-0.0011463500559329987,0.0011252476833760738,-0.0005124965682625771
1746576173117092400,1.43109228515625,-0.001322917640209198,-0.000053999945521354675,0.0008462481200695038
1746576173127108600,1.441108642578125,-0.0002293507568538189,0.0012409877963364124,-0.0011146722827106714
1746576173137124600,1.45112451171875,0.00032831495627760887,0.0012668203562498093,-0.004076640121638775
1746576173147139600,1.4611396484375,-0.0008567082695662975,-0.0008379626087844372,0.0014686072245240211
1746576173157155600,1.471155517578125,-0.00008279411122202873,-0.0007135933265089989,-0.0009681850206106901
1746576173167171600,1.481171630859375,-0.00033796438947319984,0.0008858698420226574,-0.00011826306581497192
1746576173177186600,1.4911865234375,-0.00022717658430337906,0.001028881873935461,0.0011286288499832153
1746576173187202600,1.50120263671875,0.0010903447400778532,-0.001891269814223051,0.0010075017344206572
1746576173197218300,1.51121826171875,0.0002559763379395008,0.000750585924834013,0.0007678172551095486
1746576173207233500,1.521233642578125,-0.0014237514697015285,0.0010542585514485836,0.0007397555746138096
1746576173217249300,1.531249267578125,0.0001754765398800373,-0.0007007643580436707,-0.0022650891914963722
1746576173227264500,1.541264404296875,-0.00003143073990941048,0.0003496711142361164,-0.0017740093171596527
1746576173237280300,1.5512802734375,0.000615451019257307,-0.0017923093400895596,-0.0002232505939900875
1746576173247296500,1.561296630859375,0.000047596171498298645,0.0007439157925546169,0.0020213965326547623
1746576173257311500,1.5713115234375,-0.0007968922145664692,0.0016528526321053505,0.0005103191360831261
1746576173267327500,1.581327392578125,0.0017496745567768812,-0.0008321478962898254,-0.00032634357921779156
1746576173277343500,1.591343505859375,-0.0006490345112979412,0.0017505856230854988,-0.002914670156314969
1746576173287358500,1.6013583984375,-0.0010735816322267056,0.00010483898222446442,0.0015116191934794188
1746576173297374500,1.61137451171875,0.00015759747475385666,-0.0007023653015494347,-0.0004447388928383589
1746576173307389400,1.621389404296875,0.0013593395706266165,-0.00020464789122343063,0.0009706162381917238
1746576173317405400,1.631405517578125,0.0005055302754044533,0.0018638293258845806,-0.0010011880658566952
1746576173327421400,1.64142138671875,0.00015774229541420937,0.0017208708450198174,-0.0016096055041998625
1746576173337436400,1.6514365234375,-0.0008177733980119228,0.0002878238447010517,0.0016828603111207485
1746576173347452400,1.661452392578125,-0.00130555871874094,-0.00044730445370078087,-0.000498294597491622
1746576173357468400,1.671468505859375,-0.0006943633779883385,0.0007327422499656677,-0.0004354442935436964
1746576173367483400,1.6814833984375,-0.00040946993976831436,0.0010553523898124695,0.002029969822615385
1746576173377499600,1.691499755859375,-0.0005418290384113789,0.0007602740079164505,0.00017188256606459618
1746576173387514600,1.7015146484375,-0.0001787734217941761,-0.0025873263366520405,0.00176704372279346
1746576173397530600,1.711530517578125,0.0006326918955892324,0.00019674235954880714,0.0009236205369234085
1746576173407546600,1.721546630859375,-0.00019746506586670876,-0.0009425687603652477,0.0009695468470454216
1746576173417561000,1.73156103515625,-0.000027555041015148163,-0.0030760273803025484,0.001975955441594124
1746576173427577000,1.7415771484375,0.000260236207395792,0.0005850847810506821,0.0002374162431806326
1746576173437593000,1.751593017578125,-0.001547517254948616,-0.00022078771144151688,-0.00035673496313393116
1746576173447608000,1.761608154296875,-0.000972473993897438,0.00048745889216661453,-0.0004151791799813509
1746576173457624000,1.7716240234375,0.0007007899694144726,0.0008304738439619541,0.00014088908210396767
1746576173467639000,1.78163916015625,-0.000043004751205444336,-0.0008615488186478615,-0.0015907010529190302
1746576173477655000,1.791655029296875,-0.0015428969636559486,-0.0007281242869794369,0.0016018964815884829
1746576173487671000,1.801671142578125,0.0007133644539862871,0.0009685037657618523,0.0015092722605913877
1746576173497686000,1.81168603515625,-0.0007135574705898762,-0.00015694834291934967,0.001448285998776555
1746576173507702000,1.821701904296875,-0.0011962447315454483,-0.0010405625216662884,-0.00094360182993114
1746576173517718000,1.831718017578125,0.001661593560129404,-0.0009843697771430016,-0.00030524213798344135
1746576173527733000,1.84173291015625,0.0008016768842935562,-0.0006283335387706757,-0.0003068540245294571
1746576173537749000,1.8517490234375,0.001743903150781989,-0.0003811921924352646,0.00019168970175087452
1746576173547764000,1.861763916015625,0.0005661656614392996,0.00047450605779886246,-0.0015372599009424448
1746576173557780000,1.871780029296875,0.0010865472722798586,0.0000401446595788002,-0.0032328946981579065
1746576173567796000,1.8817958984375,-0.0003142193891108036,0.00001541106030344963,0.0006229337304830551
1746576173577811000,1.89181103515625,0.00039604585617780685,0.0007576337084174156,0.0023673041723668575
1746576173587827000,1.901826904296875,-0.0030718380585312843,-0.001868263352662325,-0.0015810555778443813
1746576173597843000,1.911843017578125,0.0019439593888819218,-0.00047596264630556107,-0.003195730037987232
1746576173607858000,1.92185791015625,0.001500176964327693,0.0004832767881453037,0.0005190689116716385
1746576173617874000,1.9318740234375,0.0007481002248823643,0.0002846047282218933,0.00012864964082837105
1746576173627890200,1.94189013671875,0.00008470285683870316,-0.000015378929674625397,-0.0009156193118542433
1746576173637905200,1.9519052734375,-0.0004420704208314419,-0.00036105699837207794,-0.0009936501737684011
1746576173647921200,1.961921142578125,-0.002265364397317171,0.000052372459322214127,0.0019740473944693804
1746576173657936100,1.97193603515625,0.0006390789058059454,-0.0018155686557292938,0.0008523238357156515
1746576173667952000,1.9819521484375,0.0010349492076784372,-0.00011904444545507431,-0.00023062597028911114
1746576173677968100,1.991968017578125,0.0012053914833813906,0.0003789663314819336,-0.0004031991120427847
1746576173687983000,2.001983154296875,-0.000420514028519392,-0.0005398010835051537,-0.00047650421038269997
1746576173697999000,2.0119990234375,-0.0022461111657321453,-0.00013979431241750717,0.0001794320996850729
1746576173708014800,2.022014892578125,0.0005814211908727884,0.00009747082367539406,0.0001988750882446766
1746576173718030000,2.032030029296875,0.00009432900696992874,-0.0004980117082595825,-0.0004160488024353981
1746576173728045800,2.0420458984375,0.0010842375922948122,-0.0015135090798139572,0.0005584375467151403
1746576173738061000,2.05206103515625,0.0005995421670377254,-0.00048233289271593094,0.00035896687768399715
1746576173748076800,2.062076904296875,-0.0013419105671346188,-0.00021887384355068207,-0.0003108931705355644
1746576173758093000,2.072093017578125,-0.00008409935981035233,-0.0005658837035298347,-0.001795605756342411
1746576173768108000,2.08210791015625,-0.002189654391258955,0.0001560291275382042,-0.002327983733266592
1746576173778124000,2.0921240234375,-0.0008735200390219688,0.00011794595047831535,0.001962102483958006
1746576173788140000,2.10214013671875,0.001521020196378231,-0.0007585743442177773,0.00007684901356697083
1746576173798155000,2.112155029296875,-0.0010310867801308632,0.0006774021312594414,0.00015274900943040848
1746576173808171000,2.1221708984375,-0.00006738118827342987,-0.0015163887292146683,0.001172439195215702
1746576173818186000,2.13218603515625,-0.0013102786615490913,-0.00034513045102357864,0.0009063894394785166
1746576173828202000,2.142201904296875,-0.0011952645145356655,0.0014972370117902756,0.0013521774671971798
1746576173838218000,2.152218017578125,0.0005341921932995319,0.0020232112146914005,-0.00039911712519824505
1746576173848233000,2.16223291015625,0.0005482183769345284,-0.00010675890371203423,0.0005670271348208189
1746576173858249000,2.1722490234375,-0.0007229084149003029,0.0005680862814188004,-0.0005283309146761894
1746576173868265000,2.182264892578125,-0.00032896408811211586,-0.0014319466426968575,-0.001518441829830408
1746576173878280000,2.192280029296875,-0.001054408960044384,-0.0005192812532186508,0.0011529750190675259
1746576173888296200,2.202296142578125,-0.0006553479470312595,-0.0006849616765975952,-0.0024862829595804214
1746576173898312200,2.212312255859375,-0.0005365707911550999,-0.0010988167487084866,-0.0002375100739300251
1746576173908327200,2.2223271484375,-0.0012733619660139084,0.0007174462080001831,-0.000096167903393507
1746576173918343200,2.23234326171875,-0.0004142262041568756,-0.0020141582936048508,-0.0027271045837551355
1746576173928358100,2.242358154296875,0.0005989123601466417,-0.0016005421057343483,-0.0010976297780871391
1746576173938374100,2.2523740234375,-0.0038568219169974327,-0.00033420929685235023,-0.00013942457735538483
1746576173948390000,2.262389892578125,0.0026030251756310463,-0.002764219418168068,-0.00040291156619787216
1746576173958405000,2.272405029296875,0.0011457435321062803,-0.003240392543375492,-0.0013027936220169067
1746576173968420900,2.2824208984375,0.0005208100192248821,-0.0013838419690728188,-0.0013161208480596542
1746576173978436900,2.292436767578125,0.001981820212677121,-0.000528168398886919,0.0009973673149943352
1746576173988451800,2.302451904296875,0.0011278409510850906,0.0007959534414112568,0.00018741772510111332
1746576173998467800,2.3124677734375,0.0003059892915189266,0.0004193824715912342,0.00045719603076577187
1746576174008482800,2.32248291015625,0.0006176461465656757,-0.0008740159682929516,-0.0005762763321399689
1746576174018499000,2.3324990234375,-0.00033549917861819267,0.00062587670981884,0.0005696818698197603
1746576174028515000,2.34251513671875,0.00037541240453720093,-0.0013658744283020496,-0.001475668279454112
1746576174038530000,2.352530029296875,-0.001986012328416109,-0.0007528145797550678,0.0002588483039289713
1746576174048546000,2.362546142578125,-0.0014919075183570385,-0.0014112642966210842,0.0005674692802131176
1746576174058562000,2.37256201171875,0.000649274094030261,0.0008470960892736912,0.001151500502601266
1746576174068577000,2.382576904296875,0.000718207098543644,-0.0010107043199241161,0.0005241367034614086
1746576174078593000,2.392593017578125,0.00022099493071436882,-0.000263954047113657,0.0018266888801008463
1746576174088609000,2.402609130859375,0.0003796112723648548,0.000839858315885067,-0.000005309004336595535
1746576174098624000,2.4126240234375,0.0004661637358367443,-0.000016880687326192856,-0.001640490023419261
1746576174108640000,2.422639892578125,0.000783916562795639,0.0005407878197729588,0.0009492628742009401
1746576174118655000,2.432655029296875,0.0003873719833791256,-0.00001847604289650917,0.001379895955324173
1746576174128671000,2.4426708984375,-0.00029587000608444214,-0.0007991851307451725,0.00034280726686120033
1746576174138687200,2.452687255859375,-0.0018719285726547241,0.00028578657656908035,-0.0007546816486865282
1746576174148702000,2.462701904296875,0.0012387363240122795,-0.0009681950323283672,-0.0010423045605421066
1746576174158718200,2.47271826171875,-0.0004454469308257103,0.0003261012025177479,-0.0008982275612652302
1746576174168734000,2.48273388671875,0.002589996438473463,0.0005913525819778442,-0.0009084600023925304
1746576174178749200,2.492749267578125,0.0012429694179445505,-0.0007295752875506878,-0.00021950015798211098
1746576174188765000,2.502764892578125,-0.0005983812734484673,-0.0009821993298828602,0.00003494718112051487
1746576174198780200,2.5127802734375,0.0012527820654213428,0.0014822897501289845,-0.0006683936808258295
1746576174208796000,2.5227958984375,0.0020489906892180443,0.0006613978184759617,0.0023585602175444365
1746576174218812000,2.53281201171875,-0.0009153741411864758,-0.0004544667899608612,-0.0027903954032808542
1746576174228827000,2.542826904296875,-0.0009345351718366146,-0.0006293323822319508,0.001935727195814252
1746576174238843000,2.5528427734375,-0.0022288314066827297,-0.00045622698962688446,0.0010606124997138977
1746576174248859000,2.56285888671875,0.00018847407773137093,-0.0017107757739722729,0.0031266380101442337
1746576174258873900,2.572873779296875,0.0014257784932851791,-0.0022090531419962645,-0.000665703322738409
1746576174268890000,2.58289013671875,-0.000025330577045679092,-0.0004200846888124943,-0.0016460162587463856
1746576174278904800,2.59290478515625,-0.0017577167600393295,0.00011414522305130959,-0.000025216257199645042
1746576174288921000,2.602921142578125,0.00022434350103139877,0.000407942570745945,0.0008783359080553055
1746576174298937000,2.61293701171875,0.0008240875322371721,0.000928057823330164,0.00001866742968559265
1746576174308952000,2.6229521484375,0.0006498422008007765,0.0004871021956205368,0.0020506130531430244
1746576174318968000,2.632968017578125,-0.0007871994748711586,0.0003717872314155102,-0.0016248156316578388
1746576174328984000,2.642984130859375,0.0015631245914846659,-0.0002513355575501919,0.0017253116238862276
1746576174338999000,2.6529990234375,-0.0002720598131418228,-0.000508597120642662,-0.0003743248526006937
1746576174349015000,2.66301513671875,0.0016611709725111723,-0.0004384140484035015,-0.0011004037223756313
1746576174359031000,2.673031005859375,-0.0014635156840085983,-0.001312995795160532,-0.0031270692124962807
1746576174369046000,2.6830458984375,-0.0002931840717792511,0.0010016020387411118,0.0018357253866270185
1746576174379062000,2.69306201171875,0.0014594423118978739,-5.457550287246704e-7,0.0008873736951500177
1746576174389077000,2.703076904296875,-0.0006081690080463886,-0.0010568243451416492,0.002342113759368658
1746576174399093000,2.713093017578125,0.0006429839413613081,0.0008918107487261295,0.0013010841794312
1746576174409109800,2.72310986328125,0.001001955009996891,0.00002832198515534401,-0.0012662706431001425
1746576174419124700,2.733124755859375,-0.0008199135772883892,-0.0005509154871106148,-0.001961089437827468
1746576174429140700,2.743140625,-0.0009442451409995556,-0.0012669130228459835,-0.0010661541018635035
1746576174439156700,2.75315673828125,0.00044113118201494217,0.00036054477095603943,0.00022148434072732925
1746576174449171700,2.763171630859375,0.00005558319389820099,-0.0006728805601596832,0.0018906203331425786
1746576174459187700,2.773187744140625,0.0009037998970597982,-0.00024624215438961983,0.00020217616111040115
1746576174469204000,2.783203857421875,-0.0014211572706699371,0.0010179630480706692,0.004071155562996864
1746576174479219000,2.793218994140625,-0.0006866571493446827,-0.002018839353695512,0.0006737611256539822
1746576174489235000,2.80323486328125,0.0005648587830364704,-0.00003599515184760094,-0.00022087432444095612
1746576174499250000,2.81325,0.00184850231744349,0.0008947798050940037,0.001471830764785409
1746576174509266000,2.823265869140625,0.0027685388922691345,-0.000450019259005785,-0.001629276666790247
1746576174519282000,2.833281982421875,0.00008167559280991554,-0.0017120912671089172,-0.0025344849564135075
1746576174529297000,2.843296875,0.0008033823687583208,0.0015269923023879528,0.0013294829986989498
1746576174539313000,2.85331298828125,-0.0013148961588740349,0.0010518846102058887,-0.0025667217560112476
1746576174549329000,2.863328857421875,0.0014787660911679268,-0.00024368846789002419,-0.0013878934551030397
1746576174559343900,2.87334375,0.0015152513515204191,0.0000636400654911995,-0.001293351175263524
1746576174569360000,2.88335986328125,0.00027323653921484947,0.0001361318863928318,-0.00012654811143875122
1746576174579374800,2.893374755859375,0.00028202496469020844,0.0002125645987689495,-0.006216132082045078
1746576174589390800,2.903390869140625,0.0016840423922985792,0.00028656143695116043,-0.0006430144421756268
1746576174599406800,2.91340673828125,-0.00128245260566473,0.0007637995295226574,0.003157848957926035
1746576174609422000,2.923422119140625,0.0021265926770865917,0.00020166346803307533,-0.00030210777185857296
1746576174619437800,2.933437744140625,0.00022695958614349365,-0.001312876120209694,-0.00018413015641272068
1746576174629453800,2.943453857421875,-0.0007015890441834927,-0.0007619932293891907,0.00021397415548563004
1746576174639468800,2.95346875,-0.0031833890825510025,0.0008673286065459251,-0.000425450736656785
1746576174649484800,2.96348486328125,-0.001045385841280222,-0.0005440623499453068,0.002376699820160866
1746576174659500800,2.973500732421875,-0.00005335826426744461,-0.0012870845384895802,0.0005787999834865332
1746576174669515800,2.983515869140625,-0.00014660600572824478,-0.0031276564113795757,0.001551199471578002
1746576174679531800,2.99353173828125,-0.003017227631062269,0.0009373929351568222,-0.0006586916279047728
1746576174689546800,3.003546630859375,0.0016050804406404495,-0.0027232167776674032,0.0008075369987636805
1746576174699562800,3.013562744140625,0.0003462042659521103,-0.001024120021611452,-0.0008327036630362272
1746576174709578800,3.023578857421875,0.0008628976065665483,-0.0005671419203281403,-0.0020639654248952866
1746576174719593700,3.03359375,-0.0019669770263135433,0.000984415877610445,-0.000102281104773283
1746576174729610000,3.04360986328125,-0.00010179029777646065,-0.0008894861675798893,-0.0012446693144738674
1746576174739626000,3.0536259765625,0.0028804175090044737,-0.0011033383198082447,0.0018589782994240522
1746576174749641000,3.063640869140625,-0.00014156615361571312,0.00042055267840623856,0.0011118394322693348
1746576174759657000,3.073656982421875,0.0004051807336509228,-0.0015730895102024078,0.0013965312391519547
1746576174769673000,3.0836728515625,-0.0007656803354620934,-0.0009808456525206566,0.0009859884157776833
1746576174779688000,3.09368798828125,-0.0011680838651955128,-0.0012599448673427105,-0.0007027217652648687
1746576174789704000,3.103703857421875,0.0006673426833003759,-0.001039979513734579,0.00024560466408729553
1746576174799719000,3.113718994140625,-0.0008408054709434509,0.002643438521772623,0.0006432146765291691
1746576174809735000,3.12373486328125,-0.0005293800495564938,-0.0011024335399270058,0.001302049495279789
1746576174819751000,3.1337509765625,-0.0008897054940462112,-0.0006243959069252014,0.000510824378579855
1746576174829766000,3.143765869140625,-0.0005509895272552967,-0.0001719449646770954,-0.0009445310570299625
1746576174839782000,3.153781982421875,0.0012133547570556402,-0.0007104361429810524,-0.00011974992230534554
1746576174849798000,3.1637978515625,-0.0015295292250812054,-0.001123697031289339,0.00003484776243567467
1746576174859812900,3.173812744140625,0.0023301898036152124,0.000739450566470623,-0.0010408030357211828
1746576174869828900,3.183828857421875,0.0004390520043671131,-0.0005449531599879265,-0.00010616774670779705
1746576174879844900,3.193844970703125,0.000215879175812006,-0.00015240348875522614,0.0007790669333189726
1746576174889859800,3.20385986328125,0.000541225541383028,-0.0008960245177149773,0.0030503154266625643
1746576174899875800,3.213875732421875,0.0006426917389035225,-0.0010608742013573647,-0.0011167326010763645
1746576174909890800,3.223890869140625,-0.0019228202290832996,0.0010445802472531796,0.0017484321724623442
1746576174919906800,3.23390673828125,-0.0008682082407176495,-0.0015842257998883724,0.0005018066149204969
1746576174929922800,3.2439228515625,-0.0013185138814151287,0.0009100320748984814,0.0015292882453650236
1746576174939937800,3.253937744140625,0.0007371802348643541,0.0009316038340330124,0.0015503272879868746
1746576174949953800,3.263953857421875,0.00068885856308043,-0.001254991628229618,0.0027150949463248253
1746576174959969800,3.2739697265625,0.000578603707253933,-0.0008137058466672897,0.0009092052932828665
1746576174969984800,3.28398486328125,-0.001142475288361311,-0.00025487737730145454,0.0021441560238599777
1746576174980001000,3.2940009765625,0.0002530212514102459,-0.0013417135924100876,0.00014039361849427223
1746576174990015700,3.304015625,0.0003246529959142208,0.0004818905144929886,0.003239427460357547
1746576175000032000,3.314031982421875,-0.0006873481906950474,-0.0016411812976002693,-0.0017425480764359236
1746576175010048000,3.324048095703125,-0.0030490336939692497,0.0014767376706004143,-0.0013692430220544338
1746576175020063000,3.33406298828125,-0.0033574276603758335,-0.0036634295247495174,0.0003048200160264969
1746576175030079000,3.344078857421875,0.00012166518718004227,0.0019995365291833878,0.002731902524828911
1746576175040095000,3.354094970703125,-0.00004158681258559227,-0.0018244963139295578,0.0015020547434687614
1746576175050110000,3.36410986328125,0.0014887696597725153,0.000049573834985494614,0.001323407981544733
1746576175060126000,3.3741259765625,-0.00024201860651373863,0.0007883347570896149,-0.00039033638313412666
1746576175070141700,3.3841416015625,0.0004170839674770832,0.0008141715079545975,-0.0000882674939930439
1746576175080157000,3.394156982421875,-0.001434878446161747,-0.002518508117645979,-0.0013024029321968555
1746576175090172700,3.404172607421875,0.00040563009679317474,-0.001035916619002819,-0.001727099297568202
1746576175100188000,3.41418798828125,0.0007257421966642141,-0.000517665408551693,-0.0005329379346221685
1746576175110203600,3.42420361328125,0.0011777037288993597,-0.001427539624273777,-0.0026320137549191713
1746576175120220000,3.434219970703125,0.0002139057032763958,-0.001142315100878477,-0.001155557343736291
1746576175130235000,3.44423486328125,-0.0022458848543465137,-0.0010851621627807617,0.0024437708780169487
1746576175140251000,3.4542509765625,-0.0002549057826399803,0.0009151380509138107,0.0005537255201488733
1746576175150267000,3.464266845703125,0.0006681689992547035,-0.0006029875949025154,0.00039476482197642326
1746576175160281900,3.47428173828125,0.0014226427301764488,-0.0005057821981608868,0.0008658780716359615
1746576175170297900,3.4842978515625,-0.0011099237017333508,0.001906165387481451,-0.0009074714034795761
1746576175180313900,3.49431396484375,0.0005649384111166,0.00034928135573863983,0.00032184389419853687
1746576175190328800,3.504328857421875,0.002785228192806244,-0.0018733637407422066,-0.00013493746519088745
1746576175200344800,3.5143447265625,-0.00047368183732032776,-0.0005875895731151104,0.0003881072625517845
1746576175210359800,3.52435986328125,-0.0008222348988056183,0.0019275355152785778,0.001207355409860611
1746576175220375800,3.534375732421875,0.0001378348097205162,-0.000520442146807909,0.0011562227737158537
1746576175230391800,3.544391845703125,-0.0010347021743655205,-0.0016479589976370335,0.0015159763861447573
1746576175240406800,3.55440673828125,-0.0005713119171559811,0.0027324086986482143,-0.0007301336154341698
1746576175250423000,3.564423095703125,-0.0023250561207532883,0.0009219516068696976,-0.00021424680016934872
1746576175260439000,3.57443896484375,0.001810566522181034,-0.001594469416886568,0.0012909718789160252
1746576175270454000,3.5844541015625,-0.0005292384885251522,-0.0031049195677042007,0.003075024811550975
1746576175280470000,3.594469970703125,-0.000344947911798954,0.0002618487924337387,0.0009120053146034479
1746576175290485800,3.60448583984375,-0.002784302458167076,-0.0003232983872294426,-0.0009044315665960312
1746576175300501000,3.6145009765625,0.0008312051650136709,-0.001064190175384283,0.0021022772416472435
1746576175310516700,3.624516845703125,0.00011159013956785202,-0.000864050816744566,-0.001772088697180152
1746576175320532000,3.634531982421875,0.00016671745106577873,0.00042917998507618904,-0.003980381414294243
1746576175330547700,3.644547607421875,-0.00178961968049407,-0.0019733579829335213,0.00003262236714363098
1746576175340563700,3.654563720703125,0.00162561796605587,-0.0002415045164525509,-0.001853961031883955
1746576175350578700,3.66457861328125,0.0001681302674114704,-0.0018349532037973404,0.0005090518388897181
1746576175360594700,3.6745947265625,-0.0007514595054090023,0.0008886619471013546,0.0014360982459038496
1746576175370611000,3.68461083984375,-0.0004421989433467388,-0.0005639335140585899,0.0008974950760602951
1746576175380626000,3.6946259765625,0.0024172370322048664,0.0009860261343419552,-0.0011890914756804705
1746576175390642000,3.704641845703125,0.0003459234721958637,0.00021626334637403488,-0.00040715537033975124
1746576175400658000,3.714657958984375,0.0001155599020421505,-0.0009565930813550949,0.0026062114629894495
1746576175410672600,3.724672607421875,-0.0010608392767608166,-0.001362597569823265,0.0009093093685805798
1746576175420688600,3.734688720703125,0.0004031001590192318,0.0006851069629192352,-0.0005615546833723783
1746576175430703600,3.74470361328125,0.0012562377378344536,0.0009185704402625561,0.0011028386652469635
1746576175440719600,3.7547197265625,0.0006407811306416988,0.00007035350427031517,0.0001435680314898491
1746576175450735600,3.764735595703125,0.0001879911869764328,0.00047655031085014343,-0.0014132740907371044
1746576175460750600,3.77475048828125,-0.0009837998077273369,0.002201746217906475,0.0014248564839363098
1746576175470766600,3.7847666015625,-0.00046817027032375336,0.00024617742747068405,0.005631141364574432
1746576175480782600,3.794782470703125,-0.0012266384437680244,-0.0007056361064314842,0.0017003156244754791
1746576175490797600,3.804797607421875,0.00015892647206783295,-0.0005333814769983292,0.0012720662634819746
1746576175500813800,3.814813720703125,-0.002764957956969738,-0.0012990403920412064,-0.0006968087982386351
1746576175510829600,3.82482958984375,0.00024362653493881226,0.0008295089937746525,-0.0033495784737169743
1746576175520844800,3.8348447265625,-0.0005273586139082909,0.0002859579399228096,0.004328048788011074
1746576175530860500,3.844860595703125,-0.001197274774312973,-0.0015369821339845657,0.0004892558790743351
1746576175540875800,3.854875732421875,0.0016448504757136106,-0.002047510351985693,-0.0018319552764296532
1746576175550891500,3.8648916015625,0.0002693519927561283,-0.0008515743538737297,-0.00023317872546613216
1746576175560907500,3.874907470703125,0.000005166511982679367,-0.0004566274583339691,0.000039529288187623024
1746576175570922500,3.884922607421875,-0.0007509677670896053,-0.0007623801939189434,-0.003100911621004343
1746576175580938500,3.8949384765625,-0.0005858517251908779,-0.0021874376107007265,0.0014794592279940844
1746576175590954500,3.90495458984375,0.0014593112282454967,0.001697976142168045,-0.0023081640247255564
1746576175600969500,3.914969482421875,0.0001889835111796856,-0.00273325783200562,-0.0019968405831605196
1746576175610985500,3.9249853515625,-0.00038097845390439034,-0.002240037312731147,-0.0024208547547459602
1746576175621001700,3.935001708984375,0.0011801663786172867,-0.002210742561146617,-0.0006434610113501549
1746576175631016400,3.945016357421875,0.00018371688202023506,-0.0006287223659455776,-0.0007290211506187916
1746576175641032700,3.95503271484375,0.00011234404519200325,-0.0011341902427375317,-0.0005841455422341824
1746576175651047700,3.965047607421875,0.0006105620414018631,-0.0011091330088675022,-0.0005402350798249245
1746576175661063700,3.975063720703125,-0.0004637571983039379,-0.000909662339836359,0.0010475416202098131
1746576175671079700,3.98507958984375,-0.0008115200325846672,0.0005177538841962814,0.0001249371562153101
1746576175681094700,3.9950947265625,0.00016426201909780502,-0.001209039706736803,0.0026514779310673475
1746576175691110700,4.005110595703125,0.0016734565142542124,0.0021752831526100636,-0.0008827636484056711
1746576175701126700,4.015126708984375,0.001725654350593686,0.000709212850779295,-0.00036291475407779217
1746576175711141600,4.0251416015625,-0.0021251672878861427,-0.0021901046857237816,0.0017360732890665531
1746576175721157600,4.03515771484375,-0.000986133236438036,0.0009889109060168266,0.00015601981431245804
1746576175731173600,4.045173583984375,-0.0003523891791701317,-0.0009012892842292786,-0.0003943417686969042
1746576175741188600,4.055188720703125,0.003771249670535326,0.0017277835868299007,-0.0018369762692600489
1746576175751204600,4.06520458984375,-0.0008085942827165127,0.0008411495946347713,-0.0009665791876614094
1746576175761219600,4.075219482421875,0.0009301835671067238,-0.00012025190517306328,-0.0013149203732609749
1746576175771235600,4.085235595703125,0.001485614338889718,-0.0005630995146930218,-0.0013628148008137941
1746576175781251600,4.09525146484375,-0.0006078965961933136,-0.0014051911421120167,-0.002163361059501767
1746576175791266600,4.1052666015625,0.0005851616151630878,-0.0004868903197348118,-0.000048165442422032356
1746576175801282600,4.115282470703125,-0.0012715943157672882,-0.0008658580482006073,-0.0006785357836633921
1746576175811298600,4.125298583984375,0.0027794484049081802,0.0019924743101000786,0.0013471604324877262
1746576175821313500,4.1353134765625,-0.001672025304287672,-0.0009777494706213474,-0.0019266633316874504
1746576175831329500,4.14532958984375,0.0006768007297068834,0.00019943295046687126,-0.0009768372401595116
1746576175841345500,4.155345458984375,0.0006818606052547693,-0.0037433768156915903,0.0004112024325877428
1746576175851360500,4.165360595703125,-0.0008687195368111134,-0.0001847362145781517,0.0012568985112011433
1746576175861376500,4.17537646484375,-0.001522259321063757,-0.0009498624131083488,0.0011626225896179676
1746576175871391500,4.1853916015625,-0.0016702841967344284,-0.0003915107809007168,-0.0015965357888489962
1746576175881407500,4.195407470703125,-0.00038078147917985916,-0.001623222604393959,-0.00028306501917541027
1746576175891423700,4.205423828125,0.0014343794900923967,-0.0014440030790865421,-0.0015602153725922108
1746576175901438700,4.215438720703125,-0.0014713956043124199,0.0008889259770512581,0.0005639221053570509
1746576175911454700,4.225454833984375,0.00038173655048012733,0.00031111110001802444,-0.00043822103179991245
1746576175921470700,4.235470703125,3.7206336855888367e-7,0.00010871095582842827,0.002088586101308465
1746576175931485700,4.245485595703125,-0.0006953882984817028,0.0003439132124185562,0.00011275126598775387
1746576175941501700,4.255501708984375,0.0022231698967516422,0.0009615002200007439,-0.0007573035545647144
1746576175951517700,4.265517578125,-0.0006027538329362869,-0.0003412999212741852,-0.00008137780241668224
1746576175961532700,4.27553271484375,0.0002305489033460617,0.00016896147280931473,-0.0012270694132894278
1746576175971548700,4.285548583984375,-0.0011441181413829327,-0.001028161495923996,-0.0015652396250516176
1746576175981564400,4.295564453125,-0.0007228064350783825,0.00037772161886096,-0.0003063634503632784
1746576175991579600,4.30557958984375,0.0002676853910088539,0.0009638173505663872,0.001924759242683649
1746576176001595400,4.315595458984375,0.0001270705834031105,-0.001923315692692995,-0.0024950229562819004
1746576176011610600,4.325610595703125,-0.0015104617923498154,-0.0007264195010066032,0.0031410064548254013
1746576176021626600,4.335626708984375,-0.000517901498824358,0.0008009029552340508,0.00011272612027823925
1746576176031642600,4.345642578125,-0.0007695718668401241,0.00036262208595871925,0.001059279777109623
1746576176041657600,4.35565771484375,0.0014144864398986101,-0.0007135611958801746,0.0006997529417276382
1746576176051673600,4.365673583984375,0.0004392145201563835,0.0016212314367294312,0.0021022011060267687
1746576176061689600,4.375689697265625,-0.0012012929655611515,0.0007759439758956432,-0.001708249794319272
1746576176071704600,4.38570458984375,0.00028711650520563126,0.00044366205111145973,-0.0005026445724070072
1746576176081720600,4.395720458984375,0.0023031295277178288,-0.00020481739193201065,-0.0015418101102113724
1746576176091736600,4.405736572265625,-0.001510207075625658,-0.001745450310409069,0.001561181852594018
1746576176101751600,4.41575146484375,0.00009514624252915382,-0.0017321347258985043,-0.0014591093640774488
1746576176111767600,4.425767578125,-0.002176788169890642,-0.0002781073562800884,0.0005896557122468948
1746576176121782500,4.435782470703125,0.00037185708060860634,-0.0008924989961087704,0.0011441258247941732
1746576176131798500,4.445798583984375,-0.0008557266555726528,-0.00030672457069158554,0.002598871011286974
1746576176141814800,4.455814697265625,-0.0015529422089457512,0.0009894361719489098,-0.000008896458894014359
1746576176151829800,4.465829833984375,-0.0016192439943552017,-0.001128051895648241,0.00046204100362956524
1746576176161845800,4.475845703125,0.0017168980557471514,0.0027045030146837234,-0.0006671394221484661
1746576176171861800,4.48586181640625,-0.0014292397536337376,0.0018306029960513115,0.0008658268488943577
1746576176181876700,4.495876708984375,0.0007241920102387667,0.00007265014573931694,0.0006003095768392086
1746576176191892700,4.505892822265625,-0.0004526958800852299,-0.001987534575164318,0.0016971258446574211
1746576176201908500,4.515908447265625,0.0007129698060452938,-0.0017723510973155499,-0.0012981314212083817
1746576176211923700,4.525923828125,-0.00027410173788666725,0.00033082906156778336,0.0010599419474601746
1746576176221939500,4.535939453125,0.000708071980625391,-0.0009967563673853874,-0.0027039034757763147
1746576176231955500,4.54595556640625,0.0007466045208275318,0.002192944288253784,0.001881295582279563
1746576176241970400,4.555970458984375,-0.0008113444782793522,-0.0009996532462537289,-0.0026098592206835747
1746576176251986400,4.565986328125,-0.0011826232075691223,0.0009944667108356953,0.0027723198290914297
1746576176262001400,4.57600146484375,-0.0019972841255366802,0.0006985897198319435,0.0012908033095300198
1746576176272017700,4.586017578125,0.0007621734403073788,-0.0006065997295081615,0.0006183048244565725
1746576176282033700,4.59603369140625,-0.0009808656759560108,-0.0018862485885620117,0.0006705028936266899
1746576176292048600,4.606048583984375,-0.00037831906229257584,0.001140447799116373,-0.000521357636898756
1746576176302064600,4.616064697265625,0.0008259625174105167,0.0009186062961816788,-0.0014401483349502087
1746576176312080600,4.62608056640625,0.0004938137717545033,-0.0009910445660352707,0.0004242551513016224
1746576176322095600,4.636095703125,0.0006530703976750374,0.0017341678030788898,-0.000692674657329917
1746576176332111600,4.646111572265625,-0.00004142196848988533,-0.00020767981186509132,0.0010545861441642046
1746576176342127600,4.656127685546875,-0.0015477058477699757,0.00010577403008937836,0.0012383442372083664
1746576176352142600,4.666142578125,0.00001300731673836708,0.0024972311221063137,0.0007703173905611038
1746576176362158600,4.67615869140625,0.0012447191402316093,0.0000931951217353344,-0.0007450210396200418
1746576176372173600,4.686173583984375,-0.001005341298878193,-0.0012553795240819454,0.000943516381084919
1746576176382189600,4.696189453125,-0.0022394503466784954,-0.0014423336833715439,-0.0014674433041363955
1746576176392205800,4.706205810546875,0.001319637754932046,-0.0009938264265656471,0.000943110091611743
1746576176402220800,4.716220703125,0.0014583882875740528,-0.003218897385522723,-0.000011100433766841888
1746576176412237000,4.726237060546875,0.000028769485652446747,-0.0007260777056217194,-0.0008619630243629217
1746576176422252800,4.736252685546875,0.0018407839816063643,-0.0007953201420605183,0.0002650867681950331
1746576176432268000,4.74626806640625,-0.0001618834212422371,-0.0020748116075992584,0.0004318810533732176
1746576176442283800,4.75628369140625,-0.00020449375733733177,-0.0017246059142053127,-0.001690658275038004
1746576176452299800,4.7662998046875,0.00018410710617899895,-0.0009441343136131763,-0.000039461301639676094
1746576176462314800,4.776314697265625,-0.0005836822092533112,0.001122745219618082,0.000025519635528326035
1746576176472330800,4.786330810546875,-0.00031087175011634827,0.0005267295055091381,-0.0005786067340523005
1746576176482345700,4.796345703125,-0.0012437771074473858,-0.0008823489770293236,0.0019593858160078526
1746576176492361700,4.80636181640625,-0.00010947464033961296,-0.000865839421749115,-0.00021069636568427086
1746576176502377700,4.816377685546875,-0.001435995101928711,-0.0025188634172081947,0.000244704307988286
1746576176512392700,4.826392822265625,0.0005860012024641037,-0.0006745895370841026,0.0005542577710002661
1746576176522409000,4.836408935546875,0.0016291614156216383,0.001260995864868164,0.0025098170153796673
1746576176532425000,4.846425048828125,-0.0010668770410120487,0.0030282209627330303,0.003106070915237069
1746576176542440000,4.85643994140625,-0.0022410647943615913,-0.001077307853847742,-0.0002407236024737358
1746576176552456000,4.8664560546875,-0.00018117623403668404,-0.0009866743348538876,-0.00021447334438562393
1746576176562472000,4.876471923828125,0.0013152542524039745,0.0013103019446134567,0.0006529183592647314
1746576176572487000,4.88648681640625,-0.00007508881390094757,0.0018037469126284122,-0.0018179314211010933
1746576176582503000,4.8965029296875,-0.001009591855108738,0.00054194126278162,0.0009557507000863552
1746576176592519000,4.906518798828125,0.0010283947922289371,-0.002049546455964446,0.001534592593088746
1746576176602534000,4.916533935546875,0.001082190778106451,-0.002144621219485998,0.0013822598848491907
1746576176612550000,4.9265498046875,0.0013696819078177214,-0.0009185927920043468,0.000395752489566803
1746576176622564900,4.93656494140625,0.002531619044020772,0.0005959467962384224,-0.0028152207378298044
1746576176632580900,4.946580810546875,-0.00010403385385870934,0.0011770273558795452,-0.0007746624760329723
1746576176642596900,4.956596923828125,0.001649125013500452,-0.001375878695398569,-0.0029414105229079723
1746576176652612000,4.966612060546875,0.00024277903139591217,0.0006146267987787724,0.0012183187063783407
1746576176662627800,4.9766279296875,-0.001081877388060093,-0.0018077846616506577,-0.0005284487269818783
1746576176672643800,4.986643798828125,0.0017594292294234037,0.0007856357842683792,-0.0010799318552017212
1746576176682658800,4.996658935546875,0.0005271844565868378,-0.0016721957363188267,0.00024072988890111446
1746576176692674800,5.0066748046875,0.00006907852366566658,0.0008572675287723541,0.0007952663581818342
1746576176702690800,5.01669091796875,-0.001131474506109953,-0.0005038739182054996,-0.0010183462873101234
1746576176712705800,5.026705810546875,-0.0007555568590760231,0.001618366688489914,-0.0010925503447651863
1746576176722721800,5.0367216796875,-0.0017774119041860104,-0.015649836510419846,0.11236397176980972
1746576176732737800,5.04673779296875,0.000848785974085331,-0.013564521446824074,0.10257023572921753
1746576176742752800,5.056752685546875,0.0018946093041449785,-0.003522539511322975,-0.004817206412553787
1746576176752768800,5.066768798828125,0.0005568969063460827,0.017882395535707474,-0.09715665131807327
1746576176762783700,5.07678369140625,0.0014762200880795717,0.021608423441648483,-0.12859021127223969
1746576176772800000,5.086800048828125,0.0011825955007225275,-0.010492900386452675,0.028508368879556656
1746576176782816000,5.09681591796875,-0.0017897584475576878,-0.007769552059471607,0.0059378123842179775
1746576176792831000,5.1068310546875,0.0009720874950289726,-0.0001155477948486805,-0.0009110290557146072
1746576176802847000,5.116846923828125,-0.0011733551509678364,0.0008333362638950348,0.0011228271760046482
1746576176812863000,5.126863037109375,-0.0018036961555480957,-0.00007164664566516876,0.004286061506718397
1746576176822878000,5.1368779296875,-0.0008074077777564526,-0.001068734098225832,0.00001807953231036663
1746576176832894000,5.14689404296875,0.000019351951777935028,0.00039113033562898636,0.0004375127609819174
1746576176842909700,5.15690966796875,-0.0006701406091451645,-0.0007042279466986656,0.0019315460231155157
1746576176852925000,5.166925048828125,-0.0006841053254902363,-0.002960643731057644,0.000022873282432556152
1746576176862940700,5.176940673828125,-0.001289175357669592,0.0003350181505084038,-0.0009326690342277288
1746576176872956700,5.186956787109375,-0.00007036933675408363,-0.000493879895657301,-0.0022622044198215008
1746576176882971600,5.1969716796875,-0.0009388262405991554,-0.0023413149174302816,0.001479004044085741
1746576176892988000,5.20698779296875,0.0012767806183546782,-0.0002516121603548527,0.0003317056689411402
1746576176903002600,5.217002685546875,-0.0008524167351424694,0.0008445451967418194,0.0027591767720878124
1746576176913019000,5.227018798828125,-0.0006118728779256344,0.0001565343700349331,0.001076497370377183
1746576176923035000,5.237034912109375,0.0005125137977302074,0.0018878555856645107,-0.0001847755629569292
1746576176933049900,5.2470498046875,-0.0015383576974272728,0.0017632097005844116,0.0007349590305238962
1746576176943065900,5.25706591796875,0.0014395888429135084,-0.0019915809389203787,-0.000982513651251793
1746576176953081900,5.267081787109375,0.0005484758876264095,0.0015019956044852734,-0.0029662323649972677
1746576176963096800,5.277096923828125,0.0000166427344083786,0.000527544878423214,-0.0024304043035954237
1746576176973112800,5.28711279296875,0.00003734976053237915,0.0012371046468615532,-0.0008357083424925804
1746576176983128800,5.29712890625,0.002910101553425193,-0.0014489595778286457,-0.001692713238298893
1746576176993143800,5.307143798828125,-0.0018373094499111176,-0.0002467804588377476,-0.00023640715517103672
1746576177003159800,5.317159912109375,0.0007989536970853806,-0.0009192284196615219,-0.0007746319752186537
1746576177013174800,5.3271748046875,-0.0026603881269693375,-0.0020840989891439676,0.00017507444135844707
1746576177023191000,5.33719091796875,0.0006248876452445984,-0.000246517825871706,-0.0002707389649003744
1746576177033207000,5.34720703125,-0.000337040051817894,-0.001236715354025364,0.00042012264020740986
1746576177043222000,5.357221923828125,-0.00019535981118679047,-0.0007243230938911438,-0.001769794849678874
1746576177053238000,5.367238037109375,-0.0017564711160957813,-0.0007651112973690033,0.0002256380394101143
1746576177063253800,5.377253662109375,0.0022180306259542704,-0.0019829748198390007,-0.000035351840779185295
1746576177073269000,5.38726904296875,0.00007547717541456223,-0.0005213804543018341,-0.0013688732869923115
1746576177083284700,5.39728466796875,-0.0008931146003305912,-0.0002239053137600422,-0.001968883443623781
1746576177093300700,5.40730078125,-0.0022456496953964233,-0.00010096095502376556,0.0010386293288320303
1746576177103315700,5.417315673828125,0.0003868849016726017,-0.0006378539837896824,0.0011590041685849428
1746576177113331700,5.427331787109375,-0.000016260426491498947,0.00037386221811175346,0.0013550447765737772
1746576177123347700,5.43734765625,0.0004415367729961872,-0.0004381355829536915,0.000991523265838623
1746576177133362700,5.44736279296875,-0.0014706533402204514,-0.0006138528697192669,-0.0007310856599360704
1746576177143379000,5.45737890625,0.000051076989620923996,0.003091935534030199,0.0005501611158251762
1746576177153395000,5.46739501953125,0.0011751088313758373,0.00023310258984565735,-0.0009037679992616177
1746576177163410000,5.477409912109375,0.0016217210795730352,-0.0015943585895001888,0.00021049869246780872
1746576177173426000,5.487426025390625,-0.0007283599115908146,0.00017352774739265442,-0.00046779215335845947
1746576177183441000,5.49744091796875,-0.00011902861297130585,-0.0006307470612227917,0.0001780244056135416
1746576177193457000,5.507456787109375,0.0009180272463709116,0.0010255281813442707,-0.001738065853714943
1746576177203473000,5.517472900390625,-0.001217561773955822,0.0007160692475736141,-0.0046696737408638
1746576177213487900,5.52748779296875,-0.001240316778421402,-0.002510238904505968,-0.0019583466928452253
1746576177223504000,5.53750390625,-0.0006158053874969482,0.0012658573687076569,0.0009106767829507589
1746576177233519900,5.547519775390625,0.0008642605971544981,-0.002402534941211343,0.0022536718752235174
1746576177243534800,5.557534912109375,-0.001075319480150938,-0.0017149066552519798,-0.00036448193714022636
1746576177253550800,5.56755078125,0.00002033216878771782,0.010955572128295898,-0.012830546125769615
1746576177263566800,5.57756689453125,-0.0019003399647772312,-0.0021261407528072596,-0.005214170552790165
1746576177273581800,5.587581787109375,0.0003992072306573391,0.0018135434947907925,0.0002803574316203594
1746576177283597800,5.597597900390625,-0.002558233216404915,-0.002366820350289345,-0.0017779995687305927
1746576177293613000,5.607613037109375,0.0007785363122820854,0.002031885087490082,-0.0005132018122822046
1746576177303628800,5.61762890625,0.0013074399903416634,-0.0002784067764878273,0.0003406077157706022
1746576177313644800,5.627644775390625,0.0008044177666306496,-0.0009903539903461933,-0.000782061368227005
1746576177323659800,5.63765966796875,0.0008286526426672935,0.00011485815048217773,0.00046403147280216217
1746576177333675800,5.64767578125,-0.0009627384133636951,-0.0012027197517454624,-0.00024300161749124527
1746576177343691800,5.65769189453125,-0.00037098396569490433,-0.0014775581657886505,-0.0018334416672587395
1746576177353706800,5.667706787109375,-0.0009173033758997917,-0.002172274049371481,0.0005611197557300329
1746576177363722800,5.67772265625,-0.0023056091740727425,-0.003082009730860591,-0.0014144130982458591
1746576177373738800,5.68773876953125,0.0009349624160677195,-0.0024087366182357073,0.0011960938572883606
1746576177383753700,5.697753662109375,0.0011514774523675442,0.0007662838324904442,-0.0007328337524086237
1746576177393769700,5.707769775390625,-0.0010855672881007195,-0.0006307526491582394,0.0027818912640213966
1746576177403786000,5.717785888671875,-0.00014547165483236313,0.0016531744040548801,0.0013155548367649317
1746576177413799700,5.727799560546875,0.0010721094440668821,-0.001152997836470604,0.0013924266677349806
1746576177423815700,5.737815673828125,0.002874004188925028,-0.0021628683898597956,-0.0016262661665678024
1746576177433830700,5.74783056640625,0.00047074398025870323,-0.0019345548935234547,-0.0009756674990057945
1746576177443846700,5.7578466796875,0.000983136473223567,-0.0016498630866408348,0.0014438142534345388
1746576177453862700,5.767862548828125,-0.0005684350617229939,-0.0021141287870705128,0.00043249246664345264
1746576177463877600,5.777877685546875,-0.00024033337831497192,-0.0011452706530690193,-0.000006662681698799133
1746576177473894000,5.787893798828125,-0.000037330202758312225,0.0004802201874554157,-0.0019006221555173397
1746576177483910000,5.797909912109375,-0.00007141893729567528,-0.0007078158669173717,-0.0006097881123423576
1746576177493924900,5.8079248046875,0.000770502258092165,0.0016374844126403332,0.001176993129774928
1746576177503940900,5.81794091796875,-0.000806089024990797,0.0014300239272415638,-0.0006962744519114494
1746576177513956900,5.827956787109375,-0.0010467595420777798,-0.00025550602003932,-0.0011186711490154266
1746576177523971800,5.837971923828125,0.0016502237413078547,-0.000237396452575922,0.0009548661764711142
1746576177533987800,5.84798779296875,-0.0009542303159832954,0.00014442205429077148,-0.0012901043519377708
1746576177544003800,5.85800390625,-0.0005182712338864803,0.0008999612182378769,0.001060668146237731
1746576177554018800,5.868018798828125,-0.0008993921801447868,-0.0014260602183640003,0.002099178498610854
1746576177564034800,5.878034912109375,-0.0017374888993799686,0.0011465530842542648,0.0010078151244670153
1746576177574050600,5.888050537109375,0.0006032940000295639,0.0012380830012261868,0.0007250804919749498
1746576177584065800,5.898065673828125,-0.0018260418437421322,0.00006842287257313728,0.0010641010012477636
1746576177594081800,5.908081787109375,-0.0010627293959259987,-0.0005817734636366367,-0.00006934674456715584
1746576177604096800,5.9180966796875,-0.0018361113034188747,-0.0012054857797920704,-0.0021708467975258827
1746576177614112800,5.92811279296875,0.0028305479791015387,-0.0005670678801834583,-0.0002902259584516287
1746576177624128800,5.938128662109375,-0.0010307691991329193,-0.0020648299250751734,-0.001503295497968793
1746576177634143700,5.948143798828125,0.000009957235306501389,0.0014125904999673367,0.0022423448972404003
1746576177644159700,5.95815966796875,0.001567640108987689,0.0015420201234519482,-0.002304736291989684
1746576177654175700,5.96817578125,0.0006496484857052565,-0.0009469701908528805,-0.000026401830837130547
1746576177664190700,5.978190673828125,-0.001784267369657755,-0.0009763981215655804,-0.0006152307614684105
1746576177674206700,5.988206787109375,0.00004996545612812042,-0.0015996946021914482,0.00029385369271039963
1746576177684222700,5.99822265625,-0.00044538266956806183,0.0008634626865386963,-0.0005746032111346722
1746576177694237700,6.00823779296875,0.0022617557551711798,0.0017341929487884045,-0.0012383852154016495
1746576177704253700,6.018253662109375,-0.000563325360417366,-0.002124993596225977,-0.0006775232031941414
1746576177714270000,6.02827001953125,-0.0024791606701910496,-0.0014715357683598995,-0.0008907916489988565
1746576177724285000,6.038284912109375,0.0012034585233777761,-0.00022624153643846512,-0.0014649692457169294
1746576177734301000,6.048301025390625,0.0007151886820793152,-0.00027412688359618187,0.00014624674804508686
1746576177744316000,6.05831591796875,0.0007146559655666351,-0.0005585523322224617,0.0005867336876690388
1746576177754332000,6.068331787109375,-0.00011988822370767593,0.001566468272358179,-0.002304289024323225
1746576177764348000,6.078347900390625,0.0016617667861282825,-0.0013174689374864101,0.00016925507225096226
1746576177774363000,6.08836279296875,0.0005826158449053764,-0.0004980997182428837,-0.002975152339786291
1746576177784379000,6.09837890625,0.00019406061619520187,0.0016611916944384575,0.0010997506324201822
1746576177794394600,6.10839453125,-0.0031875697895884514,0.0005148425698280334,0.0007165311835706234
1746576177804409900,6.118409912109375,0.0004756082780659199,-0.00010327715426683426,0.000274446327239275
1746576177814425600,6.128425537109375,-0.0009217751212418079,-0.0009170388802886009,-0.0013059517368674278
1746576177824441600,6.138441650390625,-0.0008535981178283691,0.00028218235820531845,0.003042723750695586
1746576177834456600,6.14845654296875,-0.00016200868412852287,-0.002042988082394004,-0.0005436395294964314
1746576177844472800,6.158472900390625,0.0011906111612915993,-0.0014480380341410637,-0.001179868821054697
1746576177854488800,6.16848876953125,-0.0009377184323966503,0.00034566130489110947,-0.0029248015489429235
1746576177864503800,6.17850390625,-0.0003478280268609524,-0.000531849917024374,0.0008925735019147396
1746576177874519800,6.188519775390625,-0.0007252939976751804,-0.00044964393600821495,-0.0007550010923296213
1746576177884534800,6.19853466796875,0.0008331877179443836,0.002482230309396982,0.0005629975348711014
1746576177894550800,6.20855078125,-0.0010983762331306934,-0.0017486684955656528,-0.0016181212849915028
1746576177904566800,6.21856689453125,-0.0010666847229003906,0.0005853255279362202,0.0004993581678718328
1746576177914581800,6.228581787109375,0.0007964789401739836,0.0009103445336222649,0.0007279864512383938
1746576177924597800,6.23859765625,0.0012588037643581629,-0.000740282703191042,-0.0013865635264664888
1746576177934613800,6.24861376953125,-0.0010296297259628773,0.0005680969916284084,-0.000824666116386652
1746576177944628700,6.258628662109375,-0.0008791610598564148,0.0010317531414330006,-0.00045448681339621544
1746576177954644700,6.268644775390625,-0.00029568467289209366,-0.0023097421508282423,-0.0007109290454536676
1746576177964661000,6.278660888671875,0.00032243505120277405,0.0006833844818174839,-0.0000027944333851337433
1746576177974675700,6.28867578125,0.00034959474578499794,0.0010670055635273457,0.00041315495036542416
1746576177984692000,6.29869189453125,0.0006417434196919203,-0.0005247658118605614,0.0009495154954493046
1746576177994707700,6.308707763671875,-0.00242797052487731,0.00014733895659446716,-0.001141129992902279
1746576178004723000,6.318722900390625,-0.0008340687490999699,0.0010512159205973148,-0.00012060673907399178
1746576178014738700,6.32873876953125,-0.0006365273147821426,-0.0020787848625332117,-0.001510570989921689
1746576178024754700,6.338754638671875,0.0010013168212026358,-0.0009208424016833305,-0.0009339966345578432
1746576178034769700,6.348769775390625,0.0015929420478641987,-0.0010358719155192375,0.0008466301951557398
1746576178044785700,6.35878564453125,-0.001158636063337326,0.00032926443964242935,0.0007169342134147882
1746576178054800600,6.368800537109375,0.0015862970612943172,0.0009073452092707157,0.0029821665957570076
1746576178064816600,6.378816650390625,-0.0014286674559116364,-0.000788555946201086,-0.00034811627119779587
1746576178074832600,6.38883251953125,-0.0005718809552490711,0.0018511624075472355,0.0003164063673466444
1746576178084847600,6.39884765625,0.0004718117415904999,-0.0021640853956341743,0.0007007005624473095
1746576178094864000,6.40886376953125,-0.000548794399946928,0.000024504028260707855,-0.000648444052785635
1746576178104879900,6.4188798828125,-0.0008609169162809849,-0.002028260612860322,0.00006128847599029541
1746576178114894800,6.428894775390625,-0.0002914862707257271,-0.0005334746092557907,0.00045031215995550156
1746576178124910800,6.438910888671875,0.001445960020646453,0.0004737330600619316,0.001254054019227624
1746576178134926800,6.4489267578125,-0.0010535214096307755,0.003144968766719103,-0.0006689580623060465
1746576178144941800,6.45894189453125,-0.00014458457008004189,-0.0009914529509842396,-0.00041089789010584354
1746576178154957800,6.468957763671875,0.0015153295826166868,-0.000893923919647932,0.0012841667048633099
1746576178164973800,6.478973876953125,0.0011680533643811941,-0.0027075367979705334,-0.00018856138922274113
1746576178174988800,6.48898876953125,-0.0011770068667829037,0.0012790123000741005,-0.0009377722162753344
1746576178185004800,6.4990048828125,-0.0009884550236165524,0.0005034999921917915,-0.002135928487405181
1746576178195019800,6.509019775390625,-0.0015447731129825115,-0.0005663270130753517,-0.0017272753175348043
1746576178205035800,6.519035888671875,0.0007495400495827198,-0.0008712592534720898,-0.0001943598035722971
1746576178215051800,6.5290517578125,-0.0018508597277104855,-0.000497342087328434,0.0003448107745498419
1746576178225066800,6.539066650390625,0.00016435422003269196,-0.002108820714056492,-0.0005947526078671217
1746576178235082800,6.549082763671875,-0.000886816531419754,0.0008266284130513668,0.0009744679555296898
1746576178245098800,6.5590986328125,-0.0002702949568629265,0.00028440915048122406,0.001150236465036869
1746576178255113700,6.56911376953125,-0.0006677913479506969,0.00003421306610107422,-0.0006314585916697979
1746576178265129700,6.579129638671875,0.0007146557327359915,-0.0019580977968871593,-0.0005020289681851864
1746576178275145700,6.589145751953125,0.0005826586857438087,0.00039344746619462967,0.0017341913189738989
1746576178285160700,6.59916064453125,0.00040635745972394943,-0.0018478687852621078,0.00008010212332010269
1746576178295176700,6.6091767578125,-0.00010863179340958595,0.00004766276106238365,-0.00037828716449439526
1746576178305192700,6.619192626953125,0.00004716310650110245,-0.0007342412136495113,0.00013303966261446476
1746576178315207700,6.629207763671875,-0.00250566890463233,0.0018493561074137688,-0.0009280003141611814
1746576178325223700,6.6392236328125,0.00042673759162425995,-0.0016827946528792381,-0.000820941524580121
1746576178335240000,6.649239990234375,-0.000547733623534441,0.0020663137547671795,0.0014872371684759855
1746576178345254700,6.659254638671875,0.0014722743071615696,0.001088400837033987,-0.0001743091270327568
1746576178355271000,6.66927099609375,0.0008069672621786594,0.0029284595511853695,-0.005878441967070103
1746576178365286000,6.679285888671875,0.0015561145264655352,0.00044239917770028114,0.0013120926450937986
1746576178375302000,6.689302001953125,-0.0028027817606925964,-0.001782101346179843,0.0020517176017165184
1746576178385318000,6.69931787109375,0.000800741370767355,-0.00004438869655132294,0.0002876396756619215
1746576178395332900,6.709332763671875,-0.0011748126707971096,0.0016335798427462578,-0.0023470453452318907
1746576178405348900,6.719348876953125,0.0012515934649854898,0.0002215718850493431,0.0011976221576333046
1746576178415364900,6.72936474609375,0.00020056171342730522,-0.0001754695549607277,-0.0011499638203531504
1746576178425380000,6.739380126953125,0.0001411731354892254,-0.001961918082088232,-0.0012777952942997217
1746576178435395800,6.749395751953125,0.000498342327773571,-0.000567789189517498,-0.0004670768976211548
1746576178445411800,6.759411865234375,-0.0019179433584213257,-0.0034898093435913324,0.000425881240516901
1746576178455426800,6.7694267578125,-0.00007931981235742569,-0.0002347417175769806,0.0008036100771278143
1746576178465442800,6.77944287109375,-0.0021190345287323,-0.00033700698986649513,-0.0004294335376471281
1746576178475459000,6.789458984375,0.0006013084203004837,0.0022042281925678253,-0.00012279720976948738
1746576178485473800,6.799473876953125,0.001721700420603156,-0.0005747806280851364,-0.0010807360522449017
1746576178495490000,6.809489990234375,0.0011466688010841608,0.0018223850056529045,-0.0004973071627318859
1746576178505506000,6.819506103515625,-0.0014006448909640312,0.0005422034300863743,-0.0002744006924331188
1746576178515521000,6.82952099609375,0.0008536146488040686,0.0026299632154405117,0.0002720165066421032
1746576178525537000,6.839537109375,-0.002562954556196928,0.0023982678540050983,0.0003314048517495394
1746576178535552000,6.849552001953125,0.0015733803156763315,-0.0016867653466761112,-0.0002342849038541317
1746576178545568000,6.859568115234375,0.0012178481556475163,-0.0015876954421401024,-0.0004460061900317669
1746576178555584000,6.869583984375,-0.0011112014763057232,-0.0008644843474030495,-0.0006009058561176062
1746576178565599000,6.879598876953125,-0.0016435673460364342,0.0004609711468219757,0.00012693600729107857
1746576178575615000,6.889614990234375,0.0006546906661242247,0.00211874907836318,-0.0008997349068522453
1746576178585631000,6.899630859375,-0.00039059994742274284,-0.0002972707152366638,-0.000765778124332428
1746576178595646000,6.90964599609375,0.0008502665441483259,0.0006186729297041893,0.0008432448375970125
1746576178605662000,6.919661865234375,0.0026697381399571896,0.00021307310089468956,-0.0005008524749428034
1746576178615678000,6.929677978515625,-0.0024564191699028015,0.000363178551197052,-0.0007338740397244692
1746576178625693200,6.939693115234375,-0.0009197755716741085,-0.001907432684674859,0.0006485728081315756
1746576178635709000,6.949708984375,0.00014098966494202614,0.0003015291877090931,0.00009048427455127239
1746576178645725000,6.959724853515625,-0.0003309226594865322,-0.00008649332448840141,0.0028955917805433273
1746576178655740000,6.969739990234375,0.0008040491957217455,0.0003643329255282879,0.0010732775554060936
1746576178665756000,6.979755859375,-0.0011104973964393139,-0.0008599222637712955,-0.0014569915365427732
1746576178675772000,6.98977197265625,0.0011934877838939428,-0.0028974462766200304,-0.0017313105054199696
1746576178685787000,6.999786865234375,0.00010878220200538635,0.001120731234550476,-0.00025378866121172905
1746576178695803000,7.009802978515625,0.0005223588086664677,0.00026603415608406067,-0.00023730332031846046
1746576178705817900,7.01981787109375,-0.0004986971616744995,0.0007920083589851856,0.0015672547742724419
1746576178715833900,7.029833740234375,-0.00010725529864430428,-0.0004978585056960583,-0.0021267745178192854
1746576178725849900,7.039849853515625,0.0013942350633442402,-0.0027322503738105297,0.0006620874628424644
1746576178735864800,7.04986474609375,-0.0018386193551123142,-0.0014942586421966553,0.0006839090492576361
1746576178745881000,7.059881103515625,0.001127342926338315,0.0010131075978279114,0.0005081403069198132
1746576178755897000,7.06989697265625,-0.0017641601152718067,-0.0019120329525321722,-0.0043375203385949135
1746576178765912000,7.079912109375,0.0015634596347808838,-0.0014835302717983723,0.0017067904118448496
1746576178775928000,7.089927978515625,-0.001234211027622223,-0.00011840695515275002,0.000423224875703454
1746576178785944000,7.099944091796875,0.001043590484187007,-0.0027967479545623064,0.002286638831719756
1746576178795959000,7.109958984375,0.0017936807125806808,-0.0003598090261220932,0.0001856507733464241
1746576178805975000,7.11997509765625,0.000016553327441215515,-0.0012604901567101479,-0.001172028947621584
1746576178815991000,7.129990966796875,0.0032178645487874746,0.0008736671879887581,0.00039292569272220135
1746576178826006000,7.140006103515625,0.00040024006739258766,-0.000636611133813858,0.0008323471993207932
1746576178836022000,7.15002197265625,-0.001957099884748459,0.0038665332831442356,0.0009100115858018398
1746576178846037800,7.160037841796875,-0.0005485541187226772,-0.001692017074674368,-0.0015004156157374382
1746576178856053000,7.170052978515625,0.000842623645439744,0.0002775457687675953,-0.001460338942706585
1746576178866069000,7.180069091796875,0.0011736545711755753,-0.0018444610759615898,-0.001408939715474844
1746576178876085000,7.1900849609375,0.0005870508030056953,-0.000687877181917429,0.000467885984107852
1746576178886100000,7.200099853515625,-0.0006995224393904209,-0.0008077197708189487,0.00003751926124095917
1746576178896116000,7.210115966796875,0.0016459166072309017,-0.0013767499476671219,0.000431193970143795
1746576178906131000,7.220130859375,-0.0004734271205961704,0.002476578112691641,-0.0030833797063678503
1746576178916147000,7.23014697265625,-0.0027115256525576115,0.0010330835357308388,-0.0023714189883321524
1746576178926163000,7.240162841796875,0.0014358151238411665,-0.0013286075554788113,-0.0006502179894596338
1746576178936178000,7.250177978515625,-0.0011969823390245438,0.001998554915189743,0.0008443614933639765
1746576178946194000,7.26019384765625,-0.002211380284279585,0.0029450426809489727,-0.002255025552585721
1746576178956210000,7.2702099609375,-0.00032064691185951233,-0.01598515920341015,0.022269677370786667
1746576178966225000,7.280224853515625,-0.002008292358368635,-0.0009305751882493496,-0.00013043731451034546
1746576178976241000,7.290240966796875,-0.0005674236454069614,-0.0003695921041071415,-0.0026932775508612394
1746576178986257200,7.300257080078125,-0.0004917895421385765,0.00269197765737772,0.0016822959296405315
1746576178996272000,7.310272216796875,0.0006760514806956053,-0.0028024802450090647,-0.0005527685862034559
1746576179006288100,7.3202880859375,0.0006438270211219788,0.00003644963726401329,0.002835038350895047
1746576179016304000,7.33030419921875,0.0004736902192234993,-0.0011890246532857418,-0.0010414936114102602
1746576179026319000,7.340319091796875,0.0010649121832102537,-0.0002968655899167061,-0.000585826812312007
1746576179036335000,7.350335205078125,0.0005914326757192612,0.0018611741252243519,0.0010211437474936247
1746576179046350800,7.360350830078125,-0.00038940971717238426,-0.0009905388578772545,0.0009281993843615055
1746576179056366000,7.370365966796875,-0.0011550560593605042,0.0012429323978722095,0.0017169390339404345
1746576179066381800,7.3803818359375,0.0010519055649638176,-0.00005535827949643135,-0.000006126239895820618
1746576179076397800,7.390397705078125,0.0007566965650767088,-0.0018495714757591486,0.000702474033460021
1746576179086412800,7.400412841796875,-0.00010456983000040054,-0.0028911337722092867,-0.0015569517854601145
1746576179096428800,7.4104287109375,0.0004870002157986164,0.0028471793048083782,0.0034676340874284506
1746576179106443800,7.42044384765625,0.0015895490068942308,-0.0005246489308774471,0.0005602613091468811
1746576179116460000,7.4304599609375,-0.00031153298914432526,-0.0006563016213476658,0.0014361878857016563
1746576179126476000,7.44047607421875,0.00008367979899048805,-0.00048079947009682655,0.0020322033669799566
1746576179136491000,7.450490966796875,-0.000019851606339216232,0.0005206032656133175,0.004048523493111134
1746576179146507000,7.460507080078125,0.0014701872132718563,-0.002542031928896904,0.0020021505188196898
1746576179156523000,7.47052294921875,-0.00015740050002932549,-0.0009565525688230991,0.002701221499592066
1746576179166538000,7.4805380859375,0.00014806445688009262,0.0005292249843478203,0.0011296900920569897
1746576179176554000,7.490553955078125,-0.0002636108547449112,-0.0015912344679236412,-0.0009618788026273251
1746576179186570000,7.500570068359375,0.002013924764469266,0.00023516127839684486,-0.0007272539660334587
1746576179196585000,7.5105849609375,-0.0001369803212583065,0.0006864131428301334,0.00023970799520611763
1746576179206601000,7.52060107421875,0.002660670317709446,-0.0000653970055282116,0.0005803261883556843
1746576179216617000,7.530616943359375,0.002386086853221059,-0.001892570871859789,-0.00012053060345351696
1746576179226632000,7.5406318359375,-0.00035750167444348335,-0.00028215721249580383,0.0008147717453539371
1746576179236648200,7.550648193359375,-0.0025950376875698566,-0.0006071459501981735,-0.0012333325576037169
1746576179246664000,7.560663818359375,0.0009237970225512981,-0.0007528206333518028,-0.0008740720804780722
1746576179256679200,7.57067919921875,-0.0012840148992836475,-0.000928548164665699,-0.000808758893981576
1746576179266695000,7.58069482421875,0.0005399840883910656,0.0010403268970549107,0.00025863596238195896
1746576179276711000,7.5907109375,0.0006654644384980202,-0.0013651219196617603,0.0009807555470615625
1746576179286726000,7.600725830078125,0.0003919578157365322,-0.0014332989230751991,0.0010894124861806631
1746576179296742000,7.610741943359375,0.00010390067473053932,-3.650784492492676e-7,0.0008135410025715828
1746576179306758000,7.6207578125,0.0016711708158254623,-0.0009361999109387398,-0.0008152485825121403
1746576179316772900,7.63077294921875,0.0001387493684887886,0.0006166892126202583,-0.001418454572558403
1746576179326788900,7.640788818359375,-0.0007315715774893761,0.00028991932049393654,0.00020740553736686707
1746576179336803800,7.650803955078125,0.00032854778692126274,-0.00008103717118501663,-0.0015931727830320597
1746576179346819800,7.66081982421875,0.0007906064856797457,0.0007650488987565041,-0.0001848931424319744
1746576179356836000,7.670836181640625,0.0014950295444577932,-0.001959406305104494,0.0009725519921630621
1746576179366851000,7.68085107421875,0.0015951644163578749,-0.00007282290607690811,0.0018655098974704742
1746576179376867000,7.6908671875,0.0004001762717962265,-0.0006648851558566093,0.0017525255680084229
1746576179386883000,7.700883056640625,-0.0016232938505709171,-0.00134558929130435,0.0007434538565576077
1746576179396898000,7.71089794921875,0.0015312950126826763,0.0003936407156288624,-0.0007404796779155731
1746576179406914000,7.7209140625,0.002935313619673252,0.003188894595950842,-0.0015476834960281849
1746576179416930600,7.7309306640625,0.00041236449033021927,0.0012357616797089577,0.0017848277930170298
1746576179426945500,7.740945556640625,-0.0011714175343513489,-0.0006372397765517235,-0.0008527671452611685
1746576179436961500,7.75096142578125,0.0007538835052400827,0.00214023282751441,0.0024818233214318752
1746576179446977500,7.7609775390625,0.0013397790025919676,-0.00010081706568598747,-0.0008090450428426266
1746576179456992500,7.770992431640625,-0.000801463145762682,-0.00012958981096744537,0.0013999231159687042
1746576179467008500,7.781008544921875,0.0000840378925204277,-0.0005538314580917358,-0.00015802611596882343
1746576179477024500,7.7910244140625,0.00021659443154931068,0.0004041180945932865,-0.0006271512247622013
1746576179487039500,7.80103955078125,0.0004195272922515869,0.002247824799269438,0.0010847288649529219
1746576179497055500,7.811055419921875,0.0002224743366241455,-0.00277013354934752,-0.0024134349077939987
1746576179507071500,7.821071533203125,0.00029224902391433716,0.003258996643126011,-0.0006008874624967575
1746576179517086500,7.83108642578125,-0.0004801647737622261,0.001089882105588913,-0.0012572547420859337
1746576179527102500,7.8411025390625,0.0012820488773286343,0.0006115785799920559,-0.0034477049484848976
1746576179537117400,7.851117431640625,0.0011795901227742434,-0.0003379196859896183,-0.0014397059567272663
1746576179547133400,7.861133544921875,-0.0017341743223369122,0.00036941561847925186,0.0016160053201019764
1746576179557149400,7.8711494140625,0.00014908332377672195,-0.0011966866441071033,0.001070474274456501
1746576179567164400,7.881164306640625,0.0013491036370396614,-0.0017064157873392105,0.0011287976521998644
1746576179577180700,7.8911806640625,-0.0007712417282164097,-0.0006832452490925789,0.00047724531032145023
1746576179587196700,7.90119677734375,-0.0010543358512222767,0.0009969430975615978,0.0018722090171650052
1746576179597211600,7.911211669921875,-0.0005671572871506214,-0.00012689270079135895,0.00067380559630692
1746576179607227600,7.9212275390625,0.0011369993444532156,-0.0019112105946987867,-0.0020175848621875048
1746576179617243600,7.93124365234375,-0.0013542557135224342,-0.00044565973803400993,0.0015646307729184628
1746576179627258600,7.941258544921875,0.000768550205975771,-0.0015492737293243408,0.0013515776954591274
1746576179637274600,7.951274658203125,-0.0022653471678495407,0.0007453812286257744,0.0006088144145905972
1746576179647290400,7.961290283203125,-0.0003009992651641369,0.0022332891821861267,0.003113517304882407
1746576179657305600,7.9713056640625,-0.0007366994395852089,0.0020969538018107414,-0.0012746769934892654
1746576179667321300,7.9813212890625,-0.0021702791564166546,-0.0011880556121468544,-0.0031231772154569626
1746576179677337300,7.99133740234375,-0.00022280216217041016,0.002031163778156042,0.0018956569256260991
1746576179687352300,8.001352294921874,-0.0011450545862317085,-0.00185572006739676,0.0015518427826464176
1746576179697368600,8.01136865234375,0.002053463365882635,-0.0029383169021457434,0.001271781511604786
1746576179707384600,8.021384521484375,-0.0010413960553705692,0.0019802753813564777,-0.0007572807371616364
1746576179717399600,8.031399658203124,0.0014777081087231636,-0.0007819724269211292,-0.002115489449352026
1746576179727415600,8.04141552734375,-0.0012333900667726994,-0.0014608120545744896,-0.00005446909926831722
1746576179737431600,8.051431640625,-0.0013137846253812313,-0.0008693188428878784,0.0006284858100116253
1746576179747446500,8.061446533203124,0.000846571521833539,0.001145895104855299,-0.000010406598448753357
1746576179757462500,8.071462646484376,0.0012959118466824293,-0.000956385862082243,-0.002559098182246089
1746576179767478500,8.081478515625,0.0017292080447077751,-0.0018069995567202568,-0.0013601433020085096
1746576179777493500,8.091493408203124,0.0008400322403758764,-0.0006148107349872589,-0.00009084586054086685
1746576179787509500,8.101509521484376,0.002797455759719014,-0.0006361161358654499,0.0016740311402827501
1746576179797524500,8.1115244140625,0.0011929837055504322,-0.0006457585841417313,-0.0013415010180324316
1746576179807540500,8.12154052734375,-0.0014936132356524467,-0.00028942758217453957,-0.00026984489522874355
1746576179817556700,8.131556640625,0.0026139719411730766,0.0006131185218691826,-0.0017292127013206482
1746576179827571700,8.14157177734375,-0.0016899625770747662,-0.0006699925288558006,-0.0014359988272190094
1746576179837587700,8.151587646484375,-0.0019221901893615723,0.0017135348170995712,-0.00024323025718331337
1746576179847603500,8.161603515625,-0.0009133848361670971,-0.0009677358902990818,0.0013842275366187096
1746576179857618700,8.17161865234375,-0.00039833737537264824,-0.002137996256351471,-0.0000437605194747448
1746576179867634400,8.181634521484375,-0.002608228474855423,-0.0009494274854660034,0.0008870142046362162
1746576179877650400,8.191650390625,-0.0008297953754663467,0.0011675418354570866,0.00007259752601385117
1746576179887665400,8.20166552734375,0.0004929965361952782,0.0012578228488564491,-0.0005122325383126736
1746576179897681400,8.211681396484375,-0.0010482543148100376,-0.000135812908411026,0.0002782554365694523
1746576179907697400,8.221697509765624,0.0025091960560530424,0.0007294481620192528,-0.0030618810560554266
1746576179917712400,8.23171240234375,-0.0013143112882971764,0.0007504895329475403,-0.0013290105853229761
1746576179927728400,8.241728271484375,-0.0000847293995320797,-0.00029639899730682373,0.0001612943597137928
1746576179937744600,8.25174462890625,-0.00018000416457653046,-0.001332512591034174,0.003013058565557003
1746576179947759600,8.261759521484375,0.0024786293506622314,-0.0014222613535821438,0.0008039665408432484
1746576179957775600,8.271775634765625,-0.00017636222764849663,0.0009555150754749775,0.00027174013666808605
1746576179967791600,8.28179150390625,0.0002904897555708885,0.0010559158399701118,-0.0008590379729866982
1746576179977806600,8.291806640625,0.00024543702602386475,0.001162772998213768,-0.0024331246968358755
1746576179987822600,8.301822509765625,0.00025582313537597656,0.002428573090583086,-0.00022935890592634678
1746576179997837600,8.311837646484374,0.0000893264077603817,0.00216648168861866,-0.0032317456789314747
1746576180007853600,8.321853515625,0.0019234451465308666,0.0004125237464904785,0.0012636701576411724
1746576180017869600,8.33186962890625,-0.001753687858581543,-0.003429707372561097,0.003419102169573307
1746576180027884500,8.341884521484374,-0.001760079525411129,-0.0029032002203166485,0.0007261135615408421
1746576180037900500,8.351900634765625,0.002002381021156907,0.0022818855941295624,-0.0014109215699136257
1746576180047916300,8.361916259765625,0.0015509752556681633,-0.002338698599487543,-0.00000424007885158062
1746576180057931500,8.371931640625,-0.0018332055769860744,0.0017262049950659275,0.00010848650708794594
1746576180067947500,8.381947509765626,0.0016797701828181744,-0.0027700099162757397,-0.000055297976359725
1746576180077963500,8.391963623046875,-0.001680527813732624,0.0006330567412078381,0.000922531122341752
1746576180087978500,8.401978515625,0.0008702478371560574,0.0008314624428749084,0.0006868415512144566
1746576180097994500,8.411994384765626,0.00038399500772356987,-0.0006332327611744404,-0.0005257353186607361
1746576180108010500,8.422010498046875,0.0003067632205784321,0.002298907842487097,-0.0006868564523756504
1746576180118025500,8.432025390625,0.0013716774992644787,0.0028200135566294193,-0.000842641806229949
1746576180128041500,8.44204150390625,-0.0007766946218907833,-0.000013856682926416397,0.0010490012355148792
1746576180138057500,8.452057373046875,-0.0003351820632815361,-0.0003173006698489189,-0.0009488477371633053
1746576180148072400,8.462072509765624,-0.0019035176374018192,0.0063089109025895596,0.0002852613106369972
1746576180158088400,8.47208837890625,0.00011683860793709755,0.0010566231794655323,-0.0002396460622549057
1746576180168104400,8.4821044921875,0.0026862560771405697,0.00003210501745343208,-0.002013577613979578
1746576180178119400,8.492119384765624,0.0014656034763902426,-0.0008496898226439953,0.00043776282109320164
1746576180188135700,8.5021357421875,0.001068792538717389,-0.0015120180323719978,0.0018899845890700817
1746576180198151700,8.512151611328125,-0.0005075829103589058,-0.0005625761114060879,-0.0013839812017977238
1746576180208166700,8.522166748046875,-0.0009456728585064411,-0.0008398112840950489,0.0025513721629977226
1746576180218182700,8.5321826171875,0.00016146758571267128,0.0012424183078110218,-0.0010454901494085789
1746576180228198700,8.54219873046875,-0.0011557317338883877,0.0017116675153374672,0.0007747802883386612
1746576180238213600,8.552213623046875,-0.0002485578879714012,0.0010169134475290775,-0.0017179562710225582
1746576180248229400,8.5622294921875,0.0017120614647865295,-0.0008928393945097923,0.000605385284870863
1746576180258245400,8.572245361328125,0.0009737019427120686,0.00011473475024104118,0.0013587574940174818
1746576180268260400,8.58226025390625,0.0024983615148812532,0.0015680217184126377,-0.0007400799077004194
1746576180278276400,8.5922763671875,0.0008004133123904467,-0.0010247915051877499,0.000379814300686121
1746576180288291300,8.602291259765625,0.0025610290467739105,0.0005318261682987213,-0.0021339436061680317
1746576180298307300,8.612307373046875,0.00040113041177392006,0.0009415424428880215,-0.0008559734560549259
1746576180308323600,8.622323486328124,-0.0006316434592008591,-0.0014744773507118225,0.0001879855990409851
1746576180318338600,8.632338623046875,-0.0011725523509085178,0.0008814693428575993,0.00095323845744133
1746576180328354600,8.6423544921875,-0.00016667647287249565,-0.0004865964874625206,-0.0018936807755380869
1746576180338370600,8.65237060546875,-0.002633141353726387,0.0003150557167828083,-0.000792213948443532
1746576180348385500,8.662385498046875,0.0008803671225905418,0.00017257686704397202,0.000658676028251648
1746576180358401500,8.672401611328125,0.0013377608265727758,0.0009713815525174141,0.0016167941503226757
1746576180368417500,8.68241748046875,0.0016434919089078903,-0.00019375141710042953,-0.0010594164486974478
1746576180378432500,8.6924326171875,-0.0010340292938053608,0.0013221092522144318,0.00036707473918795586
1746576180388448500,8.702448486328125,0.0000757100060582161,0.00022408785298466682,-0.000559971434995532
1746576180398464500,8.712464599609374,-0.0007477779872715473,-0.00012091314420104027,0.0005006736610084772
1746576180408479500,8.7224794921875,-0.0008937190286815166,0.0010948199778795242,0.00039574503898620605
1746576180418494700,8.73249462890625,-0.0002478337846696377,-0.0005303896032273769,-0.0015021194703876972
1746576180428510700,8.7425107421875,-0.0008289352990686893,-0.00019935891032218933,0.00290354760363698
1746576180438525700,8.752525634765625,0.0004053567536175251,0.0008303308859467506,0.0009524368215352297
1746576180448541700,8.762541748046875,0.0003992314450442791,0.00003298046067357063,-0.0005250847898423672
1746576180458557700,8.7725576171875,0.0015787146985530853,0.00033455295488238335,0.0011697523295879364
1746576180468572700,8.78257275390625,-0.0011283885687589645,0.00011750543490052223,-0.000044116517528891563
1746576180478588700,8.792588623046875,0.0003562695346772671,0.0013271784409880638,-0.0004543678369373083
1746576180488604700,8.802604736328124,-0.0018482953310012817,0.0011679213494062424,-0.0022594586480408907
1746576180498619600,8.81261962890625,-0.0009723682887852192,0.0005123079754412174,-0.002521831775084138
1746576180508635600,8.8226357421875,-0.000998200848698616,0.0013011363334953785,0.0012998043093830347
1746576180518651600,8.832651611328124,-0.0006838501431047916,-0.00044021569192409515,0.001018845709040761
1746576180528666600,8.84266650390625,-0.00018823565915226936,-0.001307074911892414,0.0006196380127221346
1746576180538682600,8.8526826171875,0.0017120782285928726,-0.0010093632154166698,0.0009407699108123779
1746576180548698600,8.86269873046875,-0.0001974082551896572,0.0002905256114900112,-0.003912041895091534
1746576180558713600,8.872713623046875,-0.0029582162387669086,-0.0008126865141093731,0.001229848712682724
1746576180568729600,8.8827294921875,-0.000002107582986354828,-0.0001255907118320465,0.0010330411605536938
1746576180578745600,8.89274560546875,0.002847249386832118,-0.00029915012419223785,0.0007975890766829252
1746576180588760600,8.902760498046876,-0.0006082020699977875,0.0015096687711775303,0.0009203606750816107
1746576180598776600,8.912776611328125,0.00022013578563928604,0.00002647656947374344,0.0011823312379419804
1746576180608791600,8.92279150390625,0.0016164311673492193,0.001204126514494419,0.0002640732564032078
1746576180618807600,8.9328076171875,-0.0005736947059631348,-0.000012406613677740097,0.0019629220478236675
1746576180628823600,8.942823486328125,-0.0008655772544443607,-0.00018977327272295952,-0.0018371425103396177
1746576180638838500,8.952838623046874,-0.00004019681364297867,0.0018393564969301224,-0.003549111308529973
1746576180648854500,8.9628544921875,0.0001163966953754425,-0.0007047615945339203,-0.0013365570921450853
1746576180658870800,8.972870849609375,0.0011235098354518414,0.002133623231202364,-0.00018869689665734768
1746576180668885800,8.9828857421875,-0.0011630803346633911,-0.0003495081327855587,0.0020515541546046734
1746576180678901800,8.99290185546875,0.0018333869520574808,0.0003128941170871258,0.0027884719893336296
1746576180688917800,9.002917724609375,-0.001785848755389452,-0.0009731459431350231,0.0012217340990900993
1746576180698932700,9.0129326171875,-0.00048442790284752846,0.0010052979923784733,0.0012293581385165453
1746576180708948700,9.02294873046875,0.0021877880208194256,-0.002662939950823784,0.0010815525893121958
1746576180718964500,9.032964599609375,0.00011191191151738167,0.0010373406112194061,0.0016066392417997122
1746576180728979700,9.042979736328125,0.00009992765262722969,0.0021249759010970592,-0.0010565216653048992
1746576180738995500,9.052995361328126,-0.00018223654478788376,0.00016100844368338585,-0.00025869463570415974
1746576180749011500,9.063011474609375,0.0028993072919547558,0.0009250692091882229,0.0004318628925830126
1746576180759026400,9.0730263671875,-0.00008699437603354454,-0.0024473683442920446,0.001365208299830556
1746576180769042400,9.08304248046875,-0.0008763549849390984,-0.0015200553461909294,0.0018158149905502796
1746576180779058700,9.09305859375,0.0006553097628057003,0.0011470546014606953,0.0014158906415104866
1746576180789073700,9.10307373046875,0.0012055188417434692,0.00014251051470637321,0.0011194807011634111
1746576180799089700,9.113089599609374,-0.0019818106666207314,0.0007549170404672623,0.0009293048642575741
1746576180809105700,9.123105712890625,-0.00038817478343844414,-0.0005934415385127068,0.0002888147719204426
1746576180819120600,9.13312060546875,-0.0002965838648378849,0.0009187995456159115,-0.0009003342129290104
1746576180829136600,9.14313671875,0.0003518955782055855,0.0003486163914203644,0.0001966219861060381
1746576180839152600,9.153152587890625,-0.001854032278060913,-0.00011029932647943497,0.0010822915937751532
1746576180849167600,9.163167724609375,0.0010448184330016375,0.0026862863451242447,0.0006260920781642199
1746576180859183600,9.17318359375,-0.001094866544008255,-0.0014937506057322025,0.0003719097003340721
1746576180869199600,9.18319970703125,0.0006433785893023014,0.0013273358345031738,-0.0011357057373970747
1746576180879214600,9.193214599609375,0.0028127245604991913,0.0021952143870294094,-0.00022785039618611336
1746576180889230600,9.203230712890624,0.000481925904750824,-0.0006786026060581207,-0.002231879159808159
1746576180899246600,9.21324658203125,-0.0008409288711845875,0.00012686336413025856,-0.001713107107207179
1746576180909261800,9.22326171875,0.002756468951702118,0.0005918513052165508,0.0016651127953082323
1746576180919277600,9.233277587890624,-0.0016426178626716137,0.0003003636375069618,-0.0001272417139261961
1746576180929293600,9.24329345703125,0.00021387171000242233,-0.00017101550474762917,0.0010882250498980284
1746576180939308500,9.25330859375,0.0006967212539166212,0.0008084145374596119,-0.00062015769071877
1746576180949324500,9.263324462890624,-0.000489184632897377,0.001281658187508583,0.0008461789693683386
1746576180959340500,9.273340576171876,-0.002248941920697689,-0.0001035025343298912,-0.0021497367415577173
1746576180969355500,9.28335546875,-0.0004550367593765259,0.0007662856951355934,-0.0021454759407788515
1746576180979371500,9.29337158203125,0.0017448952421545982,0.001762567088007927,0.0008969584014266729
1746576180989387500,9.303387451171876,0.00207113241776824,0.0005851839669048786,0.002907911315560341
1746576180999402500,9.313402587890625,0.0005573695525527,0.0018141563050448895,0.002092515118420124
1746576181009418800,9.323418701171875,0.0017307584639638662,-0.00036803772673010826,0.0009018159471452236
1746576181019434800,9.333434814453126,-0.0007528793066740036,0.0007590670138597488,-0.00018987571820616722
1746576181029449700,9.34344970703125,0.0016689992044121027,0.0014890395104885101,0.000582174863666296
1746576181039465700,9.3534658203125,0.0004739789292216301,-0.0011436049826443195,-0.002493599895387888
1746576181049481700,9.363481689453126,-0.0031090378761291504,-0.0008711637929081917,0.0012105910573154688
1746576181059496700,9.37349658203125,0.0008087072055786848,-0.00046929530799388885,0.0008995772805064917
1746576181069512700,9.3835126953125,-0.0029604649171233177,0.0014180871658027172,0.001069220481440425
1746576181079527700,9.393527587890626,0.0005281209014356136,0.0002802419476211071,0.001098318723961711
1746576181089543700,9.403543701171875,-0.00032622087746858597,-0.001559203490614891,-0.0013214296195656061
1746576181099559400,9.413559326171875,0.00006452249363064766,0.0013136551715433598,-0.0008865264244377613
1746576181109574700,9.42357470703125,0.002290658885613084,-0.0004687984474003315,0.0026075406931340694
1746576181119590400,9.43359033203125,-0.0009501893073320389,-0.0002322746440768242,0.00029689562506973743
1746576181129606700,9.443606689453125,0.0005222726613283157,-0.0013212412595748901,0.00036906730383634567
1746576181139621400,9.453621337890626,0.0010755315888673067,-0.0003965962678194046,-0.0010103527456521988
1746576181149637600,9.4636376953125,0.00012664729729294777,-0.0006003277376294136,-0.0009858515113592148
1746576181159653600,9.473653564453125,-0.00005812523886561394,-0.00177299277856946,0.0004269711207598448
1746576181169668600,9.483668701171876,-0.000006459653377532959,0.0009532850235700607,0.0002562624868005514
1746576181179684600,9.4936845703125,0.0014698882587254047,-0.00023645907640457153,0.0009437468834221363
1746576181189700600,9.50370068359375,-0.001224165316671133,0.0013872701674699783,0.0018404333386570215
1746576181199715600,9.513715576171874,-0.0001543262042105198,-0.0010594502091407776,-0.0009055309928953648
1746576181209731600,9.523731689453125,-0.0012733866460621357,0.0005008960142731667,-0.000028818147256970406
1746576181219747600,9.53374755859375,0.00016313092783093452,-0.0019373144023120403,-0.0006318169180303812
1746576181229762600,9.543762451171874,-0.0012853620573878288,-0.001906688092276454,0.0017240154556930065
1746576181239778600,9.553778564453125,-0.001490690279752016,-0.0001853201538324356,0.001759763341397047
1746576181249794800,9.563794921875,-0.00044380174949765205,0.0003331974148750305,0.0010324541945010424
1746576181259809500,9.5738095703125,-0.0008293320424854755,0.001925196498632431,0.0017324236687272787
1746576181269825800,9.58382568359375,0.0014788296539336443,0.0011416943743824959,0.0017409457359462976
1746576181279841500,9.593841552734375,-0.000937790609896183,-0.0007468792609870434,0.0008562023285776377
1746576181289856800,9.603856689453124,0.0017275006975978613,0.0006049415096640587,-0.0011414347682148218
1746576181299872500,9.61387255859375,-0.0016243639402091503,-0.0004683006554841995,0.0006325230933725834
1746576181309888500,9.623888427734375,0.0004784679040312767,-0.0008203708566725254,-0.0020183876622468233
1746576181319903500,9.633903564453124,0.0012064757756888866,-0.0004574516788125038,-0.001630991231650114
1746576181329919500,9.64391943359375,-0.0007030107080936432,0.0023271492682397366,0.0027586971409618855
1746576181339935500,9.653935546875,-0.00025210902094841003,-0.00011528842151165009,0.0013461115304380655
1746576181349950500,9.663950439453124,-0.0002161567099392414,-0.002712403191253543,0.0008805908728390932
1746576181359966500,9.673966552734376,-0.0006333272904157639,0.0013756779953837395,-0.001924203708767891
1746576181369982700,9.683982666015625,0.00045830244198441505,-0.0013652476482093334,-0.0026331371627748013
1746576181379997400,9.69399755859375,-0.00004113093018531799,-0.000013494398444890976,-0.000489391153678298
1746576181390013700,9.704013671875,-0.0010629859752953053,-0.0003344053402543068,0.0005367246922105551
1746576181400029700,9.71402978515625,-0.00029176753014326096,-0.0008214316330850124,0.0015174332074820995
1746576181410044700,9.724044677734375,0.0008789580315351486,-0.0008797547779977322,0.0013296804390847683
1746576181420061200,9.734061279296874,-0.0009119906462728977,0.0012999209575355053,0.000648631015792489
1746576181430077200,9.7440771484375,-0.0011199838481843472,-0.0002556317485868931,-0.0002965247258543968
1746576181440092200,9.754092041015625,-0.0005553984083235264,0.00015494180843234062,0.0010113585740327835
1746576181450108200,9.764108154296874,0.0009985559154301882,0.0013680113479495049,-0.0016789666842669249
1746576181460124000,9.7741240234375,0.0014756256714463234,0.0001883106306195259,-0.0002454614732414484
1746576181470139100,9.78413916015625,-0.00021228566765785217,-0.00009185401722788811,-0.0015639925841242075
1746576181480155000,9.79415478515625,-0.0033142389729619026,0.0010261842980980873,-0.0015845147427171469
1746576181490171100,9.804171142578125,0.001148686744272709,-0.0006063333712518215,-0.000983971869572997
1746576181500186000,9.81418603515625,0.0002565127797424793,0.00047177867963910103,-0.001707911491394043
1746576181510202000,9.8242021484375,-0.0019872006960213184,0.00012157298624515533,0.0000990433618426323
1746576181520218000,9.834218017578126,-0.00036715297028422356,0.004045572131872177,-0.0004955604672431946
1746576181530233000,9.844233154296875,0.00005256105214357376,-0.0005324017256498337,-0.00016213301569223404
1746576181540249000,9.8542490234375,-0.00002067210152745247,-0.0008611022494733334,-0.0009087319485843182
1746576181550265000,9.86426513671875,-0.002020705956965685,-0.00020756246522068977,0.001399695873260498
1746576181560280000,9.874280029296875,-0.0004164325073361397,-0.0006459001451730728,-0.0000641215592622757
1746576181570296000,9.884296142578124,0.0003684009425342083,0.0006603803485631943,0.000943618593737483
1746576181580312000,9.89431201171875,-0.000539886299520731,-0.0016626417636871338,0.0020167799666523933
1746576181590327000,9.9043271484375,0.0018407132010906935,0.000017280224710702896,0.0006343328859657049
1746576181600343300,9.91434326171875,0.00013329414650797844,-0.0015054154209792614,0.00027617253363132477
1746576181610359300,9.924359375,0.0003242427483201027,-0.0022231373004615307,-0.0005259714089334011
1746576181620374300,9.934374267578125,0.0012995691504329443,-0.0007032109424471855,-0.0011620107106864452
1746576181630390300,9.944390380859375,0.0005986252799630165,-0.0009298459626734257,-0.0002054031938314438
1746576181640406000,9.954406005859376,-0.000857621431350708,0.0003420817665755749,0.0029235156252980232
1746576181650421200,9.964421142578125,0.0021030146162956953,0.001906955149024725,0.0005828633438795805
1746576181660437000,9.97443701171875,0.0007005846127867699,0.00021515972912311554,-0.0009414153173565865
1746576181670453000,9.984452880859376,0.0005458551459014416,-0.00036727357655763626,-0.0007608532905578613
1746576181680468000,9.994468017578125,-0.0003304090350866318,-0.00046196579933166504,-0.0016468728426843882
1746576181690484000,10.00448388671875,0.0015662945806980133,0.0015103709883987904,-0.0008082434069365263
1746576181700500000,10.0145,0.0010683583095669746,-0.0012270975857973099,-0.001248199725523591
1746576181710515000,10.024514892578125,0.002226300770416856,-0.0018201835919171572,-0.0004260821733623743
1746576181720531200,10.03453125,0.0011926691513508558,0.0007995050400495529,0.00045663933269679546
1746576181730546000,10.0445458984375,-0.001971965190023184,0.0009097596630454063,0.002316324505954981
1746576181740562200,10.054562255859375,-0.002124777063727379,-0.0006902506574988365,-0.0007102545350790024
1746576181750578200,10.064578125,-0.0010624420829117298,0.00009325146675109863,0.00003702845424413681
1746576181760593200,10.07459326171875,-0.0019278083927929401,0.0027125985361635685,-0.0007601364050060511
1746576181770609200,10.084609130859375,0.000498864334076643,-0.0014501884579658508,-0.0009044797625392675
1746576181780625200,10.094625244140625,-0.0015512830577790737,0.00031448807567358017,-0.0009155755396932364
1746576181790640000,10.10464013671875,0.0009978949092328548,0.0004934528842568398,0.00013157911598682404
1746576181800656100,10.11465625,-0.0013163900002837181,0.0008437079377472401,0.0004265212919563055
1746576181810672000,10.124672119140625,-0.0007278313860297203,0.0010274662636220455,-0.000764444237574935
1746576181820687000,10.13468701171875,-0.0021247752010822296,0.0011761095374822617,0.0006264878902584314
1746576181830703000,10.144703125,-0.0008445936255156994,0.0028003714978694916,0.0013681782875210047
1746576181840719000,10.154718994140625,-0.0005171089433133602,-0.0010639866814017296,0.0022387425415217876
1746576181850734000,10.164734130859374,-0.0006944756023585796,0.000310736708343029,0.0005369824357330799
1746576181860750000,10.17475,-0.0012107351794838905,0.00003235321491956711,0.0013845437206327915
1746576181870766000,10.18476611328125,0.001314207911491394,-0.001081647351384163,-0.0011827435810118914
1746576181880781000,10.194781005859374,-0.0004496942274272442,0.001123917754739523,0.0006663629319518805
1746576181890797000,10.204797119140625,0.00015564216300845146,-0.00015653017908334732,-0.0002393780741840601
1746576181900813000,10.21481298828125,0.0007911515422165394,0.0008568428456783295,0.00008764537051320076
1746576181910828000,10.224828125,-0.000709806103259325,-0.0005764700472354889,0.000027990667149424553
1746576181920844000,10.234843994140626,0.00020366907119750977,-0.00004835100844502449,-0.00044701038859784603
1746576181930860000,10.244860107421875,-0.00031191902235150337,-0.0005857772193849087,0.0003655198961496353
1746576181940875000,10.254875,0.00020339898765087128,-0.0012426124885678291,-0.00009042001329362392
1746576181950891000,10.26489111328125,-0.0017407084815204144,0.0007704710587859154,-0.0008286482188850641
1746576181960907300,10.2749072265625,0.0008560961578041315,0.0016042818315327168,-0.0001834637951105833
1746576181970922000,10.284921875,-0.0010030567646026611,0.001827721018344164,0.000695645809173584
1746576181980938200,10.294938232421876,-0.0009740707464516163,0.0006408174522221088,0.0010494631715118885
1746576181990954200,10.304954345703125,-0.00017432356253266335,0.0012011467479169369,-0.00026560574769973755
1746576182000969200,10.31496923828125,-0.0009492570534348488,-0.00048026395961642265,0.00037033180706202984
1746576182010985200,10.324985107421876,-0.0002102302387356758,-0.0003974395804107189,-0.0009724341798573732
1746576182021001200,10.335001220703125,0.0014636320993304253,0.0011063311249017715,0.0021924846805632114
1746576182031016200,10.34501611328125,-0.0014464040286839008,0.0007316241972148418,0.0017168440390378237
1746576182041032200,10.3550322265625,0.00033790478482842445,0.00004577822983264923,0.0011386862024664879
1746576182051048000,10.3650478515625,-0.0028981021605432034,-0.0018637082539498806,0.0013229770120233297
1746576182061063200,10.375063232421875,-0.0010439134202897549,0.0006692227907478809,0.0009750360623002052
1746576182071079000,10.385078857421876,0.0027998266741633415,-0.00045702792704105377,0.0009108539670705795
1746576182081095200,10.39509521484375,-0.00008667819201946259,0.0013016662560403347,-0.0013000080361962318
1746576182091110000,10.40510986328125,0.00284785870462656,-0.00022325990721583366,0.0001362347975373268
1746576182101126100,10.415126220703126,0.0018521151505410671,0.0007093758322298527,0.0008408937137573957
1746576182111142100,10.42514208984375,0.0002968288026750088,0.0009879427962005138,0.0008451547473669052
1746576182121157000,10.4351572265625,0.0007887717802077532,0.002630008850246668,0.00036101252771914005
1746576182131173000,10.445173095703124,0.0014987706672400236,0.00107978330925107,-0.003074997803196311
1746576182141189000,10.455189208984375,-0.00010091252624988556,-0.0006536548025906086,-0.0005204456392675638
1746576182151204000,10.4652041015625,-0.0014588581398129463,-0.0007655075751245022,0.0012393712531775236
1746576182161220000,10.47522021484375,0.00011990079656243324,0.0008425428532063961,-0.0005934212822467089
1746576182171236000,10.485236083984375,0.0009199143387377262,0.00007608532905578613,-0.00077984225936234
1746576182181251000,10.4952509765625,-0.0018149465322494507,-0.00040865130722522736,0.0031803494784981012
1746576182191267000,10.50526708984375,0.0001989356242120266,0.0011985665187239647,-0.0018261268269270658
1746576182201283300,10.515283447265626,0.00046898750588297844,-0.00040009617805480957,-0.0004877145402133465
1746576182211298000,10.525298095703125,-0.0019145417027175426,-0.0006560259498655796,0.00002760719507932663
1746576182221314300,10.535314208984374,-0.00043664639815688133,0.000715271569788456,-0.0010666698217391968
1746576182231330000,10.545330078125,0.0026158688124269247,0.00030487822368741035,0.00013281824067234993
1746576182241345300,10.55534521484375,0.001322427298873663,-0.000680161640048027,0.0012178290635347366
1746576182251361000,10.565361083984374,0.0011051134206354618,0.0018700812943279743,-0.0001901842188090086
1746576182261377000,10.575376953125,-0.00179664371535182,0.0010106577537953854,-0.000906212255358696
1746576182271392000,10.58539208984375,0.0006646495312452316,0.0001925346441566944,0.0036091774236410856
1746576182281408000,10.595407958984374,-0.0023823408409953117,0.001545849721878767,-0.0014131662901490927
1746576182291424000,10.605424072265626,-0.0021754130721092224,0.000013733282685279846,-0.00103659532032907
1746576182301439000,10.61543896484375,0.000462348572909832,0.0002444824203848839,0.0010039701592177153
1746576182311455000,10.625455078125,0.00044157588854432106,-0.0022756666876375675,-0.004739935509860516
1746576182321471200,10.63547119140625,0.0007238918915390968,-0.0000667572021484375,0.00352850160561502
1746576182331486200,10.645486328125,-0.0005264622159302235,-0.001540816854685545,-0.0011357585899531841
1746576182341502200,10.655502197265625,0.0004573077894747257,0.0009949221275746822,0.0015122334007173777
1746576182351518200,10.665518310546876,-0.003072978463023901,0.002358460333198309,-0.00041669420897960663
1746576182361533200,10.675533203125,0.0006564189679920673,-0.0017596206162124872,0.0006172636058181524
1746576182371549200,10.685549072265625,-0.0007289573550224304,-0.00016758311539888382,-0.0015763822011649609
1746576182381565200,10.695565185546876,0.0020252107642591,-0.0008220099844038486,0.001313359010964632
1746576182391580200,10.705580078125,-0.0020555509254336357,-0.00040442636236548424,-0.000018487917259335518
1746576182401596200,10.71559619140625,0.0013373156543821096,0.0023562232963740826,-0.0007749833166599274
1746576182411612200,10.725612060546876,-0.0006978721357882023,-0.0011090817861258984,-0.001942513044923544
1746576182421628200,10.735628173828125,0.0008388250134885311,-0.0001571006141602993,-0.002723854500800371
1746576182431643100,10.74564306640625,0.0006321636028587818,0.0008538351394236088,0.0026903520338237286
1746576182441659100,10.7556591796875,0.0001287250779569149,-0.0007182685658335686,-0.00029411865398287773
1746576182451675100,10.765675048828125,-0.00012454157695174217,0.0006074532866477966,-0.0016653803177177906
1746576182461690000,10.775690185546875,0.00004361197352409363,-0.0010428288951516151,0.0005990609060972929
1746576182471706000,10.7857060546875,-0.00040592998266220093,-0.000563726294785738,0.001998552121222019
1746576182481722000,10.79572216796875,0.0015426019672304392,0.003132291603833437,0.0006532997358590364
1746576182491737000,10.805737060546875,0.0008656263817101717,0.0006544864736497402,-0.0009533856064081192
1746576182501753300,10.81575341796875,-0.0012656012549996376,0.0013185134157538414,0.0001522442325949669
1746576182511769300,10.825769287109376,-0.0007100659422576427,0.0009017288684844971,0.002500886097550392
1746576182521784300,10.835784423828125,0.00012786174193024635,-0.0014451290480792522,0.002081191400066018
1746576182531800300,10.84580029296875,0.0016852784901857376,0.00031016021966934204,-0.001733254175633192
1746576182541816300,10.85581640625,-0.00019531603902578354,0.0007637059316039085,0.00077438959851861
1746576182551831300,10.865831298828125,-0.0004310058429837227,-0.0005854517221450806,-0.00002349354326725006
1746576182561847300,10.875847412109374,0.0010700153652578592,-0.00017294147983193398,0.0020996485836803913
1746576182571863300,10.88586328125,-0.0005105705931782722,0.00045130355283617973,0.0030376140493899584
1746576182581878300,10.895878173828125,0.0010840673930943012,0.00002774503082036972,-0.0016326606273651123
1746576182591894300,10.905894287109374,-0.000761769711971283,0.001807801891118288,-0.002484339289367199
1746576182601910000,10.915909912109376,0.00007647601887583733,-0.001993858255445957,0.002647015731781721
1746576182611925200,10.92592529296875,-0.0010441821068525314,-0.0014156857505440712,0.0017796242609620094
1746576182621941200,10.935941162109375,-0.00000694766640663147,-0.001787080429494381,0.0005402266979217529
1746576182631957200,10.945957275390626,0.0009936019778251648,-0.0009282110258936882,0.0005735161248594522
1746576182641972200,10.95597216796875,0.0005404246039688587,0.0016069384291768074,-0.00036778487265110016
1746576182651988200,10.96598828125,0.000005927868187427521,-0.00022505037486553192,0.0009744483977556229
1746576182662004200,10.976004150390626,-0.0023960708640515804,-0.0019001904875040054,0.0015053234528750181
1746576182672019200,10.986019287109375,-0.0011182860471308231,-0.0006130849942564964,-0.00036368309520184994
1746576182682035200,10.99603515625,-0.002584574744105339,0.0008175433613359928,0.0016391088720411062
1746576182692051200,11.00605126953125,0.00012199627235531807,0.002341936808079481,0.0017195362597703934
1746576182702066200,11.016066162109375,0.0004973839968442917,0.00014281878247857094,-0.0015342864207923412
1746576182712082200,11.026082275390625,0.0019693132489919662,0.0008173976093530655,-0.0004005786031484604
1746576182722098400,11.036098388671874,-0.0010373778641223907,0.0003722584806382656,0.002918615471571684
1746576182732113200,11.046113037109375,0.0017954267095774412,-0.0016623963601887226,0.0021055524703115225
1746576182742129400,11.05612939453125,-0.0008970513008534908,-0.0020813806913793087,0.0006797036621719599
1746576182752145400,11.0661455078125,0.0001959097571671009,-0.0010270350612699986,0.0007761102169752121
1746576182762160400,11.076160400390625,-0.00115651311352849,0.001140420325100422,0.0002381021622568369
1746576182772176400,11.08617626953125,-0.000978614203631878,0.0000844770111143589,0.0014008383732289076
1746576182782192000,11.096192138671874,-0.0017971829511225224,-0.0015025273896753788,-0.0008585171308368444
1746576182792207400,11.106207275390625,-0.00110609270632267,0.0003936430439352989,-0.000701923156157136
1746576182802223000,11.11622314453125,0.0013034879229962826,0.0005329898558557034,-0.0022304949816316366
1746576182812239000,11.126239013671874,0.00019135186448693275,0.0008986419998109341,-0.001333542400971055
1746576182822254000,11.136254150390625,0.0015732496976852417,0.0025725136511027813,-0.00044553447514772415
1746576182832270000,11.14627001953125,-0.0029456019401550293,-0.0029434252064675093,-0.000495868269354105
1746576182842286300,11.156286376953124,0.00035990821197628975,-0.0013555362820625305,0.0007326412014663219
1746576182852301000,11.166301025390625,-0.00006699655205011368,-0.002739847404882312,0.0004293073434382677
1746576182862317300,11.1763173828125,0.0012638024054467678,-0.0013990141451358795,-0.000825290335342288
1746576182872333300,11.186333251953124,-0.0021362556144595146,-0.0014850343577563763,-0.00112249911762774
1746576182882348300,11.196348388671876,0.0012609695550054312,0.00012147193774580956,-0.001282794401049614
1746576182892364300,11.2063642578125,-0.0017044604755938053,-0.0009081060998141766,0.0023452299647033215
1746576182902380300,11.21638037109375,0.0008531871717423201,-0.0005148248746991158,-0.00008996529504656792
1746576182912395300,11.226395263671876,-0.00022406131029129028,0.00002925889566540718,0.0001973896287381649
1746576182922411300,11.236411376953125,0.001702695619314909,-0.002802318660542369,0.00010110042057931423
1746576182932427300,11.24642724609375,0.0008102704305201769,-0.0006933612748980522,0.0007767444476485252
1746576182942442200,11.256442138671876,0.0006173788569867611,0.00021770643070340157,-0.0000993057619780302
1746576182952458200,11.266458251953125,-0.0018694805912673473,-0.0010693990625441074,-0.0019091900903731585
1746576182962474200,11.27647412109375,-0.0009501893073320389,0.0005285637453198433,0.0007709923665970564
1746576182972490200,11.286490234375,-0.00023007020354270935,-0.0017423136159777641,0.0003014770336449146
1746576182982505200,11.296505126953125,-0.0007176916114985943,0.002233705949038267,-0.003328644670546055
1746576182992521200,11.306521240234375,-0.00037947017699480057,0.0007439334876835346,-0.0018798848614096642
1746576183002537200,11.316537109375,-0.00010564643889665604,0.0011781775392591953,0.0011194129474461079
1746576183012552200,11.32655224609375,-0.0018359022215008736,-0.0022812688257545233,0.00029995827935636044
1746576183022568200,11.336568115234375,-0.0013772961683571339,-0.0008565764874219894,0.0008933027274906635
1746576183032584200,11.346584228515624,-0.0012766285799443722,-0.00023419596254825592,-0.0012047355994582176
1746576183042599200,11.35659912109375,0.0000687544234097004,0.00034501776099205017,0.0008101861458271742
1746576183052615200,11.366615234375,0.000850392272695899,-0.0012619337067008018,0.00012894952669739723
1746576183062631200,11.376631103515624,0.0006155064329504967,-0.001057174988090992,0.0009252112358808517
1746576183072646100,11.386646240234375,-0.001366151962429285,0.00022700149565935135,0.0008325332310050726
1746576183082662400,11.396662353515625,-0.001016432885080576,-0.001518965233117342,0.0026459856890141964
1746576183092678400,11.406678466796874,0.000273335725069046,0.00047920411452651024,0.0010158647783100605
1746576183102693400,11.416693359375,0.0005884189158678055,0.001740019302815199,-0.0003355676308274269
1746576183112709400,11.42670947265625,0.002872079610824585,-0.0016360701993107796,0.00041784043423831463
1746576183122725400,11.436725341796874,0.003094736021012068,0.0002461276017129421,-0.0008443647529929876
1746576183132740400,11.446740234375,0.0006699278019368649,0.00021150661632418633,-0.0009104108903557062
1746576183142756000,11.456756103515625,-0.0001596268266439438,-0.0012949081137776375,-0.0014660221058875322
1746576183152772000,11.466772216796874,-0.0004009092226624489,-0.0008581499569118023,0.0023806479293853045
1746576183162787000,11.476787109375,0.0007304660975933075,-0.0002496223896741867,-0.00012874859385192394
