time,seconds_elapsed,z,y,x
1746739308815227400,0.028227294921875,-0.00018727127462625504,-0.014667244628071785,-0.016667522490024567
1746739308825308400,0.038308349609375,0.001760672777891159,-0.009796063415706158,-0.01583084836602211
1746739308835389400,0.048389404296875,0.0033452536445111036,-0.009637605398893356,-0.017920630052685738
1746739308845470500,0.058470458984375,0.002125535160303116,-0.0016516176983714104,-0.012429376132786274
1746739308855550200,0.06855029296875,0.00559456879273057,-0.0007320279255509377,-0.0016275950474664569
1746739308865631200,0.07863134765625,0.0030815061181783676,-0.0036617813166230917,0.011154376901686192
1746739308875712500,0.08871240234375,-0.0011808830313384533,-0.008334564045071602,0.02253672666847706
1746739308885792300,0.098792236328125,-0.005813397001475096,-0.0038077253848314285,0.03074241429567337
1746739308895873300,0.108873291015625,-0.0077617657370865345,-0.00103377690538764,0.03121166303753853
1746739308905954300,0.118954345703125,-0.0069654155522584915,0.0022900807671248913,0.03081754595041275
1746739308916034600,0.12903466796875,-0.009954547509551048,0.003406211268156767,0.02401343546807766
1746739308926115300,0.139115234375,-0.002675015013664961,0.0010700980201363564,0.007373123895376921
1746739308936196400,0.1491962890625,-0.002559699583798647,-0.00178161496296525,-0.007508353795856237
1746739308946276400,0.1592763671875,0.00022761384025216103,-0.003338486421853304,-0.023794999346137047
1746739308956357000,0.169357177734375,0.006135037634521723,-0.003760330844670534,-0.03322285786271095
1746739308966438400,0.1794384765625,0.00761016272008419,-0.008881323039531708,-0.03710121661424637
1746739308976518400,0.189518310546875,0.005338486284017563,-0.01262306421995163,-0.036548078060150146
1746739308986599400,0.199599365234375,0.007044822443276644,-0.009189704433083534,-0.03275742009282112
1746739308996680200,0.20968017578125,0.0012692250311374664,-0.005152618978172541,-0.03391216695308685
1746739309006761200,0.21976123046875,0.0008393465541303158,-0.005509776063263416,-0.02816733904182911
1746739309016841500,0.229841552734375,-0.0022009178064763546,-0.003183238673955202,-0.02371346764266491
1746739309026922500,0.239922607421875,-0.005439381580799818,-0.0034351556096225977,-0.014533278532326221
1746739309037003300,0.250003173828125,-0.006833812687546015,-0.001360553316771984,-0.0069664400070905685
1746739309047083300,0.260083251953125,-0.002413008362054825,0.0000421060249209404,0.003470877418294549
1746739309057164500,0.27016455078125,-0.0016896938905119896,0.002908466849476099,0.006641370244324207
1746739309067245300,0.280245361328125,-0.0011781007051467896,0.004709562752395868,0.008233142085373402
1746739309077325300,0.2903251953125,0.000810747966170311,0.00634527625516057,0.0033470403868705034
1746739309087406300,0.30040625,0.003907701000571251,0.005658672656863928,0.0007708541234023869
1746739309097487400,0.3104873046875,0.0025055466685444117,0.00091904541477561,-0.0035964634735137224
1746739309107567400,0.3205673828125,-0.0005133161321282387,0.003931635059416294,-0.00618122611194849
1746739309117648400,0.3306484375,-0.00380072183907032,-0.0007512676529586315,-0.0006250729784369469
1746739309127729400,0.3407294921875,-0.0010395674034953117,-0.005543063394725323,0.012154828757047653
1746739309137809200,0.35080908203125,-0.006104633677750826,-0.004533725790679455,0.02712126076221466
1746739309147890400,0.360890380859375,-0.006249405909329653,0.0006160382181406021,0.038736775517463684
1746739309157971500,0.370971435546875,-0.003063200507313013,0.004697066731750965,0.05141475424170494
1746739309168051200,0.38105126953125,-0.001626304816454649,0.013124870136380196,0.061683088541030884
1746739309178132200,0.39113232421875,0.00020781392231583595,0.016195761039853096,0.061325427144765854
1746739309188213200,0.401213134765625,0.00216566096059978,0.03296569362282753,0.05019589886069298
1746739309198294500,0.41129443359375,-0.001145713496953249,0.023783646523952484,0.03528406098484993
1746739309208374300,0.421374267578125,0.0027674443554133177,0.012150390073657036,0.028466038405895233
1746739309218455300,0.431455322265625,0.005720890127122402,0.0036876616068184376,0.01803363673388958
1746739309228536300,0.441536376953125,0.0035453964956104755,0.004017918836325407,0.010347637347877026
1746739309238616600,0.451616455078125,0.0039017274975776672,0.007977772504091263,0.011749525554478168
1746739309248697300,0.461697265625,0.0034268430899828672,-0.0013017705641686916,0.009237216785550117
1746739309258778400,0.4717783203125,-0.0019016098231077194,-0.004147624596953392,0.011202629655599594
1746739309268858400,0.4818583984375,-0.0062802634201943874,-0.008195114322006702,0.015296915546059608
1746739309278939100,0.491939208984375,-0.010554635897278786,-0.008252372033894062,0.0166213046759367
1746739309289020400,0.5020205078125,-0.0056476597674191,-0.005762576125562191,0.013236301019787788
1746739309299100400,0.512100341796875,-0.0010020416229963303,-0.0038743948098272085,0.016215313225984573
1746739309309181400,0.522181396484375,0.000004421453922986984,0.0014585829339921474,0.01795351132750511
1746739309319262200,0.53226220703125,-0.0009974599815905094,0.0007853354327380657,0.015191281214356422
1746739309329342500,0.542342529296875,0.002628154819831252,-0.00008921930566430092,0.013302496634423733
1746739309339423500,0.552423583984375,0.0018028412014245987,0.0030586370266973972,0.018166227266192436
1746739309349504500,0.56250439453125,0.0020796586759388447,-0.0013806051574647427,0.01092210691422224
1746739309359584300,0.572584228515625,-0.003529224544763565,-0.000768610741943121,0.0031446111388504505
1746739309369665300,0.582665283203125,-0.006667220499366522,-0.004219281021505594,-0.0014996411046013236
1746739309379746600,0.59274658203125,-0.008013181388378143,-0.002959605772048235,0.004258645698428154
1746739309389826300,0.602826416015625,-0.006182374432682991,-0.00684061273932457,0.006951958406716585
1746739309399907300,0.6129072265625,-0.0018209158442914486,-0.009895258583128452,0.003662954783067107
1746739309409988400,0.62298828125,0.0007761567831039429,-0.012431410141289234,-0.008554980158805847
1746739309420068400,0.633068359375,0.001696811756119132,-0.0017372206784784794,-0.01688055507838726
1746739309430149400,0.6431494140625,0.00032187672331929207,-0.0002045738510787487,-0.031815607100725174
1746739309440230400,0.65323046875,0.005388807039707899,0.001247381791472435,-0.045424629002809525
1746739309450310400,0.663310302734375,0.00839909352362156,-0.0024251346476376057,-0.05144396796822548
1746739309460391200,0.67339111328125,0.013117682188749313,-0.0012315060012042522,-0.04903620108962059
1746739309470472400,0.683472412109375,0.014179539866745472,0.0038615213707089424,-0.032693758606910706
1746739309480552400,0.693552490234375,0.007071828935295343,0.009249894879758358,-0.012059320695698261
1746739309490633200,0.70363330078125,0.0021162666380405426,0.005282593425363302,0.012751140631735325
1746739309500714200,0.71371435546875,-0.002473691012710333,0.009985202923417091,0.034926749765872955
1746739309510794500,0.72379443359375,-0.0006660530343651772,0.007192630786448717,0.05286000669002533
1746739309520875500,0.73387548828125,-0.0029286746867001057,0.011172458529472351,0.06396378576755524
1746739309530956300,0.743956298828125,-0.0022640321403741837,0.00997399166226387,0.062477171421051025
1746739309541036300,0.754036376953125,0.004151523113250732,0.010626466944813728,0.04578367620706558
1746739309551117300,0.764117431640625,-0.0005811396986246109,0.022879691794514656,0.023694507777690887
1746739309561198600,0.774198486328125,-0.0016519967466592789,0.02675725519657135,0.003115730592980981
1746739309571278300,0.7842783203125,0.0010360339656472206,0.021500181406736374,-0.009387937374413013
1746739309581359400,0.794359375,0.005751959513872862,0.012881392613053322,-0.01418029610067606
1746739309591440400,0.8044404296875,0.005413048900663853,0.008666404522955418,-0.014878669753670692
1746739309601520400,0.814520263671875,0.006627716589719057,0.011822515167295933,-0.01125410757958889
1746739309611601400,0.824601318359375,0.003302909666672349,0.016297709196805954,-0.00659031979739666
1746739309621682400,0.834682373046875,0.004660855513066053,0.02186105027794838,-0.0016227256273850799
1746739309631762200,0.84476220703125,0.0030024098232388496,0.015835896134376526,-0.007718275301158428
1746739309641843200,0.85484326171875,0.003062330884858966,0.015839358791708946,-0.009912986308336258
1746739309651924500,0.864924560546875,0.010155032388865948,0.013806549832224846,-0.021060554310679436
1746739309662004500,0.87500439453125,0.013371597975492477,0.013429179787635803,-0.033445052802562714
1746739309672085200,0.885085205078125,0.011069836094975471,0.022364074364304543,-0.03941689431667328
1746739309682166300,0.895166259765625,0.0065658981911838055,0.0342755950987339,-0.043421756476163864
1746739309692246500,0.90524658203125,0.003689880482852459,0.03358373045921326,-0.04096127673983574
1746739309702327300,0.915327392578125,0.00428270036354661,0.05683978274464607,-0.050739072263240814
1746739309712408300,0.925408203125,0.009205098263919353,0.013017433695495129,-0.04795335978269577
1746739309722488300,0.93548828125,0.003176500555127859,-0.011832255870103836,-0.013509366661310196
1746739309732569300,0.9455693359375,-0.0018065082840621471,-0.01839931309223175,0.007109219674021006
1746739309742650400,0.955650390625,-0.006637216079980135,-0.005991913378238678,0.005708929616957903
1746739309752730400,0.96573046875,-0.004127962980419397,-0.013542805798351765,-0.008635828271508217
1746739309762811400,0.975811279296875,-0.007855324074625969,-0.019250227138400078,0.0021595610305666924
1746739309772892400,0.985892333984375,-0.012285851873457432,-0.002435842528939247,0.031147155910730362
1746739309782972400,0.995972412109375,-0.014401200227439404,0.005310493521392345,0.051261212676763535
1746739309793053400,1.006053466796875,-0.011190454475581646,0.0032929005101323128,0.06589570641517639
1746739309803134500,1.016134521484375,-0.008377623744308949,0.0019024647772312164,0.07161138206720352
1746739309813214200,1.026214111328125,-0.010888397693634033,0.004937667865306139,0.06941955536603928
1746739309823295200,1.036295166015625,-0.007380214985460043,0.00569480424746871,0.05543849617242813
1746739309833376300,1.046376220703125,-0.004306543152779341,0.0032872920855879784,0.03762800619006157
1746739309843456300,1.056456298828125,-0.0006303153932094574,-0.0020041423849761486,0.012705879285931587
1746739309853537300,1.066537353515625,0.004356123972684145,-0.005018029827624559,-0.013927310705184937
1746739309863618300,1.076618408203125,0.006884795613586903,-0.006972523406147957,-0.038407087326049805
1746739309873698300,1.0866982421875,0.007623015902936459,-0.011773660778999329,-0.05615042895078659
1746739309883779300,1.096779296875,0.009127967990934849,-0.005794597323983908,-0.061111897230148315
1746739309893860400,1.1068603515625,0.006401541642844677,-0.0025391634553670883,-0.05702241137623787
1746739309903940000,1.116940185546875,0.009024755097925663,0.00009257206693291664,-0.05072057247161865
1746739309914021400,1.127021484375,0.007264625746756792,0.0015855319797992706,-0.0372406430542469
1746739309924102400,1.137102294921875,0.008485951460897923,0.003171178512275219,-0.018653906881809235
1746739309934182100,1.14718212890625,0.012293966487050056,0.0031418674625456333,-0.008163612335920334
1746739309944263200,1.15726318359375,0.007122906856238842,-0.0000991998240351677,0.0004578387306537479
1746739309954344200,1.16734423828125,-0.0017595039680600166,0.0015280181542038918,0.00792867224663496
1746739309964424400,1.177424560546875,-0.00763283995911479,-0.0029144007712602615,0.013057920150458813
1746739309974505200,1.187505126953125,-0.009935298934578896,-0.005970382131636143,0.01776869222521782
1746739309984585200,1.197585205078125,-0.005106188822537661,-0.008713438175618649,0.017144180834293365
1746739309994666200,1.207666259765625,-0.0019874460995197296,-0.006341651082038879,0.014446310698986053
1746739310004747300,1.217747314453125,-0.0004060608334839344,0.00010080169886350632,0.010478467680513859
1746739310014827300,1.2278271484375,0.011331585235893726,0.0016768868081271648,0.004546144045889378
1746739310024908300,1.237908203125,0.015381986275315285,-0.004000440239906311,0.005691302940249443
1746739310034989300,1.2479892578125,0.01259029284119606,-0.009458634071052074,0.001558697666041553
1746739310045069300,1.2580693359375,0.010575344786047935,-0.008361144922673702,-0.001595017616637051
1746739310055150300,1.268150390625,0.005691597703844309,-0.002978853415697813,-0.006313209421932697
1746739310065231400,1.2782314453125,-0.0006057126447558403,-0.00032820925116539,-0.006137706805020571
1746739310075311000,1.28831103515625,-0.00679024588316679,-0.006482796743512154,-0.004538517910987139
1746739310085392100,1.29839208984375,-0.0024727284908294678,-0.020403672009706497,0.003012076485902071
1746739310095473400,1.308473388671875,-0.0017464212141931057,-0.01925159990787506,0.005364159122109413
1746739310105553400,1.318553466796875,-0.0034918570891022682,-0.015912260860204697,0.006566310301423073
1746739310115634200,1.32863427734375,0.0009151087142527103,-0.012422151863574982,0.012835280038416386
1746739310125715200,1.338715087890625,0.002850694116204977,-0.005104051902890205,0.022846633568406105
1746739310135795500,1.34879541015625,0.008880922570824623,-0.0036697094328701496,0.03014327399432659
1746739310145876200,1.358876220703125,0.00753895565867424,-0.0010819160379469395,0.036485329270362854
1746739310155956200,1.368956298828125,0.0063619958236813545,0.003951461054384708,0.03462653607130051
1746739310166037200,1.379037353515625,0.006775584537535906,0.0018723318353295326,0.02441544458270073
1746739310176118300,1.3891181640625,0.0022069779224693775,-0.002851310186088085,0.011670812033116817
1746739310186198300,1.3991982421875,-0.0026527587324380875,-0.0030529117211699486,-0.004809361416846514
1746739310196279300,1.409279296875,-0.00721022579818964,-0.002391648478806019,-0.0192671287804842
1746739310206360300,1.4193603515625,-0.007864031940698624,0.0004046703688800335,-0.025205180048942566
1746739310216440300,1.4294404296875,-0.0004204036667943001,-0.0026864460669457912,-0.029495151713490486
1746739310226521300,1.439521240234375,-0.0014502480626106262,-0.0055860960856080055,-0.03312503919005394
1746739310236602400,1.449602294921875,0.0022377867717295885,-0.009308697655797005,-0.03435403108596802
1746739310246682000,1.45968212890625,0.0024037016555666924,-0.006970708724111319,-0.02786790207028389
1746739310256763100,1.46976318359375,0.0056422618217766285,-0.005137652158737183,-0.021203776821494102
1746739310266844200,1.47984423828125,0.0067442781291902065,-0.00743809062987566,-0.009946594946086407
1746739310276924400,1.48992431640625,0.006523244548588991,-0.00781360361725092,0.002134061884135008
1746739310287005200,1.500005126953125,0.0023735070135444403,-0.006630094721913338,0.012676451355218887
1746739310297086200,1.510086181640625,-0.0024342979304492474,-0.0017836741171777248,0.020350350067019463
1746739310307166500,1.52016650390625,-0.0039632185362279415,0.004291795659810305,0.021455030888319016
1746739310317247500,1.53024755859375,-0.001198122277855873,0.005604208912700415,0.02226412110030651
1746739310327327200,1.5403271484375,0.0009656962938606739,0.008007179945707321,0.01227273978292942
1746739310337408300,1.550408203125,0.004659665748476982,0.0060414960607886314,0.008144428953528404
1746739310347489300,1.5604892578125,0.006179265212267637,0.0035628918558359146,-0.0032874566968530416
1746739310357569300,1.5705693359375,0.008941982872784138,-0.0009032348170876503,-0.006213665008544922
1746739310367650300,1.580650390625,0.004990917164832354,-0.0014009797014296055,-0.01263667643070221
1746739310377731300,1.5907314453125,0.003457404673099518,-0.003229497466236353,-0.012933063320815563
1746739310387811000,1.60081103515625,-0.00045424606651067734,-0.0026888754218816757,-0.009679479524493217
1746739310397892400,1.610892333984375,-0.0015315772034227848,-0.005238072015345097,-0.008263573050498962
1746739310407973400,1.620973388671875,-0.005737507250159979,-0.005295862443745136,-0.0036134275142103434
1746739310418053400,1.631053466796875,-0.003969876561313868,-0.0030143209733068943,-0.00010911872959695756
1746739310428134100,1.641134033203125,0.0015604440122842789,-0.0016063074581325054,-0.0010071366559714079
1746739310438214400,1.65121435546875,0.005852183327078819,-0.00017139827832579613,-0.005028292071074247
1746739310448295400,1.66129541015625,0.005791463423520327,0.004769830498844385,-0.00881876889616251
1746739310458376200,1.671376220703125,0.008246852084994316,0.002805477473884821,-0.011502097360789776
1746739310468456200,1.681456298828125,0.0099251763895154,0.003965017851442099,-0.012105836533010006
1746739310478537200,1.691537109375,0.007582256570458412,0.002244866918772459,-0.007873858325183392
1746739310488618500,1.701618408203125,0.0030919008422642946,-0.010088497772812843,-0.002246865537017584
1746739310498698200,1.7116982421875,0.0018756808713078499,-0.016298452392220497,0.008196116425096989
1746739310508779300,1.721779296875,-0.001595216803252697,-0.013587620109319687,0.013511519879102707
1746739310518860300,1.7318603515625,-0.005650457926094532,-0.011722346767783165,0.017414987087249756
1746739310528940300,1.741940185546875,-0.0018543880432844162,-0.005474837496876717,0.01506501343101263
1746739310539021300,1.752021240234375,-0.002287014853209257,0.0007926602847874165,0.01659851334989071
1746739310549101300,1.762101318359375,-0.0008363910019397736,0.004204968456178904,0.014743886888027191
1746739310559182000,1.77218212890625,0.006141165271401405,0.0007495032623410225,0.009393594227731228
1746739310569263000,1.78226318359375,0.008194196037948132,-0.000654514878988266,0.009988011792302132
1746739310579343400,1.79234326171875,0.007818680256605148,-0.007572868838906288,0.009242303669452667
1746739310589424400,1.80242431640625,0.007985128089785576,-0.007945978082716465,0.0014941033441573381
1746739310599505200,1.812505126953125,0.0014871908351778984,-0.013372177258133888,-0.004078952129930258
1746739310609585400,1.82258544921875,-0.0038748178631067276,-0.015341851860284805,-0.011490528471767902
1746739310619666400,1.83266650390625,-0.004787236452102661,-0.01685105264186859,-0.011427722871303558
1746739310629746200,1.84274609375,-0.004287361167371273,-0.01582147553563118,-0.00807107426226139
1746739310639827200,1.8528271484375,-0.0019770488142967224,-0.009619517251849174,0.0007213959470391273
1746739310649908200,1.862908203125,0.00018330710008740425,-0.011834202334284782,0.011910401284694672
1746739310659988200,1.87298828125,0.0008429619483649731,-0.009297535754740238,0.01954353228211403
1746739310670069200,1.8830693359375,0.0008991546928882599,-0.00789005495607853,0.02610795758664608
1746739310680150300,1.893150390625,0.0035242880694568157,-0.008141458965837955,0.02688075602054596
1746739310690230300,1.903230224609375,0.004024429712444544,-0.007247169502079487,0.019505664706230164
1746739310700311300,1.913311279296875,0.004822322633117437,-0.008435477502644062,0.015822535380721092
1746739310710391300,1.923391357421875,0.004351209383457899,-0.006472993642091751,0.010255197063088417
1746739310720472300,1.933472412109375,0.0008465899154543877,-0.008526021614670753,0.004019818734377623
1746739310730553300,1.94355322265625,-0.0010328027419745922,-0.010866140946745872,-0.000244967348407954
1746739310740633300,1.95363330078125,-0.0005890093743801117,-0.009594484232366085,-0.007230270653963089
1746739310750714400,1.96371435546875,-0.00211313646286726,-0.013873917981982231,-0.01373610645532608
1746739310760795400,1.97379541015625,-0.003574215341359377,-0.015904594212770462,-0.014848063699901104
1746739310770875100,1.983875244140625,-0.005104467738419771,-0.012206529267132282,-0.010687673464417458
1746739310780956200,1.9939560546875,0.0015316656790673733,-0.008763577789068222,-0.004223029129207134
1746739310791036400,2.004036376953125,0.0075472136959433556,-0.0046079810708761215,0.0075699808076024055
1746739310801117200,2.0141171875,0.006722209043800831,0.0006666579283773899,0.014453799463808537
1746739310811199000,2.024198974609375,0.0073914616368710995,-0.00996414851397276,0.022954344749450684
1746739310821278700,2.03427880859375,0.004296459257602692,-0.008676761761307716,0.03036249801516533
1746739310831359700,2.04435986328125,0.0006063831970095634,-0.009804077446460724,0.028187759220600128
1746739310841441000,2.05444091796875,-0.0009770216420292854,-0.007258097641170025,0.02314416877925396
1746739310851521000,2.06452099609375,-0.0009623742662370205,-0.00485219806432724,0.011823071166872978
1746739310861601800,2.074601806640625,-0.0010609454475343227,-0.006696712225675583,-0.0037086617667227983
1746739310871682000,2.08468212890625,-0.000028970185667276382,-0.00878329947590828,-0.020542768761515617
1746739310881763000,2.09476318359375,0.002148374682292342,-0.004220237489789724,-0.032072607427835464
1746739310891843800,2.10484375,0.004082894884049892,-0.004956867545843124,-0.03456399589776993
1746739310901923800,2.114923828125,0.0010441169142723083,-0.005131569691002369,-0.028356868773698807
1746739310912004900,2.1250048828125,0.000636120792478323,-0.004364845808595419,-0.018363090232014656
1746739310922086000,2.1350859375,0.0032037515193223953,-0.005983524024486542,-0.00045334326568990946
1746739310932166000,2.145165771484375,-0.003401953261345625,-0.015203122049570084,0.004085748456418514
1746739310942247000,2.155246826171875,-0.0017160726711153984,-0.001715006772428751,0.020482446998357773
1746739310952327000,2.165326904296875,-0.0034354091621935368,-0.0050700572319328785,0.023626841604709625
1746739310962408000,2.175407958984375,-0.002100021578371525,0.0002267155796289444,0.020095864310860634
1746739310972489000,2.185489013671875,0.0022894006688147783,-0.0024622781202197075,0.007816827856004238
1746739310982569000,2.19556884765625,0.004712555557489395,-0.0007586530409753323,0.0044434512965381145
1746739310992649700,2.205649658203125,0.003268855856731534,-0.0012715780176222324,-0.004276004619896412
1746739311002730800,2.215730712890625,0.0021663729567080736,-0.0020412378944456577,-0.0018778566736727953
1746739311012811000,2.22581103515625,0.0015352037735283375,-0.005166190676391125,0.0019978415220975876
1746739311022892000,2.23589208984375,-0.0018165288493037224,-0.004057256504893303,0.00551499892026186
1746739311032971800,2.2459716796875,-0.0014929547905921936,-0.0027014408260583878,0.007928621955215931
1746739311043052800,2.256052734375,-0.0012555005960166454,-0.0029754824936389923,0.01225131656974554
1746739311053134000,2.266134033203125,0.0030612170230597258,-0.0026223473250865936,0.015434060245752335
1746739311063213800,2.2762138671875,0.004703988786786795,-0.005285498686134815,0.018092753365635872
1746739311073294800,2.286294921875,0.003264550119638443,-0.002902768552303314,0.0223506148904562
1746739311083375000,2.296375,0.0012539741583168507,-0.005984580144286156,0.019854335114359856
1746739311093456000,2.306455810546875,0.0014638309367001057,-0.00754332821816206,0.013431058265268803
1746739311103537000,2.316536865234375,0.00021030334755778313,-0.008134557865560055,0.00630341237410903
1746739311113617000,2.326616943359375,-0.004525329917669296,-0.012744223698973656,-0.004931665025651455
1746739311123698000,2.336697998046875,-0.007179524749517441,-0.015958663076162338,-0.011385700665414333
1746739311133778700,2.34677880859375,-0.007922546938061714,-0.016831114888191223,-0.016431061550974846
1746739311143859000,2.35685888671875,-0.00589157547801733,-0.012886173091828823,-0.017735544592142105
1746739311153940000,2.36693994140625,-0.0003519337624311447,-0.007294866256415844,-0.016886262223124504
1746739311164019700,2.377019775390625,0.005639978684484959,-0.004847425036132336,-0.011839070357382298
1746739311174101000,2.38710107421875,0.006351043004542589,-0.00030194176360964775,0.0003520812897477299
1746739311184182000,2.39718212890625,0.005900813732296228,0.005314930807799101,0.00872016604989767
1746739311194261800,2.40726171875,0.004569232929497957,0.00827237032353878,0.014119458384811878
1746739311204342800,2.4173427734375,0.0044122617691755295,0.008845750242471695,0.016614142805337906
1746739311214423000,2.427423095703125,0.004814132582396269,0.0050201197154819965,0.007421442307531834
1746739311224504000,2.437504150390625,-0.0020024506375193596,-0.001999970991164446,-0.0022008917294442654
1746739311234584800,2.447584716796875,-0.001367020420730114,-0.008154269307851791,-0.0067335921339690685
1746739311244664800,2.457664794921875,0.00016455212607979774,-0.010836602188646793,-0.007742149289697409
1746739311254745900,2.467745849609375,-0.0002540969289839268,-0.0085606649518013,-0.015026693232357502
1746739311264825900,2.477825927734375,-0.002106723841279745,-0.003893215674906969,-0.01809685118496418
1746739311274907000,2.487906982421875,0.0013045193627476692,-0.0004436234012246132,-0.011966786347329617
1746739311284988000,2.49798779296875,0.005633797496557236,-0.0040082624182105064,-0.001991716679185629
1746739311295068000,2.50806787109375,0.005164282396435738,-0.0029062465764582157,0.01254541426897049
1746739311305149000,2.51814892578125,0.0016551702283322811,0.002472002524882555,0.016444213688373566
1746739311315230000,2.52822998046875,-0.0009166444651782513,0.0056747193448245525,0.01731000654399395
1746739311325310000,2.53831005859375,-0.000041342806071043015,0.009944038465619087,0.017016278579831123
1746739311335390700,2.548390625,-0.0008887606672942638,0.008968789130449295,0.008840641006827354
1746739311345471000,2.558470947265625,-0.0002908138558268547,0.0037916009314358234,0.005585691891610622
1746739311355552000,2.568552001953125,0.0012548849917948246,-0.003535288153216243,-0.0048150173388421535
1746739311365633000,2.578633056640625,-0.00037973886355757713,-0.005773412063717842,-0.019615238532423973
1746739311375712800,2.588712646484375,0.0012288102880120277,-0.006030140910297632,-0.02983458712697029
1746739311385794000,2.5987939453125,0.001235821284353733,-0.004093754105269909,-0.03377832844853401
1746739311395873800,2.608873779296875,0.003643585368990898,-0.002752852626144886,-0.03517009690403938
1746739311405954800,2.618954833984375,0.0083040501922369,-0.004437298979610205,-0.03383661434054375
1746739311416035800,2.629035888671875,0.008122422732412815,-0.0010268548503518105,-0.024761095643043518
1746739311426116000,2.6391162109375,0.007493785582482815,-0.0017557675018906593,-0.008238113485276699
1746739311436196900,2.64919677734375,0.005377904046326876,-0.0035134535282850266,0.007214079145342112
1746739311446276900,2.65927685546875,0.002445874735713005,0.003493056632578373,0.020986516028642654
1746739311456358000,2.66935791015625,0.0002807248383760452,0.0024853162467479706,0.029847119003534317
1746739311466439000,2.67943896484375,0.002472017426043749,0.0018027490004897118,0.03631028160452843
1746739311476519000,2.689518798828125,0.0010104747489094734,-0.0023536458611488342,0.03428175300359726
1746739311486600000,2.699599853515625,-0.0002707843668758869,-0.006353978533297777,0.030602311715483665
1746739311496679700,2.7096796875,0.0007193791680037975,-0.003803735366091132,0.019342467188835144
1746739311506761000,2.719760986328125,-0.0016872202977538109,-0.003992818295955658,-0.00006596851744689047
1746739311516842000,2.729842041015625,-0.0024139974266290665,-0.004353144206106663,-0.006670874077826738
1746739311526922000,2.739921875,0.0008487338200211525,-0.0005171322263777256,-0.017238302156329155
1746739311537002800,2.750002685546875,0.001635964261367917,-0.003817054908722639,-0.020018642768263817
1746739311547083000,2.7600830078125,0.0020458996295928955,-0.001093436498194933,-0.022469161078333855
1746739311557164000,2.7701640625,-0.0009003556333482265,0.00161659624427557,-0.014544393867254257
1746739311567245000,2.7802451171875,-0.003594540059566498,0.0009385515004396439,-0.011583562940359116
1746739311577324800,2.79032470703125,-0.004989770241081715,-0.001695580780506134,-0.004809279460459948
1746739311587405800,2.80040576171875,-0.0026900996454060078,-0.00366685027256608,-0.00045722140930593014
1746739311597485800,2.81048583984375,-0.0011313511058688164,-0.0032958718948066235,0.003229126101359725
1746739311607566800,2.82056689453125,-0.0003370293416082859,-0.004259670153260231,0.0015549124218523502
1746739311617647900,2.83064794921875,0.0016174644697457552,-0.0019808034412562847,0.0009740769164636731
1746739311627728000,2.840727783203125,0.0029006993863731623,0.0007657129317522049,0.0022842653561383486
1746739311637809000,2.850808837890625,0.005534831900149584,0.004548466764390469,0.0038589925970882177
1746739311647889000,2.860888916015625,0.006636482663452625,0.0021116738207638264,0.0010393522679805756
1746739311657970000,2.870969970703125,0.0031056636944413185,0.0017034108750522137,0.00424180319532752
1746739311668051000,2.881051025390625,0.0038033751770853996,0.0017665321938693523,0.010960116982460022
1746739311678131000,2.891130859375,0.00103768240660429,0.002060012426227331,0.012560410425066948
1746739311688212000,2.9012119140625,0.0008356543257832527,0.0020086094737052917,0.006650594528764486
1746739311698292000,2.9112919921875,-0.0014751707203686237,0.0037452559918165207,0.0019091026624664664
1746739311708372700,2.921372802734375,-0.0007213111966848373,0.0018062102608382702,-0.005938409827649593
1746739311718453800,2.931453857421875,0.0010717948898673058,0.0012762411497533321,-0.013620564714074135
1746739311728534000,2.941533935546875,0.0034644226543605328,0.0004125782288610935,-0.016128793358802795
1746739311738614800,2.95161474609375,0.00000763963907957077,0.0009438786655664444,-0.01815226301550865
1746739311748694800,2.96169482421875,0.0010826964862644672,0.0010181795805692673,-0.015861257910728455
1746739311758776000,2.971776123046875,0.002229986246675253,0.0019119363278150558,-0.0047843726351857185
1746739311768857000,2.981857177734375,0.005040966439992189,-0.004747031256556511,0.0076765697449445724
1746739311778936800,2.991936767578125,0.0066330041736364365,-0.0015906528569757938,0.015293476171791553
1746739311789017900,3.002017822265625,0.0019014256540685892,-0.007304997183382511,0.01619027927517891
1746739311799098000,3.01209814453125,0.0030042405705899,-0.005393379833549261,0.015499453991651535
1746739311809179000,3.022178955078125,0.0011241990141570568,-0.0011608190834522247,0.007909647189080715
1746739311819260200,3.03226025390625,-0.0010966109111905098,0.0017034104093909264,0.0015995531575754285
1746739311829340200,3.042340087890625,-0.0007846984080970287,0.0012352275662124157,-0.0014966889284551144
1746739311839421000,3.0524208984375,0.0026635623071342707,-0.0014180797152221203,-0.011971433646976948
1746739311849501200,3.062501220703125,0.0006622951477766037,-0.0015634889714419842,-0.01662382297217846
1746739311859582200,3.072582275390625,-0.001794204581528902,-0.0035187818575650454,-0.023225532844662666
1746739311869663000,3.0826630859375,-0.0007259934209287167,-0.002472957596182823,-0.025540174916386604
1746739311879743000,3.092742919921875,-0.00013157585635781288,-0.0033874870277941227,-0.02341017872095108
1746739311889824300,3.10282421875,0.000010100193321704865,-0.0021589710377156734,-0.014445613138377666
1746739311899904000,3.112904052734375,-0.0006317216902971268,-0.0021557752043008804,-0.0037876423448324203
1746739311909985000,3.122985107421875,-0.0000328882597386837,-0.005108954850584269,0.006321553140878677
1746739311920065300,3.133065185546875,-0.0007314356043934822,-0.0026777549646794796,0.012578384019434452
1746739311930146300,3.143146240234375,-0.0017172680236399174,-0.003936896566301584,0.013265704736113548
1746739311940227000,3.15322705078125,-0.004374037496745586,-0.0005610738880932331,0.004531601443886757
1746739311950307000,3.16330712890625,-0.0016653635539114475,-0.0023312782868742943,0.0051691411063075066
1746739311960388000,3.17338818359375,0.002960014622658491,-0.00447245966643095,0.0023360701743513346
1746739311970468000,3.183468017578125,0.002951506059616804,0.0005055214278399944,-0.002783579286187887
1746739311980549000,3.193549072265625,0.0018723930697888136,-0.0006691990420222282,-0.005016906186938286
1746739311990630100,3.203630126953125,0.0024247881956398487,0.00097663514316082,-0.004994320683181286
1746739312000710000,3.2137099609375,0.00372520973905921,0.0009161811321973801,-0.012107091024518013
1746739312010791200,3.223791259765625,0.0012412373907864094,-0.003246871754527092,-0.01085161603987217
1746739312020871200,3.23387109375,0.0012372429482638836,-0.007451204117387533,-0.005821969825774431
1746739312030952200,3.2439521484375,0.004712526686489582,-0.0061622317880392075,-0.0018012220971286297
1746739312041033000,3.254032958984375,0.0011790446005761623,-0.0029706996865570545,0.001913887681439519
1746739312051113200,3.26411328125,0.0014878595247864723,0.0014320365153253078,0.0007485911482945085
1746739312061194200,3.2741943359375,0.0007482999935746193,0.0029228744097054005,0.0014719057362526655
1746739312071274000,3.28427392578125,0.00032526394352316856,0.0035140952095389366,0.002517289249226451
1746739312081355000,3.29435498046875,0.004052091855555773,0.0011899545788764954,0.0053884428925812244
1746739312091435300,3.304435302734375,0.0023843913804739714,-0.0018577645532786846,0.005179189145565033
1746739312101516000,3.31451611328125,-0.0004161885008215904,-0.00719873420894146,0.00044968168367631733
1746739312111597000,3.32459716796875,-0.0008789896965026855,-0.01035644393414259,-0.005161916371434927
1746739312121677000,3.334677001953125,0.0010656504891812801,-0.003218905534595251,-0.006538237910717726
1746739312131758300,3.34475830078125,-0.00013795774430036545,0.0021308502182364464,-0.005004164297133684
1746739312141838000,3.354838134765625,0.0011909594759345055,0.005208399146795273,-0.001754042343236506
1746739312151919000,3.364919189453125,0.000019126571714878082,0.003991335164755583,0.010229445062577724
1746739312162000100,3.375000244140625,0.00455875089392066,0.0028523006476461887,0.01624765619635582
1746739312172080000,3.385080078125,0.003335042158141732,0.005278177093714476,0.015658840537071228
1746739312182161200,3.3951611328125,0.003301486372947693,0.004982565995305777,0.01203241292387247
1746739312192241200,3.4052412109375,0.0008737347088754177,0.006868081633001566,0.003328129183501005
1746739312202322000,3.415322021484375,0.0014657555148005486,0.006512549240142107,-0.005589998792856932
1746739312212402200,3.425402099609375,-0.0012931954115629196,0.0026323297061026096,-0.014883667230606079
1746739312222483200,3.435483154296875,-0.001428483985364437,-0.005199761129915714,-0.018581997603178024
1746739312232564200,3.445564208984375,-0.0027532107196748257,-0.0031725657172501087,-0.022516243159770966
1746739312242644000,3.45564404296875,-0.0019119177013635635,-0.0038055991753935814,-0.019430704414844513
1746739312252725200,3.465725341796875,-0.0034602792002260685,-0.008305275812745094,-0.011073172092437744
1746739312262805200,3.47580517578125,-0.0029928949661552906,-0.004298283718526363,-0.00036673169233836234
1746739312272886000,3.485885986328125,0.0005540293641388416,-0.0027025151066482067,0.007537967525422573
1746739312282967000,3.495967041015625,0.0024067906197160482,-0.0016913125291466713,0.011745495721697807
1746739312293047300,3.50604736328125,0.0021190987899899483,-0.0016875872388482094,0.012102669104933739
1746739312303128000,3.516128173828125,-0.0007760236039757729,0.0015705241821706295,0.007768108509480953
1746739312313208000,3.5262080078125,0.0018494469113647938,0.0034451265819370747,0.0030377062503248453
1746739312323289000,3.5362890625,0.0042806463316082954,0.0019819862209260464,-0.006139812991023064
1746739312333369000,3.546369140625,0.002870376454666257,0.002267473842948675,-0.011974437162280083
1746739312343450000,3.5564501953125,0.0015731507446616888,-0.0007208595052361488,-0.01562749594449997
1746739312353531100,3.56653125,-0.0007205037400126457,-0.005852234549820423,-0.016188718378543854
1746739312363611100,3.576611083984375,-0.0007127802819013596,-0.002371483016759157,-0.014259259216487408
1746739312373692200,3.586692138671875,0.0020188940688967705,-0.001462552696466446,-0.009902987629175186
1746739312383772200,3.596772216796875,0.0038365013897418976,-0.0031520621851086617,-0.0027374867349863052
1746739312393853200,3.606853271484375,0.0019497501198202372,-0.0015733325853943825,0.002182143274694681
1746739312403934000,3.616933837890625,-0.00028277747333049774,-0.0009413640946149826,0.0034926848020404577
1746739312414014200,3.62701416015625,0.0025574550963938236,-0.0029232939705252647,0.013362610712647438
1746739312424095200,3.63709521484375,-0.0008093132637441158,-0.0016407156363129616,0.008713264018297195
1746739312434175000,3.647175048828125,-0.0028448929078876972,0.000908734742552042,0.006095288787037134
1746739312444256000,3.657256103515625,0.0012619681656360626,-0.0017770626582205296,-0.0008273324929177761
1746739312454336300,3.667336181640625,0.000015188474208116531,0.00019847135990858078,-0.009418793953955173
1746739312464417300,3.677417236328125,-0.0004809582605957985,0.0033745570108294487,-0.016135819256305695
1746739312474497000,3.6874970703125,0.0003627440892159939,0.0006671794690191746,-0.017754295840859413
1746739312484578000,3.697578125,0.00007086154073476791,0.0023572216741740704,-0.022778615355491638
1746739312494659000,3.7076591796875,0.0009830784983932972,0.0036973310634493828,-0.018954617902636528
1746739312504739000,3.717739013671875,0.002394021488726139,0.0032240869477391243,-0.013658124022185802
1746739312514820000,3.727820068359375,0.0015015550889074802,0.005861151497811079,-0.004570295102894306
1746739312524900000,3.737900146484375,0.0054624746553599834,0.005434246268123388,0.002427959581837058
1746739312534981000,3.747981201171875,0.006957783363759518,-0.0010907649993896484,0.006356440484523773
1746739312545062100,3.758062255859375,0.007727170363068581,0.0047628628090023994,0.011662522330880165
1746739312555142100,3.76814208984375,0.005632889922708273,-0.002744580153375864,0.013352309353649616
1746739312565223200,3.77822314453125,0.005497334990650415,-0.0009027379564940929,0.012545371428132057
1746739312575303200,3.78830322265625,-0.0013362234458327293,0.0014629494398832321,0.0037259424570947886
1746739312585384200,3.79838427734375,-0.00040278537198901176,0.0002256450243294239,-0.004015067592263222
1746739312595464000,3.8084638671875,-0.0018506785854697227,-0.0017629475332796574,-0.010535405948758125
1746739312605545000,3.818544921875,-0.003307959996163845,-0.0025882613845169544,-0.01748279295861721
1746739312615626000,3.8286259765625,-0.0005850736051797867,-0.0003131181001663208,-0.023167889565229416
1746739312625706200,3.838706298828125,0.0007683448493480682,0.0010309796780347824,-0.019544659182429314
1746739312635787000,3.848787109375,-0.00046907179057598114,0.0033820164389908314,-0.015214521437883377
1746739312645867000,3.858866943359375,0.0036409846507012844,-0.0011027469299733639,-0.0044577475637197495
1746739312655948300,3.8689482421875,0.003051391104236245,0.0011308547109365463,0.004076095763593912
1746739312666028000,3.879028076171875,0.0046982900239527225,0.002242191694676876,0.008999748155474663
1746739312676109000,3.889109130859375,0.003239789279177785,0.0031034592539072037,0.009009496308863163
1746739312686190000,3.899190185546875,0.00043148593977093697,0.0009907735511660576,0.007089623715728521
1746739312696270000,3.90927001953125,0.0022366733755916357,0.002107168547809124,0.003463088534772396
1746739312706351000,3.91935107421875,0.001214285846799612,-0.003657243913039565,-0.002029148628935218
1746739312716431000,3.92943115234375,0.0045242877677083015,-0.00333766033872962,-0.00550451735034585
1746739312726512000,3.93951220703125,0.003975410480052233,-0.0038942608516663313,-0.00476575642824173
1746739312736592100,3.949592041015625,0.004026778973639011,-0.003158438950777054,-0.006029169075191021
1746739312746673200,3.959673095703125,0.002566833980381489,0.0013510915450751781,-0.010544292628765106
1746739312756753200,3.969753173828125,0.0004117479547858238,0.002142849378287792,-0.010082715190947056
1746739312766834000,3.979833984375,0.0006652805022895336,0.0020895861089229584,-0.006219532806426287
1746739312776915200,3.989915283203125,0.004066368564963341,-0.003204223234206438,-0.002738658105954528
1746739312786995200,3.9999951171875,0.00029293540865182877,-0.0076370551250875,-0.00017509926692582667
1746739312797076200,4.010076171875,-0.0011337818577885628,-0.010939661413431168,-0.0010499614290893078
1746739312807156000,4.020156005859375,-0.00048397062346339226,-0.005746497306972742,-0.0008241253672167659
1746739312817237200,4.0302373046875,-0.0005732839927077293,-0.003488400252535939,0.0019203715492039919
1746739312827317000,4.04031689453125,0.0004890505224466324,-0.0033110338263213634,-0.0037542919162660837
1746739312837398000,4.05039794921875,0.0010099560022354126,-0.004452450200915337,-0.007570006884634495
1746739312847479000,4.06047900390625,-0.00048301229253411293,-0.002757081761956215,-0.01325345877557993
1746739312857559000,4.07055908203125,-0.0007795915007591248,-0.004708383698016405,-0.019160190597176552
1746739312867640000,4.08064013671875,-0.0014680186286568642,-0.00586392916738987,-0.023516856133937836
1746739312877720000,4.090719970703125,-0.0010854504071176052,-0.0021200645714998245,-0.021459197625517845
1746739312887800800,4.10080078125,-0.00012032082304358482,0.00404488667845726,-0.022897835820913315
1746739312897881000,4.110881103515625,-0.0026221913285553455,0.004525857046246529,-0.013372399844229221
1746739312907962000,4.120962158203125,0.000872408039867878,0.006613242439925671,-0.0030326764099299908
1746739312918041900,4.131041748046875,0.0031169673893600702,0.005783152300864458,0.004136293660849333
1746739312928123000,4.141122802734375,0.0034517268650233746,0.0011897324584424496,0.011807262897491455
1746739312938204200,4.1512041015625,-0.002219199202954769,-0.00029659364372491837,0.012880990281701088
1746739312948284000,4.161283935546875,-0.004655991680920124,-0.004062036983668804,0.013353968039155006
1746739312958365000,4.171364990234375,-0.003174765966832638,-0.0022095325402915478,0.010256502777338028
1746739312968445200,4.181445068359375,-0.004522325471043587,-0.0030404389835894108,0.006157365161925554
1746739312978526200,4.191526123046875,-0.0008097668178379536,-0.005902535747736692,0.00104718585498631
1746739312988606000,4.20160595703125,-0.0016214982606470585,-0.008236530236899853,0.0028541404753923416
1746739312998687000,4.21168701171875,-0.004367176443338394,-0.00874439999461174,0.0013195725623518229
1746739313008768000,4.22176806640625,-0.0024803271517157555,-0.004195188172161579,-0.003711937926709652
1746739313018848000,4.231847900390625,-0.000658765435218811,-0.003343770746141672,-0.010883776471018791
1746739313028929000,4.241928955078125,-0.0004691481590270996,-0.00036582397297024727,-0.012005499564111233
1746739313039009000,4.252009033203125,-0.0002124919556081295,0.001443786546587944,-0.007685801014304161
1746739313049089800,4.26208984375,-0.004568891134113073,0.002822238951921463,-0.00032961767283268273
1746739313059170000,4.272170166015625,-0.00321385869756341,0.0065155173651874065,0.004138369578868151
1746739313069251000,4.2822509765625,-0.002511050086468458,0.0030321027152240276,0.016937255859375
1746739313079330800,4.292330810546875,-0.0022295699454844,0.0030089272186160088,0.013416288420557976
1746739313089412000,4.302412109375,0.000004289206117391586,-0.0007615764625370502,0.010469234548509121
1746739313099493000,4.3124931640625,0.0011489815078675747,-0.004810088314116001,0.010518772527575493
1746739313109573000,4.322572998046875,-0.002416192088276148,-0.0047344546765089035,-0.001959468238055706
1746739313119654000,4.33265380859375,0.000051919370889663696,0.0008208779618144035,-0.013273590244352818
1746739313129734100,4.342734130859375,-0.0024575768038630486,0.0005191420204937458,-0.018950384110212326
1746739313139815200,4.352815185546875,-0.004033595789223909,0.0038856398314237595,-0.026596641167998314
1746739313149895000,4.36289501953125,-0.002519588451832533,-0.0001735505647957325,-0.027264561504125595
1746739313159976000,4.372975830078125,-0.00108666205778718,-0.0015032519586384296,-0.017831748351454735
1746739313170056200,4.38305615234375,0.0005900640971958637,-0.003327783662825823,-0.00884171575307846
1746739313180137000,4.393136962890625,0.004808551166206598,-0.0037661457899957895,0.0007900848286226392
1746739313190218000,4.403218017578125,0.0016282040160149336,-0.0038785310462117195,0.007512435782700777
1746739313200298000,4.413298095703125,0.004831494763493538,-0.008408039808273315,0.015675770118832588
1746739313210379000,4.42337890625,-0.00032039033249020576,-0.007975809276103973,0.02381172776222229
1746739313220459000,4.433458984375,-0.0010925778187811375,-0.007199488114565611,0.024494988843798637
1746739313230540000,4.4435400390625,-0.003196475561708212,-0.0012084413319826126,0.017515109851956367
1746739313240620000,4.4536201171875,-0.004443617537617683,0.0008360743522644043,0.002810998819768429
1746739313250701000,4.463701171875,-0.004981841892004013,0.005616447888314724,-0.008051236160099506
1746739313260781000,4.473781005859375,0.0014540660195052624,0.0044851405546069145,-0.011626635678112507
1746739313270862000,4.483862060546875,-0.0025364146567881107,0.0018709814175963402,-0.0181276798248291
1746739313280942800,4.49394287109375,-0.0006388886831700802,0.0019399444572627544,-0.01268582884222269
1746739313291023000,4.504023193359375,-0.003528418019413948,0.0015924018807709217,-0.010644515976309776
1746739313301104000,4.514104248046875,-0.0015066429041326046,0.0026456862688064575,-0.0035492158494889736
1746739313311184000,4.524183837890625,-0.00019982969388365746,0.0026962868869304657,0.004611242096871138
1746739313321265000,4.534264892578125,0.0004944726824760437,0.004476616624742746,0.010607083328068256
1746739313331345200,4.54434521484375,-0.002196118701249361,0.005336018744856119,0.01450808160007
1746739313341426200,4.55442626953125,-0.0038223983719944954,0.0050087193958461285,0.012354010716080666
1746739313351506000,4.564505859375,-0.004588057287037373,0.003555698785930872,0.0067203594371676445
1746739313361587000,4.5745869140625,-0.005223503336310387,0.000972425565123558,0.0020832635927945375
1746739313371668200,4.584668212890625,-0.005557198077440262,-0.0029354975558817387,0.0014379795175045729
1746739313381748000,4.594748046875,-0.0010051368735730648,-0.003665458643808961,0.0007432670099660754
1746739313391829000,4.6048291015625,0.0019360582809895277,-0.0026217657141387463,-0.0018898004200309515
1746739313401909000,4.614908935546875,-0.00003407429903745651,-0.0038787685334682465,-0.009749376215040684
1746739313411990000,4.624989990234375,0.0034860919695347548,0.0033495835959911346,-0.010803189128637314
1746739313422070000,4.635070068359375,0.006197632290422916,0.005490215960890055,-0.00385760935023427
1746739313432151000,4.645151123046875,0.005515064112842083,0.002405742648988962,0.002443962264806032
1746739313442231000,4.65523095703125,0.006490490399301052,0.01010279543697834,0.00883533339947462
1746739313452312000,4.66531201171875,0.006644154898822308,0.012518549337983131,0.01214537676423788
1746739313462392000,4.67539208984375,0.0005440637469291687,0.011033053509891033,0.011771630495786667
1746739313472472800,4.685472900390625,-0.0015502460300922394,0.00867376010864973,0.01004164107143879
1746739313482553900,4.695553955078125,-0.0014926707372069359,-0.0014150692149996758,0.005364327225834131
1746739313492634000,4.705634033203125,-0.001716642640531063,-0.00718960165977478,-0.001343110459856689
1746739313502715100,4.715715087890625,-0.002749944105744362,-0.01067250594496727,-0.007632214110344648
1746739313512795000,4.725794921875,-0.002438087947666645,-0.008761155419051647,-0.0161998700350523
1746739313522876000,4.7358759765625,-0.0018502227030694485,-0.006783514283597469,-0.01750870980322361
1746739313532956200,4.7459560546875,0.000011859461665153503,-0.002550952136516571,-0.01569562964141369
1746739313543037000,4.756036865234375,-0.0012870118953287601,-0.00033198297023773193,-0.0033419153187423944
1746739313553117000,4.766116943359375,0.0029711162205785513,-0.002270498313009739,0.008119530975818634
1746739313563198200,4.7761982421875,0.0005329754203557968,0.006613267585635185,0.020354092121124268
1746739313573278000,4.78627783203125,-0.0004739658907055855,0.010926788672804832,0.022756263613700867
1746739313583359000,4.79635888671875,-0.0011988277547061443,0.01073133572936058,0.022369304671883583
1746739313593440000,4.80643994140625,0.0030340005178004503,0.004504332784563303,0.01862703077495098
1746739313603520000,4.81652001953125,0.001805615145713091,0.004737106151878834,0.01295438688248396
1746739313613601000,4.82660107421875,-0.00011026300489902496,-0.0017175977118313313,0.0030450308695435524
1746739313623681000,4.836680908203125,-0.0019215308129787445,-0.0024739601649343967,-0.011583440005779266
1746739313633762000,4.846761962890625,-0.00335431145504117,-0.005823418032377958,-0.01810259185731411
1746739313643842000,4.856842041015625,-0.006008099764585495,-0.005532309412956238,-0.024450775235891342
1746739313653923000,4.866923095703125,-0.004129239358007908,-0.002620409242808819,-0.022906141355633736
1746739313664003000,4.877003173828125,-0.003709808923304081,-0.0008563399314880371,-0.022071771323680878
1746739313674083800,4.887083740234375,-0.003180106170475483,0.0002403496764600277,-0.012388250790536404
1746739313684164000,4.8971640625,0.003418194130063057,-0.00029838038608431816,0.001935283886268735
1746739313694245000,4.9072451171875,0.00638548843562603,-0.0017860219813883305,0.011079248040914536
1746739313704326000,4.917325927734375,0.004901579115539789,0.002646251115947962,0.020398404449224472
1746739313714406000,4.927406005859375,0.004050965420901775,0.0022046989761292934,0.025121252983808517
1746739313724487200,4.937487060546875,-0.00017716875299811363,0.005232478491961956,0.02189657837152481
1746739313734567000,4.94756689453125,-0.0002866247668862343,0.0032244548201560974,0.018665099516510963
1746739313744648000,4.95764794921875,-0.0025483309291303158,0.0021780761890113354,0.012179619632661343
1746739313754728200,4.967728271484375,-0.002855658996850252,0.004239628557115793,0.0026199365966022015
1746739313764809200,4.977809326171875,-0.005509079433977604,0.0019639539532363415,-0.009641149081289768
1746739313774889000,4.987888916015625,-0.0009843693114817142,-0.0001242305152118206,-0.015158153139054775
1746739313784970000,4.997969970703125,0.0009720423258841038,-0.0017450014129281044,-0.023709310218691826
1746739313795050000,5.008050048828125,-0.0012668771669268608,-0.004691522568464279,-0.022436318919062614
1746739313805131000,5.018131103515625,0.0009909933432936668,-0.0038465354591608047,-0.020572997629642487
1746739313815210200,5.028210205078125,0.000666886568069458,0.004264121409505606,-0.012331047095358372
1746739313825291500,5.03829150390625,-0.000440988689661026,0.007674566004425287,-0.006761844269931316
1746739313835372500,5.04837255859375,-0.0025917571038007736,0.004302205052226782,-0.0025074444711208344
1746739313845452300,5.058452392578125,0.0005565355531871319,0.0057320608757436275,0.009211367927491665
1746739313855533300,5.068533203125,-0.0014749234542250633,0.0019333274103701115,0.010753338225185871
1746739313865613600,5.078613525390625,-0.002142538782209158,0.0015756585635244846,0.010260336101055145
1746739313875694600,5.088694580078125,-0.003543095663189888,-0.004656670615077019,0.005572373513132334
1746739313885774300,5.0987744140625,-0.0020153960213065147,-0.00028213299810886383,-0.003763668704777956
1746739313895855400,5.10885546875,-0.003021538257598877,0.0015599755570292473,-0.008748839609324932
1746739313905935400,5.118935302734375,-0.0007597515359520912,-0.002541844267398119,-0.010531285777688026
1746739313916016400,5.129016357421875,-0.0019805445335805416,-0.005019117146730423,-0.008643104694783688
1746739313926096400,5.139096435546875,0.0010230648331344128,-0.005394627805799246,-0.007006695959717035
1746739313936177400,5.149177490234375,-0.0007761670276522636,-0.0036646383814513683,-0.004510781727731228
1746739313946257400,5.15925732421875,0.0002870769239962101,0.0015748948790133,-0.000954995455686003
1746739313956338400,5.16933837890625,0.0025347850751131773,0.006887102033942938,0.010428686626255512
1746739313966419500,5.17941943359375,0.003529610112309456,0.003230568952858448,0.013138832524418831
1746739313976499200,5.189499267578125,0.0015048086643218994,0.004377858713269234,0.01496922317892313
1746739313986580500,5.19958056640625,0.00024204980581998825,0.0020092749036848545,0.01196270901709795
1746739313996660500,5.209660400390625,0.0003238087520003319,0.0009200428612530231,0.010702501982450485
1746739314006741200,5.2197412109375,-0.002210776787251234,0.00309688039124012,0.003352460218593478
1746739314016821500,5.229821533203125,-0.0024059866555035114,0.0020593125373125076,-0.001399151748046279
1746739314026902500,5.239902587890625,0.0010532299056649208,-0.0054095033556222916,-0.00484076514840126
1746739314036982300,5.249982177734375,-0.0004240255802869797,-0.002676034811884165,-0.0053014918230473995
1746739314047063300,5.260063232421875,0.00016518216580152512,-0.0022315774112939835,-0.00023710637469775975
1746739314057143600,5.2701435546875,0.0024834636133164167,-0.002553553320467472,0.0017429539002478123
1746739314067224600,5.280224609375,0.002643175655975938,-0.002129828091710806,0.002805121708661318
1746739314077304300,5.29030419921875,0.00114354956895113,0.0019586565904319286,0.00659559853374958
1746739314087385300,5.30038525390625,0.0006759944371879101,0.00295840110629797,0.013671248219907284
1746739314097465600,5.310465576171875,0.002695735776796937,0.0040817223489284515,0.014982588589191437
1746739314107546400,5.32054638671875,0.0002055661752820015,0.004269470926374197,0.011366124264895916
1746739314117627400,5.33062744140625,-0.0019374797120690346,0.0013344013132154942,0.0034464155323803425
1746739314127707400,5.340707275390625,-0.0013624071143567562,0.0013120248913764954,-0.007488627918064594
1746739314137788400,5.350788330078125,-0.0035179699771106243,0.001406300812959671,-0.01838202029466629
1746739314147868400,5.360868408203125,-0.0041809468530118465,0.0009591802954673767,-0.022157438099384308
1746739314157949400,5.370949462890625,-0.0055894930846989155,-0.004721342585980892,-0.01975926011800766
1746739314168029200,5.381029296875,-0.0034723374992609024,-0.005402815993875265,-0.015330069698393345
1746739314178110500,5.3911103515625,-0.004384470172226429,-0.00390611938200891,-0.011009090580046177
1746739314188190500,5.4011904296875,-0.003165996167808771,-0.0003188890404999256,-0.007332728710025549
1746739314198271500,5.411271484375,-0.0011071059852838516,0.0004121488891541958,-0.004392598755657673
1746739314208351500,5.4213515625,0.0010602297261357307,0.0035493839532136917,0.004946556873619556
1746739314218432500,5.4314326171875,0.001247183419764042,0.003194117918610573,0.009808423928916454
1746739314228512300,5.44151220703125,0.0013875891454517841,0.0013254135847091675,0.010482712648808956
1746739314238593300,5.45159326171875,-0.0014505418948829174,0.00588421244174242,0.009432627819478512
1746739314248673500,5.461673583984375,-0.0021076761186122894,0.004069752059876919,0.005371924955397844
1746739314258754600,5.471754638671875,-0.002168662380427122,0.0007602423429489136,0.0027218132745474577
1746739314268834300,5.481834228515625,-0.006638149730861187,-0.004516018554568291,-0.006373783573508263
1746739314278915300,5.491915283203125,-0.0036940257996320724,-0.0029327692463994026,-0.010146417655050755
1746739314288995600,5.50199560546875,-0.003983645234256983,-0.0003643697127699852,-0.011585673317313194
1746739314299076400,5.512076416015625,0.0009173699654638767,-0.008464640937745571,-0.018690720200538635
1746739314309157400,5.522157470703125,-0.0013678129762411118,-0.010801583528518677,-0.014912321232259274
1746739314319237400,5.5322373046875,-0.0016812668181955814,-0.0052909706719219685,-0.005876747891306877
1746739314329318400,5.542318359375,-0.00022318633273243904,-0.004359663464128971,-0.000058806443121284246
1746739314339398400,5.5523984375,0.0015222495421767235,-0.003291735425591469,0.009430036880075932
1746739314349479400,5.5624794921875,0.0005833902396261692,-0.0008346959948539734,0.011751349084079266
1746739314359559400,5.572559326171875,0.0010521067306399345,0.0020625567995011806,0.014355122111737728
1746739314369640400,5.582640380859375,0.0015032654628157616,0.0020185946486890316,0.012588607147336006
1746739314379720400,5.592720458984375,0.0035885206889361143,-0.00014389213174581528,0.01119177881628275
1746739314389801500,5.602801513671875,0.00038947397843003273,-0.0037140967324376106,0.006806971505284309
1746739314399881500,5.612881591796875,-0.005763759836554527,-0.001709801610559225,0.0012774501228705049
1746739314409962500,5.62296240234375,-0.0056359474547207355,-0.0020882487297058105,-0.003169488161802292
1746739314420042500,5.63304248046875,-0.0020553269423544407,-0.0013665319420397282,-0.0017963622231036425
1746739314430123300,5.643123291015625,0.00031756842508912086,-0.0000929967500269413,-0.0011188621865585446
1746739314440203500,5.65320361328125,-0.0024430640041828156,-0.0035532417241483927,-0.001554289017803967
1746739314450284500,5.663284423828125,0.0034492183476686478,0.0008220905438065529,-0.0011167501797899604
1746739314460364300,5.6733642578125,0.005623156670480967,0.003037041984498501,0.001095005078241229
1746739314470445300,5.6834453125,0.005430762190371752,0.004514558706432581,-0.004034132696688175
1746739314480525600,5.693525634765625,0.0020464169792830944,0.0018796264193952084,-0.0022857675794512033
1746739314490606300,5.7036064453125,-0.000501562375575304,0.001177334226667881,-0.003413230413571
1746739314500686300,5.713686279296875,-0.0001540197990834713,0.004655156284570694,-0.00552325276657939
1746739314510767400,5.723767333984375,-0.0029633878730237484,0.0012506060302257538,-0.004147171508520842
1746739314520847400,5.733847412109375,-0.0005124802701175213,-0.0052491044625639915,-0.005146123468875885
1746739314530928400,5.743928466796875,-0.003505855333060026,-0.0048467242158949375,-0.007027415093034506
1746739314541009400,5.754009521484375,-0.008186893537640572,-0.0030205948278307915,-0.009976067580282688
1746739314551089400,5.76408935546875,-0.0013078716583549976,0.00032275309786200523,-0.011001182720065117
1746739314561170400,5.77417041015625,-0.00008707866072654724,-0.0033763775136321783,-0.004865792579948902
1746739314571250400,5.78425048828125,0.0008262908086180687,-0.005439254455268383,0.005071094259619713
1746739314581331500,5.79433154296875,0.0024444274604320526,0.0024823183193802834,0.012388662435114384
1746739314591411500,5.804411376953125,0.004650894086807966,0.006735109258443117,0.015669897198677063
1746739314601492500,5.814492431640625,0.004912682808935642,0.005189144518226385,0.019354380667209625
1746739314611572500,5.824572509765625,0.0032235723920166492,0.0034551434218883514,0.022319931536912918
1746739314621653200,5.8346533203125,0.0026224968023598194,0.006687687709927559,0.02077316679060459
1746739314631733500,5.8447333984375,0.003382925409823656,0.002684718929231167,0.01775812730193138
1746739314641814500,5.854814453125,0.0015796988736838102,-0.000634112861007452,0.008705777116119862
1746739314651894300,5.864894287109375,-0.0008790832944214344,-0.003875706810504198,-0.0015003667213022709
1746739314661975300,5.874975341796875,-0.0032325186766684055,-0.0015872525982558727,-0.007498871069401503
1746739314672055600,5.8850556640625,-0.00392957916483283,-0.005797410383820534,-0.013835199177265167
1746739314682136300,5.89513623046875,-0.0032861600629985332,-0.005089009180665016,-0.014561975374817848
1746739314692216300,5.90521630859375,-0.004142767284065485,-0.004844817332923412,-0.011257934384047985
1746739314702297300,5.91529736328125,-0.0008348547853529453,-0.0013219881802797318,-0.006320433225482702
1746739314712377300,5.92537744140625,0.003496055258437991,0.0006399797275662422,-0.0015150934923440218
1746739314722458400,5.935458251953125,0.0027442448772490025,0.0003731311298906803,0.0016263712896034122
1746739314732538400,5.945538330078125,0.004986380692571402,0.004412361886352301,0.0037733986973762512
1746739314742619400,5.955619384765625,0.0007338454015552998,-0.00014830147847533226,0.005416302941739559
1746739314752699400,5.965699462890625,0.003697178326547146,0.0015763109549880028,0.010098610073328018
1746739314762780400,5.975780517578125,0.0030542912427335978,0.0029150815680623055,0.010351876728236675
1746739314772860400,5.9858603515625,0.0009473161771893501,0.00429144874215126,0.010595729574561119
1746739314782941400,5.99594140625,0.001637873938307166,0.0019939392805099487,0.012715339660644531
1746739314793021400,6.006021484375,-0.00277326675131917,0.002743668854236603,0.006047218106687069
1746739314803102500,6.0161025390625,-0.0007127784192562103,0.0014821290969848633,0.0012093198020011187
1746739314813182700,6.0261826171875,-0.0031814025714993477,0.003069042693823576,-0.004149114713072777
1746739314823263500,6.036263427734375,-0.000473234336823225,0.0023385374806821346,-0.006728918757289648
1746739314833343500,6.046343505859375,-0.0003858255222439766,-0.0023025497794151306,-0.00562908872961998
1746739314843424500,6.056424560546875,-0.0008292417041957378,-0.00293052289634943,-0.008715959265828133
1746739314853504500,6.06650439453125,0.00027346285060048103,-0.0027877422980964184,-0.004114954732358456
1746739314863585500,6.07658544921875,-0.0004434599541127682,0.0005454700440168381,-0.006018848158419132
1746739314873665500,6.08666552734375,0.002458299743011594,-0.0013565742410719395,-0.002770044142380357
1746739314883746300,6.096746337890625,-0.0013116709887981415,-0.005600853823125362,0.002079305937513709
1746739314893826600,6.10682666015625,-0.0012250407598912716,-0.002528347074985504,0.003411082783713937
1746739314903907600,6.116907470703125,0.00132733304053545,-0.003624770324677229,0.0030819159001111984
1746739314913987300,6.1269873046875,-0.004104753024876118,-0.002765355631709099,0.006273223087191582
1746739314924068400,6.137068359375,-0.0032988805323839188,-0.001400485634803772,0.0028156412299722433
1746739314934148600,6.147148681640625,-0.0008596759289503098,-0.0016497857868671417,0.002988985739648342
1746739314944229400,6.1572294921875,-0.0023981835693120956,0.0037407181225717068,0.001896823407150805
1746739314954309400,6.167309326171875,0.0005204160697758198,0.00379268079996109,0.004236647393554449
1746739314964390400,6.177390380859375,-0.0016274233348667622,0.005759425461292267,0.0018184974323958158
1746739314974470400,6.187470458984375,0.002138798125088215,-0.002263628877699375,0.00589075218886137
1746739314984551400,6.197551513671875,0.002044256078079343,-0.0008015534840524197,0.008928353898227215
1746739314994631400,6.20763134765625,0.004886459559202194,-0.0024870489723980427,0.00959513708949089
1746739315004712700,6.217712646484375,0.0011207498610019684,-0.004435683600604534,0.01043376699090004
1746739315014792400,6.22779248046875,0.001372816041111946,-0.003100663423538208,0.006015976890921593
1746739315024873500,6.23787353515625,0.0004859832115471363,-0.003953141160309315,-0.0009087747894227505
1746739315034953500,6.247953369140625,-0.0028833746910095215,-0.0019496697932481766,-0.007559570949524641
1746739315045034500,6.258034423828125,-0.001364041119813919,0.0025739753618836403,-0.011151909828186035
1746739315055114500,6.268114501953125,-0.0007461258210241795,0.001550302840769291,-0.010762864723801613
1746739315065195500,6.278195556640625,-0.0001743454486131668,0.002273883670568466,-0.008661096915602684
1746739315075275500,6.288275634765625,-0.0006343512795865536,-0.0014087539166212082,-0.0017871414311230183
1746739315085356500,6.2983564453125,0.000569663941860199,-0.0012947707436978817,0.004019881132990122
1746739315095436500,6.3084365234375,0.001025351695716381,0.00225949939340353,0.0049461135640740395
1746739315105517300,6.318517333984375,0.0012906026095151901,0.005826004780828953,0.009331274777650833
1746739315115597600,6.32859765625,0.0019668005406856537,0.002776701934635639,0.009644180536270142
1746739315125678600,6.3386787109375,0.0017963582649827003,0.0006307270377874374,0.013367812149226665
1746739315135758300,6.34875830078125,0.0006130733527243137,-0.0011301874183118343,0.0118431830778718
1746739315145839400,6.35883935546875,0.0006628744304180145,-0.0019389893859624863,0.0062566702254116535
1746739315155919600,6.368919677734375,0.000539188738912344,0.0025449683889746666,0.0003538860473781824
1746739315166000400,6.37900048828125,0.00017966190353035927,0.002331649884581566,-0.0072920494712889194
1746739315176080400,6.389080322265625,0.00016488414257764816,0.003563382662832737,-0.007368875667452812
1746739315186161400,6.399161376953125,-0.0014694975689053535,0.004136495292186737,-0.007994186133146286
1746739315196241400,6.409241455078125,-0.00039030611515045166,0.002729300409555435,-0.0012796299997717142
1746739315206322400,6.419322509765625,0.0008635101839900017,0.0011836020275950432,0.004113271366804838
1746739315216402400,6.42940234375,-0.0006663608364760876,-0.003806673688814044,0.0042717186734080315
1746739315226483500,6.4394833984375,-0.0019814297556877136,0.0002495869994163513,0.007218772545456886
1746739315236563500,6.4495634765625,0.0020898685324937105,0.0010607922449707985,0.013445396907627583
1746739315246644500,6.45964453125,-0.00015171384438872337,0.0030504390597343445,0.013219560496509075
1746739315256724500,6.469724365234375,-0.001509595662355423,-0.001526703592389822,0.010664493776857853
1746739315266805500,6.479805419921875,-0.0013450123369693756,-0.00032162340357899666,0.010988600552082062
1746739315276885500,6.489885498046875,-0.0004223771393299103,-0.0008340249769389629,0.003984656184911728
1746739315286966500,6.499966552734375,-0.003418167121708393,-0.0005828887224197388,-0.003767272923141718
1746739315297046500,6.510046630859375,-0.002553073689341545,0.0003374745137989521,-0.008311240933835506
1746739315307127600,6.52012744140625,-0.002559731714427471,0.0031111566349864006,-0.008770902641117573
1746739315317207600,6.53020751953125,0.0020458237268030643,0.005934158340096474,-0.008872472681105137
1746739315327288300,6.540288330078125,-0.00040907831862568855,0.0013362113386392593,-0.0031400176230818033
1746739315337368600,6.55036865234375,-0.0035394076257944107,-0.00001697661355137825,0.0029869386926293373
1746739315347449600,6.56044970703125,-0.00014707352966070175,0.0027090352959930897,0.012607607990503311
1746739315357529300,6.570529296875,-0.0014502578414976597,0.005607122555375099,0.013859471306204796
1746739315367610400,6.5806103515625,0.0015263576060533524,0.00380895659327507,0.015734869986772537
1746739315377690600,6.590690673828125,0.00022935308516025543,0.004982870537787676,0.012347974814474583
1746739315387771400,6.600771484375,-0.0008167363703250885,-0.0016726353205740452,0.007797964382916689
1746739315397851400,6.610851318359375,-0.00013398751616477966,-0.006381912622600794,-0.006001301575452089
1746739315407932400,6.620932373046875,-0.00005622347816824913,-0.008169959299266338,-0.015291738323867321
1746739315418012400,6.631012451171875,0.0006274203769862652,-0.006559282075613737,-0.01505599357187748
1746739315428093400,6.641093505859375,0.002455680398270488,-0.0051414151675999165,-0.014609381556510925
1746739315438173400,6.65117333984375,0.004764938727021217,-0.003291287925094366,-0.0116290133446455
1746739315448254500,6.66125439453125,0.0021270776633173227,-0.0026875492185354233,-0.005278173368424177
1746739315458334500,6.67133447265625,-0.0020225457847118378,0.0019479701295495033,0.0033445353619754314
1746739315468415500,6.68141552734375,0.0008629891090095043,0.0037064552307128906,0.010218952782452106
1746739315478495500,6.69149560546875,-0.0021503763273358345,0.003771419171243906,0.010280223563313484
1746739315488576500,6.701576416015625,-0.003390344325453043,0.005044144112616777,0.008383253589272499
1746739315498656500,6.711656494140625,0.0019074506126344204,0.002083504106849432,0.0036048004403710365
1746739315508737500,6.721737548828125,-0.0034609497524797916,0.003448374103754759,-0.001576113048940897
1746739315518817500,6.731817626953125,0.0002831714227795601,-0.002313910983502865,-0.008640357293188572
1746739315528897500,6.7418974609375,-0.0024521611630916595,-0.0042311204597353935,-0.014152834191918373
1746739315538978600,6.751978515625,-0.004461917094886303,-0.004676144570112228,-0.018059788271784782
1746739315549058600,6.76205859375,-0.0029018372297286987,-0.007711349055171013,-0.02080550789833069
1746739315559139600,6.7721396484375,-0.0037411111406981945,-0.004674806259572506,-0.018856452777981758
1746739315569219600,6.782219482421875,-0.002274242229759693,-0.005115825682878494,-0.012326115742325783
1746739315579300400,6.79230029296875,0.0003672577440738678,-0.002060357015579939,-0.006267022341489792
1746739315589380600,6.802380615234375,0.00024075759574770927,0.0029831374995410442,0.0019421717151999474
1746739315599461600,6.812461669921875,-0.00012585800141096115,0.0043322984129190445,0.007402660325169563
1746739315609541400,6.822541259765625,0.0009545865468680859,0.006080930121243,0.013952172361314297
1746739315619622400,6.832622314453125,-0.0014559738337993622,0.009992037899792194,0.01682882197201252
1746739315629702700,6.84270263671875,-0.0026008673012256622,0.01351912785321474,0.014357942156493664
1746739315639783400,6.852783447265625,-0.003220252227038145,0.007451133336871862,0.013075877912342548
1746739315649863400,6.862863525390625,0.0005638329312205315,-0.001833711750805378,0.006345271598547697
1746739315659944400,6.8729443359375,0.0014104945585131645,-0.006876673549413681,0.0018818136304616928
1746739315670024400,6.8830244140625,-0.000013231299817562103,-0.0075376699678599834,-0.005289013963192701
1746739315680105500,6.89310546875,0.003686774056404829,-0.0004398273304104805,-0.008456083945930004
1746739315690185500,6.903185546875,0.004682529717683792,0.0007040002383291721,-0.004906622692942619
1746739315700266500,6.9132666015625,-0.0002840929664671421,0.005750967655330896,0.0006387068424373865
1746739315710346500,6.923346435546875,-0.001357613131403923,0.006357369478791952,0.009417816996574402
1746739315720427500,6.933427490234375,0.004424340557307005,0.009623217396438122,0.015407571569085121
1746739315730507300,6.94350732421875,0.002696215407922864,0.00991163868457079,0.01852853037416935
1746739315740588500,6.953588623046875,0.0025864355266094208,0.011882639490067959,0.019770417362451553
1746739315750668500,6.96366845703125,0.00034325476735830307,0.009470348246395588,0.02065751701593399
1746739315760749600,6.97374951171875,-0.0022355192340910435,0.00888153724372387,0.015352539718151093
1746739315770829300,6.983829345703125,0.0004319027066230774,-0.0017668451182544231,0.01135966181755066
1746739315780910600,6.99391064453125,0.002033434808254242,0.004399449564516544,0.011090777814388275
1746739315790990600,7.003990478515625,0.0026917681097984314,-0.0035466239787638187,-0.0021344805136322975
1746739315801071400,7.0140712890625,-0.0038069579750299454,-0.004598594736307859,-0.00801173411309719
1746739315811151600,7.024151611328125,0.004478669259697199,-0.0014608586207032204,-0.008133706636726856
1746739315821233200,7.034233154296875,-0.002334925811737776,-0.007245203945785761,-0.008433409035205841
1746739315831313000,7.04431298828125,-0.0041069937869906425,-0.004297883249819279,-0.002795496955513954
1746739315841393000,7.054392822265625,-0.002127071376889944,-0.0013447296805679798,-0.00216472614556551
1746739315851474000,7.064473876953125,-0.0047484212554991245,0.0006675543263554573,0.0024148456286638975
1746739315861554000,7.074553955078125,-0.005166017450392246,0.0004984773695468903,0.0034990357235074043
1746739315871635000,7.084635009765625,-0.0036245789378881454,-0.0003196457400918007,0.0029144720174372196
1746739315881715000,7.09471484375,-0.0033004730939865112,-0.0011042128317058086,-0.0021908078342676163
1746739315891796000,7.1047958984375,-0.0034714480862021446,0.0020452411845326424,-0.002933563431724906
1746739315901876000,7.1148759765625,-0.0000016498379409313202,-0.004368966910988092,-0.005927985068410635
1746739315911957000,7.12495703125,-0.0015774425119161606,-0.004530088044703007,-0.004331952892243862
1746739315922037000,7.135037109375,-0.00012097135186195374,-0.00572607759386301,-0.0024677261244505644
1746739315932118000,7.145117919921875,0.00018209638074040413,-0.0013241386041045189,0.004902838263660669
1746739315942198000,7.155197998046875,0.0008220784366130829,-0.002293333411216736,0.005781651474535465
1746739315952279000,7.165279052734375,-0.0002794051542878151,-0.001149505376815796,0.005457544699311256
1746739315962359000,7.175359130859375,0.00037509482353925705,0.0007355259731411934,0.005139673128724098
1746739315972440000,7.185440185546875,0.0005497979000210762,0.00009370408952236176,0.0009875388350337744
1746739315982519800,7.195519775390625,0.0014351601712405682,0.001214602030813694,-0.0022981332149356604
1746739315992600800,7.205600830078125,-0.0008154772222042084,0.00006518140435218811,-0.008515282534062862
1746739316002681000,7.21568115234375,-0.0021009156480431557,-0.0034205710981041193,-0.012146036140620708
1746739316012762000,7.22576220703125,-0.006797932554036379,-0.0045335059985518456,-0.015370058827102184
1746739316022841900,7.235841796875,-0.003870401531457901,-0.0016541206277906895,-0.016098618507385254
1746739316032922000,7.245922119140625,-0.0031044762581586838,-0.005715175066143274,-0.010957387275993824
1746739316043003100,7.256003173828125,-0.00108402781188488,-0.008009742014110088,-0.0028833879623562098
1746739316053083000,7.266082763671875,0.0017567661125212908,-0.0040163323283195496,0.004738312680274248
1746739316063164000,7.276163818359375,0.0009279553778469563,-0.0035143105778843164,0.010151755064725876
1746739316073244200,7.286244140625,0.0026156005915254354,0.002840790431946516,0.010049223899841309
1746739316083325000,7.296324951171875,0.0020390262361615896,0.002359823789447546,0.011250575073063374
1746739316093405000,7.306405029296875,0.0003868010826408863,0.0024719429202377796,0.010040967725217342
1746739316103486000,7.31648583984375,-0.001216051634401083,0.002045256085693836,0.006185935344547033
1746739316113566000,7.32656591796875,-0.0000594407320022583,-0.004049654118716717,0.002707580802962184
1746739316123647000,7.33664697265625,0.0017585032619535923,-0.0038666343316435814,-0.000688549131155014
1746739316133727000,7.34672705078125,0.0005377102643251419,0.0002386285923421383,-0.011378743685781956
1746739316143808000,7.35680810546875,-0.0013415790162980556,0.004555031657218933,-0.015350156463682652
1746739316153888000,7.366887939453125,0.0014233146794140339,0.0012812074273824692,-0.017386142164468765
1746739316163969000,7.376968994140625,-0.00046483008190989494,-0.004817086737602949,-0.010933337733149529
1746739316174049000,7.387049072265625,-0.0035415799356997013,-0.004881268832832575,-0.0070656281895935535
1746739316184129000,7.39712890625,-0.003353816457092762,-0.0006410214118659496,-0.004234698601067066
1746739316194210000,7.4072099609375,-0.0029354337602853775,0.0021933806128799915,-0.0014394447207450867
1746739316204289800,7.417289794921875,-0.0031196665950119495,0.003607523161917925,0.00716570345684886
1746739316214371000,7.42737109375,-0.0021252422593533993,-0.0014538145624101162,0.009928466752171516
1746739316224451000,7.437451171875,-0.00016652187332510948,-0.0064421650022268295,0.007870144210755825
1746739316234531800,7.44753173828125,0.0027440469712018967,-0.005428299307823181,-0.0009806056041270494
1746739316244612000,7.457612060546875,-0.0016556461341679096,-0.0016932073049247265,0.0003548535460140556
1746739316254693000,7.467693115234375,-0.0005259332247078419,-0.005638946779072285,-0.0047759925946593285
1746739316264772900,7.47777294921875,-0.003208685200661421,-0.003038095310330391,-0.0037790213245898485
1746739316274854000,7.48785400390625,-0.0027090762741863728,-0.0027834968641400337,-0.0060219354927539825
1746739316284934100,7.49793408203125,-0.002965018153190613,-0.0018786131404340267,-0.001045274082571268
1746739316295015200,7.50801513671875,-0.0012022722512483597,0.0009097163565456867,-0.0006508600199595094
1746739316305095000,7.518094970703125,-0.0006171390414237976,0.00014706701040267944,-0.000471932755317539
1746739316315175200,7.528175048828125,-0.0032254387624561787,-0.003019964322447777,-0.0005923075950704515
1746739316325256000,7.538255859375,-0.00037351762875914574,-0.0008782548829913139,0.00809791125357151
1746739316335336000,7.5483359375,0.0006781644187867641,-0.000535239465534687,0.008570089936256409
1746739316345417000,7.5584169921875,0.002716272370889783,0.000943121500313282,0.010101947002112865
1746739316355497000,7.5684970703125,-0.0035096658393740654,-0.0013083149679005146,0.010933918878436089
1746739316365578000,7.578577880859375,-0.0013086795806884766,-0.000689671840518713,0.011886648833751678
1746739316375658000,7.588657958984375,-0.002256232313811779,0.0013929200358688831,0.003272920148447156
1746739316385739000,7.598739013671875,-0.0004898738116025925,-0.0007823589257895947,-0.000686550629325211
1746739316395819000,7.608819091796875,-0.004680624231696129,-0.0007850220426917076,-0.004166503436863422
1746739316405900000,7.618900146484375,-0.005481587257236242,0.0006102169863879681,-0.00889000203460455
1746739316415980000,7.62897998046875,-0.007806526031345129,0.0026858854107558727,-0.0055011301301419735
1746739316426060000,7.63906005859375,-0.0012795007787644863,0.0045511540956795216,-0.0015446210745722055
1746739316436141000,7.64914111328125,-0.0007199710234999657,0.003391613718122244,0.0032328234519809484
1746739316446220800,7.659220703125,0.0007700007408857346,0.0037679546512663364,0.011303597129881382
1746739316456301800,7.6693017578125,0.0037455507554113865,-0.0005748625844717026,0.011001061648130417
1746739316466382000,7.679382080078125,0.00452337646856904,-0.003067075740545988,0.01207786425948143
1746739316476463000,7.689463134765625,0.0005435487255454063,-0.0032265987247228622,0.007186967879533768
1746739316486542800,7.69954296875,0.000011217314749956131,-0.001630051527172327,0.0049930233508348465
1746739316496623900,7.709623779296875,-0.001852462999522686,0.0032006562687456608,-0.00014101850683800876
1746739316506704100,7.7197041015625,-0.00017033657059073448,0.002157829701900482,-0.005382465664297342
1746739316516785000,7.729784912109375,-0.0022950065322220325,0.0009269164875149727,-0.012085375376045704
1746739316526865000,7.739864990234375,-0.002630464266985655,0.00353063503280282,-0.017703676596283913
1746739316536945000,7.74994482421875,-0.001569993793964386,0.0034960140474140644,-0.0191244725137949
1746739316547026000,7.76002587890625,0.0014860909432172775,-0.000411059707403183,-0.017351984977722168
1746739316557106000,7.77010595703125,0.002671996597200632,-0.002554904669523239,-0.010288216173648834
1746739316567187000,7.78018701171875,0.0007296372205018997,-0.004063594155013561,-0.003080785507336259
1746739316577267000,7.790266845703125,0.0007821014150977135,-0.0028563831001520157,0.002029021503403783
1746739316587348000,7.800347900390625,0.0015738257206976414,-0.0007487395778298378,0.010982068255543709
1746739316597428000,7.810427978515625,0.000644915271550417,0.0011855140328407288,0.012206856161355972
1746739316607509000,7.820509033203125,0.00442121084779501,0.00017275242134928703,0.009214055724442005
1746739316617589000,7.830589111328125,0.006939230021089315,0.002063330262899399,0.008298727683722973
1746739316627669000,7.8406689453125,-0.0013540871441364288,0.006452200002968311,0.003749485593289137
1746739316637750000,7.85075,-0.0008427598513662815,0.007606680504977703,-0.0027342464309185743
1746739316647830000,7.860830078125,-0.005166942253708839,0.004122244194149971,-0.006497824564576149
1746739316657911000,7.8709111328125,-0.004953090101480484,0.0003781062550842762,-0.005411787424236536
1746739316667991000,7.880990966796875,-0.003407800104469061,0.0008158963173627853,-0.003229978494346142
1746739316678072000,7.891072021484375,-0.00125063955783844,0.0006220182403922081,-0.002064046449959278
1746739316688152000,7.901152099609375,-0.0010239961557090282,0.0026912526227533817,-0.003137569408863783
1746739316698232800,7.91123291015625,0.0023044226691126823,-0.002161559648811817,-0.0001582913100719452
1746739316708313000,7.92131298828125,0.0009311060421168804,-0.0005787722766399384,0.0006778558017686009
1746739316718393000,7.93139306640625,0.00014866935089230537,-0.0040187775157392025,-0.005184027832001448
1746739316728473900,7.941473876953125,-0.00008094590157270432,-0.002763411495834589,-0.006034317426383495
1746739316738554000,7.95155419921875,-0.002323061227798462,-0.0007181037217378616,-0.005964809097349644
1746739316748635100,7.96163525390625,-0.0009997445158660412,0.0015051462687551975,-0.004280358552932739
1746739316758715000,7.97171484375,-0.003097516018897295,0.0068730139173567295,-0.001217456767335534
1746739316768796000,7.9817958984375,-0.0035989307798445225,0.005120126064866781,0.0015934505499899387
1746739316778876200,7.991876220703125,0.00025040190666913986,0.005569135304540396,0.005328800529241562
1746739316788957000,8.00195703125,0.0010449141263961792,0.0008297590538859367,0.003201910760253668
1746739316799037000,8.012036865234375,0.0006651473231613636,-0.0021186266094446182,-0.005408088676631451
1746739316809117200,8.0221171875,0.002106816042214632,-0.005238043610006571,-0.006689693778753281
1746739316819197700,8.03219775390625,0.0033654258586466312,-0.004308334086090326,-0.001879758550785482
1746739316829277700,8.042277587890625,0.000589780043810606,-0.004456083290278912,0.004336151294410229
1746739316839358500,8.0523583984375,-0.0019807033240795135,0.0035943863913416862,0.008093871176242828
1746739316849438700,8.062438720703126,-0.0031312936916947365,0.004084513522684574,0.006355976685881615
1746739316859519700,8.072519775390624,-0.0015187491662800312,0.003078104928135872,0.006807116325944662
1746739316869599500,8.082599609375,-0.000997722614556551,-0.0016659321263432503,0.006080519407987595
1746739316879679700,8.0926796875,-0.0003108931705355644,-0.004417243879288435,0.002997111761942506
1746739316889760800,8.1027607421875,-0.0007177079096436501,-0.002206011675298214,-0.004446008242666721
1746739316899840500,8.112840576171875,0.0007137414067983627,0.00037858588621020317,-0.006684927735477686
1746739316909921500,8.122921630859375,-0.002503371797502041,0.0015704380348324776,-0.012936964631080627
1746739316920001800,8.133001708984375,-0.0016306540928781033,-0.0003148135729134083,-0.0106051005423069
1746739316930082600,8.14308251953125,-0.0022973278537392616,-0.002435252070426941,-0.0045146276243031025
1746739316940162600,8.15316259765625,-0.0018459218554198742,-0.00037449831143021584,-0.003098092507570982
1746739316950243600,8.16324365234375,-0.0031228489242494106,0.001154960598796606,-0.0002142145822290331
1746739316960323600,8.173323486328124,-0.001446921844035387,0.004554219078272581,-0.0006259393412619829
1746739316970403600,8.183403564453124,0.0012949774973094463,0.006214981433004141,0.0012010775972157717
1746739316980484600,8.193484619140625,0.0034521380439400673,0.007810481358319521,0.002102823927998543
1746739316990564600,8.203564697265625,-0.0003789425827562809,0.00546906515955925,0.0016541978111490607
1746739317000645600,8.213645751953125,0.0009233434684574604,0.0011816415935754776,0.004592463374137878
1746739317010725600,8.2237255859375,-0.0012751477770507336,-0.002097824588418007,0.006076171528548002
1746739317020806700,8.233806640625,-0.0012607667595148087,-0.0018725213594734669,0.005112906452268362
1746739317030886700,8.24388671875,-0.0008459175005555153,0.0012642359361052513,0.0045289285480976105
1746739317040966700,8.253966552734376,-0.0007974477484822273,0.0034445663914084435,0.002437282120808959
1746739317051047700,8.264047607421874,0.00048614339902997017,-0.0007470343261957169,0.0028408144135028124
1746739317061127700,8.274127685546874,0.0009974702261388302,0.002777659334242344,-0.00028120927163399756
1746739317071208700,8.284208740234375,0.004282037727534771,0.0020529981702566147,-0.003187604947015643
1746739317081288700,8.294288818359375,-0.001058931928128004,0.0010993201285600662,-0.002670152811333537
1746739317091369700,8.30436962890625,0.0025306660681962967,0.0005538314580917358,-0.0024689955171197653
1746739317101449700,8.31444970703125,-0.0008057421073317528,0.004009815864264965,-0.004121220204979181
1746739317111530500,8.324530517578125,-0.0016356231644749641,-0.0006506526842713356,0.002498895162716508
1746739317121610800,8.33461083984375,-0.002944033592939377,0.0007533659227192402,0.006182846147567034
1746739317131690800,8.344690673828126,-0.0019517140462994576,0.003007223829627037,0.006483220029622316
1746739317141771500,8.354771484375,-0.004651093855500221,0.0048011289909482,0.0037990196142345667
1746739317151851800,8.364851806640624,-0.0015296945348381996,0.002441050484776497,0.0035423790104687214
1746739317161932800,8.374932861328125,0.0018519875593483448,0.002515353262424469,0.0022752468939870596
1746739317172012500,8.385012451171875,0.0026025897823274136,0.004489785525947809,-0.0015395814552903175
1746739317182093600,8.395093505859375,0.001135720405727625,0.0044077602215111256,-0.004032300319522619
1746739317192173800,8.405173828125,0.0005043176934123039,-0.00022083381190896034,-0.0025398938450962305
1746739317202253600,8.415253662109375,-0.0017870659939944744,-0.002960960380733013,-0.001074356259778142
1746739317212334600,8.42533447265625,-0.0026101386174559593,-0.004210993181914091,-0.00397066492587328
1746739317222414800,8.435414794921876,-0.0004279445856809616,-0.0026557068340480328,-0.010255192406475544
1746739317232495600,8.44549560546875,-0.0034126057289540768,-0.0017159171402454376,-0.017058294266462326
1746739317242575600,8.45557568359375,0.0006820047274231911,0.00048119062557816505,-0.014634018763899803
1746739317252656600,8.46565673828125,0.0010505551472306252,0.0014708461239933968,-0.013434828259050846
1746739317262736600,8.475736572265625,0.0005671912804245949,0.003574477508664131,-0.008022486232221127
1746739317272816600,8.485816650390625,-0.0016267322935163975,0.002384341321885586,-0.005286711733788252
1746739317282897700,8.495897705078125,0.000386084895581007,0.0029705027118325233,-0.0038794970605522394
1746739317292977700,8.505977783203125,-0.003073267638683319,0.002078412566334009,0.0004351112002041191
1746739317303058700,8.51605859375,-0.0019211843609809875,0.0034645874984562397,-0.00028873595874756575
1746739317313138700,8.526138671875,0.0002408982254564762,-0.002322801388800144,-0.003257589414715767
1746739317323219500,8.536219482421876,-0.0030555622652173042,0.00042398320510983467,-0.002681015059351921
1746739317333299700,8.5462998046875,-0.0021216711029410362,-0.003099957015365362,-0.0015486362390220165
1746739317343379700,8.556379638671874,-0.00005452567711472511,-0.002555606886744499,0.001377911539748311
1746739317353460500,8.56646044921875,0.00046350713819265366,-0.001837803516536951,0.0002706809318624437
1746739317363540700,8.576540771484375,-0.002584480680525303,0.0017183152958750725,0.0007007814710959792
1746739317373621800,8.586621826171875,-0.0013406164944171906,-0.00015681656077504158,0.003335979301482439
1746739317383701500,8.596701416015625,-0.0017659231089055538,0.003219805657863617,-0.001031072111800313
1746739317393782500,8.606782470703125,0.0004689423367381096,0.003519364632666111,0.0010528559796512127
1746739317403862800,8.61686279296875,-0.000014954246580600739,0.0020852526649832726,0.0002658918674569577
1746739317413942500,8.626942626953126,0.0019093372393399477,-0.0001321006566286087,-0.0006608287221752107
1746739317424023600,8.6370234375,0.0006912071257829666,-0.0011917725205421448,-0.0010219532996416092
1746739317434103800,8.647103759765624,0.002096023876219988,0.0001329304650425911,-0.003266736166551709
1746739317444184600,8.6571845703125,0.0014909538440406322,0.0031633409671485424,-0.001617973204702139
1746739317454264600,8.6672646484375,0.0020895267371088266,-0.003986477851867676,-0.0013606197899207473
1746739317464345600,8.677345703125,0.0004474213346838951,-0.008404928259551525,0.0035750167444348335
1746739317474425600,8.687425537109375,0.000656801275908947,-0.0082456199452281,0.005859943572431803
1746739317484506600,8.697506591796875,-0.0004028705880045891,-0.0029001226648688316,0.005754482466727495
1746739317494586600,8.707586669921875,-0.0031445627100765705,0.001162195112556219,0.0026955532375723124
1746739317504666600,8.71766650390625,-0.0017549251206219196,0.004997946787625551,0.0027011458296328783
1746739317514747600,8.72774755859375,-0.000641020480543375,0.008618812076747417,0.0017612249357625842
1746739317524827600,8.73782763671875,-0.00009667035192251205,0.0032301712781190872,-0.0011149890488013625
1746739317534908400,8.747908447265624,-0.0006635803729295731,-0.000796773936599493,-0.005487872287631035
1746739317544988700,8.75798876953125,-0.0018020817078649998,-0.006619775667786598,-0.011850430630147457
1746739317555068700,8.768068603515625,-0.0028558513149619102,-0.006833652965724468,-0.013693038374185562
1746739317565149400,8.7781494140625,-0.004043354652822018,-0.00801636278629303,-0.01584593951702118
1746739317575229700,8.788229736328125,-0.0014606975018978119,-0.0055888015776872635,-0.017334599047899246
1746739317585310700,8.798310791015625,-0.0023595145903527737,-0.0045629520900547504,-0.01260455884039402
1746739317595390500,8.808390380859375,-0.0022518248297274113,0.000604596920311451,-0.005814022850245237
1746739317605471500,8.818471435546876,-0.0019266530871391296,0.0007761046290397644,0.0011272402480244637
1746739317615551700,8.8285517578125,0.00003399001434445381,0.0011713341809809208,0.007565785199403763
1746739317625632800,8.8386328125,-0.0008874638006091118,0.00024428777396678925,0.01155120600014925
1746739317635712500,8.84871240234375,-0.000029278453439474106,0.0017822468653321266,0.01349815633147955
1746739317645792800,8.858792724609375,0.0016106960829347372,0.005011595785617828,0.009021914564073086
1746739317655873500,8.86887353515625,0.0008885902352631092,0.00428275391459465,0.0021084267646074295
1746739317665953500,8.87895361328125,-0.0009188973344862461,0.003999127075076103,0.000797885237261653
1746739317676034800,8.889034912109375,-0.002377790864557028,0.004466463346034288,-0.0027411808259785175
1746739317686114600,8.899114501953125,0.0017911209724843502,0.0012914431281387806,-0.003031731816008687
1746739317696194600,8.909194580078125,0.0008139312267303467,-0.00099113117903471,-0.006293279118835926
1746739317706275600,8.919275634765626,0.001547365915030241,-0.0016361488960683346,-0.00523307453840971
1746739317716355600,8.92935546875,-0.002074473537504673,-0.0035272971726953983,-0.006592464633285999
1746739317726436600,8.9394365234375,-0.0012028208002448082,-0.0024769464507699013,-0.0073184422217309475
1746739317736516600,8.9495166015625,-0.001967647112905979,-0.005402902141213417,-0.009519406594336033
1746739317746598000,8.959597900390625,-0.0032270560041069984,-0.0015074964612722397,-0.005086575169116259
1746739317756677600,8.969677734375,-0.0009698215872049332,-0.004624748136848211,-0.0004356563731562346
1746739317766757600,8.979757568359375,0.00048026954755187035,-0.003521134378388524,0.0029612055514007807
1746739317776838700,8.989838623046875,0.0022616253700107336,-0.0036313841119408607,0.007745780516415834
1746739317786918700,8.999918701171875,0.0005529411137104034,-0.005324621684849262,0.006466131657361984
1746739317796999700,9.009999755859376,-0.000876882579177618,-0.0015293397009372711,-0.0030579851008951664
1746739317807079700,9.02007958984375,-0.0019155154004693031,0.005191413685679436,-0.002632678486406803
1746739317817160700,9.03016064453125,-0.00099877268075943,0.001023049931973219,-0.004152725450694561
1746739317827240700,9.04024072265625,-0.00019849278032779694,0.000826509203761816,-0.003622489981353283
1746739317837320400,9.050320556640624,-0.000893245916813612,0.0016323225572705269,-0.002861762186512351
1746739317847401700,9.060401611328125,-0.002207249402999878,-0.0033666975796222687,-0.004793087020516396
1746739317857481700,9.070481689453125,-0.00038853567093610764,-0.0018148417584598064,0.00011049781460314989
1746739317867562500,9.0805625,-0.005049333907663822,0.0013793539255857468,0.003607228398323059
1746739317877642800,9.090642822265625,-0.0017066262662410736,-0.00025176582857966423,0.00028474375721998513
1746739317887723800,9.100723876953126,-0.0019622896797955036,0.000015881843864917755,-0.005026664584875107
1746739317897803500,9.110803466796876,-0.0020325505174696445,0.00040305545553565025,-0.00692815100774169
1746739317907883500,9.120883544921876,0.00026336032897233963,-0.0022675623185932636,-0.007723371032625437
1746739317917964800,9.13096484375,0.002372232498601079,-0.0032657263800501823,-0.0057304068468511105
1746739317928044500,9.14104443359375,-0.00009811576455831528,0.0005852049216628075,-0.009840729646384716
1746739317938125600,9.15112548828125,-0.0008403928950428963,-0.0005503231659531593,-0.0067428904585540295
1746739317948205800,9.161205810546875,-0.0028888965025544167,-0.0019237152300775051,-0.00446162698790431
1746739317958285600,9.17128564453125,0.00018468359485268593,-0.001943422481417656,0.0026988142635673285
1746739317968366600,9.18136669921875,-0.0007202588021755219,-0.00002062041312456131,0.010215319693088531
1746739317978446800,9.19144677734375,-0.0010684053413569927,0.0014699958264827728,0.010980227962136269
1746739317988527600,9.201527587890626,0.0012227119877934456,0.0050117336213588715,0.010196992196142673
1746739317998607600,9.211607666015626,0.0003579007461667061,0.001517321914434433,0.005272055976092815
1746739318008688600,9.221688720703124,0.0002809353172779083,-0.0009868484921753407,0.0029756121803075075
1746739318018768600,9.2317685546875,0.0013730740174651146,-0.003392854705452919,0.00006760703399777412
1746739318028848600,9.2418486328125,-0.0017436230555176735,-0.001231432892382145,-0.005268568638712168
1746739318038929700,9.2519296875,-0.0015641162171959877,-0.0013814391568303108,-0.00463906629011035
1746739318049009700,9.262009765625,-0.002708476036787033,-0.0006714407354593277,-0.003987390547990799
1746739318059090700,9.272090576171875,0.001608862541615963,0.0009378460235893726,-0.004783010110259056
1746739318069170700,9.282170654296875,-0.0011911853216588497,-0.000863250344991684,-0.005369704216718674
1746739318079250700,9.292250732421875,-0.00012136111035943031,0.003891909494996071,-0.001350571634247899
1746739318089331700,9.302331787109376,0.0002608024515211582,0.003536909818649292,0.005343549884855747
1746739318099411700,9.31241162109375,0.0019528018310666084,0.00007500406354665756,0.009950952604413033
1746739318109492500,9.322492431640624,0.003493706928566098,-0.00040143588557839394,0.013293486088514328
1746739318119572700,9.33257275390625,0.003986642695963383,0.0014548744075000286,0.01342253852635622
1746739318129652500,9.342652587890624,0.0035046106204390526,0.003464761655777693,0.01305928360670805
1746739318139733500,9.3527333984375,0.0011362642981112003,0.005434117745608091,0.012543177232146263
1746739318149813800,9.362813720703125,0.0015205582603812218,0.003114770632237196,0.006015236489474773
1746739318159894800,9.372894775390625,0.0017237856518477201,0.002574177458882332,-0.007478239014744759
1746739318169974500,9.382974609375,-0.004309872165322304,0.0004255385138094425,-0.015526311472058296
1746739318180055600,9.3930556640625,-0.005585999693721533,0.0000031669624149799347,-0.02425195463001728
1746739318190135800,9.4031357421875,-0.006719441618770361,0.00017973454669117928,-0.026795540004968643
1746739318200215600,9.413215576171876,-0.00306854210793972,-0.00327308289706707,-0.023774411529302597
1746739318210296600,9.423296630859374,-0.004332211799919605,-0.0036600399762392044,-0.015828870236873627
1746739318220376600,9.43337646484375,-0.0021317051723599434,-0.005478611681610346,-0.00573918828740716
1746739318230457600,9.44345751953125,-0.0023948252201080322,-0.0019134380854666233,0.0011767743853852153
1746739318240537600,9.45353759765625,-0.0006781499832868576,-0.0034272326156497,0.012655016034841537
1746739318250617600,9.46361767578125,-0.0031591514125466347,-0.0003310414031147957,0.013446507044136524
1746739318260698600,9.47369873046875,0.0014080554246902466,0.0018769213929772377,0.012828256003558636
1746739318270778600,9.483778564453125,0.0006221570074558258,0.0035027815029025078,0.011951010674238205
1746739318280859600,9.493859619140625,0.0012309523299336433,0.0014918800443410873,0.006459559313952923
1746739318290939600,9.503939697265626,-0.00034217722713947296,-0.0014229491353034973,0.002169206738471985
1746739318301019600,9.51401953125,-0.004626642446964979,0.00040054647251963615,-0.000324881897540763
1746739318311100700,9.5241005859375,-0.0015160702168941498,0.003065838012844324,-0.0055097900331020355
1746739318321180700,9.5341806640625,0.0005262773483991623,0.00009936653077602386,-0.005760638043284416
1746739318331261700,9.54426171875,0.0023958166129887104,-0.0027619334869086742,-0.001555506489239633
1746739318341341400,9.554341552734375,0.003390655852854252,-0.007117278873920441,0.0012739580124616623
1746739318351421700,9.564421630859375,0.0050857579335570335,-0.010533582419157028,0.002808471443131566
1746739318361502700,9.574502685546875,0.001005175057798624,-0.0044248588383197784,0.003535880008712411
1746739318371582500,9.58458251953125,0.0015857438556849957,-0.005633933935314417,-0.0013326444895938039
1746739318381663500,9.59466357421875,-0.002323304768651724,-0.0006734826602041721,-0.004468472208827734
1746739318391743700,9.60474365234375,-0.003339567221701145,-0.000005029141902923584,-0.0020694967824965715
1746739318401823500,9.614823486328126,-0.0007362966425716877,0.00010759849101305008,0.0026970067992806435
1746739318411904500,9.624904541015624,0.00009381026029586792,0.0005414276383817196,0.002594475168734789
1746739318421984800,9.63498486328125,0.0015257904306054115,0.002217675559222698,0.004804082214832306
1746739318432065800,9.645065673828125,0.000026164576411247253,0.002216876484453678,0.000033828342566266656
1746739318442145500,9.6551455078125,-0.0019242176786065102,-0.0010339762084186077,-0.000051535695092752576
1746739318452225800,9.665225830078125,-0.000650960486382246,-0.000969794113188982,-0.0005575362592935562
1746739318462306600,9.675306640625,-0.0013014213182032108,0.00010871840640902519,-0.001623989548534155
1746739318472386600,9.685386474609375,0.0009992835111916065,-0.0021578981541097164,-0.0013102691154927015
1746739318482467600,9.695467529296875,-0.000203725416213274,0.0013526743277907372,0.0005172532983124256
1746739318492547600,9.705547607421876,0.0028136358596384525,-0.0003898316062986851,0.0004442826902959496
1746739318502627600,9.715627685546876,0.004646836780011654,0.0008230144158005714,0.0027394983917474747
1746739318512708600,9.72570849609375,0.001960772555321455,0.00445556640625,0.007204554043710232
1746739318522788600,9.73578857421875,0.002380104037001729,0.006226767785847187,0.010099551640450954
1746739318532869600,9.74586962890625,0.0016157766804099083,0.004073868505656719,0.00925825908780098
1746739318542949600,9.75594970703125,-0.00010113604366779327,0.0009516640566289425,0.008083213120698929
1746739318553029600,9.766029541015625,-0.0027400627732276917,0.0004129069857299328,0.005289024207741022
1746739318563110700,9.776110595703125,-0.0019618868827819824,-0.005051366984844208,0.002994711045175791
1746739318573190700,9.786190673828125,-0.00024947430938482285,-0.0059467218816280365,-0.005800910759717226
1746739318583271400,9.796271484375,-0.0024699578061699867,-0.006730483844876289,-0.005943717900663614
1746739318593351700,9.8063515625,-0.0009002909064292908,-0.006493462715297937,-0.009173866361379623
1746739318603431700,9.816431640625,0.0006658844649791718,-0.004846861585974693,-0.007937053218483925
1746739318613512400,9.826512451171874,-0.001769576221704483,-0.00025930022820830345,-0.005756989121437073
1746739318623592700,9.8365927734375,-0.001850062981247902,0.0034292275086045265,0.0006825746386311948
1746739318633673700,9.846673828125,-0.0009696222841739655,0.002939472906291485,0.0058171493001282215
1746739318643753500,9.85675341796875,-0.0006843088194727898,0.005450814962387085,0.010964957997202873
1746739318653833700,9.866833740234375,-0.0013069557026028633,0.005649486556649208,0.009151877835392952
1746739318663914800,9.876914794921875,0.0030312740709632635,0.0025966991670429707,0.010614546947181225
1746739318673994500,9.886994384765625,0.0024246058892458677,0.0014270390383899212,0.00971466489136219
1746739318684075500,9.897075439453126,0.0058599659241735935,-0.0006840620189905167,0.0022430235985666513
1746739318694155800,9.90715576171875,0.0019376622512936592,-0.001987945754081011,-0.003371985163539648
1746739318704235500,9.917235595703126,0.0005596242845058441,-0.002102093305438757,-0.004829721059650183
1746739318714316500,9.927316650390624,-0.0005980520509183407,-0.0022616167552769184,-0.0037556684110313654
1746739318724396800,9.937396728515624,-0.0034386683255434036,-0.004306430462747812,-0.003442642278969288
1746739318734477600,9.9474775390625,-0.003579815849661827,-0.0001971730962395668,-0.000029534974601119757
1746739318744557600,9.9575576171875,-0.00020985212177038193,0.001728083472698927,0.004976384341716766
1746739318754637800,9.967637939453125,0.0023683542385697365,0.000015937723219394684,0.006756441667675972
1746739318764718600,9.977718505859375,0.0013011666014790535,-0.0008150897920131683,0.01140083558857441
1746739318774798600,9.987798583984375,0.0009914413094520569,0.0018840241245925426,0.012547592632472515
1746739318784878600,9.997878662109375,-0.0022606048732995987,0.004435440059751272,0.00984689686447382
1746739318794959600,10.007959716796876,-0.0017410218715667725,0.004078843165189028,0.0027658184990286827
1746739318805039600,10.01803955078125,-0.0009830864146351814,0.001816221047192812,-0.0029882071539759636
1746739318815120600,10.02812060546875,-0.0022563436068594456,0.0018878602422773838,-0.007892685011029243
1746739318825200400,10.038200439453124,-0.002979894634336233,0.0009735720232129097,-0.01670084148645401
1746739318835280100,10.048280029296874,-0.0025535221211612225,-0.0018067685887217522,-0.021013299003243446
1746739318845361200,10.058361083984375,-0.0045455084182322025,-0.00018436415120959282,-0.023269057273864746
1746739318855441400,10.06844140625,-0.00672397343441844,0.0032926583662629128,-0.02125677280128002
1746739318865522400,10.0785224609375,-0.003514006733894348,0.000979709904640913,-0.01343326736241579
1746739318875602200,10.088602294921875,-0.004383262246847153,-0.0021905172616243362,-0.0023569141048938036
1746739318885682400,10.098682373046875,-0.0024423496797680855,-0.003122032154351473,0.00531269796192646
1746739318895763200,10.10876318359375,0.00048712780699133873,-0.002543859649449587,0.012420674785971642
1746739318905843200,10.11884326171875,-0.0026996401138603687,0.00246637174859643,0.011498706415295601
1746739318915924200,10.12892431640625,-0.0006420821882784367,-0.0029169418849051,0.011564485728740692
1746739318926004200,10.139004150390624,0.0008500567637383938,-0.003262653946876526,0.0051785362884402275
1746739318936084200,10.149084228515624,-0.0009142872877418995,-0.0020863357931375504,0.0009118863963522017
1746739318946165200,10.159165283203125,-0.001269967295229435,-0.0025295307859778404,-0.00025174726033583283
1746739318956245200,10.169245361328125,-0.003467075526714325,0.002153371460735798,-0.0036912199575453997
1746739318966325200,10.1793251953125,-0.004811614751815796,-0.0009405901655554771,-0.006496726535260677
1746739318976406300,10.18940625,-0.002183075062930584,0.0009571779519319534,-0.0015917163109406829
1746739318986486300,10.199486328125,0.0005123680457472801,0.001471798401325941,0.0011873053153976798
1746739318996567300,10.2095673828125,0.0019763074815273285,-0.0010345024056732655,0.0017457701032981277
1746739319006647300,10.219647216796876,0.004850628785789013,-0.0037523822393268347,0.007161011919379234
1746739319016727300,10.229727294921876,0.002350719179958105,0.0004186606965959072,0.006431039422750473
1746739319026808300,10.239808349609374,0.004611417651176453,-0.0031475848518311977,0.004389788024127483
1746739319036888300,10.249888427734374,-0.0007196981459856033,0.0011310498230159283,0.0033034849911928177
1746739319046969000,10.259968994140625,-0.005244229920208454,0.002546866424381733,0.004271861165761948
1746739319057049300,10.27004931640625,-0.004670318216085434,0.0014541717246174812,0.001546914572827518
1746739319067129300,10.28012939453125,-0.0029683816246688366,-0.002532887738198042,0.0027957791462540627
1746739319077210000,10.290210205078125,-0.0030328300781548023,-0.007009661290794611,0.003371821017935872
1746739319087290400,10.300290283203125,-0.0031485608778893948,-0.008205999620258808,-0.005295533686876297
1746739319097370400,10.310370361328125,-0.002002602443099022,-0.008262991905212402,-0.010862872004508972
1746739319107451100,10.320451171875,-0.0009466297924518585,-0.005620097275823355,-0.012269837781786919
1746739319117531400,10.330531494140626,-0.00004648137837648392,-0.004307691473513842,-0.013930052518844604
1746739319127612400,10.3406123046875,0.0005489736795425415,0.000043468084186315536,-0.011812849901616573
1746739319137692200,10.350692138671874,-0.0013732961378991604,0.00007276283577084541,-0.005406615324318409
1746739319147772400,10.3607724609375,0.002641540253534913,0.0036028586328029633,0.0013853550190106034
1746739319157853400,10.370853515625,-0.0011089895851910114,0.005239903926849365,0.009420644491910934
1746739319167933200,10.38093310546875,0.0005109496414661407,0.00502198887988925,0.009700369089841843
1746739319178013400,10.391013427734375,-0.0016499394550919533,0.003050717059522867,0.009423400275409222
1746739319188094500,10.401094482421875,-0.0018789689056575298,0.003347986377775669,0.006487501785159111
1746739319198174200,10.41117431640625,-0.00363905169069767,0.000228093471378088,0.003959362860769033
1746739319208255200,10.421255126953126,-0.0017012502066791058,-0.0029781684279441833,-0.005461351480334997
1746739319218335500,10.43133544921875,0.0012492663227021694,-0.006318571045994759,-0.012042822316288948
1746739319228415200,10.441415283203124,0.0035501206293702126,-0.005834893323481083,-0.011880272999405861
1746739319238496300,10.451496337890624,0.0016504877712577581,-0.002843364141881466,-0.01223580539226532
1746739319248576300,10.461576171875,0.0013636057265102863,0.0017010467126965523,-0.01169325690716505
1746739319258657300,10.4716572265625,-0.0023509711027145386,0.004792710766196251,-0.007320346776396036
1746739319268737300,10.4817373046875,-0.0024827979505062103,0.002486678771674633,-0.00038760562893003225
1746739319278817300,10.4918173828125,-0.0042399512603878975,0.01002555526793003,0.003046540543437004
1746739319288898300,10.501898193359375,-0.0004182555712759495,0.007963476702570915,0.004049690905958414
1746739319298978300,10.511978271484375,-0.0014837863855063915,0.004265144933015108,0.011943832971155643
1746739319309058300,10.522058349609376,0.0023897504433989525,0.006487253122031689,0.01387174054980278
1746739319319139300,10.532139404296874,0.000170005951076746,0.0074838073924183846,0.009989118203520775
1746739319329219300,10.54221923828125,0.0015891187358647585,0.004569326993077993,0.005501740146428347
1746739319339299300,10.55229931640625,-0.002899372950196266,0.0015881839208304882,0.004418099764734507
1746739319349380400,10.56238037109375,-0.0015724413096904755,-0.004678043071180582,0.0007406968506984413
1746739319359460400,10.57246044921875,-0.0016012033447623253,-0.005175521597266197,-0.0053422292694449425
1746739319369541000,10.582541015625,-0.0002481103874742985,-0.00879076961427927,-0.010202703066170216
1746739319379621400,10.592621337890625,0.004795916378498077,-0.0033613829873502254,-0.011257047764956951
1746739319389701400,10.602701416015625,0.0037108901888132095,0.003199963830411434,-0.012958540581166744
1746739319399782100,10.6127822265625,-0.00004203617572784424,0.002766401506960392,-0.004079828038811684
1746739319409862400,10.6228623046875,0.0020789620466530323,0.003537597134709358,0.009830630384385586
1746739319419942400,10.6329423828125,0.0022376864217221737,0.0009087910875678062,0.011847708374261856
1746739319430023200,10.643023193359374,0.0017982956487685442,-0.002281907480210066,0.014253294095396996
1746739319440103200,10.653103271484374,0.0037157717160880566,0.0014196201227605343,0.013811475597321987
1746739319450184400,10.663184326171875,0.002172231674194336,0.003382607363164425,0.005893350578844547
1746739319460264200,10.67326416015625,0.004323266912251711,0.0032350681722164154,0.004948993679136038
1746739319470344200,10.68334423828125,0.0023322568740695715,0.004319473635405302,-0.000020151870558038354
1746739319480425500,10.693425537109375,0.0004944093525409698,0.0026427474804222584,-0.002306742127984762
1746739319490505200,10.703505126953125,0.002149506937712431,0.0008616810664534569,-0.0006355771329253912
1746739319500585200,10.713585205078125,0.0023061009123921394,-0.0004504588432610035,0.0005101147689856589
1746739319510666500,10.72366650390625,0.0002831043675541878,0.004650286864489317,0.0012089910451322794
1746739319520746200,10.733746337890626,0.0026242893654853106,0.0022955196909606457,-0.0013138215290382504
1746739319530827300,10.7438271484375,-0.000054406002163887024,0.004255094565451145,-0.0013326519401744008
1746739319540907300,10.7539072265625,-0.00219265790656209,0.002739490009844303,-0.0011539538390934467
1746739319550987300,10.7639873046875,-0.000567450188100338,-0.00110532995313406,0.00018813861242961138
1746739319561068300,10.774068359375,-0.003219159785658121,-0.0037559743504971266,-0.002015893580392003
1746739319571148000,10.78414794921875,-0.0026833596639335155,-0.004477130249142647,-0.006073737051337957
1746739319581228300,10.794228271484375,-0.00046974001452326775,-0.004645974840968847,-0.007442069239914417
1746739319591309300,10.804309326171875,-0.0018255836330354214,-0.003204111475497484,-0.00989163015037775
1746739319601389000,10.81438916015625,-0.0006716358475387096,-0.004181757569313049,-0.007028465624898672
1746739319611469300,10.82446923828125,-0.00216066837310791,-0.0032256892882287502,-0.005813201889395714
1746739319621550300,10.83455029296875,0.000500096008181572,0.0017954343929886818,-0.0017497511580586433
1746739319631630000,10.844630126953126,-0.00006212899461388588,0.0009575681760907173,0.002924677450209856
1746739319641711400,10.85471142578125,0.0008318941108882427,0.003177313134074211,0.009754087775945663
1746739319651791400,10.864791259765624,0.0016943165101110935,0.004746755585074425,0.014508784748613834
1746739319661871000,10.87487109375,0.0028040555771440268,0.0029461923986673355,0.012970542535185814
1746739319671952100,10.8849521484375,0.0043283067643642426,0.0035779746249318123,0.012226293794810772
1746739319682032400,10.895032470703125,0.000997757539153099,0.0037865005433559418,0.01098099909722805
1746739319692112100,10.905112060546875,0.00004368927329778671,0.003046060912311077,0.0029605187010020018
1746739319702193200,10.915193115234375,0.0016993763856589794,0.001239905133843422,-0.0074705504812300205
1746739319712273400,10.9252734375,-0.0017508319579064846,-0.0013219681568443775,-0.01789172552525997
1746739319722353200,10.935353271484376,-0.0018152804113924503,-0.003284451551735401,-0.021581267938017845
1746739319732434200,10.94543408203125,0.0004593175835907459,-0.0008461903780698776,-0.020099150016903877
1746739319742514400,10.955514404296874,-0.002139394637197256,0.000015608500689268112,-0.017333457246422768
1746739319752595200,10.96559521484375,-0.002301430329680443,-0.00252792751416564,-0.007182459346950054
1746739319762675200,10.97567529296875,-0.004180822987109423,-0.0009212424047291279,0.006265971343964338
1746739319772755500,10.98575537109375,0.0013135443441569805,-0.0017990199849009514,0.01288312766700983
1746739319782836200,10.995836181640625,0.001735655590891838,0.0016407184302806854,0.018961526453495026
1746739319792916200,11.005916259765625,0.00427687494084239,-0.00013717124238610268,0.023014010861516
1746739319802996200,11.015996337890625,0.004516293294727802,0.0005722949281334877,0.020264295861124992
1746739319813077200,11.0260771484375,0.0033856069203466177,-0.00372307444922626,0.014703502878546715
1746739319823157500,11.036157470703126,-0.00037557538598775864,-0.004296719096601009,0.003015420865267515
1746739319833237500,11.046237548828126,-0.0008192583918571472,0.0005523641593754292,-0.008993037976324558
1746739319843318500,11.056318603515624,-0.002184394747018814,0.0009584962390363216,-0.01721794530749321
1746739319853398500,11.0663984375,-0.0027101896703243256,-0.0009456416592001915,-0.019665846601128578
1746739319863479300,11.076479248046875,-0.001281137578189373,0.0006290851160883904,-0.018911372870206833
1746739319873559600,11.0865595703125,0.0026432324666529894,0.0013483325019478798,-0.012759370729327202
1746739319883639600,11.0966396484375,-0.0004167398437857628,0.0006902655586600304,-0.002994624665006995
1746739319893720300,11.10672021484375,0.0015180790796875954,-0.001441026572138071,0.005623580887913704
1746739319903800600,11.116800537109375,0.0006349748000502586,-0.0008450113236904144,0.012438078410923481
1746739319913880600,11.126880615234375,0.0012640408240258694,-0.001919358503073454,0.01441599428653717
1746739319923961300,11.13696142578125,0.0023157233372330666,-0.0028890157118439674,0.016737472265958786
1746739319934041600,11.14704150390625,0.0020674339029937983,-0.00009074481204152107,0.012305477634072304
1746739319944121600,11.15712158203125,0.0012687519192695618,0.0013827821239829063,0.008138695731759071
1746739319954202400,11.167202392578124,0.0014669187366962433,-0.0013741515576839447,0.002222471171990037
1746739319964282600,11.17728271484375,-0.001327003352344036,-0.0037148036062717438,-0.0038125182036310434
1746739319974362400,11.1873623046875,-0.0031112022697925568,-0.0039246464148163795,-0.01273929513990879
1746739319984443400,11.197443359375,-0.004036384634673595,-0.003756600897759199,-0.017567338421940804
1746739319994523600,11.207523681640625,-0.002912204246968031,-0.0016103517264127731,-0.01613941602408886
1746739320004604700,11.217604736328125,-0.0018786308355629444,-0.0028271502815186977,-0.012887430377304554
1746739320014684400,11.227684326171875,-0.002407892607152462,0.0012088268995285034,-0.0033579927403479815
1746739320024764400,11.237764404296875,0.00025446899235248566,0.0019127000123262405,0.004517773166298866
1746739320034845700,11.247845703125,0.001941357972100377,0.0006518648006021976,0.010103089734911919
1746739320044925400,11.257925537109376,0.0032196752727031708,0.0008947453461587429,0.0173823069781065
1746739320055005400,11.26800537109375,0.0041555315256118774,0.003073379397392273,0.016845177859067917
1746739320065086500,11.27808642578125,0.003778960555791855,0.003409736789762974,0.012487980537116528
1746739320075166500,11.28816650390625,0.0010008658282458782,-0.002010646741837263,0.004674443509429693
1746739320085246500,11.29824658203125,-0.0017352658323943615,-0.0040932390838861465,0.0007366936770267785
1746739320095327500,11.308327392578125,-0.004760459531098604,0.00017353100702166557,-0.007890036329627037
1746739320105407500,11.318407470703125,-0.006125862244516611,-0.0004778779111802578,-0.013735408894717693
1746739320115487500,11.328487548828125,-0.0040544611401855946,-0.006652485113590956,-0.01779908686876297
1746739320125568500,11.338568603515625,0.0003368249163031578,-0.009297003969550133,-0.0183974988758564
1746739320135648500,11.3486484375,-0.0007100310176610947,-0.006158431060612202,-0.02141917310655117
1746739320145728500,11.358728515625,0.0015374105423688889,-0.004356536082923412,-0.015131448395550251
1746739320155809300,11.368809326171874,0.00151143129914999,-0.0018885699100792408,-0.00237769796513021
1746739320165889500,11.3788896484375,0.00216470449231565,0.00042438553646206856,0.01084835920482874
1746739320175970600,11.388970458984375,0.005533483810722828,-0.00005766144022345543,0.023308617994189262
1746739320186050300,11.39905029296875,0.0032783187925815582,0.000039011240005493164,0.021688349545001984
1746739320196130600,11.409130615234375,0.0013169548474252224,0.002801181748509407,0.023029495030641556
1746739320206211600,11.419211669921875,-0.0014095893129706383,0.0013713305816054344,0.013708963990211487
1746739320216291300,11.429291259765625,-0.0004321979358792305,-0.0023074238561093807,0.003863707883283496
1746739320226371600,11.43937158203125,-0.002871919423341751,-0.0018799868412315845,-0.008157269097864628
1746739320236452600,11.44945263671875,-0.001436101272702217,-0.0016414890997111797,-0.014529991894960403
1746739320246532400,11.459532470703126,-0.0031695528887212276,-0.0054314336739480495,-0.018023792654275894
1746739320256612600,11.469612548828126,-0.000003668013960123062,-0.007946431636810303,-0.019022710621356964
1746739320266693600,11.479693603515624,-0.003718511201441288,-0.006401265971362591,-0.015855412930250168
1746739320276773400,11.4897734375,-0.006711758207529783,-0.006628714967519045,-0.011230705305933952
1746739320286853600,11.499853515625,-0.004460587631911039,-0.007092903833836317,-0.009663169272243977
1746739320296934400,11.509934326171875,-0.0058448659256100655,-0.005669139791280031,-0.008076776750385761
1746739320307014400,11.520014404296875,-0.0009984453208744526,-0.0028698910027742386,-0.009155889973044395
1746739320317094700,11.5300947265625,-0.002102818340063095,-0.005325749516487122,-0.0070371781475842
1746739320327175400,11.540175537109375,0.001054359134286642,-0.002731297630816698,0.00041621061973273754
1746739320337255400,11.55025537109375,0.003901031566783786,-0.0027082297019660473,0.007607579231262207
1746739320347336400,11.56033642578125,0.0016858142334967852,-0.00042803119868040085,0.01094105839729309
1746739320357416400,11.57041650390625,0.00242241146042943,0.0051304795779287815,0.01290599163621664
1746739320367496400,11.580496337890626,0.0049806442111730576,0.00235386798158288,0.02256873808801174
1746739320377577500,11.590577392578124,0.006094737444072962,0.002293460536748171,0.025769740343093872
1746739320387657500,11.600657470703124,0.007343493402004242,0.0023227552883327007,0.02269805036485195
1746739320397737500,11.610737548828125,0.0045354729518294334,0.000987280160188675,0.02022191509604454
1746739320407818500,11.620818603515625,0.0058289701119065285,0.0016048671677708626,0.010914965532720089
1746739320417898500,11.6308984375,0.0015260246582329273,-0.0012799766846001148,-0.0009140031179413199
1746739320427978500,11.640978515625,0.0002743387594819069,0.003807726316154003,-0.00853277463465929
1746739320438059500,11.6510595703125,-0.0023637553676962852,-0.001109495759010315,-0.01179147232323885
1746739320448139500,11.661139404296875,0.0003950134851038456,0.0006234231404960155,-0.018849380314350128
1746739320458219500,11.671219482421876,-0.0039403801783919334,0.0006750496104359627,-0.022054441273212433
1746739320468300500,11.681300537109376,-0.003299890086054802,0.0003317687660455704,-0.020879987627267838
1746739320478380500,11.691380615234374,-0.0011420762166380882,-0.000634677242487669,-0.019629761576652527
1746739320488460500,11.70146044921875,-0.0006517884321510792,0.0026351516135036945,-0.016716530546545982
1746739320498541600,11.71154150390625,0.0010768626816570759,0.001071274746209383,-0.015047750435769558
1746739320508621600,11.72162158203125,0.001361554954200983,0.0023008561693131924,-0.01000771764665842
1746739320518701600,11.73170166015625,0.003539914032444358,0.0020120269618928432,-0.005194546654820442
1746739320528782300,11.7417822265625,0.0005254819989204407,0.004515665117651224,-0.004170827567577362
1746739320538862600,11.751862548828125,0.0017020399682223797,0.000664765015244484,0.004117738455533981
1746739320548942600,11.761942626953125,-0.0015166564844548702,0.0005401293747127056,0.002029819879680872
1746739320559023400,11.7720234375,-0.0028837835416197777,0.004135043825954199,-0.0029786136001348495
