time,seconds_elapsed,z,y,x
1746729173931347200,0.02534716796875,0.0003436170518398285,-0.00036610476672649384,-0.0019511261489242315
1746729173941365200,0.035365234375,-0.0010316395200788975,0.002885082270950079,-0.00029916735365986824
1746729173951382300,0.04538232421875,-0.0019227652810513973,0.00003992905840277672,-0.00031880708411335945
1746729173961400000,0.055400146484375,0.0022773060481995344,-0.0009795292280614376,-0.00035609141923487186
1746729173971417000,0.0654169921875,0.0014183109160512686,0.0009727501310408115,-0.0005589248612523079
1746729173981434000,0.07543408203125,-0.0019026510417461395,-0.0006850678473711014,0.0015052913222461939
1746729173991452200,0.0854521484375,0.00036176014691591263,0.0009964951314032078,0.00039588939398527145
1746729174001469200,0.09546923828125,0.0030717928893864155,0.001198362559080124,-0.0011607282795011997
1746729174011486000,0.10548583984375,-0.0006456742994487286,0.00019740546122193336,-0.0009801697451621294
1746729174021504300,0.115504150390625,0.0007631378248333931,-0.0006798398680984974,0.0011253254488110542
1746729174031521000,0.12552099609375,0.0009197012986987829,-0.0014051306061446667,0.0016736502293497324
1746729174041539000,0.1355390625,0.0006611086428165436,-0.0017681196331977844,0.0006155762821435928
1746729174051556000,0.14555615234375,0.0007857088930904865,-0.0002142614684998989,0.001638353685848415
1746729174061573000,0.155572998046875,-0.0002041882835328579,-0.00003263354301452637,0.0022082701325416565
1746729174071591200,0.165591064453125,-0.0006693312898278236,0.0012339656241238117,0.00040693231858313084
1746729174081608000,0.17560791015625,0.0002984614111483097,0.00006537092849612236,-0.0002950767520815134
1746729174091626200,0.185626220703125,-0.0016651242040097713,0.0003024754114449024,0.001061413437128067
1746729174101643000,0.19564306640625,-0.00010584341362118721,0.000958678312599659,-0.0025018961168825626
1746729174111660300,0.205660400390625,-0.00033800629898905754,-0.0017718980088829994,0.001025631558150053
1746729174121678000,0.215677978515625,-0.001240817829966545,-0.001100781373679638,-0.001470549264922738
1746729174131695000,0.225695068359375,-0.0016765794716775417,0.0019608959555625916,-0.0037504923529922962
1746729174141713200,0.235713134765625,-0.0012472779490053654,-0.0018562129698693752,-0.001966707408428192
1746729174151730200,0.245730224609375,0.0015483733732253313,0.0007939268834888935,0.00312210014089942
1746729174161747200,0.255747314453125,0.0015302638057619333,0.002509002573788166,0.002021415624767542
1746729174171765000,0.265764892578125,0.0008988541085273027,0.0006452943198382854,-0.0011363336816430092
1746729174181782300,0.2757822265625,0.0003254753537476063,-0.00010012462735176086,-0.0003112864214926958
1746729174191800000,0.285800048828125,-0.0003508315421640873,-0.0016309795901179314,-0.0012265080586075783
1746729174201817000,0.295817138671875,0.0010537197813391685,-0.0028480442706495523,-0.0009372890926897526
1746729174211834000,0.305834228515625,-0.000987144187092781,0.0008076895028352737,0.00037509272806346416
1746729174221852200,0.31585205078125,0.003382303984835744,-0.001573176123201847,-0.0013186775613576174
1746729174231869200,0.325869140625,0.00043739331886172295,0.00010130973532795906,-0.000020295148715376854
1746729174241887000,0.335886962890625,-0.000026529189199209213,0.0017516706138849258,0.00029821903444826603
1746729174251904300,0.345904296875,0.00044975942000746727,-0.0002395911142230034,-0.00004906440153717995
1746729174261921300,0.35592138671875,-0.00021629733964800835,-0.0009546494111418724,-0.005853690207004547
1746729174271939000,0.36593896484375,-0.0029241153970360756,-0.0008314987644553185,0.0021836694795638323
1746729174281956000,0.3759560546875,0.0006216173060238361,-0.0006922152824699879,-0.0006600539200007915
1746729174291974100,0.38597412109375,0.0007631229236721992,0.0015861047431826591,0.0009436944965273142
1746729174301991200,0.3959912109375,-0.0004030750133097172,-0.0017910497263073921,0.0012686001136898994
1746729174312008200,0.40600830078125,0.0011932081542909145,-0.0005506766028702259,-0.0023008312564343214
1746729174322026200,0.416026123046875,0.00027681468054652214,0.0010120663791894913,-0.00022942456416785717
1746729174332043300,0.426043212890625,-0.0006622178480029106,-0.0003206324763596058,-0.0027395812794566154
1746729174342061000,0.43606103515625,0.0009487280622124672,0.0004817778244614601,-0.0013494109734892845
1746729174352078000,0.446078125,0.0028052537236362696,-0.00003255018964409828,0.0024252182338386774
1746729174362095000,0.45609521484375,-0.0004491289146244526,0.00034854793921113014,-0.001288826111704111
1746729174372113200,0.466113037109375,-0.0026458227075636387,0.000897957943379879,-0.0004944053944200277
1746729174382130200,0.476130126953125,-0.0002614948898553848,-0.0008509396575391293,0.0009349132888019085
1746729174392148200,0.486148193359375,0.000528017058968544,0.0006100330501794815,-0.0024356788489967585
1746729174402165200,0.496165283203125,0.00031363219022750854,-0.0004533668980002403,-0.0007019611075520515
1746729174412182000,0.50618212890625,-0.00030440185219049454,0.0024743247777223587,-0.0036027508322149515
1746729174422200300,0.516200439453125,-0.00042477669194340706,0.00017361948266625404,-0.0023689086083322763
1746729174432217000,0.526217041015625,-0.0016591348685324192,-0.0015751752071082592,-0.00012732273899018764
1746729174442234000,0.536234130859375,0.0007651406340301037,0.002094926778227091,-0.00016833539120852947
1746729174452252200,0.546252197265625,-0.0009200493805110455,0.002802591770887375,0.0011097516398876905
1746729174462269200,0.556269287109375,0.0005923598073422909,0.0006640739738941193,-0.003585933707654476
1746729174472287200,0.566287353515625,-0.0011847116984426975,-0.0020169911440461874,0.00020322483032941818
1746729174482304000,0.576303955078125,-0.000321847852319479,-0.0002814088948071003,0.0015704917022958398
1746729174492321300,0.5863212890625,-0.0006217989139258862,-0.0006355852819979191,0.00016892352141439915
1746729174502339000,0.596339111328125,-0.0007930402643978596,-0.0017708907835185528,0.0003729218151420355
1746729174512356000,0.606356201171875,-0.0019135866314172745,0.00027576135471463203,0.0014762271894142032
1746729174522374100,0.6163740234375,0.0008334643207490444,-0.0005173278041183949,0.00009164982475340366
1746729174532391200,0.62639111328125,0.0012875604443252087,0.0012924722395837307,-0.00019987858831882477
1746729174542408200,0.636408203125,0.0017980884294956923,0.002139889635145664,-0.0007178636733442545
1746729174552426000,0.646426025390625,-0.0007448154501616955,-0.0007094177417457104,0.00129808543715626
1746729174562443300,0.656443359375,-0.0006010043434798717,-0.00010780990123748779,0.0025822618044912815
1746729174572461000,0.6664609375,0.0012539548333734274,0.0002068597823381424,-0.000244704307988286
1746729174582478000,0.67647802734375,0.00029281992465257645,-0.0004192492924630642,0.0017835592152550817
1746729174592495000,0.6864951171875,0.0012434509117156267,-0.0014364630915224552,0.0005408856086432934
1746729174602513200,0.69651318359375,0.0014298721216619015,-0.0003610788844525814,-0.00026259012520313263
1746729174612530200,0.7065302734375,-0.0009350958280265331,0.001044269185513258,0.0007522052619606256
1746729174622548200,0.71654833984375,0.00009421585127711296,0.0006248210556805134,-0.001563679426908493
1746729174632565000,0.72656494140625,0.0010623186826705933,-0.0011020917445421219,-0.00009193457663059235
1746729174642582300,0.736582275390625,0.0010218387469649315,-0.0012307222932577133,0.00020980159752070904
1746729174652600000,0.74660009765625,0.0003569629043340683,0.000772734172642231,-0.0006525495555251837
1746729174662617000,0.7566171875,-0.0010217553935945034,-0.00002301810309290886,-0.0010387080255895853
1746729174672635100,0.76663525390625,-0.0008157370612025261,0.0001143026165664196,-0.0026556532829999924
1746729174682652200,0.776652099609375,0.0011384908575564623,-0.00002151867374777794,-0.0023592431098222733
1746729174692669200,0.786669189453125,-0.0013729953207075596,0.0006914073601365089,-0.00041741738095879555
1746729174702687000,0.79668701171875,-0.00020040525123476982,0.0005840822122991085,0.002142146695405245
1746729174712704300,0.806704345703125,0.0004465770907700062,0.0019776043482124805,-0.0008725055959075689
1746729174722722000,0.81672216796875,0.0001861201599240303,0.0020801364444196224,-0.00014572893269360065
1746729174732739300,0.8267392578125,0.002778060268610716,-0.0017824973911046982,0.0025369017384946346
1746729174742756000,0.836756103515625,0.0007945378310978413,-0.0013412116095423698,0.002573120640590787
1746729174752774100,0.846774169921875,-0.0011922228150069714,0.0017482019029557705,0.0019613374024629593
1746729174762791200,0.856791259765625,-0.00031737470999360085,0.00013965275138616562,0.0032790694385766983
1746729174772809000,0.86680908203125,-0.00017116358503699303,-0.0008952808566391468,-0.00036501651629805565
1746729174782826200,0.876826171875,-0.002343770582228899,-0.001897960901260376,0.0005345994140952826
1746729174792843000,0.886843017578125,-0.0006795772351324558,0.002351453062146902,-0.00020675617270171642
1746729174802861300,0.896861328125,0.0018312509637326002,0.0002062763087451458,-0.000705033540725708
1746729174812878000,0.906878173828125,0.001802586717531085,0.00009351084008812904,0.003678148379549384
1746729174822896000,0.916896240234375,-0.000996928196400404,-0.0014204960316419601,-0.0001581353135406971
1746729174832913200,0.9269130859375,0.0002859402447938919,-0.0004453640431165695,-0.0033590933308005333
1746729174842930200,0.93693017578125,0.001172506483271718,-0.000863746739923954,-0.0006152384448796511
1746729174852948200,0.9469482421875,-0.0018438752740621567,-0.0010152324102818966,-0.002770503982901573
1746729174862965000,0.956965087890625,-0.0017932751215994358,-0.00027354201301932335,-0.0014037699438631535
1746729174872983300,0.9669833984375,0.0022208655718714,-0.000370820052921772,0.0012262261006981134
1746729174883000000,0.977,0.001909542130306363,-0.0020755096338689327,0.000945528969168663
1746729174893017000,0.98701708984375,0.002360632875934243,0.001903716940432787,-0.002958780387416482
1746729174903035100,0.99703515625,-0.001637570559978485,-0.001013243105262518,-0.0009685999248176813
1746729174913052200,1.00705224609375,0.0001281648874282837,0.002728329971432686,-0.0000018032733350992203
1746729174923069200,1.017069091796875,0.0010552112944424152,0.0006942078471183777,-0.00010992772877216339
1746729174933087000,1.0270869140625,-0.00045816414058208466,-0.002068627392873168,0.0013542064698413014
1746729174943103700,1.037103759765625,-0.00005123298615217209,0.000043525826185941696,-0.001189911039546132
1746729174953121800,1.047121826171875,0.00016457773745059967,-0.0020557737443596125,0.0026334624271839857
1746729174963138800,1.057138916015625,0.0005137179978191853,-0.0010624146088957787,-0.0022646235302090645
1746729174973155800,1.06715576171875,-0.0001194048672914505,0.0008557490073144436,-0.0011685732752084732
1746729174983174000,1.077173828125,0.0004281410947442055,-0.0013906271196901798,-0.0027065486647188663
1746729174993190700,1.087190673828125,-0.0013389396481215954,0.0006126337684690952,0.0005991789512336254
1746729175003209000,1.097208984375,-0.0029219225980341434,0.000702382531017065,-0.0017057869117707014
1746729175013225700,1.107225830078125,0.0004226071760058403,0.0013663703575730324,0.0012262988602742553
1746729175023243000,1.117242919921875,0.001275617629289627,-0.0008216830901801586,-0.002208113670349121
1746729175033260800,1.1272607421875,0.0007298113778233528,-0.0002716444432735443,0.00037042656913399696
1746729175043277800,1.13727783203125,0.0032193344086408615,0.0000125151127576828,0.0010825558565557003
1746729175053295900,1.1472958984375,-0.00043281354010105133,0.0005596745759248734,-0.0015280097723007202
1746729175063313000,1.15731298828125,0.00021326914429664612,-0.0016704569570720196,0.0008491275366395712
1746729175073330000,1.167329833984375,-0.0021857726387679577,0.0012963535264134407,0.0017885330598801374
1746729175083347700,1.17734765625,0.0013935158494859934,-0.000021645333617925644,0.0011965124867856503
1746729175093365000,1.187364990234375,0.0002386709675192833,0.00027668941766023636,-0.00020000524818897247
1746729175103382800,1.1973828125,-0.0011725379154086113,-0.0019688878674060106,-0.0006926900241523981
1746729175113399800,1.20739990234375,0.003740438027307391,0.0005621509626507759,-0.000007538357749581337
1746729175123416800,1.217416748046875,0.002199000446125865,0.0007520341314375401,0.00042415992356836796
1746729175133435000,1.227434814453125,0.001226282212883234,-0.0007993415929377079,-0.00007446249946951866
1746729175143452000,1.237451904296875,0.0007426519878208637,-0.0021993655245751143,0.0031423696782439947
1746729175153469700,1.2474697265625,-0.0008523231372237206,-0.0020006175618618727,0.00029406812973320484
1746729175163487000,1.257487060546875,-0.00010317564010620117,-0.00208077859133482,-0.0025877386797219515
1746729175173504000,1.26750390625,-0.0007172487676143646,-0.000680683646351099,-0.0008416748605668545
1746729175183521800,1.277521728515625,-0.0004725041799247265,0.0005638115108013153,0.00025687902234494686
1746729175193538800,1.287538818359375,0.0001367153599858284,-0.0015247734263539314,0.0005477694794535637
1746729175203556900,1.297556884765625,0.0012557755690068007,-0.0016267728060483932,-0.0027875732630491257
1746729175213574000,1.307573974609375,-0.0004082131199538708,-0.0005856906063854694,-0.001750631257891655
1746729175223591000,1.3175908203125,-0.00033364444971084595,0.0002995440736413002,-0.000399609562009573
1746729175233609000,1.32760888671875,0.00049199303612113,-0.000025694724172353745,0.0013013427378609776
1746729175243626000,1.3376259765625,-0.0003988342359662056,0.0006323722191154957,0.0005378145724534988
1746729175253643800,1.347643798828125,-0.0003582555800676346,-0.0008407239802181721,-0.0026991507038474083
1746729175263660800,1.357660888671875,0.0009765205904841423,0.002581171691417694,-0.0014980649575591087
1746729175273677800,1.367677734375,0.0012331167235970497,-0.0012751766480505466,0.0033262053038924932
1746729175283695900,1.37769580078125,0.0022946528624743223,0.0016196793876588345,-0.002388671739026904
1746729175293713000,1.387712890625,-0.0009733838960528374,-0.0022003138437867165,-0.000922623323276639
1746729175303731000,1.39773095703125,0.00013981759548187256,-0.0009004250168800354,0.0017216295236721635
1746729175313748000,1.407748046875,0.0012101992033421993,-0.00020632566884160042,-0.0009637705516070127
1746729175323764700,1.4177646484375,-0.003141139168292284,-0.0021437755785882473,0.0015609061811119318
1746729175333782800,1.42778271484375,0.0010462268255650997,0.0000760713592171669,-0.002366611734032631
1746729175343799800,1.4377998046875,0.0012073481921106577,-0.00041208602488040924,0.00027098297141492367
1746729175353817900,1.44781787109375,0.0024665838573127985,0.0008756788447499275,0.0012043577153235674
1746729175363835000,1.4578349609375,0.00013285595923662186,-0.0016681724227964878,0.00019049225375056267
1746729175373852000,1.467851806640625,0.0022370549850165844,0.0012108650989830494,-0.0024024646263569593
1746729175383870000,1.477869873046875,0.0006727143190801144,0.0018143374472856522,0.0013097156770527363
1746729175393886700,1.48788671875,-0.0004666559398174286,0.00041348766535520554,0.0019805021584033966
1746729175403905000,1.497905029296875,-0.0010349745862185955,-0.0003372575156390667,-0.0025588558055460453
1746729175413921800,1.507921875,-0.0019981241784989834,0.00014309817925095558,0.000868071336299181
1746729175423938800,1.517938720703125,0.00043067894876003265,0.0007377821020781994,-0.0012805669102817774
1746729175433956900,1.527956787109375,-0.0012947996146976948,-0.0007098428905010223,-0.00181654654443264
1746729175443974000,1.537973876953125,-0.0014703022316098213,-0.0003612348809838295,-0.00010360125452280045
1746729175453991000,1.547990966796875,-0.0012161699123680592,-0.001133662648499012,-0.00028814980760216713
1746729175464008700,1.5580087890625,0.00009410548955202103,0.0002367999404668808,-0.0002503329887986183
1746729175474026000,1.56802587890625,-0.0006775092333555222,0.001766073051840067,-0.0010086768306791782
1746729175484043800,1.578043701171875,-0.00012064259499311447,-0.0008560754358768463,0.0012323730625212193
1746729175494060800,1.588060791015625,0.000767294317483902,0.0009284582920372486,-0.000633555231615901
1746729175504077800,1.598077880859375,0.002716994844377041,-0.0007946067489683628,0.0010064193047583103
1746729175514095900,1.608095947265625,-0.0014127148315310478,-0.0023969102185219526,0.0017260861350223422
1746729175524113000,1.61811279296875,-0.00014558294788002968,0.0015307199209928513,0.00000781472772359848
1746729175534130700,1.628130615234375,-0.0004917224869132042,0.0010783574543893337,-0.0013036972377449274
1746729175544147700,1.638147705078125,0.00028751837089657784,-0.0010582967661321163,0.0007866178639233112
1746729175554165000,1.6481650390625,0.0006759916432201862,-0.0002638110890984535,-0.00027025514282286167
1746729175564182800,1.658182861328125,0.00006053503602743149,-0.0008299993351101875,-0.002609842224046588
1746729175574199800,1.66819970703125,0.0021796489600092173,-0.002117208205163479,0.003174359677359462
1746729175584217900,1.6782177734375,0.0012520700693130493,0.0007291780784726143,-0.0018286544363945723
1746729175594235000,1.68823486328125,-0.0006454787217080593,-0.0031098462641239166,-0.0004304994363337755
1746729175604252000,1.698251953125,-0.001580248586833477,-0.00003496045246720314,0.0005886922590434551
1746729175614269700,1.708269775390625,0.004075414501130581,-0.0007541454397141933,0.0008998969569802284
1746729175624287000,1.718286865234375,0.001087347511202097,0.0031266123987734318,0.0024386714212596416
1746729175634304800,1.7283046875,0.001690499484539032,0.0003683473914861679,-0.0018779993988573551
1746729175644321800,1.73832177734375,-0.0003984840586781502,0.0005465126596391201,0.00037902966141700745
1746729175654338800,1.7483388671875,0.002320710336789489,-0.0005194838158786297,-0.0005665852222591639
1746729175664356900,1.75835693359375,-0.00037227803841233253,-0.0006587672978639603,-0.00002676248550415039
1746729175674374000,1.768373779296875,0.0030939490534365177,-0.0002838820219039917,-0.0009443508461117744
1746729175684391700,1.7783916015625,0.002767179161310196,0.00022025452926754951,-0.0012492826208472252
1746729175694409000,1.788408935546875,0.0007446445524692535,-0.00035166554152965546,0.002060734434053302
1746729175704425700,1.79842578125,-0.0003187553957104683,0.0012390404008328915,0.002630118280649185
1746729175714444000,1.808444091796875,0.0020260820165276527,-0.00017799250781536102,0.0011340947821736336
1746729175724460800,1.818460693359375,-0.0006527919322252274,-0.00023391889408230782,-0.0016987097915261984
1746729175734478800,1.828478759765625,0.001990771619603038,0.002309775911271572,-0.0014382274821400642
1746729175744495900,1.838495849609375,0.00005305558443069458,0.0002490216866135597,-0.0031549008563160896
1746729175754513000,1.848512939453125,-0.0013255923986434937,-0.0002749282866716385,-0.0032326760701835155
1746729175764531000,1.858531005859375,-0.001705891452729702,-0.00001686764881014824,-0.0034225592389702797
1746729175774547700,1.868547607421875,-0.0006762188859283924,0.0015348484739661217,0.000023179221898317337
1746729175784566000,1.87856591796875,-0.0018599936738610268,-0.0008729156106710434,0.000038625672459602356
1746729175794582800,1.888582763671875,0.0004487368278205395,0.0016801641322672367,0.0009253702592104673
1746729175804599800,1.898599853515625,0.00004047434777021408,-0.0006740703247487545,0.0007224373985081911
1746729175814617900,1.908617919921875,0.000510211568325758,-0.0004023672081530094,0.00072482880204916
1746729175824635000,1.918634765625,0.0004281862638890743,-0.0011531119234859943,0.001795952208340168
1746729175834653000,1.92865283203125,-0.0005553606897592545,0.00016369344666600227,0.0008480469696223736
1746729175844669700,1.938669677734375,-0.0005865199491381645,-0.00018464820459485054,-0.00009311409667134285
1746729175854686700,1.948686767578125,0.00041930191218852997,0.0010991068556904793,-0.0003531866241246462
1746729175864704800,1.958704833984375,-0.0005594100803136826,-0.0005888049490749836,-0.0011007359717041254
1746729175874721800,1.9687216796875,0.00028528179973363876,0.003073945175856352,0.00002672639675438404
1746729175884739800,1.97873974609375,0.00047143688425421715,0.002268871758133173,0.0018970643868669868
1746729175894756900,1.9887568359375,-0.0016970541328191757,0.001939420122653246,0.0004812278784811497
1746729175904774000,1.99877392578125,0.000530680175870657,0.0017631188966333866,-0.0018857899121940136
1746729175914792000,2.0087919921875,0.00048792269080877304,-0.0008066743612289429,-0.00021310080774128437
1746729175924808700,2.01880859375,0.002392349299043417,0.0008282400667667389,0.001641524606384337
1746729175934827500,2.02882763671875,0.0012700038496404886,0.0005144556052982807,0.0009145229123532772
1746729175944844800,2.0388447265625,0.0003099343739449978,0.0000601205974817276,0.002408023690804839
1746729175954861600,2.048861572265625,0.0002879742532968521,-0.0010123318061232567,0.001677579595707357
1746729175964880000,2.0588798828125,-0.000227347481995821,-0.0006477446295320988,0.0006799595430493355
1746729175974896600,2.068896728515625,-0.00010047527030110359,-0.003283776342868805,-0.0007681320421397686
1746729175984914400,2.07891455078125,0.0014351033605635166,0.0008550421334803104,-0.0014485698193311691
1746729175994931700,2.088931640625,-0.0004051700234413147,0.000007903669029474258,0.0004503377713263035
1746729176004948700,2.09894873046875,-0.0003764079883694649,0.0015346938744187355,0.0035595782101154327
1746729176014966800,2.108966796875,0.002018902450799942,-0.0006448454223573208,0.00006163353100419044
1746729176024983600,2.118983642578125,0.0013102353550493717,-0.00040329666808247566,-0.001440389547497034
1746729176035001900,2.129001953125,0.000502496026456356,0.0006887093186378479,0.0021488640923053026
1746729176045018600,2.1390185546875,-0.0012575872242450714,0.002052247989922762,-0.00024505145847797394
1746729176055035600,2.14903564453125,0.0002453085035085678,0.00012524286285042763,0.00006450200453400612
1746729176065053700,2.1590537109375,-0.000894258264452219,-0.001316059846431017,-0.0014638861175626516
1746729176075070700,2.16907080078125,-0.00046174274757504463,-0.0029405453242361546,-0.0022366628982126713
1746729176085088800,2.1790888671875,-0.000018326565623283386,-0.0008502299897372723,0.0029104286804795265
1746729176095105500,2.18910546875,-0.0003296537324786186,-0.0009886585175991058,0.001637361478060484
1746729176105122600,2.19912255859375,0.0002487846650183201,0.0007740878500044346,-0.00010887323878705502
1746729176115140600,2.209140625,0.0012228027917444706,-0.0026272546965628862,-0.0025152824819087982
1746729176125157600,2.21915771484375,0.0008632759563624859,-0.000019221100956201553,0.001756693935021758
1746729176135175700,2.22917578125,0.0012209452688694,0.00003721658140420914,-0.0010375133715569973
1746729176145192700,2.239192626953125,0.0013825991190969944,0.0015557510778307915,0.0018349721794947982
1746729176155209500,2.24920947265625,0.0018308334983885288,0.0006557758897542953,-0.0021823174320161343
1746729176165227800,2.259227783203125,0.0003684917464852333,0.002918397542089224,0.000163394957780838
1746729176175244500,2.26924462890625,0.0007394417189061642,-0.0009253262542188168,-0.006638223305344582
1746729176185262600,2.2792626953125,0.0003652675077319145,0.0032007088884711266,0.0024173231795430183
1746729176195279600,2.289279541015625,-0.0017480975948274136,0.000972457230091095,-0.002278050174936652
1746729176205296600,2.299296630859375,0.00038829026743769646,-0.0008906899020075798,0.00019336328841745853
1746729176215314700,2.309314697265625,-0.00043487828224897385,-0.0020081731490790844,-0.0023165903985500336
1746729176225331500,2.31933154296875,-0.00012302212417125702,0.0017151921056210995,0.000737256370484829
1746729176235349800,2.329349853515625,-0.0017409874126315117,-0.0012545324862003326,0.0005828614812344313
1746729176245366500,2.339366455078125,-0.00043444056063890457,0.000984387006610632,0.0032737194560468197
1746729176255383800,2.3493837890625,-0.0007833219133317471,-0.000045291148126125336,-0.00012970156967639923
1746729176265401600,2.359401611328125,0.0015056650154292583,0.0021379683166742325,0.004315380472689867
1746729176275419000,2.3694189453125,0.0006919456645846367,-0.00014098221436142921,0.0014351790305227041
1746729176285436700,2.379436767578125,0.00003574276342988014,-0.000022205058485269547,0.0005629938095808029
1746729176295453400,2.389453369140625,0.0002823653630912304,0.0006109639070928097,-0.001754961209371686
1746729176305470700,2.399470703125,-0.0014393683522939682,0.000504703726619482,0.002482660813257098
1746729176315488500,2.409488525390625,-0.0013975179754197598,-0.0006076213903725147,-0.0005091794300824404
1746729176325505800,2.419505859375,-0.0011519747786223888,0.0027452982030808926,-0.0005507245659828186
1746729176335523600,2.429523681640625,-0.0014262422919273376,-0.0008558230474591255,0.0012939264997839928
1746729176345540600,2.43954052734375,-0.0004765591584146023,0.0010619191452860832,0.0012129663955420256
1746729176355557600,2.4495576171875,-0.0001664259470999241,-0.00015832995995879173,0.0010228082537651062
1746729176365575400,2.459575439453125,0.0001574140042066574,0.00027443375438451767,0.0008960417471826077
1746729176375592700,2.4695927734375,-0.0011205277405679226,0.0012977155856788158,-0.0006623815279453993
1746729176385609700,2.479609619140625,-0.0012033521197736263,-0.00035584112629294395,0.0012835902161896229
1746729176395627800,2.489627685546875,-0.000967356376349926,-0.0020216128323227167,-0.0006712318863719702
1746729176405644500,2.49964453125,0.0007003149949014187,-0.00022717472165822983,-0.00042861769907176495
1746729176415662600,2.50966259765625,0.0007217796519398689,0.0010702083818614483,0.00019234884530305862
1746729176425679600,2.5196796875,-0.001429788302630186,0.0002028169110417366,0.0013580144150182605
1746729176435697700,2.52969775390625,0.001653927844017744,-0.0006664791144430637,-0.0009788228198885918
1746729176445714700,2.539714599609375,0.0006144959479570389,0.001007317565381527,-0.00038041057996451855
1746729176455731700,2.549731689453125,0.0012253092136234045,-0.0004995260387659073,-0.0014939983375370502
1746729176465749800,2.559749755859375,-0.0006239898502826691,0.00036227283999323845,-0.0025896229781210423
1746729176475766800,2.569766845703125,0.000019272323697805405,0.00009980285540223122,0.000041476450860500336
1746729176485783600,2.579783447265625,0.002280828543007374,0.0003389543853700161,0.00002389959990978241
1746729176495801600,2.589801513671875,0.000503856223076582,-0.00013841036707162857,-0.001400443259626627
1746729176505818600,2.599818603515625,0.000033542048186063766,0.0009321803227066994,-0.0019727563485503197
1746729176515836700,2.609836669921875,-0.0004903040826320648,0.0007128529250621796,0.00042378436774015427
1746729176525853700,2.619853759765625,-0.0007038898766040802,0.0007831603288650513,0.0008845112752169371
1746729176535870500,2.629870361328125,0.0009011072106659412,0.0009192950092256069,-0.0025223921984434128
1746729176545888800,2.639888671875,-0.00015856465324759483,-0.0003305263817310333,-0.0006914688274264336
1746729176555905500,2.649905517578125,0.001022161915898323,0.0010992311872541904,-0.0008830814622342587
1746729176565923600,2.659923583984375,-0.001637803390622139,-0.0008973404765129089,0.0027678459882736206
1746729176575940600,2.669940673828125,0.0002606264315545559,0.00029975129291415215,0.0002461308613419533
1746729176585957600,2.67995751953125,0.0002659526653587818,0.0003064093180000782,0.0002370760776102543
1746729176595975700,2.6899755859375,0.0006330595351755619,0.0005487794987857342,-0.00006908085197210312
1746729176605992400,2.699992431640625,-0.0017233053222298622,-0.00012047309428453445,0.0026494739577174187
1746729176616010800,2.7100107421875,0.000734458677470684,0.002441457472741604,0.0016172620235010982
1746729176626027500,2.720027587890625,0.0019033201970160007,-0.0015165326185524464,0.000059845391660928726
1746729176636044800,2.730044921875,-0.0010121800005435944,0.000018132850527763367,-0.0018110685050487518
1746729176646062600,2.7400625,-0.0031648133881390095,0.000857294537127018,-0.00006616557948291302
1746729176656079600,2.75007958984375,-0.00013779476284980774,-0.00019629625603556633,0.0003514643758535385
1746729176666097700,2.76009765625,0.0017964590806514025,0.0006327456794679165,0.0008571986109018326
1746729176676114400,2.770114501953125,0.0015194264706224203,0.001021453645080328,-0.0018227002583444118
1746729176686131700,2.780131591796875,-0.0005333381704986095,-0.00041665323078632355,-0.00037260912358760834
1746729176696149500,2.7901494140625,0.003346414305269718,-0.0023235571570694447,-0.0007632041815668344
1746729176706166800,2.800166748046875,0.0011786012910306454,-0.000327251385897398,0.00006397394463419914
1746729176716184600,2.8101845703125,0.00026057055220007896,-0.0009413491934537888,-0.0009894843678921461
1746729176726201600,2.82020166015625,-0.002311243675649166,0.0010973005555570126,0.004511008504778147
1746729176736218600,2.830218505859375,0.0031548214610666037,0.0030938847921788692,-0.0021606378722935915
1746729176746236700,2.840236572265625,0.000027737580239772797,0.002100259531289339,0.00042209564708173275
1746729176756253700,2.850253662109375,-0.0016803420148789883,-0.0000901990570127964,-0.0024790121242403984
1746729176766271500,2.860271484375,0.00038786884397268295,0.0002528158947825432,-0.00038736569695174694
1746729176776288800,2.870288818359375,0.0012890754733234644,-0.0008958964608609676,0.0007543822284787893
1746729176786305800,2.880305908203125,0.0005132965743541718,0.00021304376423358917,-0.0007239384576678276
1746729176796323600,2.890323486328125,-0.0006935438141226768,0.0004503983072936535,-0.00025906460359692574
1746729176806340600,2.900340576171875,0.0017379224300384521,0.002170267980545759,-0.00029768049716949463
1746729176816358700,2.910358642578125,0.0007419195026159286,0.0011215414851903915,-0.0004163738340139389
1746729176826375700,2.920375732421875,-0.001713248435407877,0.00316019169986248,0.0011495649814605713
1746729176836392700,2.930392822265625,0.001366703538224101,-0.0006589298136532307,-0.0003139479085803032
1746729176846410800,2.94041064453125,-0.0014953957870602608,0.00044814636930823326,0.0024906271137297153
1746729176856427800,2.950427734375,-0.00025681639090180397,-0.00028563663363456726,-0.0010957170743495226
1746729176866445600,2.960445556640625,-0.0003233952447772026,-0.001442247536033392,0.00030004559084773064
1746729176876462600,2.970462646484375,-0.0001660599373281002,0.0003756391815841198,-0.0009139657486230135
1746729176886479600,2.980479736328125,0.0010254383087158203,-0.000005992129445075989,-0.0014436685014516115
1746729176896497700,2.99049755859375,0.000247439369559288,-0.000600204337388277,0.0001189445611089468
1746729176906514700,3.0005146484375,0.0019494653679430485,-0.0004010000266134739,-0.0023263702169060707
1746729176916532700,3.01053271484375,0.0011034482158720493,0.0013698367401957512,0.002676576841622591
1746729176926549800,3.0205498046875,0.00011781230568885803,0.000060360413044691086,0.002598546212539077
1746729176936566300,3.030566162109375,0.0007885973900556564,0.0004401039332151413,0.0017324697691947222
1746729176946584600,3.04058447265625,0.000030395574867725372,0.0007951031439006329,-0.0015578658785670996
1746729176956601300,3.050601318359375,0.00043220585212111473,-0.0004837331362068653,0.0004623869899660349
1746729176966619100,3.060619140625,0.0015203733928501606,-0.0005255448631942272,0.0001758309081196785
1746729176976636400,3.070636474609375,0.0009078499861061573,0.0003095683641731739,0.0013362967874854803
1746729176986653400,3.0806533203125,0.0008013234473764896,0.0015615206211805344,-0.00015107868239283562
1746729176996671500,3.09067138671875,0.0013927090913057327,-0.0005533299408853054,0.00034523312933743
1746729177006688300,3.100688232421875,0.0004667281173169613,-0.0012966180220246315,-0.002258539432659745
1746729177016706600,3.11070654296875,-0.00011434406042098999,0.0007479572668671608,0.0009733366314321756
1746729177026723300,3.120723388671875,-0.0013519152998924255,-0.0013524782843887806,0.002107044216245413
1746729177036740400,3.130740234375,0.0024046432226896286,-0.00010550627484917641,0.0021342935506254435
1746729177046758400,3.14075830078125,0.0005769156850874424,0.00002339109778404236,-0.0005009043961763382
1746729177056775400,3.150775390625,0.000997438095510006,-0.00001910841092467308,0.0005482090637087822
1746729177066793500,3.16079345703125,0.0014496427029371262,-0.0007757125422358513,-0.0014883102849125862
1746729177076810200,3.170810302734375,0.0005390550941228867,0.00048287399113178253,-0.0010518936906009912
1746729177086827300,3.1808271484375,0.0010594367049634457,0.0018285689875483513,-0.001339514972642064
1746729177096845300,3.19084521484375,0.0029500166419893503,-0.0006835153326392174,-0.000574581092223525
1746729177106862300,3.2008623046875,-0.001388805452734232,-0.0018347997684031725,-0.0012941674795001745
1746729177116880400,3.21088037109375,0.0019804879557341337,0.000596669502556324,-0.0008933402132242918
1746729177126897400,3.2208974609375,0.0004544965922832489,0.0005311556160449982,-0.0012251704465597868
1746729177136914200,3.2309140625,0.00002586236223578453,0.0001343446783721447,0.00028663966804742813
1746729177146932500,3.240932373046875,0.001407776726409793,-0.003178094979375601,-0.002105944324284792
1746729177156949200,3.25094921875,0.0012227720580995083,0.001125470269471407,0.00020261178724467754
1746729177166967300,3.26096728515625,-0.0017884639091789722,-0.000511308666318655,-0.000034409575164318085
1746729177176984300,3.270984375,-0.00021692737936973572,0.00045058224350214005,0.00015338673256337643
1746729177187001300,3.28100146484375,-0.002725092228502035,0.00011076312512159348,-0.0013704742304980755
1746729177197019400,3.291019287109375,0.0009481292217969894,-0.00033301813527941704,0.001342003233730793
1746729177207036200,3.3010361328125,0.001102859154343605,-0.0002113119699060917,-0.0011331385467201471
1746729177217054500,3.311054443359375,0.0005798172205686569,-0.00022566458210349083,-0.0003399492707103491
1746729177227071200,3.3210712890625,-0.0014870623126626015,0.00047048600390553474,-0.0009471499361097813
1746729177237088500,3.331088623046875,0.000983462668955326,-0.003905834164470434,-0.002447551814839244
1746729177247106300,3.341106201171875,-0.0003422587178647518,0.000819146167486906,0.0010691522620618343
1746729177257123300,3.351123291015625,-0.0029178643599152565,0.00010838126763701439,-0.0013364388141781092
1746729177267141400,3.361141357421875,-0.0014850837178528309,-0.0006434288807213306,-0.0008093991782516241
1746729177277158100,3.371158203125,-0.0005454095080494881,-0.0002826177515089512,0.00044234958477318287
1746729177287175400,3.381175537109375,0.00106819998472929,0.0005056778900325298,-0.0005113284569233656
1746729177297193200,3.391193115234375,-0.00017734337598085403,0.002962234430015087,-0.002270034048706293
1746729177307210500,3.40121044921875,0.000665813684463501,0.0011643338948488235,0.001002191798761487
1746729177317228300,3.411228271484375,0.00005182018503546715,0.0008222116157412529,0.00037317024543881416
1746729177327245300,3.421245361328125,-0.0004738876596093178,0.0009732129983603954,-0.0014891785103827715
1746729177337262300,3.431262451171875,0.00047543318942189217,0.0004420648328959942,0.00013990909792482853
1746729177347280400,3.4412802734375,0.001286898273974657,0.0016980119980871677,-0.0012358799576759338
1746729177357297400,3.45129736328125,0.0010658542159944773,-0.0012136953882873058,-0.000219808891415596
1746729177367315200,3.461315185546875,0.0007518674246966839,0.0008044480346143246,0.0006324027199298143
1746729177377332500,3.47133251953125,0.000049501191824674606,-0.0016502798534929752,0.0011442725080996752
1746729177387349200,3.481349365234375,-0.00001867581158876419,0.0005311155691742897,0.0011432073079049587
1746729177397367300,3.4913671875,0.0002984846942126751,0.0006802710704505444,-0.0006706174463033676
1746729177407384300,3.50138427734375,-0.0019369726069271564,-0.001081676222383976,0.0002590920776128769
1746729177417402400,3.51140234375,0.0016794821713119745,-0.0024429801851511,0.00008018733933568001
1746729177427419400,3.52141943359375,0.0015122357290238142,0.0008912975899875164,0.00000801566056907177
1746729177437436400,3.5314365234375,0.0019948144908994436,-0.00016504479572176933,0.00036185956560075283
1746729177447454500,3.541454345703125,0.0016781645826995373,-0.00010352581739425659,-0.00002456502988934517
1746729177457471500,3.551471435546875,-0.0005668140947818756,0.0018319450318813324,-0.00019342545419931412
1746729177467489300,3.5614892578125,-0.00006107939407229424,0.0003943708725273609,-0.0006110090762376785
1746729177477506300,3.57150634765625,0.001773969503119588,-0.0008004829287528992,0.0008051788900047541
1746729177487523300,3.5815234375,0.001349195372313261,0.0013391007669270039,0.0005543089937418699
1746729177497541400,3.591541259765625,-0.0006867661140859127,-0.00036827102303504944,-0.002041126601397991
1746729177507558400,3.601558349609375,0.000187017023563385,0.00004398589953780174,-0.0011279284954071045
1746729177517576400,3.611576416015625,-0.00196863804012537,0.000913914293050766,0.002716694725677371
1746729177527593500,3.621593505859375,-0.0008471808396279812,0.0014550690539181232,-0.001385372132062912
1746729177537610200,3.6316103515625,-0.0004250854253768921,-0.0037193214520812035,0.00023288489319384098
1746729177547628300,3.641628173828125,-0.0011129803024232388,0.0018834369257092476,0.0020411713048815727
1746729177557645300,3.651645263671875,0.0012037809938192368,0.0006658593192696571,-0.0004211899358779192
1746729177567663400,3.661663330078125,-0.0013139713555574417,0.0013023549690842628,-0.0013226699084043503
1746729177577680400,3.671680419921875,0.00015016784891486168,-0.00024097692221403122,0.0006318159867078066
1746729177587697200,3.681697265625,-0.000233593862503767,0.0017430782318115234,0.0017796383472159505
1746729177597715500,3.691715576171875,0.0005080546252429485,0.001668327022343874,0.00013561546802520752
1746729177607732200,3.701732177734375,0.0002521248534321785,-0.00020067906007170677,-0.002265224466100335
1746729177617750500,3.71175048828125,0.0005595879629254341,-0.0018821912817656994,-0.0016186938155442476
1746729177627767300,3.721767333984375,-0.0016335253603756428,-0.0015250612050294876,-0.0008791338186711073
1746729177637784300,3.731784423828125,0.000677578616887331,-0.0002699056640267372,0.0004219838883727789
1746729177647802400,3.74180224609375,0.001188905443996191,0.000748487189412117,-0.0013040108606219292
1746729177657819400,3.7518193359375,0.002050288487225771,0.0001285271719098091,-0.0013687952887266874
1746729177667837400,3.76183740234375,0.0001314808614552021,-0.0016139792278409004,0.0032706977799534798
1746729177677854200,3.771854248046875,-0.00021052313968539238,-0.0008046231232583523,-0.001479886006563902
1746729177687871500,3.78187158203125,0.000462457537651062,0.0027805245481431484,0.00003705057315528393
1746729177697889300,3.79188916015625,0.000523583497852087,0.0009318916127085686,-0.000020370585843920708
1746729177707906300,3.80190625,0.0009219925850629807,0.000020558014512062073,0.0001415496226400137
1746729177717924400,3.81192431640625,0.00046046776697039604,0.001296929083764553,-0.0002591940574347973
1746729177727941400,3.82194140625,0.00031292857602238655,0.001017297152429819,0.000497676432132721
1746729177737958400,3.83195849609375,0.0009192642755806446,0.0010956400074064732,0.00019868044182658195
1746729177747976200,3.84197607421875,-0.002359353005886078,-0.0003235586918890476,0.0007174641359597445
1746729177757993500,3.851993408203125,0.00023643486201763153,-0.00035268766805529594,-0.0006218261551111937
1746729177768011300,3.86201123046875,-0.0005401428788900375,0.00013094255700707436,0.0004053551238030195
1746729177778028300,3.8720283203125,-0.0008441931568086147,0.0019038449972867966,-0.00003985688090324402
1746729177788045300,3.88204541015625,-0.0019062617793679237,0.0011163484305143356,0.00030688662081956863
1746729177798063400,3.8920634765625,0.002280688378959894,0.0007093301974236965,-0.0021679929923266172
1746729177808080400,3.902080322265625,0.0011685523204505444,0.0020185401663184166,0.0016395283164456487
1746729177818098400,3.912098388671875,0.0006293226033449173,0.0019933106377720833,-0.0013972988817840815
1746729177828115500,3.922115478515625,0.0005787224508821964,-0.000004060100764036179,-0.0017267318908125162
1746729177838132500,3.932132568359375,0.0021339564118534327,0.0007741451263427734,-0.0018184306100010872
1746729177848150300,3.942150390625,-0.00019417889416217804,-0.0009425287134945393,0.000520091038197279
1746729177858167300,3.952167236328125,0.0003131413832306862,0.0009651738218963146,0.0024573244154453278
1746729177868185300,3.962185302734375,0.002205850090831518,0.0017835632897913456,0.00017393031157553196
1746729177878202400,3.972202392578125,0.0023387318942695856,-0.0009290692396461964,-0.00006982986815273762
1746729177888219400,3.982219482421875,0.002054838929325342,0.000872293021529913,0.0024364711716771126
1746729177898237400,3.992237548828125,0.0027965193148702383,-0.0019075749441981316,0.001003430923447013
1746729177908254500,4.00225439453125,-0.000042144209146499634,0.00019712140783667564,-0.00007328507490456104
1746729177918272300,4.012272216796875,0.0005344953387975693,0.0015537827275693417,-0.0019028452225029469
1746729177928289500,4.02228955078125,0.0022152161691337824,0.001233670860528946,-0.00011266837827861309
1746729177938306000,4.03230615234375,0.00024008937180042267,0.002184032928198576,0.001488637295551598
1746729177948324000,4.042323974609375,0.00032930541783571243,-0.00017313100397586823,0.0016865101642906666
1746729177958341000,4.052341064453125,0.0002778349444270134,0.0008621164597570896,-0.002583440626040101
1746729177968359000,4.06235888671875,0.0011255191639065742,0.0008858181536197662,-0.0014289605896919966
1746729177978376200,4.072376220703125,0.0018461097497493029,0.0011845794506371021,-0.0004782720934599638
1746729177988393000,4.08239306640625,-0.0005760351195931435,-0.0011275773867964745,-0.002018644707277417
1746729177998411300,4.092411376953125,0.0009112274274230003,-0.00034180935472249985,-0.001221186714246869
1746729178008428000,4.102427978515625,0.0006515691056847572,0.001805497333407402,-0.0027479769196361303
1746729178018446000,4.112446044921875,0.0011643669568002224,0.0031746020540595055,0.00041469279676675797
1746729178028463000,4.122463134765625,0.00019018258899450302,-0.0004976307973265648,-0.0007981106173247099
1746729178038480100,4.132480224609375,-0.00242861220613122,-0.00046442216262221336,-0.000043890904635190964
1746729178048498200,4.142498291015625,0.0011629268992692232,-0.000829008873552084,0.0006088500376790762
1746729178058515000,4.152514892578125,0.0012966946233063936,0.0018471619114279747,-0.0020944697316735983
1746729178068533200,4.162533203125,0.00010599521920084953,0.00034673698246479034,0.0014222345780581236
1746729178078550000,4.172550048828125,-0.0007131043821573257,-0.0003135153092443943,-0.0007590551394969225
1746729178088567000,4.182567138671875,-0.0004244176670908928,-0.001433640718460083,0.00037918007001280785
1746729178098585000,4.192585205078125,-0.0006843986921012402,-0.0008711679838597775,-0.00027008005417883396
1746729178108602000,4.20260205078125,0.001383013091981411,0.0041424985975027084,0.0022716408129781485
1746729178118620200,4.2126201171875,-0.0004923669621348381,-0.0006759245879948139,-0.0022395981941372156
1746729178128637200,4.22263720703125,-0.0008953036740422249,-0.002175017958506942,0.0011759060434997082
1746729178138654000,4.232654052734375,0.0012676520273089409,-0.0009798738174140453,0.0005365023389458656
1746729178148672000,4.242672119140625,-0.0005920333787798882,-0.0018427381291985512,-0.00026324507780373096
1746729178158689000,4.25268896484375,-0.000658784992992878,-0.00021852413192391396,-0.0010689632035791874
1746729178168707000,4.26270703125,-0.0004992615431547165,-0.001235318835824728,-0.0006676251068711281
1746729178178724000,4.27272412109375,0.0013656176161020994,0.00019973423331975937,0.0014558492694050074
1746729178188741000,4.2827412109375,-0.0011777011677622795,-0.0009118691086769104,-0.001352720195427537
1746729178198759200,4.29275927734375,0.000021195970475673676,-0.00026414496824145317,-0.0009095484856516123
1746729178208776000,4.30277587890625,-0.0008794846944510937,-0.000630596186965704,-0.00025867181830108166
1746729178218794000,4.3127939453125,0.00019766902551054955,-0.0005198372527956963,-0.0008324095979332924
1746729178228811000,4.32281103515625,-0.0003432189114391804,0.00043250899761915207,0.00008717970922589302
1746729178238828300,4.332828369140625,-0.0007760380394756794,0.0019093859009444714,0.0013501935172826052
1746729178248846000,4.34284619140625,0.0020849956199526787,-0.00009837141260504723,0.0009102392941713333
1746729178258863000,4.352863037109375,-0.0004213498905301094,-0.0011318284086883068,0.0009319661185145378
1746729178268881200,4.362881103515625,-0.000055431388318538666,-0.0004117097705602646,0.000999876530840993
1746729178278898000,4.37289794921875,0.001164379296824336,0.0006702407263219357,0.0009057538118213415
1746729178288915200,4.382915283203125,-0.0007544285617768764,0.0008454769849777222,-0.003560367040336132
1746729178298933000,4.39293310546875,0.000802171416580677,-0.0005618385039269924,0.0020703100599348545
1746729178308950300,4.4029501953125,0.0004466394893825054,-0.00004784855991601944,-0.00034863920882344246
1746729178318968000,4.412968017578125,0.00012667803093791008,-0.0002739490009844303,-0.0012918638531118631
1746729178328985000,4.422985107421875,-0.00045309215784072876,-0.0010950015857815742,-0.0011627005878835917
1746729178339002000,4.433002197265625,-0.0005604177713394165,-0.0008566486649215221,0.0007284102030098438
1746729178349020000,4.44302001953125,0.0003782762214541435,-0.0009083985351026058,-0.0002536813262850046
1746729178359037200,4.453037109375,0.0009495401754975319,0.0016791815869510174,-0.0030932363588362932
1746729178369055000,4.463054931640625,0.00046351319178938866,0.00019606715068221092,-0.00039998162537813187
1746729178379072300,4.473072265625,0.000497791450470686,-0.002195375505834818,-0.001088782213628292
1746729178389089000,4.483089111328125,-0.001104632392525673,0.0023186826147139072,0.00033467751927673817
1746729178399107000,4.493107177734375,-0.0004008677788078785,0.0002955188974738121,0.002703358419239521
1746729178409124000,4.5031240234375,-0.0012586717493832111,0.0004851357080042362,0.002670335117727518
1746729178419142000,4.513141845703125,0.0011703346390277147,6.51925802230835e-8,0.0045799072831869125
1746729178429159200,4.5231591796875,-0.00033887848258018494,-0.0020649500656872988,0.002517289249226451
1746729178439176200,4.53317626953125,-0.0036069191992282867,-0.00257151760160923,-0.0012430611532181501
1746729178449194200,4.5431943359375,-0.0007272427901625633,-0.00019517913460731506,-0.00006061745807528496
1746729178459211000,4.5532109375,-0.0006290758028626442,0.0006027687340974808,0.0005625991616398096
1746729178469229000,4.56322900390625,0.0014852078165858984,0.0014200927689671516,0.0011554188095033169
1746729178479246000,4.57324609375,-0.00009763799607753754,0.0014864825643599033,0.0008823815733194351
1746729178489263000,4.58326318359375,-0.00039111869409680367,0.00012294389307498932,0.000025642570108175278
1746729178499281200,4.59328125,0.0006630271673202515,-0.00013264967128634453,-0.000901468563824892
1746729178509298200,4.603298095703125,-0.0001074252650141716,-0.000824805349111557,0.0011821887455880642
1746729178519316200,4.613316162109375,-0.00025843922048807144,0.001559693831950426,-0.00002495432272553444
1746729178529333000,4.6233330078125,0.00011520227417349815,0.00019908510148525238,0.00026080268435180187
1746729178539350000,4.63335009765625,0.0012000356800854206,0.0006167683750391006,0.0004346156492829323
1746729178549368000,4.6433681640625,0.000051680486649274826,0.0009789583273231983,0.00017735431902110577
1746729178559385000,4.653385009765625,0.0022143549285829067,0.00016594398766756058,0.0014164962340146303
1746729178569403100,4.663403076171875,-0.00038995034992694855,-0.0002806680276989937,-0.0003353310748934746
1746729178579420200,4.673420166015625,-0.00021576648578047752,0.00015206867828965187,-0.00035800994373857975
1746729178589437000,4.68343701171875,-0.00040937820449471474,-0.0006756414659321308,0.0001429305411875248
1746729178599455200,4.693455322265625,-0.00104242330417037,-0.0010565519332885742,-0.002002218272536993
1746729178609472000,4.703471923828125,0.00005639716982841492,-0.0021295396145433187,-0.002031513024121523
1746729178619490000,4.713489990234375,0.00022902991622686386,0.00005056895315647125,0.004316339734941721
1746729178629507000,4.723507080078125,-0.0004253089427947998,-0.0011435924097895622,-0.0017908213194459677
1746729178639524000,4.733524169921875,0.00022616377100348473,0.0003208322450518608,-0.00006823637522757053
1746729178649542100,4.743542236328125,0.002156156813725829,-0.00021020183339715004,0.00303274835459888
1746729178659559000,4.753558837890625,0.0009060129523277283,0.00047993985936045647,-0.0003623941447585821
1746729178669577200,4.7635771484375,-0.0013773813843727112,-0.0033030803315341473,-0.0009309791494160891
1746729178679594000,4.773593994140625,0.0031596922781318426,0.0008566430769860744,-0.0022060514893382788
1746729178689611300,4.783611328125,-0.000837978906929493,-0.0010286085307598114,0.0001657595857977867
1746729178699629000,4.793629150390625,0.0009758020751178265,-0.00020973104983568192,-0.0015945981722325087
1746729178709646000,4.80364599609375,0.0010383862536400557,-0.0018912507221102715,-0.0034950298722833395
1746729178719664000,4.8136640625,0.0003876783885061741,0.002191574312746525,0.002657283330336213
1746729178729681000,4.823680908203125,0.001117384759709239,-0.0002268422394990921,-0.0006516941357403994
1746729178739698200,4.8336982421875,0.0010310981888324022,0.0005617295391857624,-0.0009832857176661491
1746729178749716000,4.843716064453125,0.0011717129964381456,-0.0006457478739321232,-0.001048266887664795
1746729178759733200,4.853733154296875,-0.000719729345291853,-0.000640104990452528,0.00013491790741682053
1746729178769751000,4.8637509765625,0.0007154480554163456,0.0008089207112789154,-0.0006102344486862421
1746729178779768000,4.87376806640625,-0.00016357190907001495,-0.0007929466664791107,-0.0016606745775789022
1746729178789786000,4.8837861328125,0.0022971888538450003,-0.002040104940533638,0.0005806419067084789
1746729178799803100,4.89380322265625,0.0003761458210647106,0.0006183283403515816,0.0005988066550344229
1746729178809820200,4.903820068359375,-0.0006473073735833168,0.0013765301555395126,0.000026759691536426544
1746729178819838000,4.913837890625,-0.00039607705548405647,-0.00017924094572663307,0.0009719550143927336
1746729178829855200,4.923855224609375,-0.00006264913827180862,-0.001749174203723669,-0.0009569725953042507
1746729178839872000,4.9338720703125,0.002206238452345133,-0.000474338885396719,-0.00009463634341955185
1746729178849890000,4.94389013671875,-0.000494473148137331,-0.0008059022948145866,0.0017892838222905993
1746729178859907000,4.953906982421875,-0.000749475322663784,0.00028113462030887604,0.0036686277016997337
1746729178869925000,4.963925048828125,-0.0014472235925495625,0.0017831576988101006,0.00005125603638589382
1746729178879942100,4.973942138671875,0.0003896839916706085,-0.0011625969782471657,-0.0004776078276336193
1746729178889959200,4.983959228515625,-0.000019111204892396927,-0.00008641369640827179,0.0007913883309811354
1746729178899977200,4.993977294921875,0.0001697475090622902,0.0016055833548307419,0.0016273710643872619
1746729178909994200,5.003994140625,0.0008765505626797676,-0.0009909984655678272,0.00316827604547143
1746729178920012000,5.014011962890625,-0.000496910884976387,-0.00010604877024888992,-0.000700006727129221
1746729178930029000,5.024029052734375,0.00013106223195791245,-0.000029616057872772217,0.00014581321738660336
1746729178940047400,5.03404736328125,0.00037285778671503067,0.0004149060696363449,-0.0009187094401568174
1746729178950064000,5.044064208984375,0.0019268123432993889,-0.00043677259236574173,-0.002366936532780528
1746729178960081400,5.054081298828125,0.0010398428421467543,0.0016948869451880455,0.0004298440180718899
1746729178970099200,5.06409912109375,-0.001388160977512598,-0.00003137392923235893,0.000005602370947599411
1746729178980116200,5.0741162109375,0.001522295642644167,-0.000313829630613327,-0.0002498107496649027
1746729178990134300,5.08413427734375,0.0010780803859233856,-0.0015149153769016266,-0.0009321123361587524
1746729179000151000,5.094151123046875,0.0008729822002351284,0.0003596763126552105,-0.0009214919991791248
1746729179010168300,5.104168212890625,-0.00011505046859383583,0.00029496150091290474,-0.00028180074878036976
1746729179020186000,5.11418603515625,0.00026265205815434456,-0.001117122359573841,-0.0019282631110399961
1746729179030203400,5.124203369140625,-0.0012036841362714767,-0.0011022086255252361,0.000967125641182065
1746729179040220200,5.13422021484375,-0.00026684580370783806,-0.002363664796575904,-0.0020227129571139812
1746729179050238200,5.14423828125,-0.00012649735435843468,-0.0004895981401205063,-0.0013555912300944328
1746729179060255200,5.154255126953125,0.0015669611748307943,-0.0015211156569421291,0.001800544443540275
1746729179070273300,5.164273193359375,-0.0009571826085448265,-0.001837233081459999,0.0016756420955061913
1746729179080290300,5.174290283203125,-0.0008562682196497917,-0.001673753373324871,-0.0005003081168979406
1746729179090308000,5.18430810546875,-0.0004975404590368271,0.00006369315087795258,0.00003818306140601635
1746729179100325000,5.1943251953125,0.001295306719839573,0.0002089785411953926,-0.002862001536414027
1746729179110342100,5.204342041015625,-0.0012498763389885426,-0.000986780971288681,0.001795334741473198
1746729179120360200,5.214360107421875,0.0008066021837294102,0.00014076707884669304,-0.0001575089991092682
1746729179130377200,5.224377197265625,-0.0006669247522950172,-0.0011708396486938,-0.0033738084603101015
1746729179140395300,5.234395263671875,0.0005355533212423325,-0.0016157790087163448,0.0006001545116305351
1746729179150412300,5.244412353515625,0.0008820304647088051,0.00019623572006821632,-0.0006387480534613132
1746729179160429300,5.25442919921875,0.0018684880342334509,0.0017211539670825005,-0.001656311796978116
1746729179170447000,5.264447021484375,-0.0007656444795429707,0.0006042239256203175,0.0008867408614605665
1746729179180464400,5.27446435546875,-0.0005014208145439625,0.001164402812719345,-0.0008068331517279148
1746729179190482200,5.284482177734375,0.003098906483501196,-0.0010651955381035805,-0.000729601364582777
1746729179200499200,5.294499267578125,0.0005225623026490211,-0.0002321247011423111,0.0005119943525642157
1746729179210516200,5.30451611328125,-0.00013417331501841545,0.0012661698274314404,0.0019205402350053191
1746729179220534300,5.3145341796875,-0.0008454020135104656,0.0002794228494167328,0.00018217158503830433
1746729179230551300,5.32455126953125,-0.0001303432509303093,0.0011998112313449383,-0.0004314207471907139
1746729179240569000,5.334569091796875,-0.0007272572256624699,-0.0007759295403957367,0.00015124212950468063
1746729179250586400,5.34458642578125,-0.00023963255807757378,0.0005308836698532104,-0.0019880749750882387
1746729179260603100,5.35460302734375,-0.0007241866551339626,-0.0022848257794976234,0.0018391835037618876
1746729179270621200,5.36462109375,-0.0013337843120098114,-0.001096789725124836,0.0038437447510659695
1746729179280638200,5.37463818359375,0.0017452596221119165,-0.0007060682401061058,0.0014434800250455737
1746729179290656300,5.38465625,-0.0016569285653531551,-0.000153995119035244,-0.0004729307256639004
1746729179300673300,5.39467333984375,-0.0016964925453066826,-0.0011039217934012413,0.002708856714889407
1746729179310690000,5.40468994140625,-0.0030597643926739693,0.00023484928533434868,-0.0002560405991971493
1746729179320708400,5.414708251953125,0.0010854213032871485,-0.0007770056836307049,0.0005755431484431028
1746729179330725000,5.42472509765625,0.00041350582614541054,-0.000058218371123075485,-0.001206910703331232
1746729179340743400,5.434743408203125,0.002464903984218836,-0.00022799940779805183,-0.00018430338241159916
1746729179350760200,5.44476025390625,-0.00040518492460250854,-0.0003467765636742115,0.00070519233122468
1746729179360777200,5.454777099609375,0.0007737306877970695,-0.001178458333015442,0.0019850963726639748
1746729179370795300,5.464795166015625,-0.0012979423627257347,0.00044899946078658104,0.0020133256912231445
1746729179380812300,5.474812255859375,0.0013766365591436625,-0.0021047289483249187,-0.001048804260790348
1746729179390830300,5.484830322265625,0.0004541175439953804,-0.0017124451696872711,-0.00016330298967659473
1746729179400847000,5.49484716796875,0.0007560653612017632,0.0002492307685315609,0.0025209581945091486
1746729179410864000,5.504864013671875,0.0007589948363602161,0.00036268122494220734,0.0022437232546508312
1746729179420882200,5.514882080078125,-0.0015061045996844769,-0.00030461233109235764,0.001527120592072606
1746729179430899200,5.524899169921875,-0.00022938475012779236,0.00002641836181282997,-0.0010638688690960407
1746729179440917200,5.534917236328125,0.000401258934289217,-0.0021195504814386368,-0.00009232060983777046
1746729179450934300,5.544934326171875,0.00017355894669890404,-0.002038323786109686,0.00046188337728381157
1746729179460951300,5.554951416015625,0.00015402818098664284,0.0008730548433959484,0.0014288016827777028
1746729179470969000,5.564968994140625,-0.00043559540063142776,-0.0006601270288228989,0.0003869731444865465
1746729179480986000,5.574986083984375,0.001120004802942276,0.0005919388495385647,-0.0011393895838409662
1746729179491004200,5.585004150390625,0.0007215961813926697,-0.001666155643761158,0.0005645009223371744
1746729179501021200,5.595021240234375,0.0006513488478958607,-0.0009667151607573032,0.0005002785474061966
1746729179511038200,5.6050380859375,0.0016140816733241081,0.0001598019152879715,-0.0010044074151664972
1746729179521056300,5.61505615234375,0.0011297299060970545,-0.0013184151612222195,-0.0018772243056446314
1746729179531073300,5.6250732421875,-0.0009299591183662415,-0.00009069778025150299,0.0012490605004131794
1746729179541091300,5.63509130859375,0.0011310442350804806,0.0004132762551307678,0.00024044071324169636
1746729179551108000,5.645108154296875,0.0021092232782393694,-0.00003440072759985924,-0.0011140431743115187
1746729179561125400,5.65512548828125,0.0004940466023981571,0.000544282142072916,0.0031673870980739594
1746729179571143200,5.66514306640625,-0.0013890746049582958,0.0001834239810705185,-0.000027873553335666656
1746729179581160200,5.67516015625,-0.00003156810998916626,-0.0007117711938917637,-0.00011227838695049286
1746729179591178200,5.68517822265625,0.0010424847714602947,0.00025708694010972977,0.0007697604596614838
1746729179601195300,5.6951953125,-0.0019897576421499252,0.0015185587108135223,-0.0002841041423380375
1746729179611212300,5.70521240234375,0.001430007629096508,0.000562750268727541,0.0010525365360081196
1746729179621230000,5.71522998046875,0.00025720614939928055,-0.0016838586889207363,0.00038576056249439716
1746729179631247400,5.725247314453125,0.0004175286740064621,-0.0016098227351903915,0.0009338390082120895
1746729179641265200,5.73526513671875,-0.000492424238473177,-0.0009321090765297413,0.0006068558432161808
1746729179651282400,5.745282470703125,0.00000878283753991127,0.00040719471871852875,0.00045825145207345486
1746729179661299200,5.75529931640625,-0.00014212168753147125,-0.00033231964334845543,-0.0009344052523374557
1746729179671317200,5.765317138671875,-0.0009352113120257854,0.0010024569928646088,0.002039812970906496
1746729179681334300,5.775334228515625,-0.0005959649570286274,-0.0002056811936199665,-0.00036568986251950264
1746729179691352000,5.78535205078125,0.0004852782003581524,-0.00010368181392550468,-0.0009182959329336882
1746729179701369300,5.795369384765625,0.0007154513150453568,-0.0004991837777197361,0.0006705098785459995
1746729179711386000,5.80538623046875,-0.0013141436502337456,-0.0009239581413567066,-0.000353741692379117
1746729179721404400,5.815404296875,0.0005065281875431538,-0.0009220950305461884,-0.00024037901312112808
1746729179731421200,5.825421142578125,0.0007411525584757328,-0.00009358581155538559,-0.0011346684768795967
1746729179741439200,5.835439208984375,0.00023600319400429726,-0.00036572059616446495,-0.0001642187125980854
1746729179751456300,5.845456298828125,-0.0009720064699649811,-0.001139901578426361,-0.001885153353214264
1746729179761473300,5.855473388671875,-0.0018503679893910885,0.0008026156574487686,-0.0009072106331586838
1746729179771491300,5.8654912109375,0.0010111986193805933,-0.0007028691470623016,0.0023266656789928675
1746729179781508000,5.875508056640625,-0.002040700986981392,0.0000015585683286190033,0.0008583448361605406
1746729179791526400,5.8855263671875,-0.0007000654004514217,-0.0022924882359802723,0.0007965594995766878
1746729179801543200,5.895543212890625,-0.00003943871706724167,-0.0010206745937466621,-0.00028599007055163383
1746729179811560200,5.905560302734375,-0.00007166294381022453,0.00016230158507823944,0.0003595601301640272
1746729179821578200,5.915578125,-0.0005838219076395035,-0.0007569901645183563,-0.0003672046586871147
1746729179831595300,5.92559521484375,0.0018167516682296991,-0.0012400876730680466,-0.0023595152888447046
1746729179841613300,5.93561328125,-0.0008928012102842331,-0.0010174592025578022,-0.00016973097808659077
1746729179851630300,5.94563037109375,-0.0007143691182136536,-0.00402683112770319,0.0008806197438389063
1746729179861648400,5.9556484375,-0.00107637420296669,0.001741674728691578,-0.0004973325412720442
1746729179871665200,5.9656650390625,0.001310617197304964,-0.0005848631262779236,0.0006864424794912338
1746729179881682200,5.97568212890625,0.0009531923569738865,-0.0004960279911756516,-0.0002323624212294817
1746729179891700200,5.9857001953125,0.0001835389994084835,-0.00144997239112854,0.0027386602014303207
1746729179901717200,5.99571728515625,0.00023077009245753288,0.0012949886731803417,0.00014168955385684967
1746729179911735300,6.0057353515625,0.0013216007500886917,-0.001124759204685688,-0.002347034402191639
1746729179921752300,6.01575244140625,0.0007103676907718182,-0.00012865522876381874,0.0010946569964289665
1746729179931769000,6.02576904296875,-0.0008355970494449139,-0.00003890693187713623,-0.0000028316862881183624
1746729179941787600,6.03578759765625,-0.001348351128399372,-0.0022171426098793745,-0.0004700401332229376
1746729179951805000,6.045804931640625,-0.0004370175302028656,-0.0014474890194833279,0.0004828388337045908
1746729179961822700,6.05582275390625,-0.001673724502325058,-0.0003313194029033184,0.002673120005056262
1746729179971839700,6.06583984375,-0.00168597511947155,0.0007422007620334625,-0.0001764623448252678
1746729179981856800,6.075856689453125,0.000364585779607296,0.001032950822263956,0.0023442907258868217
1746729179991874800,6.085874755859375,-0.001253284513950348,-0.0001612105406820774,0.00005477108061313629
1746729180001891800,6.095891845703125,0.0005181753076612949,-0.0015114755369722843,0.00007525249384343624
1746729180011909600,6.10590966796875,0.00031657423824071884,0.0015634102746844292,0.0013200140092521906
1746729180021927000,6.115927001953125,0.0001592971384525299,-0.0006744107231497765,0.0025522548239678144
1746729180031943700,6.125943603515625,0.0016916801687330008,0.00015835976228117943,-0.000014499993994832039
1746729180041961700,6.135961669921875,-0.0009428746998310089,-0.0009130332618951797,0.0016446802765130997
1746729180051978800,6.145978759765625,0.00031813234090805054,-0.0008009141311049461,0.0024915654212236404
1746729180061996800,6.155996826171875,-0.0006916522979736328,-0.0013309330679476261,0.0004320691805332899
1746729180072013800,6.166013916015625,0.002744358265772462,-0.0015296046622097492,-0.0010776766575872898
1746729180082030800,6.17603076171875,-0.00011022528633475304,-0.003000490600243211,-0.000014556804671883583
1746729180092049000,6.186048828125,-0.0002766731195151806,0.0003031608648598194,-0.0032763963099569082
1746729180102066000,6.19606591796875,0.0009029228240251541,-0.0013620276004076004,0.001144489971920848
1746729180112083700,6.206083740234375,0.00046057160943746567,-0.003284296952188015,0.001142359571531415
1746729180122100700,6.216100830078125,-0.0003097238950431347,-0.0013674218207597733,0.0010038602631539106
1746729180132117800,6.22611767578125,0.003021624404937029,-0.0008150818757712841,-0.0019482539501041174
1746729180142135800,6.2361357421875,0.0006552585400640965,0.0005632359534502029,-0.0007987087592482567
1746729180152152800,6.24615283203125,-0.0038675880059599876,-0.0009494395926594734,0.0005011800676584244
1746729180162170600,6.256170654296875,-0.0007670121267437935,-0.000763320829719305,-0.001191520132124424
1746729180172188000,6.26618798828125,-0.0005478337407112122,0.000807677861303091,-0.0024266941472887993
1746729180182204700,6.27620458984375,0.0016593481414020061,0.0007840716280043125,0.0004307120107114315
1746729180192222700,6.28622265625,-0.002823018003255129,-0.0014473912306129932,0.001228594919666648
1746729180202239700,6.29623974609375,0.002913348376750946,0.0027032196521759033,-0.0006534508429467678
1746729180212257800,6.3062578125,0.0007021259516477585,0.0009806868620216846,0.0009098246227949858
1746729180222274800,6.31627490234375,-0.0016082609072327614,0.000721729826182127,0.0014913674676790833
1746729180232291600,6.32629150390625,-0.0012079877778887749,0.0006375741213560104,0.0035406698007136583
1746729180242310000,6.336309814453125,-0.0009915316477417946,-0.0005734306760132313,0.00256158085539937
1746729180252326700,6.34632666015625,-0.00114492978900671,0.00034722406417131424,0.00006992742419242859
1746729180262345000,6.356344970703125,0.000298195518553257,-0.00021198997274041176,-0.0014241233002394438
1746729180272361700,6.36636181640625,-0.0014328593388199806,0.0007230457849800587,0.00041505577974021435
1746729180282378800,6.376378662109375,-0.0011026766151189804,-0.0011527077294886112,0.00104988063685596
1746729180292396800,6.386396728515625,-0.00023235566914081573,-0.001273083034902811,0.0007838308811187744
1746729180302413800,6.396413818359375,-0.0007040668278932571,0.0029059946537017822,-0.0017014951445162296
1746729180312431900,6.406431884765625,-0.001004205085337162,0.00032885419204831123,-0.00040187244303524494
1746729180322448600,6.41644873046875,0.00048458902165293694,0.0008499706164002419,0.0011186881456524134
1746729180332467000,6.426467041015625,-0.0004403265193104744,-0.0001495140604674816,-0.0005545760504901409
1746729180342483700,6.436483642578125,-0.001742272637784481,-0.000016156118363142014,-0.0011181170120835304
1746729180352500700,6.446500732421875,-0.0019577224738895893,0.0005249981768429279,0.0008893739432096481
1746729180362518800,6.456518798828125,0.00042417319491505623,-0.0003385217860341072,0.0016073881415650249
1746729180372535800,6.466535888671875,0.00044148368760943413,0.00015682633966207504,-0.0007705483585596085
1746729180382553900,6.476553955078125,0.0007599084638059139,-0.002133720088750124,0.001020293915644288
1746729180392570600,6.486570556640625,0.00007680756971240044,0.0002681850455701351,-0.002402134472504258
1746729180402587600,6.496587646484375,0.00044789863750338554,-0.0007387283258140087,0.0016069760313257575
1746729180412605700,6.506605712890625,0.0030511387158185244,0.0009989840909838676,0.0012818039394915104
1746729180422622700,6.516622802734375,0.0010484133381396532,0.00047859735786914825,0.0004495598841458559
1746729180432640800,6.526640869140625,0.00046411575749516487,0.0017185648903250694,-0.001164581859484315
1746729180442657800,6.53665771484375,0.00016170646995306015,-0.0017612474039196968,0.00029811146669089794
1746729180452674800,6.5466748046875,-0.00018876558169722557,0.0004837973974645138,-0.0011932586785405874
1746729180462692900,6.55669287109375,0.00017879391089081764,-0.0012936689890921116,-0.002303618937730789
1746729180472709600,6.566709716796875,0.0008954503573477268,0.000049629248678684235,-0.0002471259795129299
1746729180482727700,6.576727783203125,-0.0009676404297351837,0.0012025991454720497,-0.0007564027328044176
1746729180492744700,6.58674462890625,0.0011221421882510185,-0.0004014228470623493,-0.0010243167635053396
1746729180502761700,6.59676171875,0.0010707343462854624,-0.0032963429111987352,-0.0024020627606660128
1746729180512779800,6.60677978515625,0.0008044182322919369,-0.0019770129583775997,0.0019604614935815334
1746729180522796800,6.616796875,-0.0019427025690674782,0.0006940769962966442,0.0011316121090203524
1746729180532814800,6.62681494140625,0.00048610009253025055,0.0002043214626610279,-0.0013168980367481709
1746729180542831600,6.63683154296875,0.0013539157807826996,-0.0013995897024869919,-0.0004891029093414545
1746729180552849000,6.646848876953125,0.0009097005240619183,0.0003554336726665497,0.003619355848059058
1746729180562866700,6.65686669921875,0.000029601622372865677,0.00006662821397185326,-0.00040729157626628876
1746729180572884000,6.666884033203125,0.0018538667354732752,0.00008686818182468414,-0.00025655655190348625
1746729180582901800,6.67690185546875,-0.00044528860598802567,0.0011511845514178276,0.00016498472541570663
1746729180592918800,6.686918701171875,-0.0012604822404682636,0.0003927163779735565,0.0017530276672914624
1746729180602935800,6.696935791015625,-0.001181427389383316,0.0016951044090092182,0.0001778851728886366
1746729180612953600,6.70695361328125,-0.002237903419882059,0.0009377012029290199,-0.00019069621339440346
1746729180622971000,6.716970947265625,0.00083581218495965,-0.0011141803115606308,0.0010026372037827969
1746729180632988700,6.72698876953125,-0.0016734180971980095,0.0005028913728892803,-0.00015450641512870789
1746729180643006000,6.737005859375,-0.0004368918016552925,-0.0014524874277412891,-0.0003596486058086157
1746729180653022700,6.747022705078125,-0.0023732762783765793,-0.0004961462691426277,0.0030883459839969873
1746729180663040800,6.757040771484375,-0.001249867957085371,-0.0016748514026403427,0.00020087556913495064
1746729180673057800,6.767057861328125,0.00009103352203965187,-0.0005251648835837841,0.000883177388459444
1746729180683075600,6.77707568359375,0.0018797700759023428,-0.0009309672750532627,0.0016291569918394089
1746729180693092900,6.7870927734375,0.00021795742213726044,-0.000891020055860281,-0.0012095062993466854
1746729180703109600,6.797109619140625,0.0006675543263554573,-0.001639707013964653,-0.0006510131061077118
1746729180713128000,6.8071279296875,0.0008265450596809387,0.0025832676328718662,0.0012568756937980652
1746729180723144700,6.817144775390625,0.0028210682794451714,-0.0015945709310472012,0.0003628470003604889
1746729180733162800,6.827162841796875,0.00043620774522423744,-0.001349027268588543,-0.0024228193797171116
1746729180743179800,6.8371796875,-0.0020813941955566406,-0.0013199150562286377,0.00022369856014847755
1746729180753197600,6.847197509765625,0.00033169612288475037,-0.0014261752367019653,-0.0012490293011069298
1746729180763214800,6.85721484375,0.0002118363045156002,0.0005073826760053635,0.0008170981891453266
1746729180773231900,6.86723193359375,-0.0023123081773519516,-0.0012657498009502888,0.0011587818153202534
1746729180783250000,6.87725,-0.0018324083648622036,-0.0008795848116278648,0.00016810651868581772
1746729180793266700,6.8872666015625,-0.00031866738572716713,-0.00016798824071884155,-0.002305437345057726
1746729180803285000,6.897284912109375,-0.0022351862862706184,0.000023733358830213547,0.0003520231693983078
1746729180813301800,6.9073017578125,0.000656740041449666,-0.0020838924683630466,0.0007970375008881092
1746729180823318800,6.91731884765625,0.0013419024180620909,-0.000786295160651207,-0.0011443798430263996
1746729180833336800,6.9273369140625,-0.0002496028319001198,-0.0005292999558150768,0.00020930473692715168
1746729180843353900,6.937353759765625,0.0005904468707740307,0.0005420660600066185,0.0013975957408547401
1746729180853372000,6.947371826171875,0.00016567250713706017,-0.0003008246421813965,-0.0007867289241403341
1746729180863388700,6.957388671875,0.0014821395743638277,0.0002874932251870632,-0.002535850740969181
1746729180873405700,6.96740576171875,-0.0022859671153128147,-0.002346373163163662,0.0009883102029561996
1746729180883423700,6.977423828125,0.0012851054780185223,-0.002515661995857954,-0.001211168710142374
1746729180893440800,6.987440673828125,-0.0020611565560102463,-0.0007883356884121895,0.0009976571891456842
1746729180903458800,6.997458740234375,-0.0019945167005062103,-0.0014531384222209454,0.0007441784255206585
1746729180913475800,7.007475830078125,-0.00012124935165047646,-0.0013053333386778831,-0.0003956544678658247
1746729180923492600,7.01749267578125,0.0004976578056812286,0.0005031945183873177,0.0011812520679086447
1746729180933510700,7.0275107421875,0.0006049831863492727,0.0009530023671686649,0.0006363692227751017
1746729180943529700,7.03752978515625,-0.00241180881857872,-0.00095789460465312,0.00025042775087058544
1746729180953547800,7.0475478515625,0.00019436050206422806,-0.0011017052456736565,0.00035775313153862953
1746729180963564500,7.057564453125,0.0006788994651287794,0.0001386529766023159,-0.002383795566856861
1746729180973581600,7.06758154296875,0.0021849169861525297,0.0003280038945376873,0.0029012474697083235
1746729180983599600,7.077599609375,-0.00011582998558878899,0.0005914755165576935,0.001341723371297121
1746729180993616600,7.08761669921875,0.0016770102083683014,-0.00048630591481924057,-0.00040025031194090843
1746729181003634700,7.097634765625,-0.0008294600993394852,0.00022117048501968384,0.0009611083660274744
1746729181013651700,7.107651611328125,0.0010512643493711948,0.0014198590070009232,0.002875921316444874
1746729181023668500,7.11766845703125,0.0013999382499605417,-0.00047801248729228973,-0.0029800713527947664
1746729181033686500,7.1276865234375,0.0010782282333821058,-0.000395454466342926,0.000544888898730278
1746729181043703600,7.13770361328125,0.0004716678522527218,-0.0029675245750695467,-0.0002890815958380699
1746729181053721600,7.1477216796875,-0.002252479549497366,-0.0006646891124546528,-0.0008643246255815029
1746729181063738600,7.157738525390625,-0.002604810521006584,-0.0006132014095783234,0.00035000056959688663
1746729181073755400,7.16775537109375,0.00010042823851108551,-0.001158083789050579,-0.0007197912782430649
1746729181083773700,7.177773681640625,-0.0008332603611052036,-0.0019687064923346043,-0.0025454063434153795
1746729181093790500,7.18779052734375,0.00016009854152798653,0.0005035055801272392,-0.0010178170632570982
1746729181103808800,7.197808837890625,-0.0004573063924908638,-0.0009063133038580418,-0.0004840828478336334
1746729181113825500,7.207825439453125,0.0010431185364723206,0.0015973243862390518,0.002028076909482479
1746729181123842800,7.2178427734375,-0.0010960670188069344,0.0008432199247181416,-0.0015853031072765589
1746729181133860600,7.227860595703125,0.0004206034354865551,-0.0014811870642006397,-0.0021584152709692717
1746729181143877600,7.237877685546875,0.0009740246459841728,0.0021760668605566025,-0.00323951686732471
1746729181153895700,7.247895751953125,0.0011354121379554272,0.000010383781045675278,-0.0012432110961526632
1746729181163912400,7.257912353515625,-0.0006777849048376083,-0.003530263900756836,-0.0018748196307569742
1746729181173930800,7.2679306640625,-0.00038563599810004234,-0.00221439590677619,-0.0009866554755717516
1746729181183947500,7.277947509765625,-0.000437204260379076,-0.0015026023611426353,-0.001151952426880598
1746729181193964500,7.287964599609375,0.0007753330282866955,-0.0011912789195775986,-0.002218814566731453
1746729181203982600,7.297982666015625,-0.0014105415903031826,-0.0019690152257680893,-0.00043256161734461784
1746729181213999600,7.30799951171875,0.0015532905235886574,0.00006377557292580605,-0.001301551004871726
1746729181224016600,7.3180166015625,-0.0010806932114064693,-0.0007803286425769329,0.0015975504647940397
1746729181234034400,7.328034423828125,0.0006146749947220087,-0.0021641068160533905,-0.004151947796344757
1746729181244051700,7.3380517578125,0.00023216521367430687,-0.0009081391617655754,-0.002570883836597204
1746729181254069500,7.348069580078125,0.0025701543781906366,-0.0022192136384546757,-0.0016832523979246616
1746729181264086500,7.35808642578125,0.0006353911012411118,-0.0008353423327207565,-0.0013040665071457624
1746729181274104600,7.3681044921875,-0.002348148263990879,0.0013239486142992973,-0.0011959418188780546
1746729181284121600,7.37812158203125,0.0012621637433767319,-0.0007084524258971214,-0.00381465838290751
1746729181294138600,7.388138671875,0.0009921190794557333,-0.0009870189242064953,0.00167145358864218
1746729181304156400,7.398156494140625,-0.00040452741086483,-0.0011416259221732616,-0.0017622329760342836
1746729181314173700,7.408173583984375,0.00031585758551955223,-0.0013200575485825539,0.00022581685334444046
1746729181324191500,7.41819140625,-0.0016406658105552197,0.0016940091736614704,0.0006280129309743643
1746729181334208500,7.42820849609375,0.0001314016990363598,-0.0006463769823312759,0.0009920669253915548
1746729181344225500,7.4382255859375,-0.0027578603476285934,-0.0014019627124071121,-0.0015366903971880674
1746729181354243600,7.44824365234375,0.0009021221194416285,0.0024465713649988174,0.004661018028855324
1746729181364260600,7.458260498046875,0.0003907671198248863,-0.0011168383061885834,0.0009707435965538025
1746729181374278700,7.468278564453125,-0.00025238655507564545,-0.00012694112956523895,0.0018511847592890263
1746729181384295700,7.478295654296875,0.00034003332257270813,-0.0012062294408679008,0.00022490322589874268
1746729181394312700,7.488312744140625,0.0016556347254663706,-0.002925566164776683,0.0008832367602735758
1746729181404330500,7.49833056640625,0.0013479595072567463,-0.0012215673923492432,0.0017893825424835086
1746729181414347800,7.50834765625,-0.0006344974972307682,-0.0010660383850336075,-0.0009462162852287292
1746729181424365600,7.518365478515625,-0.0011834101751446724,0.00036695878952741623,-0.0031627421267330647
1746729181434382600,7.528382568359375,0.0017157068941742182,-0.0030757093336433172,0.0003164114896208048
1746729181444399600,7.538399658203125,0.0004590447060763836,-0.0022285915911197662,-0.0007747740019112825
1746729181454417700,7.548417724609375,0.0016795711126178503,0.00043590087443590164,-0.0019343143794685602
1746729181464434700,7.5584345703125,-0.0003063124604523182,0.0012358026579022408,-0.0009072301909327507
1746729181474452500,7.568452392578125,0.00021327007561922073,0.0004799976013600826,0.0009311498142778873
1746729181484469800,7.5784697265625,0.0005634431727230549,-0.0016116295009851456,-0.0018414638470858335
1746729181494486500,7.588486572265625,-0.000005674548447132111,0.0015388899482786655,-0.0009399836417287588
1746729181504504600,7.598504638671875,0.0006871533114463091,-0.0006648036651313305,-0.00021287077106535435
1746729181514521600,7.608521484375,0.002743912860751152,0.0005120472051203251,-0.0010272653307765722
1746729181524539600,7.61853955078125,0.00022928137332201004,-0.0008182809688150883,-0.0019754006061702967
1746729181534556700,7.628556640625,-0.0011544968001544476,-0.00040788808837532997,0.0022747383918613195
1746729181544573400,7.638573486328125,-0.00008998671546578407,-0.0006100828759372234,-0.0009171674028038979
1746729181554591700,7.648591796875,-0.0013379440642893314,0.0006879419088363647,0.0013100344222038984
1746729181564608500,7.6586083984375,-0.0012229741550981998,0.001744297333061695,0.00010863551869988441
1746729181574626600,7.66862646484375,0.0019467202946543694,0.00045586004853248596,0.0011169081553816795
1746729181584643600,7.6786435546875,0.001652226084843278,-0.00005400506779551506,-0.0016413473058491945
1746729181594660600,7.68866064453125,0.0005139908753335476,0.0008781012147665024,-0.0005406630225479603
1746729181604678700,7.6986787109375,-0.0022864406928420067,0.00007723784074187279,0.00038914638571441174
1746729181614695400,7.7086953125,0.0005357111804187298,0.0008088084869086742,-0.0016774663235992193
1746729181624713700,7.718713623046875,-0.00008768215775489807,-0.0008877357468008995,-0.0018534986302256584
1746729181634730500,7.72873046875,0.0012614750303328037,-0.0008310102857649326,-0.0013272576034069061
1746729181644747500,7.73874755859375,-0.000024804845452308655,-0.0010762452147901058,-0.00008959276601672173
1746729181654765600,7.748765625,0.0013821432366967201,-0.00004480266943573952,-0.0021450205240398645
1746729181664782600,7.758782470703125,-0.0013478640466928482,0.00011659646406769753,-0.0007988992147147655
1746729181674800600,7.768800537109375,-0.0017060590907931328,-0.0033071632497012615,-0.0013075629249215126
1746729181684817700,7.778817626953125,-0.00145386578515172,-0.0043091257102787495,-0.00028196186758577824
1746729181694835700,7.788835693359375,-0.0008378769271075726,-0.0015831138007342815,0.00014840508811175823
1746729181704852500,7.7988525390625,0.002431360073387623,0.0010923980735242367,-0.0015064480248838663
1746729181714869500,7.808869384765625,-0.00295674754306674,-0.00232523656450212,-0.001839076867327094
1746729181724887600,7.818887451171875,-0.0013676006346940994,0.00023426441475749016,0.0024810777977108955
1746729181734904600,7.828904541015625,-0.001406216062605381,0.0004635625518858433,0.0014778651529923081
1746729181744922600,7.838922607421875,-0.0013841059990227222,-0.001892623957246542,-0.00015046074986457825
1746729181754939600,7.848939697265625,0.001964286435395479,0.0006941044703125954,0.000026639318093657494
1746729181764956700,7.858956787109375,0.0006502727046608925,0.0005941065028309822,0.0011952439090237021
1746729181774974500,7.868974365234375,0.0010928900446742773,0.001160826999694109,-0.0003030505031347275
1746729181784991500,7.878991455078125,0.0012714732438325882,-0.0009708884172141552,-0.000615894328802824
1746729181795009500,7.889009521484375,-0.0004665055312216282,-0.0010912632569670677,0.0012959891464561224
1746729181805026600,7.899026611328125,-0.0010038847103714943,0.001502948347479105,-0.00018007028847932816
1746729181815043600,7.909043701171875,-0.0007295790128409863,-0.000876852311193943,-0.0016437435988336802
1746729181825061600,7.9190615234375,-0.00024454155936837196,-0.003344698576256633,0.0007231989875435829
1746729181835078700,7.92907861328125,-0.002394245006144047,0.00030889222398400307,-0.0019026778172701597
1746729181845096700,7.9390966796875,0.001566415885463357,-0.003295533824712038,-0.001382230781018734
1746729181855113500,7.949113525390625,-0.0005358834750950336,0.00022862711921334267,-0.0018075378611683846
1746729181865130800,7.959130859375,-0.00075191305950284,-0.001644972711801529,-0.0013779448345303535
1746729181875148500,7.9691484375,0.00020682485774159431,0.0002703727222979069,-0.0018759560771286488
1746729181885165600,7.97916552734375,-0.0012329807505011559,0.0002883234992623329,-0.001190555514767766
1746729181895183600,7.98918359375,0.0008552037179470062,-0.0001497664488852024,0.002311235060915351
1746729181905200400,7.999200439453125,0.000477425754070282,-0.001964579802006483,-0.00017933943308889866
1746729181915217700,8.0092177734375,-0.0007942337542772293,-0.0008087679743766785,-0.0017008036375045776
1746729181925235500,8.0192353515625,-0.0013785087503492832,-0.0006671594455838203,-0.0011717155575752258
1746729181935252700,8.029252685546876,0.0018638898618519306,-0.0004855319857597351,0.0006307119037955999
1746729181945268700,8.039268798828125,-0.0009940830059349537,0.00008990196511149406,0.0006482924800366163
1746729181955285800,8.04928564453125,0.0008943644352257252,0.0016939244233071804,0.0017590970965102315
1746729181965303600,8.059303466796875,-0.0018795393407344818,0.0015866830945014954,-0.0007321182638406754
1746729181975320800,8.06932080078125,0.000705591170117259,-0.0009430535137653351,0.0008069223258644342
1746729181985337900,8.079337890625,-0.0019460474140942097,-0.0005160612054169178,0.0009197546169161797
1746729181995355600,8.089355712890624,-0.00015001138672232628,-0.0002444186247885227,0.000048102112486958504
1746729182005372700,8.09937255859375,0.0012185042724013329,-0.0013148984871804714,-0.00004161754623055458
1746729182015390700,8.109390625,0.000003037508577108383,-0.00037134019657969475,-0.00003123120404779911
1746729182025407700,8.11940771484375,0.0018496527336537838,0.0004152408801019192,0.00031279283575713634
1746729182035424800,8.1294248046875,-0.00005796970799565315,0.00013800570741295815,-0.002631864510476589
1746729182045442800,8.13944287109375,0.0005208919756114483,-0.00038339151069521904,0.0010602879337966442
1746729182055459800,8.1494599609375,-0.0019473256543278694,0.00038945768028497696,-0.00044732773676514626
1746729182065477600,8.1594775390625,-0.0011809472925961018,-0.0006766263395547867,0.0007250886410474777
1746729182075494700,8.16949462890625,-0.00006588175892829895,0.001282661221921444,-0.0009529693052172661
1746729182085511700,8.17951171875,-0.0022549801506102085,-0.0013840347528457642,0.0018085819901898503
1746729182095529700,8.18952978515625,-0.0017950525507330894,0.0005843075923621655,0.0002074895892292261
1746729182105546800,8.199546630859375,0.0007143779657781124,-0.0006770114414393902,0.0020485760178416967
1746729182115564800,8.209564697265625,0.002983924001455307,-0.0006274767220020294,0.0014043573755770922
1746729182125581800,8.219581787109375,-0.001463869120925665,-0.002058007288724184,-0.0027470607310533524
1746729182135598600,8.2295986328125,0.0024600322358310223,0.002729823812842369,-0.00009375344961881638
1746729182145617000,8.239616943359374,-0.00021800678223371506,-0.0014113765209913254,-0.0016126127447932959
1746729182155633700,8.249633544921876,-0.0007604928687214851,0.00036282092332839966,-0.0016877141315490007
1746729182165651700,8.259651611328126,-0.0017713331617414951,-0.0011352971196174622,0.0008421707898378372
1746729182175668700,8.269668701171875,0.0008928929455578327,0.0016365204937756062,-0.0014044716954231262
1746729182185686800,8.279686767578125,0.00006692856550216675,-0.0020295334979891777,0.0010210222098976374
1746729182195703800,8.289703857421875,0.00034709321334958076,-0.0018242034129798412,-0.0016195017378777266
1746729182205720600,8.299720458984375,0.0008820744697004557,-0.0002832668833434582,-0.00018061697483062744
1746729182215739000,8.30973876953125,0.0014187016058713198,0.00012606102973222733,-0.0005404099356383085
1746729182225755600,8.319755615234374,-0.0020018634386360645,-0.0017924229614436626,-0.0007069630082696676
1746729182235772700,8.329772705078126,0.0022173826582729816,0.00039669545367360115,0.0031519574113190174
1746729182245790700,8.339790771484376,-0.0019501443020999432,-0.001770800445228815,-0.0012165482621639967
1746729182255807700,8.349807861328125,-0.000026809517294168472,-0.0009619984775781631,-0.0007592833135277033
1746729182265825800,8.35982568359375,0.0009970522951334715,-0.0007493998855352402,-0.0005362981464713812
1746729182275842600,8.369842529296875,-0.0005723484791815281,-0.0009968075901269913,-0.0010814471170306206
1746729182285860900,8.37986083984375,-0.0027636210434138775,-0.001173145603388548,0.0013517169281840324
1746729182295877600,8.389877685546875,0.0008582782465964556,0.0006234231404960155,-0.00019211764447391033
1746729182305894700,8.399894775390624,0.00025369180366396904,0.000810643658041954,-0.00271241320297122
1746729182315912700,8.40991259765625,0.0007394524291157722,0.00047055818140506744,-0.0012226407416164875
1746729182325929700,8.4199296875,0.0004110652953386307,-0.0023863851092755795,0.001960648223757744
1746729182335947800,8.42994775390625,0.00024301977828145027,-0.0006241714581847191,0.00040775910019874573
1746729182345964500,8.439964599609375,-0.0010898872278630733,0.0002929545007646084,0.002127688378095627
1746729182355981800,8.44998193359375,-0.00045658741146326065,-0.0007944139651954174,0.0010312648955732584
1746729182365999600,8.45999951171875,0.000682133249938488,0.0011381194926798344,0.0029986740555614233
1746729182376016600,8.4700166015625,-0.00012720143422484398,-0.001193211879581213,-0.00016489485278725624
1746729182386034700,8.48003466796875,-0.00025218212977051735,-0.002781256567686796,-0.002304408233612776
1746729182396051700,8.4900517578125,0.0018889994826167822,-0.0010952092707157135,-0.003855699673295021
1746729182406068700,8.50006884765625,-0.0003006584011018276,-0.0011143973097205162,0.0002868457231670618
1746729182416086800,8.510086669921876,-0.00041517429053783417,-0.00119855348020792,-0.0012396781239658594
1746729182426103800,8.520103759765625,-0.001114394050091505,-0.0003858073614537716,-0.0013634089846163988
1746729182436121600,8.53012158203125,-0.0010709846392273903,-0.0009402777068316936,-0.0003309014718979597
1746729182446138600,8.540138671875,0.0020734774880111217,0.001516656018793583,-0.0016002808697521687
1746729182456156000,8.550156005859375,-0.0006645182147622108,0.0005952022038400173,-0.001453540287911892
1746729182466173700,8.560173583984374,-0.0005054865032434464,-0.0007598772644996643,-0.0001516188494861126
1746729182476190700,8.570190673828124,0.003088981844484806,-0.00009461957961320877,-0.0014557687100023031
1746729182486208800,8.580208740234376,-0.0005950448103249073,0.00035347649827599525,0.002107581589370966
1746729182496225800,8.590225830078126,-0.0011476506479084492,-0.0012396262027323246,0.00041487650014460087
1746729182506242800,8.600242919921875,-0.0013634548522531986,-0.0006402707658708096,-0.0015127831138670444
1746729182516260600,8.610260498046875,0.0009058248251676559,0.0017461879178881645,0.0012704867403954268
1746729182526278000,8.62027783203125,-0.002175547182559967,0.00039587821811437607,-0.00007916591130197048
1746729182536295700,8.630295654296875,-0.00045674340799450874,0.0002954769879579544,0.0007898237090557814
1746729182546312700,8.640312744140624,-0.0002785278484225273,-0.0008349483832716942,0.0003182007931172848
1746729182556330800,8.650330810546874,-0.0017712293192744255,-0.0019457531161606312,-0.001873048022389412
1746729182566347800,8.66034765625,-0.0012110513634979725,-0.0017746086232364178,0.0010018679313361645
1746729182576364800,8.67036474609375,0.0006094854325056076,0.00007975054904818535,-0.0002618019934743643
1746729182586382600,8.680382568359375,0.000640959944576025,0.00008801044896245003,0.0013577357167378068
1746729182596399900,8.69039990234375,-0.00045200157910585403,-0.0006403643637895584,-0.003833031514659524
1746729182606417700,8.700417724609375,-0.001045201439410448,-0.0010062223300337791,-0.0008020782843232155
1746729182616434700,8.7104345703125,-0.0020175212994217873,-0.0010304572060704231,-0.0014207307249307632
1746729182626451700,8.72045166015625,0.00038036098703742027,-0.0014950823970139027,-0.0010748414788395166
1746729182636469800,8.7304697265625,0.00035958830267190933,-0.00010917335748672485,-0.00027482793666422367
1746729182646486800,8.74048681640625,0.0007416452281177044,0.0016623088158667088,-0.0034996371250599623
1746729182656504600,8.750504638671876,0.0007437760941684246,0.0004103570245206356,-0.0014926788862794638
1746729182666521900,8.76052197265625,-0.00036613550037145615,-0.0007978132925927639,-0.0021005216985940933
1746729182676538600,8.77053857421875,0.0007412070408463478,0.002484799362719059,0.000440133735537529
1746729182686557000,8.780556884765625,-0.0007476597093045712,0.0015646899119019508,-0.0016785431653261185
1746729182696573700,8.79057373046875,-0.0011620474979281425,-0.0017754463478922844,-0.0001839771866798401
1746729182706591500,8.800591552734375,-0.0002505672164261341,-0.001092937309294939,-0.00040043238550424576
1746729182716608800,8.81060888671875,-0.0003208746202290058,0.00015315553173422813,-0.0003056239802390337
1746729182726625800,8.820625732421876,-0.00001590745523571968,0.0010034930892288685,-0.0007655979134142399
1746729182736643800,8.830643798828126,-0.0004934119060635567,0.0034056641161441803,0.0038078485522419214
1746729182746660600,8.84066064453125,-0.00028254929929971695,-0.00023162271827459335,0.0005105622112751007
1746729182756679000,8.850678955078125,-0.0009685796685516834,-0.0009528067894279957,0.0002767366822808981
1746729182766695700,8.86069580078125,0.0002329316921532154,-0.001679982990026474,-0.001834412571042776
1746729182776712700,8.870712646484375,0.0011892728507518768,0.0019589602015912533,-0.003810744732618332
1746729182786730800,8.880730712890625,-0.0009579742327332497,-0.001401414629071951,-0.0020333726424723864
1746729182796747800,8.890747802734374,-0.001055711880326271,-0.0013915607705712318,-0.0035886585246771574
1746729182806765800,8.900765869140624,-0.0000038994476199150085,-0.00010869652032852173,-0.00010137842036783695
1746729182816782600,8.910782470703126,-0.0006992504931986332,0.001844732090830803,0.0004291231743991375
1746729182826801000,8.92080078125,-0.0007492871955037117,-0.00033108703792095184,0.0021851188503205776
1746729182836817700,8.930817626953125,0.0018667359836399555,-0.0009678490459918976,0.00010678800754249096
1746729182846834700,8.940834716796875,0.0018407527823001146,-0.0010049128904938698,0.0004020645283162594
1746729182856852700,8.950852783203125,0.000012759119272232056,-0.0007551079615950584,0.0005464078858494759
1746729182866869800,8.960869873046875,0.000024883542209863663,-0.0010845526121556759,-0.0029822944197803736
1746729182876887800,8.9708876953125,0.00026909541338682175,-0.0008283564820885658,-0.0007300591096282005
1746729182886904800,8.98090478515625,0.0007860041223466396,0.0017714952118694782,0.00043195788748562336
1746729182896921600,8.990921630859376,0.0019194453489035368,-0.0009025847539305687,0.000957932323217392
1746729182906939600,9.000939697265625,-0.00041582854464650154,0.0005695493891835213,0.0006261237431317568
1746729182916956700,9.010956787109375,0.0013178891967982054,0.0002478398382663727,0.0029982011765241623
1746729182926974700,9.020974609375,-0.00006947945803403854,-0.0009970911778509617,0.0017994166119024158
1746729182936991700,9.03099169921875,0.001502318074926734,-0.002110558794811368,-0.00014389189891517162
1746729182947008300,9.04100830078125,-0.0005811871960759163,-0.00178833631798625,0.001967141404747963
1746729182957026600,9.051026611328124,0.0016199154779314995,0.00015603750944137573,0.0009647277183830738
1746729182967043300,9.061043212890626,-0.0014429222792387009,0.0004924195818603039,-0.001344743650406599
1746729182977061600,9.0710615234375,-0.00190444802865386,0.001239436212927103,0.0008081558626145124
1746729182987078400,9.081078369140625,-0.002763712778687477,-0.000903579406440258,-0.0006304564885795116
1746729182997095700,9.091095703125,0.0013735080137848854,0.0005513052456080914,-0.0016094343736767769
1746729183007113500,9.101113525390625,0.0016892573330551386,-0.0017090970650315285,-0.0003561493940651417
1746729183017130500,9.111130615234375,-0.00022315839305520058,0.0008464721031486988,0.0012356219813227654
1746729183027148500,9.1211484375,0.0013325305189937353,0.0008371565490961075,-0.0032250292133539915
1746729183037165300,9.131165283203124,-0.00021449988707900047,-0.0015865862369537354,0.0014546775491908193
1746729183047183600,9.14118359375,-0.0023715649731457233,0.0002695731818675995,0.00151833426207304
1746729183057200400,9.151200439453126,-0.00022106245160102844,0.001736974809318781,0.0014032856561243534
1746729183067217700,9.1612177734375,0.0008612074889242649,0.000895252451300621,-0.0011312162969261408
1746729183077235500,9.1712353515625,-0.0010626600123941898,-0.0008709561079740524,0.0006392532959580421
1746729183087252500,9.18125244140625,0.001496921293437481,0.00011661695316433907,-0.00012499792501330376
1746729183097270500,9.1912705078125,0.002027423121035099,-0.0012770150788128376,-0.0008674871642142534
1746729183107287300,9.201287353515625,-0.0017749774269759655,-0.00034459633752703667,0.000005457550287246704
1746729183117304600,9.2113046875,0.00031773466616868973,0.001979012042284012,-0.0006491474341601133
1746729183127322400,9.221322265625,0.0013003991916775703,0.0010838471353054047,0.0009110376704484224
1746729183137339600,9.231339599609376,-0.0006415778771042824,-0.0014243177138268948,-0.0007236103992909193
1746729183147357400,9.241357421875,0.0001719319261610508,-0.0011557783000171185,0.0013210518518462777
1746729183157374500,9.25137451171875,0.00014982791617512703,0.00028392625972628593,0.0002275579608976841
1746729183167391500,9.2613916015625,0.0026204183232039213,0.00007628463208675385,0.00033930432982742786
1746729183177409500,9.271409423828125,-0.0006992118433117867,0.00021769851446151733,-0.000007172813639044762
1746729183187426600,9.281426513671875,0.0004035104066133499,-0.0005478672683238983,-0.0018177938181906939
1746729183197444400,9.2914443359375,-0.00023112120106816292,-0.0010389541275799274,-0.003326740814372897
1746729183207461400,9.30146142578125,-0.0021721175871789455,-0.002207506913691759,-0.00453935144469142
1746729183217478400,9.311478515625,-0.0032264632172882557,-0.0007675355300307274,-0.0008767060935497284
1746729183227496400,9.321496337890625,-0.0014358414337038994,-0.0010910732671618462,-0.0009167026728391647
1746729183237513500,9.331513427734375,-0.0008307714015245438,0.00017046602442860603,-0.0033372496254742146
1746729183247531500,9.341531494140625,-0.0016299216076731682,0.0014858469367027283,0.001910767750814557
1746729183257548500,9.351548583984375,0.00036931317299604416,0.0009034131653606892,-0.0034507079981267452
1746729183267565600,9.361565673828125,-0.0024273651652038097,0.000022084452211856842,0.002689465880393982
1746729183277583400,9.371583251953124,0.00005283672362565994,-0.0010029659606516361,0.0017746699741110206
1746729183287600600,9.3816005859375,-0.0021016839891672134,-0.0015725968405604362,0.00017452682368457317
1746729183297618400,9.391618408203126,-0.00016929395496845245,0.0009496831335127354,0.0012855976819992065
1746729183307635500,9.401635498046875,-0.00018021045252680779,-0.00035394448786973953,0.0016524582169950008
1746729183317653500,9.411653564453125,0.0004703998565673828,0.0007701758295297623,-0.0010860702022910118
1746729183327670500,9.42167041015625,0.0008874807972460985,-0.0002870587632060051,-0.00023763556964695454
1746729183337687600,9.4316875,0.0004581790417432785,0.0008559701964259148,-0.0005590789951384068
1746729183347705300,9.441705322265625,-0.0011872588656842709,-0.0005626063793897629,-0.0003554068971425295
1746729183357722600,9.45172265625,-0.0009840596467256546,0.0015415572561323643,-0.0022473165299743414
1746729183367740400,9.461740478515624,0.0006872909143567085,0.0008956678211688995,-0.0021867305040359497
1746729183377757400,9.47175732421875,-0.0014112801291048527,-0.0017238175496459007,0.00045033148489892483
1746729183387774500,9.4817744140625,-0.0003882148303091526,0.000052203889936208725,-0.001277390867471695
1746729183397792500,9.49179248046875,0.0007052789442241192,0.0003403578884899616,-0.0022246772423386574
1746729183407809500,9.5018095703125,0.002612673444673419,-0.002135537564754486,-0.0006582788191735744
1746729183417827300,9.511827392578125,-0.0010861912742257118,0.00026876432821154594,-0.0016164840199053288
1746729183427844600,9.5218447265625,0.0018971592653542757,0.0012782728299498558,-0.0024904715828597546
1746729183437861400,9.531861328125,0.0005583879537880421,0.000976270530372858,0.00017588515765964985
1746729183447879700,9.541879638671874,-0.0015470776706933975,0.0018392265774309635,-0.0007311592344194651
1746729183457896400,9.551896484375,0.000934721902012825,-0.0010335254482924938,-0.0020299830939620733
1746729183467914500,9.56191455078125,0.002105303341522813,0.0005297176539897919,-0.0005338431801646948
1746729183477931500,9.571931640625,0.0019082294311374426,0.0004948298446834087,-0.00007684482261538506
1746729183487949300,9.58194921875,-0.0005842028185725212,-0.0010950062423944473,0.0013190415920689702
1746729183497966600,9.591966552734375,0.0030488814227283,0.0008094203658401966,0.0025661999825388193
1746729183507983400,9.6019833984375,-0.0012464160099625587,-0.000554344616830349,0.0011844895780086517
1746729183518001700,9.612001708984375,0.0008753242436796427,-0.002318155951797962,-0.001578540075570345
1746729183528018400,9.622018310546874,0.0012847755569964647,0.001830405555665493,0.0012054216349497437
1746729183538036500,9.632036376953126,-0.0002782335504889488,-0.0006940048187971115,-0.0025922460481524467
1746729183548053500,9.642053466796876,-0.0010530715808272362,0.000743204727768898,0.00058795977383852
1746729183558070500,9.652070556640625,0.002514232648536563,-0.00013537192717194557,0.0015584157081320882
1746729183568088600,9.662088623046875,-0.00019811047241091728,-0.002415161579847336,-0.00282658776268363
1746729183578105300,9.672105224609375,-0.0002891905605792999,-0.001017001923173666,-0.0013115154579281807
1746729183588123600,9.68212353515625,0.0007408210076391697,0.0005405140109360218,0.000970418332144618
1746729183598140400,9.692140380859374,0.003081739414483309,0.0016867383383214474,0.0005227411165833473
1746729183608157400,9.702157470703124,0.0006401687860488892,-0.0018702740781009197,0.0015526547795161605
1746729183618175500,9.712175537109376,0.0002220524474978447,-0.000256931409239769,0.0018538583535701036
1746729183628192500,9.722192626953126,0.0012233054731041193,0.0007911138236522675,-0.0011233296245336533
1746729183638210600,9.73221044921875,0.0009673757012933493,-0.0015234393067657948,0.0006122526247054338
1746729183648227300,9.742227294921875,-0.0017795939929783344,-0.0008256533183157444,-0.0011035301722586155
1746729183658244400,9.752244384765625,0.0030455212108790874,-0.001951104961335659,0.00047625694423913956
1746729183668262400,9.762262451171875,0.0027034806553274393,-0.0006657489575445652,0.003146394621580839
1746729183678279400,9.772279541015624,0.0006280792877078056,-0.0008276691660284996,-0.0019634123891592026
1746729183688297500,9.78229736328125,0.004179293289780617,-0.002804079558700323,-0.00022688787430524826
1746729183698314500,9.792314453125,0.000052724964916706085,-0.0012799524702131748,-0.002740912139415741
1746729183708332500,9.80233251953125,-0.00006567314267158508,-0.0005644494667649269,-0.0007120510563254356
1746729183718349600,9.812349609375,-0.0007892539724707603,0.0010065492242574692,-0.0012175189331173897
1746729183728366300,9.822366455078125,0.0011557748075574636,-0.00011351564899086952,0.0002911076880991459
1746729183738384400,9.83238427734375,0.000915823969990015,0.0000292300246655941,0.00032466347329318523
1746729183748401400,9.8424013671875,-0.00007638102397322655,-0.00043868599459528923,-0.002202747855335474
1746729183758419500,9.85241943359375,0.0007049906998872757,0.0006135287694633007,-0.00013720011338591576
1746729183768436500,9.8624365234375,-0.0009749233722686768,-0.0010581915266811848,-0.002554331673309207
1746729183778453500,9.87245361328125,0.0008115251548588276,-0.0009383494034409523,-0.00033618463203310966
1746729183788471600,9.882471435546876,0.0009365812875330448,0.0006639733910560608,0.002760824980214238
1746729183798488300,9.89248828125,-0.00018753902986645699,-0.000023921020328998566,-0.00009514880366623402
1746729183808506400,9.90250634765625,-0.0026268023066222668,0.00012036971747875214,0.0002958551049232483
1746729183818523400,9.9125234375,-0.0005884189158678055,-0.0010668672621250153,0.001214112970046699
1746729183828540700,9.922540771484375,0.00032773055136203766,0.0009440639987587929,-0.0003418358974158764
1746729183838558500,9.932558349609375,-0.0007841391488909721,-0.000749440398067236,-0.0005615467671304941
1746729183848575500,9.942575439453124,0.0011288574896752834,-0.0010796082206070423,0.0010165837593376637
1746729183858593500,9.952593505859374,0.0003442903980612755,-0.0013914643786847591,0.002103419741615653
1746729183868610300,9.9626103515625,-0.00021675694733858109,0.0013143937103450298,-0.00038741063326597214
1746729183878628600,9.972628662109376,-0.0008905366994440556,-0.001981001812964678,0.0024912001099437475
1746729183888645400,9.982645263671875,0.0006006089970469475,0.0007866024971008301,0.0018653584411367774
1746729183898662700,9.99266259765625,-0.0005131247453391552,-0.00002432987093925476,-0.001573315355926752
1746729183908680400,10.002680419921875,-0.0037170499563217163,0.00003489246591925621,0.0002187313511967659
1746729183918697500,10.012697509765625,-0.0009217956103384495,-0.0022738019470125437,0.00010341661982238293
1746729183928715500,10.022715576171874,0.0004402413032948971,-0.0015862085856497288,0.0010701443534344435
1746729183938732300,10.032732177734376,-0.00018453644588589668,0.0004867957904934883,-0.0006473283283412457
1746729183948749300,10.042749267578126,-0.0005534416995942593,-0.0011887792497873306,0.00041622831486165524
1746729183958767000,10.05276708984375,0.002769384067505598,0.0007316260598599911,-0.00047726230695843697
1746729183968784400,10.062784423828125,-0.0029093497432768345,-0.00041158031672239304,-0.0005387002602219582
1746729183978802200,10.07280224609375,0.0011788690462708473,0.0025005857460200787,0.0006930117961019278
1746729183988819200,10.082819091796875,0.0003606886602938175,0.0010394859127700329,-0.00013438588939607143
1746729183998836200,10.092836181640624,0.0011607022024691105,0.0010661175474524498,0.002317586448043585
1746729184008854300,10.102854248046874,0.00170314428396523,0.001508105080574751,-0.00029631657525897026
1746729184018871300,10.112871337890626,0.0009633181616663933,0.0013698870316147804,0.0016544489189982414
1746729184028889000,10.12288916015625,-0.004087033681571484,0.0016513494774699211,-0.0012461747974157333
1746729184038906400,10.13290625,-0.0005796505138278008,0.0010289684869349003,0.001382098882459104
1746729184048923100,10.142923095703125,-0.0014410107396543026,0.0013191979378461838,-0.0014878984075039625
1746729184058941200,10.152941162109375,-0.0017794985324144363,-0.0005527380853891373,-0.001610936364158988
1746729184068958200,10.162958251953125,0.0017997466493397951,-0.000318335834890604,0.0012774073984473944
1746729184078976300,10.172976318359375,0.00043407781049609184,-0.0007031629793345928,-0.00009784894064068794
1746729184088993300,10.1829931640625,0.0010017012245953083,0.00009826384484767914,-0.0005196831189095974
1746729184099011000,10.193010986328124,0.00033617718145251274,-0.0002719154581427574,0.00015755882486701012
1746729184109028400,10.2030283203125,-0.0005407771095633507,0.0014384039677679539,-0.0026146718300879
1746729184119045400,10.21304541015625,-0.0012590317055583,-0.0005211499519646168,-0.002158205956220627
1746729184129063200,10.223063232421875,0.0011775840539485216,-0.000965421088039875,0.0008642391767352819
1746729184139080200,10.233080078125,-0.00034467875957489014,-0.0002096160314977169,0.0010655741207301617
1746729184149098200,10.24309814453125,-0.0003556148149073124,0.000679719727486372,-0.0003986358642578125
1746729184159115300,10.253115234375,0.00015198346227407455,-0.001402073074132204,-0.0005453759804368019
1746729184169132300,10.26313232421875,0.000780121423304081,-0.000146589707583189,0.0033102724701166153
1746729184179150000,10.273150146484374,-0.002868941519409418,0.0015815356746315956,-0.0011662349570542574
1746729184189167400,10.28316748046875,0.0019350084476172924,-0.0016832966357469559,0.0006876080296933651
1746729184199185200,10.29318505859375,0.00012326007708907127,-0.0014457427896559238,0.0016849618405103683
1746729184209202200,10.3032021484375,-0.0008915495127439499,0.00017283065244555473,-0.0008890337776392698
1746729184219219200,10.31321923828125,0.0002344348467886448,0.00024207262322306633,-0.002677879063412547
1746729184229237200,10.3232373046875,-0.0015640798956155777,0.003054024651646614,0.0010373753029853106
1746729184239254300,10.333254150390625,0.0001749638468027115,0.000168489757925272,-0.00019353791140019894
1746729184249272000,10.34327197265625,-0.0018236120231449604,0.0001310715451836586,0.0030733703169971704
1746729184259289300,10.353289306640624,0.0013181190006434917,-0.0020929344464093447,0.002272291574627161
1746729184269306000,10.36330615234375,0.0015154920984059572,-0.00028049061074852943,0.0004095146432518959
1746729184279324400,10.373324462890626,-0.0006153029389679432,-0.001769996713846922,0.0033445844892412424
1746729184289341200,10.383341064453125,-0.0008366028778254986,-0.0007321331650018692,-0.00162632972933352
1746729184299359200,10.393359130859375,-0.000712233129888773,-0.0006660865619778633,-0.00005320040509104729
1746729184309376300,10.403376220703125,0.0027480528224259615,-0.0010378845036029816,-0.001011521089822054
1746729184319394000,10.41339404296875,0.0007131313905119896,-0.0004892735742032528,-0.0031367233023047447
1746729184329411300,10.423411376953124,-0.0016155499033629894,-0.0011179829016327858,-0.001978041836991906
1746729184339428000,10.433427978515626,-0.000047480687499046326,-0.0008948100730776787,0.0035759806632995605
1746729184349446400,10.4434462890625,-0.000892214011400938,0.00149244861677289,-0.002191137056797743
1746729184359463200,10.453463134765625,-0.0008535981178283691,0.002746530808508396,-0.0000773861538618803
1746729184369481200,10.463481201171875,-0.0010885624215006828,0.0012225406244397163,-0.0003129297401756048
1746729184379498200,10.473498291015625,0.0009130695834755898,0.0009343866258859634,-0.0008439638186246157
1746729184389515300,10.483515380859375,0.000657995231449604,-0.0029304767958819866,0.0006746042054146528
1746729184399533300,10.493533203125,-0.0007321746088564396,0.0009761140681803226,0.0006506356876343489
1746729184409550000,10.503550048828124,-0.00045679835602641106,-0.0007809526287019253,0.00265297619625926
1746729184419568400,10.513568359375,-0.0012211254797875881,0.0018486524932086468,0.0020827932748943567
1746729184429585200,10.523585205078126,-0.00008785678073763847,0.0004940032958984375,0.0021251263096928596
1746729184439602200,10.533602294921875,0.0019406729843467474,-0.0018162885680794716,0.00007715565152466297
1746729184449620200,10.5436201171875,0.0004898980259895325,-0.0009751482866704464,-0.000369795598089695
1746729184459637200,10.55363720703125,0.0008342447690665722,0.00005070120096206665,-0.0023522526025772095
1746729184469655300,10.5636552734375,0.0011578344274312258,0.0005212975665926933,-0.0014789446722716093
1746729184479672300,10.57367236328125,0.0019397384021431208,-0.002957323333248496,-0.0025537966284900904
1746729184489689000,10.583689208984374,-0.000545235350728035,-0.0029343953356146812,-0.0003546203952282667
1746729184499707100,10.59370703125,0.000516034197062254,0.0018779365345835686,0.0003556446172297001
1746729184509724200,10.60372412109375,0.0021142386831343174,0.00009570131078362465,-0.0021549102384597063
1746729184519742200,10.6137421875,0.0007256665267050266,0.00038918154314160347,-0.0007540874648839235
1746729184529759200,10.62375927734375,-0.0011038822121918201,0.00006120279431343079,-0.0013840217143297195
1746729184539777300,10.63377734375,0.00023781834170222282,-0.00048794085159897804,-0.002021582331508398
1746729184549794300,10.643794189453125,-0.0008363500237464905,0.0035262531600892544,-0.0014431895688176155
1746729184559811000,10.65381103515625,-0.00007868045940995216,0.0018734955228865147,0.00258377636782825
1746729184569829000,10.6638291015625,0.0003239670768380165,-0.0008055092766880989,-0.00031218118965625763
1746729184579846100,10.67384619140625,0.0005141166038811207,-0.0008015143685042858,0.0011749279219657183
1746729184589864200,10.6838642578125,0.0002432027831673622,-0.00006317952647805214,-0.0004828046075999737
1746729184599881200,10.693881103515626,0.001111926045268774,0.00040606968104839325,-0.0003991813864558935
1746729184609898200,10.703898193359375,0.003682188456878066,-0.000841143075376749,-0.0008346037939190865
1746729184619916300,10.713916259765625,0.0007005133666098118,-0.0003721602261066437,0.0013838091399520636
1746729184629933000,10.72393310546875,0.0011487107258290052,-0.000033902935683727264,-0.0005385468248277903
1746729184639951000,10.733951171875,0.0000056819990277290344,0.00039992574602365494,0.00014002667739987373
1746729184649968000,10.743968017578124,0.0018594779539853334,0.00053787836804986,0.0005348969716578722
1746729184659985400,10.7539853515625,-0.0017405832186341286,-0.0007143397815525532,0.00006511551328003407
1746729184670003200,10.764003173828126,-0.0001420043408870697,0.001035802997648716,-0.00042351009324193
1746729184680020200,10.774020263671876,-0.00025971606373786926,-0.0006063021719455719,0.0016031555132940412
1746729184690038300,10.784038330078126,-0.00002475036308169365,-0.000986156053841114,0.0010200839024037123
1746729184700055000,10.794054931640625,0.00025328388437628746,-0.0029971087351441383,0.00021154829300940037
1746729184710073300,10.8040732421875,0.0019242772832512856,0.002057288307696581,-0.0010083361994475126
1746729184720090000,10.814090087890625,0.00040307966992259026,-0.000659136101603508,-0.0024072949308902025
1746729184730107400,10.824107421875,-0.00022459309548139572,-0.0018521742895245552,0.0014570571947842836
1746729184740125200,10.834125244140624,0.00003400025889277458,-0.0007823826745152473,-0.0006862548179924488
1746729184750142200,10.84414208984375,0.0007118559442460537,0.0010032919235527515,0.00030868779867887497
1746729184760160300,10.85416015625,-0.000048209913074970245,0.0005385703407227993,-0.0014964027795940638
1746729184770177000,10.864177001953125,-0.0005427580326795578,0.00022195745259523392,-0.00022474792785942554
1746729184780194300,10.8741943359375,0.0007185153663158417,0.0019013471901416779,0.0011158871930092573
1746729184790212000,10.884212158203125,-0.001475042663514614,-0.0013062460348010063,0.001822177437134087
1746729184800229400,10.8942294921875,-0.0009509329684078693,-0.0009057065472006798,0.0014077895320951939
1746729184810247200,10.9042470703125,0.00015409570187330246,0.001414638478308916,-0.00009361607953906059
1746729184820264400,10.914264404296874,-0.0014973301440477371,-0.0013545164838433266,0.0013346371706575155
1746729184830281200,10.92428125,0.0005266238003969193,-0.0023476581554859877,0.0015706024132668972
1746729184840299000,10.934299072265626,0.0007439376786351204,0.0003802180290222168,0.0003830988425761461
1746729184850316300,10.94431640625,0.000008797738701105118,0.0005817865021526814,-0.001301781041547656
1746729184860334000,10.954333984375,0.0009339801035821438,0.0012574302963912487,0.0021206471137702465
1746729184870351400,10.964351318359375,0.0003039794974029064,0.0004302412271499634,0.0011949199251830578
1746729184880369200,10.974369140625,-0.0016949893906712532,0.000332769937813282,0.0004990359302610159
1746729184890386200,10.98438623046875,-0.0017474517226219177,0.0002041943371295929,0.0024517816491425037
1746729184900403200,10.9944033203125,-0.0010270667262375355,-0.0017465711571276188,0.0008794513996690512
1746729184910421200,11.004421142578124,0.0009463373571634293,-0.0005955533124506474,-0.0006964921485632658
1746729184920438300,11.014438232421876,-0.0004755244590342045,0.0021408447064459324,0.0017514853971078992
1746729184930456000,11.0244560546875,-0.0014965538866817951,0.0013165301643311977,-0.001035549445077777
1746729184940473300,11.034473388671875,-0.0019767219200730324,-0.0012512896209955215,-0.0005431307945400476
1746729184950490600,11.04449072265625,-0.0006294352933764458,-8.76840204000473e-7,-0.0022752590011805296
1746729184960509000,11.054509033203125,-0.001021718606352806,0.000712317880243063,0.001243575825355947
1746729184970525700,11.064525634765625,-0.0006140093319118023,0.0005676420405507088,0.0021431385539472103
1746729184980543500,11.07454345703125,0.0007388768717646599,-0.00014874804764986038,-0.0005884657148271799
1746729184990560800,11.084560791015624,0.0007249927148222923,-0.0006826571188867092,-0.0024763490073382854
1746729185000577800,11.094577880859376,-0.0003080470487475395,0.0003059082664549351,0.00203264900483191
1746729185010595800,11.104595947265626,-0.0006957952864468098,0.00021661166101694107,0.0004277392290532589
1746729185020612600,11.114612548828125,0.00024323491379618645,-0.0014292220585048199,0.0023864940740168095
1746729185030631000,11.124630859375,-0.00004464620724320412,0.0023846053518354893,-0.002632247982546687
1746729185040647700,11.134647705078125,0.00019903294742107391,0.000050877220928668976,-0.0011312903370708227
1746729185050665700,11.144665771484375,-0.0018333280459046364,0.0007092822343111038,-0.0006294453050941229
1746729185060682800,11.154682861328125,-0.0002205176278948784,0.0020525804720818996,-0.00032611144706606865
1746729185070699800,11.16469970703125,-0.00041046692058444023,0.0005721151828765869,-0.0002998590935021639
1746729185080717800,11.1747177734375,-0.0011470974422991276,0.00013881875202059746,-0.0011235747952014208
1746729185090734800,11.18473486328125,-0.0006362986750900745,0.0007331776432693005,0.00070762331597507
1746729185100753000,11.1947529296875,-0.0013010241091251373,0.0016948450356721878,0.0007001664489507675
1746729185110769700,11.204769775390625,0.0008986140601336956,0.0011723809875547886,0.0005349051207304001
1746729185120786700,11.21478662109375,-0.0005046054720878601,0.0016269823536276817,0.0010835162829607725
1746729185130804700,11.2248046875,0.0006861691363155842,-0.0013476447202265263,0.0003702573012560606
1746729185140821800,11.23482177734375,-0.0006717764772474766,-0.0015846663154661655,0.000760676572099328
1746729185150839800,11.24483984375,-0.001503677573055029,-0.0006016832776367664,0.0012668728595599532
1746729185160856800,11.25485693359375,0.0013781290035694838,-0.0008735922165215015,-0.0017526191659271717
1746729185170875000,11.264875,0.0009638266637921333,-0.00005366886034607887,-0.0028502391651272774
1746729185180891600,11.2748916015625,-0.0017105196602642536,0.00048109423369169235,0.000601217383518815
1746729185190908700,11.28490869140625,0.0018950437661260366,-0.0019273499492555857,0.00004541035741567612
1746729185200926700,11.2949267578125,0.0007450906559824944,-0.0018703583627939224,-0.00020386138930916786
1746729185210943700,11.30494384765625,-0.0008720164187252522,0.0017945724539458752,-0.0004390173126012087
1746729185220961800,11.3149619140625,0.0019493363797664642,-0.0007428871467709541,0.00044728280045092106
1746729185230978800,11.324978759765624,0.002989616012200713,-0.00005661463364958763,-0.000688864616677165
1746729185240995600,11.33499560546875,0.0002606748603284359,0.001911994069814682,0.0025039990432560444
1746729185251013600,11.345013671875,0.00021513504907488823,-0.001497113611549139,-0.0025205868296325207
1746729185261030700,11.35503076171875,0.0010577591601759195,0.001992159988731146,-0.0018143164925277233
1746729185271048700,11.365048583984375,0.0004814513958990574,0.0015035420656204224,-0.00032869167625904083
1746729185281065700,11.375065673828125,0.0010479060001671314,-0.000004872214049100876,-0.0013452200219035149
1746729185291082500,11.38508251953125,0.0006466428749263287,-0.0008177841082215309,-0.0021070651710033417
1746729185301100800,11.395100830078125,-0.0006990521214902401,0.00046159839257597923,0.002446673810482025
1746729185311117600,11.40511767578125,0.00032032560557127,-0.0009981351904571056,-0.0014361424837261438
1746729185321135900,11.415135986328124,0.002294526668265462,-0.00047988398000597954,-0.0025703830178827047
1746729185331152600,11.425152587890626,0.0012054878752678633,0.0009397049434483051,-0.0026302565820515156
1746729185341170000,11.435169921875,-0.0004653795622289181,0.0014156117103993893,0.0019069709815084934
1746729185351187700,11.445187744140625,0.002785369521006942,-0.0008597727864980698,-0.000011174241080880165
1746729185361204700,11.455204833984375,0.00019278191030025482,-0.0015559233725070953,-0.000319834565743804
1746729185371222800,11.465222900390625,0.0006670281291007996,0.0007597743533551693,-0.0010547146666795015
1746729185381239600,11.475239501953125,-0.0008320650085806847,-0.0016719582490622997,-0.00043579586781561375
1746729185391257900,11.4852578125,0.00048384396359324455,-0.001861243974417448,0.00025995029136538506
