time,seconds_elapsed,z,y,x
1746576376242416400,0.01741650390625,-0.0002521576825529337,-0.0019528954289853573,-0.0018189162947237492
1746576376252381400,0.02738134765625,-0.001022462034597993,-0.0002627759240567684,-0.00021874671801924706
1746576376262345500,0.037345458984375,0.00019966252148151398,0.0007071471773087978,-0.0006597661413252354
1746576376272310500,0.047310546875,-0.00040833139792084694,-0.001378755085170269,-0.0016550496220588684
1746576376282275300,0.057275390625,0.0006369592156261206,-0.0012370748445391655,0.000920493621379137
1746576376292239400,0.0672392578125,-0.00045851990580558777,0.0008223475888371468,-0.000528569333255291
1746576376302204700,0.07720458984375,0.0002445545978844166,-0.00008845329284667969,-0.0015046182088553905
1746576376312169500,0.08716943359375,0.000019084196537733078,0.00012741237878799438,0.00009226612746715546
1746576376322133500,0.097133544921875,0.0002939226105809212,0.00025417888537049294,0.0006869500502943993
1746576376332098600,0.1070986328125,-0.00048145116306841373,0.00005067698657512665,0.0005483184941112995
1746576376342063400,0.1170634765625,-0.0018026453908532858,-0.0006497344002127647,-0.00010788440704345703
1746576376352027400,0.12702734375,0.001860397751443088,-0.0006739310920238495,-0.00006839819252490997
1746576376361992700,0.13699267578125,-0.001980945933610201,0.00024406053125858307,0.00034732138738036156
1746576376371957500,0.14695751953125,-0.00020124460570514202,-0.000546707771718502,0.0009372225031256676
1746576376381921500,0.156921630859375,-0.00017115077935159206,0.00036036502569913864,0.00117797264829278
1746576376391886600,0.166886474609375,-0.000017202459275722504,0.0007819053716957569,-0.0013627540320158005
1746576376401851400,0.176851318359375,-0.0015890002250671387,0.0005574007518589497,-0.0006333142518997192
1746576376411815400,0.1868154296875,0.00011537829414010048,-0.00009438907727599144,0.00048671290278434753
1746576376421780500,0.196780517578125,0.0013231218326836824,-0.00035218289121985435,-0.000035266391932964325
1746576376431745500,0.20674560546875,-0.00008768821135163307,0.00047031277790665627,0.00036997394636273384
1746576376441709600,0.21670947265625,0.001247887033969164,-0.00034115230664610863,-0.0008055451326072216
1746576376451674400,0.22667431640625,-0.0007009471300989389,-0.0008466178551316261,0.0003389306366443634
1746576376461639400,0.236639404296875,0.00020452775061130524,0.0008538104593753815,0.0011717011220753193
1746576376471603500,0.246603515625,0.00008910195901989937,-0.0009984951466321945,0.00031405920162796974
1746576376481568500,0.256568603515625,-0.0003657662309706211,-0.00026772404089570045,0.0005273781716823578
1746576376491533600,0.266533447265625,-0.0006643221713602543,-0.0005051246844232082,0.0015456723049283028
1746576376501497600,0.27649755859375,-0.0003527323715388775,0.00035720691084861755,0.0005861353129148483
1746576376511462400,0.28646240234375,-0.0004870044067502022,0.00032277684658765793,-0.0012567979283630848
1746576376521427500,0.296427490234375,-0.00042974669486284256,-0.0012426292523741722,-0.0003651715815067291
1746576376531391500,0.3063916015625,0.00015655183233320713,0.00009480956941843033,-0.0005813827738165855
1746576376541356500,0.3163564453125,-0.0007582439575344324,-0.0001925453543663025,0.0006892113015055656
1746576376551321600,0.326321533203125,0.001395889325067401,-0.001597629627212882,0.0007888507097959518
1746576376561285400,0.336285400390625,0.0007367569487541914,0.0001424797810614109,-0.0004897327162325382
1746576376571250400,0.34625048828125,-0.0013462775386869907,0.00043584592640399933,-0.0010355119593441486
1746576376581215500,0.356215576171875,-0.001318048220127821,0.0009618201293051243,-0.00170609587803483
1746576376591179500,0.366179443359375,0.00019850791431963444,0.0003924746997654438,-0.000022336840629577637
1746576376601144600,0.37614453125,-0.0008481147233396769,0.0000859447754919529,-0.0009299418888986111
1746576376611109400,0.386109375,0.000850046519190073,0.0015767067670822144,-0.0010835952125489712
1746576376621073400,0.396073486328125,0.0019850856624543667,-0.0006345161236822605,-0.0005384460091590881
1746576376631038500,0.40603857421875,0.0012941609602421522,0.0002615232951939106,0.0002010539174079895
1746576376641003500,0.41600341796875,-0.00042064860463142395,0.00021545076742768288,0.00009319605305790901
1746576376650967600,0.425967529296875,-0.0020404946990311146,0.00005227513611316681,-0.0018069809302687645
1746576376660932600,0.4359326171875,0.00030202162452042103,0.0003971541300415993,-0.0008218777365982533
1746576376670898200,0.445898193359375,-0.0005664757918566465,-0.00013696122914552689,0.00039659207686781883
1746576376680862200,0.4558623046875,-0.0005784600507467985,0.0017656008712947369,-0.001531536690890789
1746576376690827000,0.465826904296875,0.0006664965767413378,0.00006117764860391617,-0.00022413348779082298
1746576376700792000,0.4757919921875,0.0007317441049963236,-0.0006048791110515594,-0.0009122942574322224
1746576376710756000,0.485756103515625,0.0004595434293150902,-0.00035142386332154274,-0.0005891486071050167
1746576376720721000,0.495720947265625,-0.0005924052093178034,0.0010171746835112572,0.000856681726872921
1746576376730686200,0.505686279296875,0.0005111729260534048,0.0003120480105280876,0.00017475290223956108
1746576376740650200,0.515650146484375,0.0010693715885281563,-0.0018893207889050245,-0.0012982413172721863
1746576376750615000,0.525614990234375,0.0015456771943718195,-0.0009891483932733536,-0.0004470827989280224
1746576376760580000,0.535580078125,0.00007241661660373211,-0.0003854096867144108,-0.0006369659677147865
1746576376770544000,0.545544189453125,-0.0003270474262535572,0.0005021556280553341,0.00012593716382980347
1746576376780509200,0.55550927734375,-0.0008684680797159672,-0.0005599129945039749,0.0003158207982778549
1746576376790474200,0.56547412109375,-0.0010779823642224073,0.001484554260969162,-0.0004111039452254772
1746576376800438300,0.575438232421875,-0.000031360192224383354,-0.0007833940908312798,0.0002650725655257702
1746576376810403000,0.585403076171875,-0.0010063922964036465,-0.00007364153861999512,-0.001000549178570509
1746576376820368100,0.5953681640625,-0.0003011873923242092,0.0005772351287305355,-0.0011622030287981033
1746576376830332200,0.605332275390625,-0.00003268732689321041,0.0010206555016338825,0.0005841064266860485
1746576376840297200,0.615297119140625,0.00032311095856130123,0.00012077344581484795,0.0002858322113752365
1746576376850262300,0.62526220703125,-0.0005115231033414602,0.0005624974146485329,0.0018319294322282076
1746576376860226000,0.63522607421875,0.00039608217775821686,0.0007643653079867363,0.0007727900519967079
1746576376870191000,0.645191162109375,0.00012044794857501984,-0.001309308223426342,-0.0004016812890768051
1746576376880156200,0.65515625,0.000020845793187618256,0.0000766008161008358,-0.0008107428438961506
1746576376890120000,0.665119873046875,0.0012703295797109604,-0.00043659377843141556,-0.0011739330366253853
1746576376900085200,0.675085205078125,-0.0011488860473036766,0.00009337533265352249,-0.00025194650515913963
1746576376910050000,0.685050048828125,0.0008645239286124706,0.00018331920728087425,-0.0001064930111169815
1746576376920014000,0.69501416015625,-0.0012998271267861128,0.00046721240505576134,-0.000799181405454874
1746576376929979100,0.704979248046875,-0.0005566531326621771,-0.0006942311301827431,-0.0010557081550359726
1746576376939944000,0.71494384765625,-0.0003766233567148447,-0.0010407082736492157,0.0013893400318920612
1746576376949908000,0.724907958984375,0.001996744889765978,0.00013347063213586807,-0.0002872948534786701
1746576376959873300,0.734873291015625,-0.0009234112221747637,-0.0007056915201246738,-0.0006148633547127247
1746576376969838000,0.744838134765625,0.00025310227647423744,-0.0002880948595702648,0.0005093389190733433
1746576376979802000,0.754802001953125,0.0017756314482539892,0.00007063290104269981,0.0015178779140114784
1746576376989767200,0.76476708984375,0.0011413188185542822,-0.0015112236142158508,-0.0002963491715490818
1746576376999732000,0.77473193359375,0.0001490251161158085,0.0010294318199157715,-0.0004420243203639984
1746576377009696000,0.784696044921875,-0.0006485036574304104,-0.0005506621673703194,-0.00018479535356163979
1746576377019661300,0.794661376953125,0.0012127794325351715,0.00010607345029711723,0.00014623533934354782
1746576377029626000,0.804626220703125,-0.0009856894612312317,-0.0004383949562907219,-0.0004024431109428406
1746576377039590100,0.814590087890625,0.0003722563851624727,0.0007485761307179928,-0.001054118387401104
1746576377049555000,0.824554931640625,-0.0012422632426023483,0.00034529948607087135,0.000028763432055711746
1746576377059520000,0.83452001953125,-0.0001341216266155243,0.0007527628913521767,0.000766991637647152
1746576377069484300,0.844484375,0.0008861497044563293,-0.00017141131684184074,0.0011916500516235828
1746576377079449000,0.854448974609375,0.00022302265278995037,0.00017959345132112503,0.001143713016062975
1746576377089414100,0.8644140625,0.000485188327729702,0.00015471689403057098,-0.00026345252990722656
1746576377099378200,0.874378173828125,-0.0003401252906769514,-0.0004532826133072376,-0.0005324319936335087
1746576377109343000,0.884343017578125,-0.00044178939424455166,0.0005052974447607994,-0.00011132936924695969
1746576377119308300,0.894308349609375,0.00082374457269907,-0.0007301429286599159,0.0011717816814780235
1746576377129272300,0.904272216796875,-0.00045212660916149616,-0.0001213843934237957,0.00001598149538040161
1746576377139237000,0.914237060546875,-0.0005607835482805967,-0.0008092788048088551,-0.0004343590699136257
1746576377149202200,0.9242021484375,-0.001606964971870184,-0.00026608025655150414,-0.0018915855325758457
1746576377159166200,0.934166259765625,-0.00021280022338032722,0.000501975417137146,0.0006048614159226418
1746576377169131000,0.944131103515625,-0.0003666137345135212,-0.0002487548626959324,0.0005321111530065536
1746576377179096300,0.954096435546875,0.00008852058090269566,-0.00011559668928384781,-0.00008068233728408813
1746576377189060000,0.96406005859375,-0.00019692140631377697,0.0004038773477077484,-0.0005998127162456512
1746576377199025200,0.974025146484375,0.0002984267193824053,-0.0006781648844480515,0.0015935664996504784
1746576377208990200,0.983990234375,-0.0013047545216977596,-0.0005716495215892792,-0.00021496089175343513
1746576377218955000,0.993955078125,-0.0013633440248668194,0.0003394177183508873,0.0012665553949773312
1746576377228919000,1.0039189453125,-0.0010238243266940117,0.0002828049473464489,-0.0011580479331314564
1746576377238884000,1.013884033203125,0.00010216026566922665,0.00036775972694158554,-0.0013178372755646706
1746576377248849200,1.02384912109375,0.0006585984956473112,-0.001030848827213049,-0.00013847509399056435
1746576377258813200,1.033813232421875,-0.0006186533719301224,-0.0020535027142614126,-0.0007541975937783718
1746576377268778000,1.043778076171875,0.0016103391535580158,-0.0005718306638300419,0.001187372487038374
1746576377278743000,1.053742919921875,-0.0014831889420747757,0.0012612231075763702,0.00048163486644625664
1746576377288707000,1.06370703125,0.00016532931476831436,0.0001468658447265625,0.00004511140286922455
1746576377298672000,1.073672119140625,-0.0010235058143734932,-0.0003660591319203377,-0.0006246739067137241
1746576377308637200,1.08363720703125,-0.0007430682890117168,0.000634203664958477,0.00025114743039011955
1746576377318601200,1.093601318359375,-0.001506064087152481,-0.0010851328261196613,0.0008839145302772522
1746576377328566000,1.10356591796875,0.0008262160699814558,0.00014302600175142288,-0.00245920242741704
1746576377338531000,1.113531005859375,0.0010640362743288279,0.0002980222925543785,-0.0007254849188029766
1746576377348495000,1.1234951171875,-0.0009701631497591734,-0.001010064035654068,0.0005381107330322266
1746576377358460200,1.133460205078125,0.00010255794040858746,-0.0001426725648343563,-0.0005425997078418732
1746576377368425200,1.14342529296875,0.0005347765982151031,0.000404879916459322,0.001276346854865551
1746576377378389200,1.15338916015625,0.001983536407351494,0.00023523671552538872,0.00011307839304208755
1746576377388354000,1.16335400390625,0.0005780050996690989,0.00023250188678503036,-0.0004519810900092125
1746576377398319400,1.1733193359375,0.001197989098727703,-0.00018907664343714714,-0.001092737540602684
1746576377408283100,1.183283203125,0.00013193441554903984,-0.0005425126291811466,-0.00033616507425904274
1746576377418248200,1.193248291015625,-0.00072453822940588,-0.00035129766911268234,0.0006974078714847565
1746576377428213000,1.203212890625,-0.0007808480877429247,-0.0008188802748918533,-0.0011711418628692627
1746576377438177000,1.213177001953125,0.00036404491402208805,-0.00147561589255929,0.00045152241364121437
1746576377448142000,1.22314208984375,-0.0011660014279186726,0.0016661486588418484,0.000643664039671421
1746576377458107100,1.233107177734375,-0.0007193894125521183,0.0009423014707863331,0.000369358342140913
1746576377468071200,1.2430712890625,-0.0005914741195738316,0.00007379893213510513,-0.0003199470229446888
1746576377478036200,1.2530361328125,-0.0008908133022487164,0.0010146941058337688,-0.0007314058020710945
1746576377488001000,1.2630009765625,-0.0006160158663988113,0.0012377439998090267,-0.00040360819548368454
1746576377497965000,1.272965087890625,-0.001850657630711794,0.00011389004066586494,0.00004247110337018967
1746576377507930000,1.28293017578125,0.001171537907794118,0.0006600064225494862,-0.00177034642547369
1746576377517895200,1.292895263671875,-0.00055312504991889,-0.0004007304087281227,-0.0011042901314795017
1746576377527859200,1.302859130859375,0.0011056957300752401,0.0005645626224577427,-0.00014678854495286942
1746576377537824300,1.31282421875,0.0013200801331549883,-0.00048339134082198143,0.0008510979823768139
1746576377547789000,1.3227890625,0.002510604914277792,0.0008290847763419151,-0.00038130907341837883
1746576377557753000,1.332753173828125,0.00167144276201725,0.001093270257115364,-0.0010902425274252892
1746576377567718100,1.34271826171875,-0.000988127663731575,-0.0005332767032086849,-0.0007665627636015415
1746576377577683200,1.35268310546875,0.0001213450450450182,0.001574881374835968,-0.0002816012129187584
1746576377587647200,1.362647216796875,-0.0005817853379994631,-0.00011381739750504494,0.0004572086036205292
1746576377597612000,1.372612060546875,0.0009125140495598316,-0.0005527064204216003,-0.00039447052404284477
1746576377607577000,1.3825771484375,-0.0002958693075925112,0.00037810252979397774,0.000018332619220018387
1746576377617541000,1.392541015625,0.0009571481496095657,0.0014481605030596256,0.00005535082891583443
1746576377627506000,1.402505859375,-0.000470050610601902,-0.00021793553605675697,0.0010707080364227295
1746576377637471200,1.41247119140625,0.00022636586800217628,-0.0010861260816454887,0.0008209035731852055
1746576377647436000,1.42243603515625,0.0008727987296879292,-0.0007633594796061516,0.0006882124580442905
1746576377657400000,1.432400146484375,0.0015484425239264965,0.000008691102266311646,0.00025864457711577415
1746576377667365000,1.442365234375,0.00037967110984027386,0.0006555202417075634,-0.0012525338679552078
1746576377677329400,1.452329345703125,-0.000735394423827529,-0.00018204376101493835,0.00012165727093815804
1746576377687293200,1.462293212890625,-0.0006367098540067673,-0.00038160476833581924,0.000713263638317585
1746576377697258200,1.47225830078125,0.0000197594054043293,0.0013590375892817974,-0.001154144760221243
1746576377707223300,1.482223388671875,0.00046424800530076027,-0.0008315518498420715,-0.0007756985723972321
1746576377717187000,1.49218701171875,0.000796344131231308,0.0001524863764643669,0.0009092837572097778
1746576377727152400,1.50215234375,-0.0015701360534876585,-0.00027022557333111763,-0.00008381577208638191
1746576377737117200,1.5121171875,0.0005105917807668447,-0.0010854192078113556,0.00009887712076306343
1746576377747081200,1.522081298828125,-0.0005552212242037058,0.00034073367714881897,0.0020146132446825504
1746576377757046300,1.53204638671875,0.00039446214213967323,0.00046164123341441154,0.0004726429469883442
1746576377767011000,1.542010986328125,-0.00008021853864192963,-0.000938687939196825,-0.0006591458804905415
1746576377776975000,1.55197509765625,0.0003133967984467745,0.00029408931732177734,0.0010569952428340912
1746576377786940400,1.5619404296875,-0.0005663216579705477,0.0003397553227841854,0.001922090072184801
1746576377796905200,1.5719052734375,-0.0012411668431013823,-0.0009611989371478558,-0.0001559746451675892
1746576377806869200,1.581869140625,-0.0014045033603906631,0.0006513562984764576,0.00027417484670877457
1746576377816834300,1.591834228515625,-0.00024309847503900528,0.000600490253418684,0.0009543462656438351
1746576377826799000,1.601799072265625,0.0007467872928828001,0.000014493241906166077,-0.0005623050965368748
1746576377836763100,1.61176318359375,-0.000821548281237483,0.00012421514838933945,0.0014438540674746037
1746576377846728400,1.621728515625,-0.001134919235482812,0.0004479247145354748,-0.0012263399548828602
1746576377856693200,1.631693359375,0.0005774935707449913,0.001411722507327795,0.0008349469862878323
1746576377866657300,1.6416572265625,-0.001228769076988101,0.00022630766034126282,-0.0014525959268212318
1746576377876622000,1.6516220703125,0.000010932330042123795,0.00021938327699899673,-0.00010184058919548988
1746576377886587100,1.661587158203125,0.000034585827961564064,-0.0006112228147685528,-0.0002247234806418419
1746576377896551200,1.67155126953125,0.0011619017459452152,-0.0000972324050962925,0.0007515912875533104
1746576377906516200,1.68151611328125,-0.0005118770059198141,-0.0005176891572773457,-0.00037207547575235367
1746576377916481300,1.691481201171875,0.0000654964242130518,0.0005917833186686039,-0.00021814508363604546
1746576377926445300,1.7014453125,0.0005170018412172794,0.00022811396047472954,-0.00031356513500213623
1746576377936410000,1.71141015625,-0.0009059254080057144,-0.0011623227037489414,0.0021914043463766575
1746576377946375200,1.721375244140625,0.0011804974637925625,-0.00007134024053812027,-0.0003101085312664509
1746576377956340200,1.73134033203125,-0.00022485246881842613,-0.0004950491711497307,0.00013996567577123642
1746576377966304300,1.74130419921875,0.0003334565553814173,-0.0003296220675110817,-0.00021023442968726158
1746576377976269300,1.751269287109375,-0.00036615575663745403,-0.000786087941378355,-0.001413184218108654
1746576377986234000,1.761234130859375,0.001074501546099782,-0.0003765299916267395,0.00034483615309000015
1746576377996198100,1.7711982421875,0.00003799935802817345,0.0001398567110300064,0.00037013599649071693
1746576378006163500,1.78116357421875,0.000848081661388278,-0.00016905833035707474,0.00018206844106316566
1746576378016128300,1.791128173828125,0.0003231726586818695,0.001217117067426443,-0.001269088126718998
1746576378026092300,1.80109228515625,-0.0009154530707746744,-0.0013779434375464916,0.00038350513204932213
1746576378036057300,1.811057373046875,0.00014608283527195454,0.00027934182435274124,0.0007805824279785156
1746576378046022100,1.821022216796875,-0.0005082169082015753,0.0001524677500128746,0.0004387865774333477
1746576378055986200,1.830986083984375,-0.00021500303409993649,-0.00037164241075515747,-0.0008943919092416763
1746576378065951200,1.840951171875,0.0010854920838028193,-0.0004564323462545872,-0.00017733266577124596
1746576378075916300,1.850916259765625,0.0007957401685416698,0.00006954185664653778,0.0005321335047483444
1746576378085880300,1.86088037109375,-0.00009203283116221428,-0.000019759871065616608,0.000283658504486084
1746576378095845000,1.87084521484375,0.0013372856192290783,0.0012662806548178196,-0.0006266101263463497
1746576378105810200,1.88081005859375,0.0008242109324783087,-0.0008831936866044998,-0.0008305464871227741
1746576378115774200,1.890774169921875,0.0003094219136983156,-0.000005948357284069061,0.001001708209514618
1746576378125739300,1.9007392578125,0.000632166862487793,0.00030992040410637856,-0.00013853050768375397
1746576378135704300,1.910704345703125,-0.0008565403986722231,-0.0005580037832260132,-0.0002455897629261017
1746576378145668400,1.92066845703125,0.00002212286926805973,0.0003700307570397854,0.001147877424955368
1746576378155633200,1.930633056640625,0.0006650099530816078,-0.00027978047728538513,0.0004991311579942703
1746576378165598200,1.94059814453125,-0.00026183039881289005,-0.000516572967171669,-0.0002696625888347626
1746576378175562200,1.950562255859375,0.00027000298723578453,-0.0006997985765337944,0.0006379424594342709
1746576378185527300,1.96052734375,0.0013741161674261093,0.00176583556458354,0.00043518655002117157
1746576378195492400,1.970492431640625,-0.0005255164578557014,0.000929070170968771,0.0001768595539033413
1746576378205456400,1.980456298828125,-0.00036701327189803123,0.013984207063913345,0.004227398429065943
1746576378215421200,1.990421142578125,0.0009635018650442362,-0.008657456375658512,-0.0018962742760777473
1746576378225386200,2.00038623046875,0.0011553349904716015,0.007201275788247585,-0.0005689547397196293
1746576378235350000,2.01035009765625,-0.000059332698583602905,-0.004645796492695808,-0.0013007912784814835
1746576378245315300,2.0203154296875,0.00011241482570767403,0.00132311275228858,0.0012484784238040447
1746576378255280400,2.0302802734375,-0.00009797490201890469,-0.004831186030060053,-0.001543047372251749
1746576378265245200,2.0402451171875,0.015798944979906082,0.002746469806879759,0.00036023370921611786
1746576378275209200,2.050209228515625,0.02727956511080265,-0.006420929916203022,0.0002872631885111332
1746576378285174000,2.060174072265625,0.03868183493614197,0.0035326755605638027,0.0005168691277503967
1746576378295139300,2.070139404296875,0.03635795786976814,-0.014266828075051308,0.0018319382797926664
1746576378305103400,2.080103271484375,0.031898483633995056,-0.01932622492313385,-0.0030572018586099148
1746576378315068200,2.090068115234375,0.00437338137999177,-0.005377651657909155,0.002489630365744233
1746576378325033200,2.100033203125,-0.019350610673427582,-0.011229833588004112,-0.0018587978556752205
1746576378334997200,2.109997314453125,-0.036933597177267075,-0.05729932337999344,-0.011697846464812756
1746576378344962300,2.11996240234375,-0.08361506462097168,0.016865868121385574,0.011126715689897537
1746576378354927400,2.12992724609375,-0.2037918120622635,0.09637799859046936,0.02739064022898674
1746576378364891400,2.139891357421875,-0.30210641026496887,0.01791127398610115,0.005121080670505762
1746576378374856200,2.149856201171875,-0.41183236241340637,-0.03205948323011398,-0.009612591937184334
1746576378384821200,2.1598212890625,-0.5598471164703369,-0.0030462078284472227,0.00260230153799057
1746576378394785300,2.169785400390625,-0.7895548939704895,0.012419833801686764,0.0079280911013484
1746576378404750300,2.179750244140625,-0.7566850781440735,-0.18365757167339325,-0.06363328546285629
1746576378414715400,2.18971533203125,-0.6301412582397461,-0.2531314492225647,-0.08155608922243118
1746576378424679200,2.19967919921875,-0.5384297370910645,-0.13333402574062347,-0.04613874480128288
1746576378434644200,2.209644287109375,-0.4559902846813202,0.0655101090669632,0.0016703249420970678
1746576378444609300,2.219609375,-0.3990136981010437,0.24047346413135529,0.0822986587882042
1746576378454573000,2.229572998046875,-0.346771776676178,0.3738346993923187,0.11965348571538925
1746576378464538400,2.239538330078125,-0.3134457468986511,-0.2645255923271179,-0.07962867617607117
1746576378474503200,2.249503173828125,-0.2716487944126129,-0.07081152498722076,-0.008712423965334892
1746576378484467200,2.25946728515625,-0.22951501607894897,0.19903327524662018,0.07186783105134964
1746576378494432300,2.269432373046875,-0.18944428861141205,0.013630127534270287,0.0010921908542513847
1746576378504397000,2.27939697265625,-0.14963404834270477,-0.19776727259159088,-0.06515904515981674
1746576378514361000,2.289361083984375,-0.10620880872011185,0.015415852889418602,0.010429983958601952
1746576378524326400,2.299326416015625,-0.06384852528572083,0.18637436628341675,0.05626484006643295
1746576378534291200,2.309291259765625,-0.050551366060972214,-0.11213324218988419,-0.029184013605117798
1746576378544255200,2.319255126953125,-0.03250313922762871,-0.1967095583677292,-0.057695068418979645
1746576378554220300,2.32922021484375,-0.011862305924296379,0.1207224503159523,0.05504506081342697
1746576378564185000,2.33918505859375,0.0010487122926861048,0.11581816524267197,0.03973885998129845
1746576378574149000,2.349149169921875,0.0000761258415877819,-0.16932621598243713,-0.04737420380115509
1746576378584114400,2.359114501953125,0.007646482437849045,0.02969815395772457,0.009175555780529976
1746576378594079200,2.369079345703125,0.016442105174064636,0.12376126646995544,0.028078673407435417
1746576378604043300,2.379043212890625,-0.009784271009266376,-0.06266026943922043,-0.01704281195998192
1746576378614008000,2.389008056640625,-0.0015556353610008955,-0.012797370553016663,-0.0035552317276597023
1746576378623973000,2.39897314453125,-0.0030214181169867516,0.044794172048568726,0.013821035623550415
1746576378633937400,2.4089375,0.0007762496825307608,-0.011092528700828552,-0.004558504093438387
1746576378643902200,2.418902099609375,0.0005852377507835627,-0.0159900039434433,-0.003868567291647196
1746576378653867300,2.4288671875,0.0010251919738948345,0.024064738303422928,0.006948394700884819
1746576378663832000,2.43883203125,0.0024941773153841496,-0.011168274097144604,-0.0033074882812798023
1746576378673796400,2.44879638671875,-0.0028579772915691137,-0.00376601773314178,-0.000002771615982055664
1746576378683761400,2.458761474609375,-0.0002413787879049778,0.0097397081553936,0.0030243247747421265
1746576378693726200,2.468726318359375,-0.00001234724186360836,-0.007572437636554241,-0.0030900267884135246
1746576378703690200,2.478690185546875,-0.0006224773824214935,0.0026770043186843395,0.0012812856584787369
1746576378713655300,2.4886552734375,-0.00015455996617674828,0.0008572661317884922,-0.00015202723443508148
1746576378723620400,2.498620361328125,0.0004426250234246254,-0.0028003621846437454,-0.00034593604505062103
1746576378733584400,2.50858447265625,-0.0004290277138352394,0.002789080608636141,0.0017893863841891289
1746576378743549400,2.518549560546875,-0.0009235702455043793,-0.001781475031748414,-0.0010733534581959248
1746576378753514200,2.52851416015625,-0.0002559153363108635,0.00022415164858102798,0.0007714182138442993
1746576378763478300,2.538478271484375,0.00041946209967136383,0.00006063375622034073,0.0013402695767581463
1746576378773443300,2.548443359375,-0.0021568797528743744,0.061431050300598145,0.017413511872291565
1746576378783408400,2.558408447265625,0.001265387749299407,-0.012541362084448338,-0.0043073962442576885
1746576378793372400,2.568372314453125,0.000742076663300395,-0.04322204366326332,-0.014037787914276123
1746576378803337200,2.578337158203125,-0.0011054982896894217,0.06459961086511612,0.018335508182644844
1746576378813302300,2.58830224609375,0.0012290289159864187,-0.04806595668196678,-0.012999778613448143
1746576378823266300,2.598266357421875,-0.0013758295681327581,0.0005019605159759521,-0.000334789976477623
1746576378833231400,2.6082314453125,0.0014561759307980537,-0.022177252918481827,-0.008046505972743034
1746576378843196400,2.618196533203125,-0.00005120108835399151,0.0061264438554644585,0.0038614545483142138
1746576378853160400,2.628160400390625,0.0017070178873836994,0.004263562150299549,-0.0003000008873641491
1746576378863125200,2.638125244140625,-0.0012772376649081707,-0.008481988683342934,-0.0014430000446736813
1746576378873090300,2.64809033203125,-0.0027206712402403355,0.006407745648175478,0.0016284235753118992
1746576378883054300,2.658054443359375,-0.0012544244527816772,-0.0035130956675857306,0.00043993350118398666
1746576378893019400,2.668019287109375,0.0010215130168944597,-0.0006334194913506508,-0.0005622138269245625
1746576378902984400,2.677984375,0.00010857405140995979,0.00009925384074449539,0.0009516356512904167
1746576378912948500,2.687948486328125,-0.0003691969905048609,-0.0028523276560008526,-0.0012417435646057129
1746576378922913300,2.697913330078125,-0.0005076741799712181,0.0026696990244090557,0.000047383829951286316
1746576378932878300,2.70787841796875,0.001233234303072095,-0.0005367468111217022,-0.0007361182942986488
1746576378942842400,2.71784228515625,0.001479926286265254,-0.0003310791216790676,-0.0001920051872730255
1746576378952807400,2.727807373046875,0.0003041406162083149,-0.0012735719792544842,-0.0010743103921413422
1746576378962772500,2.7377724609375,0.0005438041407614946,-0.00030007120221853256,-0.00027663400396704674
1746576378972736300,2.747736328125,0.0014468820299953222,-0.0006247102282941341,0.000539091881364584
1746576378982701300,2.757701416015625,-0.0013300441205501556,-0.0002531972713768482,0.0006812647916376591
1746576378992666400,2.767666259765625,0.0004257778637111187,-0.0019235317595303059,0.00018272129818797112
1746576379002630100,2.777630126953125,-0.0006810601335018873,-0.0004977881908416748,-0.00043789250776171684
1746576379012595500,2.787595458984375,-0.0001777226570993662,-0.00036782631650567055,0.0011184588074684143
1746576379022560300,2.797560302734375,0.001246332423761487,0.00019748369231820107,-0.0011560586281120777
1746576379032525300,2.807525390625,-0.00034970021806657314,-0.0006712395697832108,0.00033637648448348045
1746576379042489300,2.8174892578125,0.0013592089526355267,0.0002770763821899891,0.0009271837770938873
1746576379052454100,2.8274541015625,-0.00002483581192791462,0.00031729042530059814,-0.0006781700067222118
1746576379062419500,2.83741943359375,0.0014667862560600042,-0.0004056817851960659,-0.00037381937727332115
1746576379072383500,2.847383544921875,-0.00024136505089700222,-0.0005580144934356213,-0.0014968742616474628
1746576379082348300,2.857348388671875,0.00003795814700424671,0.00012158788740634918,-0.00012309709563851357
1746576379092313300,2.867313232421875,4.076864570379257e-7,0.0010164100676774979,0.00003216508775949478
1746576379102277400,2.87727734375,0.0008487224113196135,-0.000286945141851902,0.0005971002392470837
1746576379112242200,2.8872421875,-0.0010093648452311754,-0.0009285006672143936,-0.0017898911610245705
1746576379122207500,2.89720751953125,0.00026786630041897297,0.0010223803110420704,-0.00039646681398153305
1746576379132171500,2.907171630859375,0.0005690697580575943,0.0007621892727911472,0.0005090082995593548
1746576379142136300,2.91713623046875,-0.000045307446271181107,-0.0010863873176276684,-0.00036206282675266266
1746576379152101400,2.927101318359375,-0.00035529956221580505,0.0009330874308943748,-0.0012536891736090183
1746576379162065200,2.937065185546875,-0.0011873480398207903,0.003775634802877903,0.0033087015617638826
1746576379172030500,2.947030517578125,-0.001008117338642478,0.007078487426042557,0.0022583508398383856
1746576379181995300,2.956995361328125,0.0008120601996779442,-0.00481842178851366,-0.003470826428383589
1746576379191959300,2.966959228515625,0.0010280425194650888,-0.0106241125613451,-0.0034644347615540028
1746576379201924400,2.97692431640625,-0.004125026986002922,-0.01675795391201973,-0.004745861981064081
1746576379211889200,2.98688916015625,-0.04966241866350174,-0.037188127636909485,-0.010491365566849709
1746576379221853200,2.996853271484375,-0.05578100308775902,-0.08942952007055283,-0.03381137177348137
1746576379231818500,3.006818603515625,-0.026801016181707382,-0.09938228875398636,-0.032526664435863495
1746576379241783300,3.016783203125,0.03279292583465576,-0.08306814730167389,-0.03915232792496681
1746576379251747300,3.026747314453125,0.11783991008996964,-0.07632608711719513,-0.02143990620970726
1746576379261712400,3.03671240234375,0.20399361848831177,-0.21915578842163086,-0.08225385844707489
1746576379271677200,3.04667724609375,0.23797741532325745,-0.14229562878608704,-0.04484603554010391
1746576379281641200,3.05664111328125,0.27668994665145874,0.16051924228668213,0.06625992059707642
1746576379291606500,3.0666064453125,0.3351926803588867,0.4397287666797638,0.15544065833091736
1746576379301571300,3.0765712890625,0.38031715154647827,0.5158094763755798,0.1452910602092743
1746576379311535400,3.086535400390625,0.35019680857658386,-0.26883235573768616,-0.07665599882602692
1746576379321500400,3.09650048828125,0.3162853717803955,0.03228659927845001,0.006020529195666313
1746576379331465200,3.10646533203125,0.28232818841934204,0.19978611171245575,0.07147330045700073
1746576379341429200,3.11642919921875,0.2388858050107956,-0.0970258116722107,-0.018567074090242386
1746576379351394300,3.126394287109375,0.2101718783378601,0.05959682539105415,0.003878846298903227
1746576379361359400,3.136359375,0.1731596440076828,0.02831711806356907,0.0059349327348172665
1746576379371323400,3.146323486328125,0.14064112305641174,-0.07643113285303116,-0.02454521134495735
1746576379381288200,3.1562880859375,0.11999046057462692,0.04165034741163254,0.01638181321322918
1746576379391253200,3.166253173828125,0.09852618724107742,0.08354773372411728,0.03449876606464386
1746576379401217300,3.17621728515625,0.06970562040805817,-0.1005999967455864,-0.031910695135593414
1746576379411182300,3.186182373046875,0.05888626351952553,-0.02091182954609394,-0.006958208046853542
1746576379421147400,3.1961474609375,0.04236837476491928,0.1325000524520874,0.03703531622886658
1746576379431111400,3.206111328125,0.015605739317834377,-0.0966939851641655,-0.025907961651682854
1746576379441076200,3.216076171875,0.004145938437432051,0.009052149020135403,0.0036824611015617847
1746576379451041300,3.226041259765625,-0.0025055725127458572,0.05848707631230354,0.015629135072231293
1746576379461005600,3.236005615234375,0.0005560752470046282,-0.04641406610608101,-0.013237131759524345
1746576379470970400,3.245970458984375,-0.0017494233325123787,0.03993812948465347,0.010666868649423122
1746576379480935400,3.255935302734375,0.001202775863930583,-0.0259539932012558,-0.006786396261304617
1746576379490899200,3.265899169921875,-0.00022893957793712616,0.013517514802515507,0.0035325540229678154
1746576379500864300,3.2758642578125,-0.000859562074765563,-0.0066434904001653194,-0.002706383354961872
1746576379510829600,3.28582958984375,-0.00031840777955949306,0.001552388072013855,-0.00006532669067382812
1746576379520794400,3.29579443359375,0.0007759404834359884,0.002268204465508461,0.0001279488205909729
1746576379530758400,3.30575830078125,0.0006550329271703959,-0.0017864580731838942,-0.00006459793075919151
1746576379540723200,3.31572314453125,-0.00013153860345482826,0.003291625063866377,-0.00031729089096188545
1746576379550688300,3.325688232421875,-0.000045252032577991486,-0.004145784303545952,0.0009482433088123798
1746576379560652300,3.33565234375,0.0001906894613057375,0.002647216897457838,0.0006509860977530479
1746576379570617300,3.345617431640625,-0.000006118090823292732,-0.003083639545366168,-0.00016287574544548988
1746576379580582400,3.35558251953125,-0.00022552721202373505,0.0013322234153747559,0.0010267472825944424
1746576379590546400,3.36554638671875,-0.00017279665917158127,-0.0007793973200023174,-0.0016475990414619446
1746576379600511200,3.37551123046875,-0.0016940368805080652,0.0003841007128357887,0.00014562718570232391
1746576379610476300,3.385476318359375,-0.000392549904063344,0.0003918237052857876,-0.0005728937685489655
1746576379620440300,3.3954404296875,-0.0002539730630815029,-0.0006638183258473873,-0.0002573905512690544
1746576379630405400,3.4054052734375,-0.000561834778636694,-0.00018950924277305603,-0.0009042723104357719
1746576379640370400,3.415370361328125,0.0013563979882746935,0.0005161920562386513,0.0002236957661807537
1746576379650334500,3.42533447265625,0.0020586736500263214,0.0010522864758968353,0.0002987966872751713
1746576379660299300,3.43529931640625,0.00039477297104895115,-0.0008774036541581154,0.000963136088103056
1746576379670264300,3.445264404296875,-0.001605527475476265,0.0005079726688563824,-0.00017962604761123657
1746576379680228400,3.455228271484375,0.0006261516828089952,-0.0005327882245182991,0.0003734738565981388
1746576379690193700,3.465193603515625,-0.00013524596579372883,0.0010664397850632668,-0.00028166361153125763
1746576379700158700,3.47515869140625,-0.00146195525303483,0.0007666787132620811,-0.0006160195916891098
1746576379710122500,3.48512255859375,-0.0006132056005299091,0.0001879734918475151,0.0002923845313489437
1746576379720087600,3.495087646484375,0.0002120800781995058,-0.0001394418068230152,-0.00016338098794221878
1746576379730052400,3.50505224609375,-0.0001722141169011593,-0.0004030950367450714,-0.001451818272471428
1746576379740016600,3.5150166015625,-0.0014313287101686,0.00040608644485473633,-0.0001984359696507454
1746576379749981700,3.524981689453125,0.00048348400741815567,0.0005839858204126358,-0.00043439213186502457
1746576379759946500,3.534946533203125,0.00041015539318323135,0.00014692684635519981,0.0011201752349734306
1746576379769910500,3.54491064453125,-0.0008146325126290321,0.00007368950173258781,0.0006884769536554813
1746576379779875600,3.55487548828125,-0.0008175126276910305,0.0006665070541203022,-0.0013823583722114563
1746576379789840600,3.564840576171875,0.0004405647050589323,-0.001164416316896677,0.000031513627618551254
1746576379799804700,3.5748046875,0.0001800796017050743,0.0002088630571961403,-0.000668196938931942
1746576379809769700,3.584769775390625,0.0007236308883875608,0.001669074408710003,-0.0005909651517868042
1746576379819734500,3.594734619140625,-0.0008002230897545815,-0.0005155550315976143,-0.00015298416838049889
1746576379829698600,3.604698486328125,-0.00028889579698443413,-0.0007746806368231773,-0.00013034744188189507
1746576379839663600,3.61466357421875,0.00046822638250887394,-0.0009857919067144394,-0.0006555714644491673
1746576379849628700,3.624628662109375,-0.00041301362216472626,-0.0002068174071609974,-0.0005690190009772778
1746576379859592700,3.6345927734375,-0.0012953614350408316,-0.0006598583422601223,-0.0008029909804463387
1746576379869557500,3.6445576171875,0.00004287692718207836,-0.0002646450884640217,-0.0013601239770650864
1746576379879522600,3.6545224609375,-0.00007098610512912273,-0.0006376062519848347,-0.0006865933537483215
1746576379889486600,3.664486572265625,0.0000698950607329607,0.000287842471152544,-0.0011917948722839355
1746576379899451400,3.674451416015625,0.00012418115511536598,-0.001170541625469923,-0.0004782155156135559
1746576379909416700,3.684416748046875,-0.0010047326795756817,-0.000055742450058460236,0.0008586915209889412
1746576379919380700,3.694380615234375,0.00144983921200037,-0.0010554147884249687,-0.00024714088067412376
1746576379929345500,3.704345458984375,0.0013009686954319477,0.0012596710585057735,0.0005861623212695122
1746576379939310600,3.714310546875,0.0002513111103326082,-0.00002831593155860901,-0.0002919817343354225
1746576379949275400,3.724275390625,-0.001001173397526145,0.0015943478792905807,0.00002466794103384018
1746576379959239400,3.734239501953125,-0.0009807711467146873,0.00018584495410323143,0.0007797046564519405
1746576379969204700,3.744204833984375,-0.0014082086272537708,0.00030089356005191803,0.00013495329767465591
1746576379979169500,3.75416943359375,0.00040974165312945843,0.0010413629934191704,0.0014056847430765629
1746576379989133600,3.764133544921875,-0.0004113109316676855,0.0002168486826121807,0.0008597364649176598
1746576379999098600,3.7740986328125,-0.00019700289703905582,0.0012234128080308437,-0.0009404309093952179
1746576380009063400,3.7840634765625,0.0009396341629326344,-0.0002463860437273979,-0.0003215125761926174
1746576380019027500,3.79402734375,0.000539382454007864,0.0005156956613063812,0.00035300618037581444
1746576380028992800,3.80399267578125,0.0006869216449558735,0.0009857434779405594,-0.0007897564209997654
1746576380038957600,3.81395751953125,-0.0001918482594192028,-0.0005537508986890316,0.0005465303547680378
1746576380048921600,3.823921630859375,-0.0003226094413548708,-0.00004269042983651161,0.0008410760201513767
1746576380058886700,3.83388671875,-0.0007374482229351997,-0.0002087606117129326,-0.0003177942708134651
1746576380068851500,3.8438515625,0.0015957471914589405,-0.0008985190652310848,0.0015956868883222342
1746576380078815700,3.853815673828125,0.00011695944704115391,-0.00010843900963664055,-0.00006118277087807655
1746576380088780500,3.863780517578125,-0.0016625644639134407,0.0005938364192843437,0.001127119641751051
1746576380098745600,3.87374560546875,-0.0005715524312108755,-0.0007914933376014233,-0.0006071352399885654
1746576380108709600,3.883709716796875,0.0006662847008556128,0.00009640445932745934,-0.0007773111574351788
1746576380118674400,3.89367431640625,0.0007835677824914455,-0.0002554040402173996,0.0005876449868083
1746576380128639700,3.9036396484375,-0.002505169715732336,0.0008415519259870052,-0.000984685029834509
1746576380138603800,3.913603759765625,0.0004267594777047634,0.0002450295723974705,0.0001629376783967018
1746576380148568600,3.923568603515625,-0.0007170683238655329,-0.0008993307128548622,0.00006546592339873314
1746576380158533600,3.93353369140625,-0.00010443897917866707,-0.0004355781711637974,-0.00030276644974946976
1746576380168497700,3.94349755859375,0.0003083508927375078,0.0005681673064827919,0.00029085204005241394
1746576380178462500,3.95346240234375,0.0013771036174148321,0.0005011926405131817,0.00024379044771194458
1746576380188427800,3.963427734375,0.0011235708370804787,0.001235426403582096,-0.00012825289741158485
1746576380198391600,3.9733916015625,-0.0013020862825214863,0.0010544066317379475,0.00007264362648129463
1746576380208356600,3.983356689453125,-0.0001007341779768467,0.0008514737710356712,-0.00018381886184215546
1746576380218321700,3.99332177734375,-0.0007487365510314703,0.00026721879839897156,0.0007234252989292145
1746576380228285400,4.003285400390625,-0.00106245675124228,0.0008802786469459534,0.000867768656462431
1746576380238250500,4.01325048828125,0.0007286050822585821,0.0007667401805520058,-0.0003943284973502159
1746576380248215600,4.023215576171875,0.00008305488154292107,0.0003984253853559494,-0.00010617449879646301
1746576380258179600,4.0331796875,0.0008129728958010674,-0.0007166662253439426,0.00021474063396453857
1746576380268144600,4.04314453125,0.0006566455122083426,-0.000829583965241909,-0.00013200286775827408
1746576380278109400,4.053109375,-0.001197722041979432,-0.0011652628891170025,0.000017200596630573273
1746576380288073500,4.063073486328125,0.0013996586203575134,0.00003156159073114395,0.0013586347922682762
1746576380298038500,4.07303857421875,0.00125280418433249,0.0008515841327607632,-0.0009132265113294125
1746576380308003600,4.083003662109375,0.0005633116234093904,-0.0010608318261802197,0.0002106274478137493
1746576380317967600,4.092967529296875,-0.000021673738956451416,-0.0005919868126511574,0.0005724639631807804
1746576380327932700,4.1029326171875,0.0012619700282812119,-0.00036055780947208405,-0.0002360716462135315
1746576380337897500,4.1128974609375,0.0014312718994915485,-0.0008881101384758949,0.0006001242436468601
1746576380347861500,4.122861572265625,-0.000995666952803731,-0.0010220673866569996,-0.00012345658615231514
1746576380357826600,4.13282666015625,-0.00030485447496175766,0.0008380510844290257,0.0002825399860739708
1746576380367791600,4.14279150390625,0.0010357806459069252,0.0006103506311774254,-0.000859423540532589
1746576380377755600,4.152755615234375,-0.0006067075300961733,0.0008072811178863049,0.0004082615487277508
1746576380387720700,4.162720703125,-0.00040643778629601,0.0008403044193983078,-0.00041785091161727905
1746576380397685500,4.172685546875,0.00007825717329978943,0.0006780833937227726,-0.00026698037981987
1746576380407649500,4.1826494140625,0.00037626479752361774,-0.00032246625050902367,-0.0007319683209061623
1746576380417614600,4.192614501953125,-0.0002445271238684654,0.0006662104278802872,-0.0006559551693499088
1746576380427579600,4.20257958984375,0.0005094138905405998,0.0017088381573557854,-0.0006133443675935268
1746576380437543700,4.212543701171875,-0.0014897179789841175,-0.001076586078852415,-0.0005495049990713596
1746576380447508500,4.222508544921875,0.00015771342441439629,0.0010635298676788807,-0.0010501793585717678
1746576380457473500,4.2324736328125,0.00012293108738958836,0.0008398569189012051,-0.0001339302398264408
1746576380467437600,4.2424375,-0.000720492098480463,-0.0002371254377067089,0.0010762098245322704
1746576380477402600,4.252402587890625,0.00020677759312093258,0.0006767138838768005,0.0000039334408938884735
1746576380487367700,4.26236767578125,0.00033114710822701454,0.0013888431712985039,0.0005645290948450565
1746576380497331700,4.272331787109375,0.0011092673521488905,0.000989445485174656,0.0009727030992507935
1746576380507296500,4.282296630859375,-0.0005213860422372818,0.00006905663758516312,0.00019905483350157738
1746576380517261600,4.292261474609375,-0.0016206533182412386,-0.0007940460927784443,-0.000712923239916563
1746576380527225600,4.3022255859375,-0.0003702992107719183,0.00007520942017436028,0.001128119882196188
1746576380537190700,4.312190673828125,-0.0008472462650388479,-0.0011606398038566113,0.0022601380478590727
1746576380547155700,4.32215576171875,0.00023692636750638485,-0.00048046885058283806,-0.0009716078639030457
1746576380557120500,4.33212060546875,-0.0008402843959629536,0.00004089018329977989,-0.00022537261247634888
1746576380567084500,4.34208447265625,-0.0016536139883100986,0.0016797995194792747,-0.00020486628636717796
1746576380577049600,4.352049560546875,0.0007468394469469786,0.00015771063044667244,-0.001123957335948944
1746576380587014700,4.3620146484375,0.0007998363580554724,0.00002801511436700821,0.00040496326982975006
1746576380596978700,4.371978759765625,0.0006778582464903593,-0.0006579509936273098,-0.0009190416894853115
1746576380606943500,4.381943603515625,0.0011873207986354828,0.0006904075853526592,-0.0011805640533566475
1746576380616908500,4.391908447265625,-0.00010161171667277813,0.000630649272352457,0.0008959393016994
1746576380626872600,4.40187255859375,0.0018542137695476413,0.00029375962913036346,-0.0013357894495129585
1746576380636837400,4.41183740234375,0.0016488505061715841,0.000008174683898687363,-0.00014773616567254066
1746576380646802700,4.421802734375,0.00016014347784221172,-0.0011239354498684406,0.0007998165674507618
1746576380656766700,4.4317666015625,0.0012577357701957226,0.00032420502975583076,0.0002613477408885956
1746576380666731500,4.4417314453125,0.0000167028047144413,-0.0009996523149311543,0.001236597541719675
1746576380676696800,4.45169677734375,0.00033387006260454655,-0.0017598529811948538,-0.0007887417450547218
1746576380686660900,4.461660888671875,0.0006004525348544121,-0.00012680282816290855,0.00002538645640015602
1746576380696625700,4.471625732421875,0.00024212989956140518,0.0010106125846505165,-0.001145931426435709
1746576380706590700,4.4815908203125,-0.00006546499207615852,-0.00039740046486258507,-0.0010729609057307243
1746576380716554800,4.4915546875,-0.00001680385321378708,-0.0012864810414612293,-0.0011434308253228664
1746576380726519800,4.501519775390625,-0.000048229238018393517,-0.0011623776517808437,0.0012358371168375015
1746576380736484900,4.51148486328125,0.0008983882144093513,-0.0012902822345495224,0.0011154161766171455
1746576380746448600,4.52144873046875,0.0005867984145879745,-0.0018948197830468416,0.0002504214644432068
1746576380756413700,4.53141357421875,0.0006171099375933409,-0.0010236939415335655,0.0001011197455227375
1746576380766378800,4.541378662109375,-0.000030038179829716682,-0.0001488453708589077,-0.0018770764581859112
1746576380776342800,4.5513427734375,0.00016680662520229816,-0.0007665278390049934,0.0004163607954978943
1746576380786307800,4.561307861328125,-0.0005423934198915958,0.0011663944460451603,0.0006555127911269665
1746576380796272600,4.571272705078125,-0.0019147242419421673,0.0009069447405636311,-0.0003580590710043907
1746576380806236700,4.581236572265625,-0.00007900712080299854,-0.0010222489945590496,0.0012789862230420113
1746576380816201700,4.59120166015625,-0.00012125936336815357,-0.0009051524102687836,0.0004368606023490429
1746576380826166800,4.601166748046875,-0.001346047269180417,0.00028022099286317825,0.00021981261670589447
1746576380836130800,4.611130859375,0.0008039306849241257,-0.000046570785343647,-0.0008171792142093182
1746576380846096000,4.621095947265625,-0.00009169033728539944,0.0006328015588223934,-0.002457952592521906
1746576380856060700,4.631060791015625,-0.0003494934644550085,-0.00010333675891160965,-0.0006512128747999668
1746576380866024700,4.641024658203125,0.0009653090965002775,-0.0010556834749877453,-0.00048156967386603355
1746576380875989800,4.65098974609375,0.0010742847807705402,-0.00039751501753926277,-0.0004460122436285019
1746576380885954800,4.660954833984375,0.0022269010078161955,-0.0002347957342863083,-0.0003442796878516674
1746576380895918800,4.6709189453125,-0.000768622849136591,-0.00003748759627342224,0.0002692844718694687
1746576380905884000,4.6808837890625,-0.0011843419633805752,-0.002023406559601426,-0.00003058742731809616
1746576380915848700,4.6908486328125,0.00016542570665478706,0.0005691270343959332,-0.0001345858909189701
1746576380925812700,4.700812744140625,-0.0004305897746235132,-0.00193957076407969,-0.000020602717995643616
1746576380935777800,4.71077783203125,0.0005442725960165262,0.0006035030819475651,-0.0008216272108256817
1746576380945742800,4.720742919921875,-0.0000490797683596611,0.0008125612512230873,-0.0002964520826935768
1746576380955707000,4.730706787109375,-0.001143130473792553,0.0005351533181965351,-0.001318207010626793
1746576380965671700,4.740671630859375,0.000024132896214723587,0.0009561991319060326,-0.0007126042619347572
1746576380975636700,4.75063671875,0.000656279269605875,0.0006149411201477051,0.00025732535868883133
1746576380985600800,4.760600830078125,-0.000929366797208786,-0.000961916521191597,-0.00017996598035097122
1746576380995565600,4.770565673828125,-0.0003516264259815216,0.00027786195278167725,-0.00034679612144827843
1746576381005531000,4.78053076171875,0.001406060066074133,0.0003220704384148121,-0.00024213409051299095
1746576381015495000,4.790494873046875,0.000047916779294610023,-0.000571071170270443,-0.00013168063014745712
1746576381025459700,4.800459716796875,-0.0009670141153037548,0.001024162396788597,0.0005394360050559044
1746576381035424800,4.8104248046875,-0.0006118067540228367,-0.0009652697481215,-0.0007325392216444016
1746576381045388800,4.820388916015625,-0.001117541454732418,0.0013759150169789791,0.001245124265551567
1746576381055353600,4.830353515625,-0.0014183323364704847,-0.0002545262686908245,0.0018220567144453526
1746576381065319000,4.84031884765625,-0.0008260456379503012,-0.0003890157677233219,-0.0010594837367534637
1746576381075283700,4.85028369140625,-0.0004902584478259087,0.0015652719885110855,0.00043893326073884964
1746576381085247700,4.860247802734375,0.0004085586406290531,-0.0016712676733732224,0.00006981892511248589
1746576381095212800,4.870212890625,-0.0002705715596675873,0.00005171401426196098,-0.0001472323201596737
1746576381105177600,4.880177490234375,-0.00022130319848656654,0.00010098284110426903,-0.00024017691612243652
1746576381115142000,4.890141845703125,-0.0007009317632764578,0.0007333280518651009,-0.0013638888485729694
1746576381125106700,4.900106689453125,-0.0009510025847703218,0.00024117575958371162,-0.0002445625141263008
1746576381135071700,4.91007177734375,0.00034072715789079666,0.00032868655398488045,-0.0012092776596546173
1746576381145035800,4.920035888671875,0.00006695417687296867,0.0010341578163206577,0.0009729168377816677
1746576381155000600,4.93000048828125,-0.00006923382170498371,-0.0005726437084376812,-0.0007605706341564655
1746576381164966000,4.9399658203125,-0.0005616522394120693,-0.00014680391177535057,-0.0011619087308645248
1746576381174930000,4.949929931640625,0.002006802475079894,-0.000715884380042553,-0.00025347527116537094
1746576381184894700,4.959894775390625,0.0010528583079576492,-0.00005994783714413643,0.0019007560331374407
1746576381194859800,4.96985986328125,0.00046852254308760166,-0.000938123557716608,-0.00032511400058865547
1746576381204823800,4.97982373046875,-0.00007556146010756493,-0.0005173441022634506,0.0008109905757009983
1746576381214788600,4.98978857421875,-0.001231244532391429,-0.00021580979228019714,0.0005091247148811817
1746576381224754000,4.99975390625,0.0007469514384865761,0.0008550472557544708,0.00025585805997252464
1746576381234718000,5.009718017578125,0.0010093117598444223,0.001144038513302803,0.0003149304538965225
1746576381244682800,5.019682861328125,-0.0007454452570527792,0.000890771858394146,0.0005855076014995575
1746576381254647800,5.029647705078125,-0.0017810743302106857,-0.0005106274038553238,-0.000994408968836069
1746576381264611800,5.03961181640625,0.0011646484490484,0.00021561654284596443,0.0003568790853023529
1746576381274576600,5.04957666015625,0.00036959070712327957,0.00008720485493540764,-0.0006061624735593796
1746576381284542000,5.0595419921875,0.0013075561728328466,-0.000043822918087244034,0.0005472525954246521
1746576381294505700,5.069505615234375,0.000015157507732510567,0.00013752374798059464,-0.00022959383204579353
1746576381304470800,5.079470703125,0.00011103111319243908,0.001084810122847557,0.00010969303548336029
1746576381314435800,5.089435791015625,0.000994342379271984,-0.0003721853718161583,0.0004408746026456356
1746576381324399600,5.099399658203125,-0.0003942300099879503,-0.0018630230333656073,0.0004155747592449188
1746576381334364700,5.10936474609375,-0.0016215122304856777,0.0008805268444120884,-0.000942690297961235
1746576381344329700,5.119329833984375,-0.0017243102192878723,0.0008605527691543102,-0.00026038801297545433
1746576381354293800,5.129293701171875,-0.0004938503261655569,0.0001866789534687996,0.001190938986837864
1746576381364258800,5.1392587890625,0.0006201497744768858,0.000007980968803167343,0.0006010490469634533
1746576381374223600,5.1492236328125,0.0008418133947998285,-0.0010595028288662434,0.0006734863854944706
1746576381384187600,5.159187744140625,0.0007504669483751059,0.0007961876690387726,-0.002075428608804941
1746576381394152700,5.169152587890625,-0.0009767182637006044,0.0008727153763175011,-0.001125170849263668
1746576381404117800,5.17911767578125,-0.00047178263776004314,0.0008415565825998783,0.000692436471581459
1746576381414081800,5.189081787109375,-0.00027732178568840027,0.0004379977472126484,-0.0006191148422658443
1746576381424046800,5.199046875,-0.0003204653039574623,-0.0006568278186023235,0.0001308312639594078
1746576381434011600,5.20901171875,0.0006033692043274641,-0.0005348548293113708,-0.0004543941468000412
1746576381443975700,5.2189755859375,-0.001405453309416771,-0.0009798691608011723,0.0009778537787497044
1746576381453941000,5.22894091796875,-0.000001051928848028183,0.00013271579518914223,0.00013097422197461128
1746576381463905800,5.23890576171875,-0.0006703040562570095,-0.0007088431157171726,0.00036666402593255043
1746576381473869800,5.248869873046875,0.001025601988658309,-0.0009997589513659477,-0.00046147266402840614
1746576381483834600,5.258834716796875,0.0003672684542834759,-0.000649553257972002,0.00007994798943400383
1746576381493799700,5.268799560546875,-0.00018034479580819607,0.0009360089898109436,-0.00015173107385635376
1746576381503763700,5.278763671875,-0.00019206269644200802,-0.0003223344683647156,0.00007410533726215363
1746576381513728800,5.288728759765625,-0.0005469843745231628,-0.0003083343617618084,-0.002012409269809723
1746576381523693800,5.29869384765625,0.0016794181428849697,-0.0001189839094877243,-0.00021983543410897255
1746576381533657900,5.308657958984375,0.00013644061982631683,0.000004521571099758148,0.00037297699600458145
1746576381543622700,5.31862255859375,-0.0004902011714875698,-0.0012708664871752262,-0.00020333100110292435
1746576381553587700,5.328587646484375,-0.0008120005950331688,-0.0003425045870244503,-0.00011852243915200233
1746576381563552800,5.338552734375,-0.00038296543061733246,-0.00026234332472085953,0.0005531269125640392
1746576381573516800,5.348516845703125,-0.0005006161518394947,-0.00043224869295954704,0.0014335201121866703
1746576381583481900,5.35848193359375,0.0006594567093998194,-0.0005821846425533295,0.0010566827841103077
1746576381593446700,5.36844677734375,-0.0011265301145613194,0.0006449702195823193,0.0002344171516597271
1746576381603410700,5.37841064453125,-0.0009121457114815712,0.00012165866792201996,0.0007611904293298721
1746576381613375700,5.388375732421875,0.0004949280992150307,0.00016834400594234467,0.0011500567197799683
1746576381623340800,5.3983408203125,0.000033402349799871445,0.000390451867133379,0.000663763377815485
1746576381633304800,5.408304931640625,0.00014094868674874306,-0.0006104800850152969,0.0009143208153545856
1746576381643270000,5.418269775390625,0.00006930949166417122,-0.0011028987355530262,0.00034919800236821175
1746576381653234700,5.428234619140625,0.0004252626094967127,0.0009139049798250198,-0.0008496460504829884
1746576381663198700,5.43819873046875,0.0010713455267250538,-0.00021927012130618095,-0.0004922500811517239
1746576381673163800,5.448163818359375,-0.0008726124651730061,0.00018183840438723564,0.00041146110743284225
1746576381683129000,5.458129150390625,0.00030423817224800587,-0.0008812956511974335,0.0007235836237668991
1746576381693093000,5.468093017578125,0.0002813811879605055,0.00033667730167508125,0.0003840797580778599
1746576381703058000,5.478057861328125,0.00042172963730990887,0.0005654427222907543,-0.0013509695418179035
1746576381713023000,5.48802294921875,0.0002686611842364073,-0.0012071356177330017,0.00043981848284602165
1746576381722987000,5.497987060546875,0.0005205962806940079,-0.0000880751758813858,0.000004391651600599289
1746576381732952000,5.5079521484375,-0.00027440255507826805,-0.0002205781638622284,-0.0003705681301653385
1746576381742917000,5.517917236328125,-0.0010789437219500542,-0.00024534575641155243,0.0004576747305691242
1746576381752881200,5.527881103515625,0.00019844784401357174,-0.0005816388875246048,-0.001028476282954216
1746576381762846000,5.537845947265625,-0.0018623063806444407,-0.00039069028571248055,-0.00017173727974295616
1746576381772811000,5.54781103515625,-0.0007884097285568714,-0.00006716232746839523,-0.0002782396040856838
1746576381782775000,5.557775146484375,-0.0004768199287354946,0.00023750308901071548,0.000517246313393116
1746576381792740000,5.567739990234375,-0.00043040327727794647,-0.0007537850178778172,-0.0010446258820593357
1746576381802705200,5.577705078125,0.000876409700140357,-0.0007471269927918911,-0.0005476800724864006
1746576381812669000,5.5876689453125,-0.0005014094058424234,-0.0007911506108939648,0.0011738436296582222
1746576381822634000,5.597634033203125,0.0006346949376165867,0.0001931539736688137,0.0018462918233126402
1746576381832599000,5.60759912109375,-0.0003264397382736206,-0.000286332331597805,0.00010838313028216362
1746576381842562800,5.617562744140625,-0.0015866472385823727,0.00015229033306241035,0.0004095868207514286
1746576381852528000,5.627528076171875,-0.0011318970937281847,-0.00023683952167630196,0.0008014687336981297
1746576381862493000,5.637492919921875,-0.00018301280215382576,0.00030191801488399506,-0.001987393479794264
1746576381872457000,5.64745703125,-0.0014973634388297796,0.00010278867557644844,-0.001380734145641327
1746576381882422000,5.657422119140625,0.0014193302486091852,0.001861540600657463,0.0017090654000639915
1746576381892386800,5.66738671875,0.0006091452669352293,0.00034517934545874596,0.00021716253831982613
1746576381902350800,5.677350830078125,0.0005753231234848499,0.000028262846171855927,0.0004693637602031231
1746576381912316200,5.687316162109375,-0.00008472963236272335,-0.00021416647359728813,0.000443797092884779
1746576381922281000,5.697281005859375,-0.0015883503947407007,-0.00019712233915925026,0.0010981354862451553
1746576381932245000,5.707244873046875,0.0009033463429659605,0.0007116338238120079,0.0014811297878623009
1746576381942210000,5.7172099609375,0.0014295869041234255,-0.0010676239617168903,0.0002574073150753975
1746576381952174800,5.7271748046875,-0.001305707497522235,-0.0006957044824957848,-0.0004517105408012867
1746576381962139000,5.737138916015625,-0.00021141464821994305,-0.00026720156893134117,-0.00042161671444773674
1746576381972104200,5.747104248046875,-0.0018963050097227097,-0.0006167925894260406,0.0012011490762233734
1746576381982069000,5.757069091796875,-0.00024194922298192978,0.0006295666098594666,-0.0006862333975732327
1746576381992033000,5.767032958984375,-0.00006279931403696537,0.0003360556438565254,-0.00014708144590258598
1746576382001997800,5.776997802734375,-0.000692636938765645,0.000013813376426696777,0.0009522712789475918
1746576382011963000,5.786962890625,-0.0007949196733534336,-0.000663388054817915,0.0006856201216578484
1746576382021927200,5.79692724609375,-0.00179573567584157,-0.0003083888441324234,-0.0004848390817642212
1746576382031892000,5.80689208984375,-0.0013062015641480684,-0.0009819786064326763,-0.0014240285381674767
1746576382041857000,5.81685693359375,-0.0015520111192017794,0.0004500034265220165,0.000051895156502723694
1746576382051821800,5.82682177734375,-0.0007952284067869186,-0.0008443659171462059,-0.0012049893848598003
1746576382061785900,5.836785888671875,-0.001217871904373169,-0.0004281136207282543,0.0002190028317272663
1746576382071751200,5.846751220703125,-0.0007875915616750717,-0.000008386094123125076,0.00021346425637602806
1746576382081716000,5.856716064453125,-0.0001143445260822773,-0.0009125294163823128,0.00008270330727100372
1746576382091680000,5.866679931640625,0.0007611813489347696,0.0022132773883640766,-0.0020771468989551067
1746576382101645000,5.87664501953125,-0.000972802983596921,0.00005398644134402275,-0.00037884898483753204
1746576382111609900,5.88660986328125,-0.0001216584350913763,-0.00027642492204904556,-0.000025999732315540314
1746576382121574000,5.896573974609375,0.0007942027878016233,0.000611206516623497,-0.0007879300974309444
1746576382131539200,5.906539306640625,-0.0007557303179055452,0.0017782552167773247,-0.0005240458995103836
1746576382141504000,5.91650390625,0.0015321914106607437,-0.0012769228778779507,-0.0006633289158344269
1746576382151468000,5.926468017578125,0.00012028287164866924,0.0004063630476593971,-0.0015151146799325943
1746576382161433000,5.93643310546875,-0.00029250700026750565,-0.0006967182271182537,-0.00024398788809776306
1746576382171398000,5.94639794921875,-0.0006758824456483126,-0.0004249406047165394,-0.0010364740155637264
1746576382181362000,5.95636181640625,0.00016354606486856937,0.00002966076135635376,0.0004903166554868221
1746576382191327000,5.966326904296875,0.00006712973117828369,-0.0007281121797859669,-0.0005753571167588234
1746576382201292000,5.9762919921875,-0.0010053252335637808,0.0001422087661921978,0.0006217341870069504
1746576382211256000,5.986256103515625,-0.0007475470192730427,-0.00016488973051309586,0.000020196661353111267
1746576382221220900,5.996220947265625,0.0004988124128431082,0.0006503039039671421,-0.001218173187226057
1746576382231186000,6.00618603515625,0.0004219005350023508,0.000024490058422088623,-0.000043536070734262466
1746576382241150000,6.01614990234375,-0.0005102059803903103,-0.00020028091967105865,-0.00018361862748861313
1746576382251115000,6.026114990234375,0.001138895284384489,0.00010252837091684341,-0.0005590482614934444
1746576382261080000,6.036080078125,-0.0006531456019729376,-0.0005877627991139889,-0.0012906184419989586
1746576382271044000,6.046044189453125,-0.00043329852633178234,0.0012482372112572193,0.001074683852493763
1746576382281009000,6.0560087890625,-0.0012543511111289263,-0.0004881438799202442,-0.00046329153701663017
1746576382290974000,6.065973876953125,0.0016585523262619972,0.00023346254602074623,-0.00043945619836449623
1746576382300938000,6.07593798828125,-0.00014600553549826145,0.0003330647014081478,-0.0005220142193138599
1746576382310903000,6.085903076171875,0.00026779365725815296,0.00044707534834742546,0.00015824567526578903
1746576382320868000,6.0958681640625,0.0005490235053002834,-0.0002522706054151058,-0.0005283169448375702
1746576382330832100,6.10583203125,0.0002048781607300043,0.0004543825052678585,-0.000365561805665493
1746576382340797000,6.115796875,0.0004863743670284748,-0.00020501622930169106,0.001847258536145091
1746576382350762000,6.125761962890625,0.0000787368044257164,0.0003439495339989662,-0.00007541105151176453
1746576382360726000,6.13572607421875,-0.0008080957923084497,0.00021931342780590057,0.00005029002204537392
1746576382370691000,6.145691162109375,-0.0008597637061029673,-0.00040530087426304817,-0.00010051717981696129
1746576382380656000,6.15565625,0.00022787111811339855,-0.000026599504053592682,0.00011519854888319969
1746576382390620000,6.165619873046875,0.0013841218315064907,-0.00035227881744503975,-0.0011073355562984943
1746576382400585000,6.1755849609375,0.000025909626856446266,-0.0005877017974853516,-0.0012519448064267635
1746576382410550000,6.185550048828125,0.0008056578226387501,0.0003151758573949337,-0.0006505395285785198
1746576382420514000,6.19551416015625,0.0001430632546544075,-0.0011279908940196037,-0.00040765898302197456
1746576382430479000,6.20547900390625,0.0009380057454109192,0.0006561577320098877,0.00002864142879843712
1746576382440444000,6.21544384765625,-0.00040023261681199074,0.001024472527205944,0.00032505160197615623
1746576382450408000,6.225407958984375,0.0010571982711553574,0.0004118066281080246,-0.0008735735900700092
1746576382460373000,6.235373046875,-0.00018996000289916992,0.0004898370243608952,-0.0003039231523871422
1746576382470338000,6.245338134765625,-0.0018379755783826113,0.000013535376638174057,-0.001238187775015831
1746576382480303000,6.25530322265625,-0.000834230100736022,-0.0005651693791151047,-0.00019422871991991997
1746576382490267100,6.26526708984375,-0.0005831555463373661,0.0004992224276065826,0.0015112180262804031
1746576382500232000,6.27523193359375,0.0006205933168530464,0.00036606425419449806,0.0011359788477420807
1746576382510197000,6.285197021484375,0.0019467106321826577,0.0006557544693350792,-0.0003861612640321255
1746576382520161000,6.2951611328125,-0.0008565327152609825,-0.00045638158917427063,0.0009161243215203285
1746576382530126000,6.3051259765625,-0.0005499636754393578,0.00018220487982034683,-0.00028129061684012413
1746576382540091100,6.315091064453125,0.000859913881868124,-0.0005645453929901123,0.00038929330185055733
1746576382550055000,6.325054931640625,-0.0007293371018022299,0.0008478853851556778,0.00027325982227921486
1746576382560020000,6.33502001953125,0.00024324958212673664,-0.0004634554497897625,-0.000818369910120964
1746576382569985000,6.344985107421875,0.0009321421384811401,0.00020602252334356308,0.001333584077656269
1746576382579948800,6.35494873046875,0.00023173075169324875,0.000506160780787468,0.00036206282675266266
1746576382589914000,6.3649140625,0.0006841784343123436,-0.0008742408826947212,-0.0012261467054486275
1746576382599879000,6.37487890625,-0.0003070503007620573,0.000679713673889637,-0.0013111019507050514
1746576382609843000,6.384843017578125,-0.00084286043420434,0.0013379189185798168,0.000052455347031354904
1746576382619808000,6.39480810546875,-0.000636465847492218,2.1280720829963684e-7,-0.0012365146540105343
1746576382629772800,6.404772705078125,-0.0008637276478111744,-0.00039315130561590195,-0.0004898244515061378
1746576382639736800,6.41473681640625,0.0009919628500938416,0.00028595468029379845,0.00013868184760212898
1746576382649702100,6.4247021484375,-0.0011932870838791132,-0.00021271873265504837,-0.00031683361157774925
1746576382659667000,6.4346669921875,-0.002023394452407956,0.00018382584676146507,-0.000326420646160841
1746576382669631000,6.444630859375,-0.0002855889033526182,0.0010113585740327835,-0.000897744670510292
1746576382679596300,6.45459619140625,0.0016049889381974936,-0.000481609720736742,0.00012544170022010803
1746576382689561000,6.46456103515625,0.0004493312444537878,0.00046357791870832443,-0.0002556582912802696
1746576382699525000,6.474525146484375,0.0008243042975664139,0.0004795566201210022,-0.0010045389644801617
1746576382709490200,6.484490234375,-0.001497924793511629,0.0006550755351781845,-0.001269378699362278
1746576382719455000,6.494455078125,-0.00035489629954099655,-0.0003633173182606697,-0.0006501935422420502
1746576382729419000,6.5044189453125,-0.0015348035376518965,0.0013263658620417118,-0.0005967398174107075
1746576382739384000,6.514384033203125,-0.0005912452470511198,-0.0004731323570013046,0.0006189928390085697
1746576382749349000,6.52434912109375,-0.0005397950299084187,-0.0009218552149832249,-0.0011600516736507416
1746576382759313200,6.534313232421875,0.0017651710659265518,-0.0002736416645348072,-0.000534208957105875
1746576382769278000,6.54427783203125,-0.0006180738564580679,-0.0002936008386313915,0.00003743590787053108
1746576382779243000,6.554242919921875,0.0013430779799818993,0.00018097413703799248,-0.0013713766820728779
1746576382789207000,6.56420703125,-0.00034184567630290985,-0.0014336383901536465,0.0016261152923107147
1746576382799172000,6.574172119140625,0.00028373091481626034,-0.0016498868353664875,0.00004499638453125954
1746576382809137200,6.58413720703125,-0.00024180300533771515,0.00025337282568216324,0.0004281075671315193
1746576382819101200,6.59410107421875,-0.0017619351856410503,0.0006935936398804188,0.0006190566346049309
1746576382829066000,6.60406591796875,0.001180554972961545,0.0007019685581326485,0.00011633383110165596
1746576382839031000,6.614031005859375,0.0006678965874016285,0.00022659450769424438,-0.00008446862921118736
1746576382848995000,6.6239951171875,0.0008112313225865364,0.0006865873001515865,0.0006318753585219383
1746576382858960100,6.633960205078125,0.0016740956343710423,0.0014626323245465755,0.000985010527074337
1746576382868925200,6.64392529296875,0.0006461848970502615,-0.002124389400705695,-0.0005522887222468853
1746576382878889000,6.653888916015625,-0.00021747802384197712,0.0007502264343202114,-0.0008577536791563034
1746576382888854000,6.66385400390625,0.00023088953457772732,0.0004399847239255905,0.0005833487957715988
1746576382898819000,6.673819091796875,-0.0016634168568998575,0.000012813601642847061,-0.00041799992322921753
1746576382908783000,6.683783203125,0.00000420818105340004,0.00041794776916503906,-0.0011520846746861935
1746576382918748200,6.693748046875,-0.00021044258028268814,0.0008954526856541634,-0.0011864393018186092
1746576382928713000,6.703712890625,0.00022533955052495003,0.00045910151675343513,-0.000331636518239975
1746576382938677000,6.713677001953125,0.0019196427892893553,0.00019997591152787209,-0.001137509010732174
1746576382948642000,6.72364208984375,0.00013795727863907814,0.0003641839139163494,-0.0004190145991742611
1746576382958607000,6.733607177734375,-0.0009707165881991386,-0.001070194412022829,-0.0014390056021511555
1746576382968571100,6.743571044921875,0.00004742201417684555,-0.00022845668718218803,0.00015553180128335953
1746576382978536200,6.7535361328125,-0.00045218714512884617,-0.0005288613028824329,-0.00026764441281557083
1746576382988501000,6.7635009765625,-0.000821355264633894,-0.000551124569028616,0.0002225222997367382
1746576382998466000,6.773466064453125,-0.00031801778823137283,0.00004116212949156761,-0.0005945353768765926
1746576383008430000,6.78343017578125,-0.0024861900601536036,0.001110972836613655,0.0006566848605871201
1746576383018395100,6.79339501953125,0.0006331708282232285,-0.0008190199732780457,0.0010457728058099747
1746576383028360200,6.803360107421875,0.0005478153470903635,-0.000460965558886528,-0.0015990445390343666
1746576383038324200,6.81332421875,-0.0004572614561766386,-0.001674834406003356,0.0006143087521195412
1746576383048289000,6.8232890625,-0.00014013657346367836,-0.00024517346173524857,0.0001812521368265152
1746576383058254000,6.833254150390625,0.001195971155539155,0.0006368653848767281,0.00013464689254760742
1746576383068218000,6.843218017578125,0.0001493722666054964,-0.0007786103524267673,-0.00020795734599232674
1746576383078183200,6.85318310546875,-0.0003699439112097025,0.0006501753814518452,0.0006980500183999538
1746576383088148200,6.863148193359375,0.0003017168492078781,-0.0006312960758805275,0.0014233067631721497
1746576383098112000,6.873112060546875,0.00022608297877013683,0.0005988180637359619,0.00000730389729142189
1746576383108077000,6.8830771484375,0.0022440534085035324,0.0016948878765106201,0.0003821752034127712
1746576383118042000,6.8930419921875,-0.0006606562528759241,-0.0005368408747017384,-0.00045432383194565773
1746576383128006000,6.903005859375,-0.00010621221736073494,0.00005935784429311752,-0.0009003090672194958
1746576383137971200,6.91297119140625,-0.0009554943535476923,-0.0003097560256719589,-0.001381009817123413
1746576383147936000,6.92293603515625,-0.0006647445261478424,-0.00016010552644729614,0.0002830410376191139
1746576383157900000,6.932900146484375,0.0015510055236518383,-0.0015204483643174171,-0.00020165462046861649
1746576383167865000,6.942864990234375,-0.0003785756416618824,0.00046395277604460716,0.00022161612287163734
1746576383177830000,6.952829833984375,-0.000978053081780672,0.00009537162259221077,0.000543592032045126
1746576383187794000,6.9627939453125,0.0015823778230696917,0.000011052470654249191,0.0014404323883354664
1746576383197759200,6.97275927734375,0.0002763636875897646,0.0004390226677060127,0.00020073074847459793
1746576383207724000,6.98272412109375,-0.0007380514871329069,0.0011829105205833912,0.00012023234739899635
1746576383217688000,6.99268798828125,0.0001173557247966528,-0.0003931480459868908,-0.0011833850294351578
1746576383227653000,7.002653076171875,0.00028620660305023193,0.0005411580204963684,-0.0010715872049331665
1746576383237618000,7.012617919921875,-0.000273323617875576,-0.000375235453248024,0.000618454534560442
1746576383247582200,7.022582275390625,-0.0015306724235415459,0.00039836857467889786,-0.00020082248374819756
1746576383257547300,7.03254736328125,-0.0004800553433597088,0.0011152918450534344,0.00047322362661361694
1746576383267512000,7.042511962890625,-0.0009148106910288334,-0.00020384229719638824,-0.0018911128863692284
1746576383277476000,7.05247607421875,0.00007082521915435791,0.00005741370841860771,-0.0003643226809799671
1746576383287441000,7.06244091796875,0.00010071834549307823,-0.0011230548843741417,0.0008427775464951992
1746576383297406200,7.07240625,0.00040351971983909607,0.0008479505777359009,0.0008225375786423683
1746576383307370200,7.082370361328125,-0.001030416926369071,-0.00043374160304665565,0.001577502116560936
1746576383317335000,7.0923349609375,0.0013645635917782784,0.0012080972082912922,0.001306924968957901
1746576383327300000,7.102300048828125,0.0011811251752078533,0.0012899311259388924,-0.000027202535420656204
1746576383337264000,7.11226416015625,-0.00016963016241788864,0.0008102958090603352,0.0014684288762509823
1746576383347229000,7.12222900390625,-0.0005512593779712915,0.00014795362949371338,0.0002172999083995819
1746576383357194200,7.1321943359375,0.001096172258257866,-0.0001553804613649845,-0.0004972261376678944
1746576383367158300,7.142158203125,-0.0002645694185048342,-0.0008900044485926628,0.0001442241482436657
1746576383377123000,7.152123046875,0.00038071442395448685,-0.00015097716823220253,-0.0008486025035381317
1746576383387088100,7.162088134765625,0.00033524935133755207,0.0022057825699448586,-0.0006412961520254612
1746576383397053000,7.172052978515625,0.0008348585106432438,-0.00027069123461842537,0.000017037149518728256
1746576383407017000,7.182016845703125,-0.0005090341437608004,0.001210811547935009,-0.0013311631046235561
1746576383416982300,7.191982177734375,-0.0006978518795222044,-0.00012050289660692215,-0.0009351512417197227
1746576383426947000,7.201947021484375,0.0004317890852689743,-0.0001424737274646759,0.0007465779781341553
1746576383436911000,7.2119111328125,0.00003524427302181721,-0.0002077207900583744,-0.0003234799951314926
1746576383446876200,7.221876220703125,0.0007307692430913448,0.001357638742774725,0.0008895634673535824
1746576383456841000,7.231841064453125,-0.00024581211619079113,0.00034457258880138397,-0.0003607906401157379
1746576383466805000,7.241804931640625,0.00015516369603574276,0.00005741138011217117,-0.0011490043252706528
1746576383476770000,7.25177001953125,-0.00070370570756495,0.00002705119550228119,-0.0006491290405392647
1746576383486735000,7.261735107421875,-0.00040887179784476757,-0.0007020561024546623,0.000012993812561035156
1746576383496699100,7.27169921875,0.00004253373481333256,-0.0003995210863649845,0.0004422953352332115
1746576383506664000,7.281663818359375,-0.0004886516835540533,-0.00040368689224123955,0.00003342656418681145
1746576383516629000,7.29162890625,0.0006146957166492939,0.0006019226275384426,-0.0001972028985619545
1746576383526593000,7.301593017578125,0.00023991521447896957,0.0005980823189020157,-0.0010489467531442642
1746576383536558000,7.31155810546875,-0.001069827238097787,0.00045533711090683937,0.0007111364975571632
1746576383546523100,7.321523193359375,0.0010500838980078697,-0.0004839198663830757,-0.0003654109314084053
1746576383556487200,7.331487060546875,-0.0010375678539276123,0.0006556464359164238,0.00008066883310675621
1746576383566452000,7.341451904296875,0.000041158171370625496,-0.0006106309592723846,-0.0007493570446968079
1746576383576417000,7.3514169921875,0.0010473004076629877,0.00007273629307746887,-0.0010135425254702568
1746576383586381300,7.36138134765625,-0.0007403697818517685,0.0012227939441800117,0.0001831413246691227
1746576383596346000,7.37134619140625,-0.0013864529319107533,0.00014234986156225204,-0.0005470970645546913
1746576383606311200,7.381311279296875,0.0009854729287326336,-0.00013907579705119133,0.00021067727357149124
1746576383616275200,7.391275146484375,-0.00033785169944167137,0.0005948916077613831,0.00023864023387432098
1746576383626240000,7.401239990234375,-0.00039539975114166737,-0.0000019636936485767365,-0.0009058527648448944
1746576383636205300,7.411205322265625,-0.0003570502158254385,-0.0005700159817934036,0.00002332450821995735
1746576383646169000,7.421169189453125,0.0007442636415362358,0.00034349923953413963,0.001471261028200388
1746576383656134100,7.431134033203125,0.00018872832879424095,0.0011003697291016579,0.000011050142347812653
1746576383666099000,7.441098876953125,0.0005614433903247118,0.0010330644436180592,-0.0004526250995695591
1746576383676063000,7.45106298828125,0.0003276178613305092,-0.00012141605839133263,-0.0003192005679011345
1746576383686027500,7.461027587890625,0.00028682127594947815,0.0014068540185689926,0.0010053361766040325
1746576383695992600,7.47099267578125,0.0001382168848067522,0.0008305460214614868,-0.0005310415290296078
1746576383705956400,7.480956298828125,-0.000685238279402256,0.0005819378420710564,0.0006956737488508224
1746576383715921400,7.49092138671875,0.0000018570572137832642,0.00012547196820378304,-0.00001565646380186081
1746576383725886500,7.500886474609375,0.00016715889796614647,0.00008811010047793388,0.001974617363885045
1746576383735850500,7.5108505859375,0.00040311506018042564,-0.00021469127386808395,-0.00005311332643032074
1746576383745815600,7.520815673828125,0.00015002046711742878,-0.0007468867115676403,-0.0003539123572409153
1746576383755780400,7.5307802734375,-0.0011525319423526525,0.00031891046091914177,0.0004146760329604149
1746576383765745400,7.540745361328125,-0.0004698885604739189,-0.0011581126600503922,0.00012193573638796806
1746576383775709400,7.55070947265625,0.0010830005630850792,0.00014843419194221497,0.0000561554916203022
1746576383785674500,7.560674560546875,0.0011818576604127884,0.0003806999884545803,0.0007079062052071095
1746576383795639600,7.5706396484375,-0.000577426515519619,0.0010158638469874859,-0.00030835624784231186
1746576383805603600,7.580603515625,-0.0013747981283813715,-0.0000957166776061058,-0.0012184679508209229
1746576383815568400,7.590568359375,0.0007352244574576616,0.000292039941996336,0.00045852456241846085
1746576383825533400,7.600533447265625,-0.0007380400784313679,0.00004162639379501343,-0.00006848946213722229
1746576383835497700,7.610497802734375,0.00016770092770457268,0.00042378995567560196,-0.00018433667719364166
1746576383845462500,7.620462646484375,0.00020924885757267475,-0.0003343350253999233,-0.0017917617224156857
1746576383855427600,7.630427490234375,-0.000025109155103564262,0.0003644786775112152,-0.0010000038892030716
1746576383865391600,7.6403916015625,-0.0004549780860543251,0.00026257988065481186,0.0008531883358955383
1746576383875356400,7.6503564453125,-0.0010296879336237907,0.0006479392759501934,-0.0007513663731515408
1746576383885321700,7.66032177734375,-0.001655710395425558,-0.00004822760820388794,0.0006907787173986435
1746576383895285500,7.670285400390625,-0.00031028129160404205,-0.0021172375418245792,0.0004638773389160633
1746576383905250600,7.68025048828125,-0.0007524234242737293,0.0013127578422427177,-0.0012376690283417702
1746576383915215600,7.690215576171875,-0.00023124320432543755,-0.00017515011131763458,0.0001945788972079754
1746576383925179400,7.700179443359375,-0.0003495374694466591,-0.0008130623027682304,-0.0015573333948850632
1746576383935144400,7.71014453125,0.0009857714176177979,0.0008285101503133774,0.0010552280582487583
1746576383945109500,7.720109619140625,-0.0007126538548618555,0.0016621560789644718,0.0003058812581002712
1746576383955073500,7.730073486328125,0.0014940414112061262,0.0007098098285496235,-0.000688276719301939
1746576383965038600,7.74003857421875,0.0004283029120415449,0.001212146133184433,-0.00016641942784190178
1746576383975003400,7.75000341796875,0.0009087373036891222,-0.0009862929582595825,-0.00035044411197304726
1746576383984967400,7.759967529296875,0.0001222807914018631,0.000409549567848444,-0.0010599857196211815
1746576383994932500,7.769932373046875,0.000921761617064476,-0.0009334823116660118,0.0005485634319484234
1746576384004897500,7.7798974609375,0.0009083887562155724,-0.00011355942115187645,0.00019717728719115257
1746576384014861600,7.789861572265625,0.00047056516632437706,-0.00039452267810702324,0.0003492436371743679
1746576384024826600,7.79982666015625,-0.00006969575770199299,-0.0012305313721299171,0.00022482173517346382
1746576384034791400,7.80979150390625,0.001221138285472989,0.0005897395312786102,-0.000357611570507288
1746576384044755500,7.81975537109375,0.0012431528884917498,-0.0002635405398905277,-0.00009281747043132782
1746576384054720500,7.829720458984375,-0.00047511840239167213,0.00037961313501000404,0.0006757709197700024
1746576384064685600,7.839685546875,-0.0004249890334904194,-0.00022293254733085632,-0.0012287911958992481
1746576384074649600,7.849649658203125,0.0008959390688687563,-0.0005619530566036701,0.0014000153169035912
1746576384084614400,7.859614501953125,-0.00041446159593760967,-0.00048013031482696533,-0.0006293533369898796
1746576384094579500,7.869579345703125,-0.0008861070964485407,0.0012208307161927223,-0.0009585199877619743
1746576384104543500,7.87954345703125,0.0009133100975304842,-0.00042218761518597603,0.001121660228818655
1746576384114508300,7.88950830078125,-0.0006622159853577614,0.00034027546644210815,-0.001275717280805111
1746576384124473600,7.8994736328125,-0.00016034510917961597,-0.00004267692565917969,0.0005934047512710094
1746576384134437600,7.909437744140625,0.0011909427121281624,-0.0006629270501434803,-0.00032085832208395004
1746576384144402400,7.91940234375,-0.0010523952078074217,0.0002601589076220989,-0.0008444027043879032
1746576384154367500,7.929367431640625,-0.00034452672116458416,-0.0006059012375771999,-0.000027344562113285065
1746576384164332300,7.939332275390625,-0.0007434862200170755,0.0003897743299603462,-0.00004071556031703949
1746576384174296600,7.949296630859375,0.0002954129595309496,-0.0006062476895749569,0.0003747371956706047
1746576384184261600,7.95926171875,0.00008147931657731533,-0.0012112357653677464,0.001203975174576044
1746576384194226400,7.969226318359375,-0.00028603686951100826,-0.0003393166698515415,0.0003744000568985939
1746576384204190500,7.9791904296875,-0.00048447493463754654,0.0004201834090054035,0.0007555070333182812
1746576384214155500,7.989155517578125,-0.0006463951431214809,-0.000752672553062439,-0.000296175479888916
1746576384224120600,7.99912060546875,-0.0004548938013613224,0.0015856004320085049,-0.000021715182811021805
1746576384234084600,8.009084716796876,0.00003432878293097019,0.00026680296286940575,0.00024779699742794037
1746576384244049700,8.019049560546875,0.0002969014458358288,0.000852363184094429,0.001157635822892189
1746576384254014500,8.029014404296875,-0.0015361523255705833,-0.0006890743970870972,0.00041061919182538986
1746576384263978500,8.038978515625,-0.0009098914451897144,-0.0008934494107961655,0.0001887315884232521
1746576384273943600,8.048943603515625,-0.00029416894540190697,-0.0007815966382622719,0.001711793476715684
1746576384283908600,8.05890869140625,0.0006225826218724251,-0.00047608790919184685,-0.000003594905138015747
1746576384293872600,8.06887255859375,0.0014367110561579466,0.0014768079854547977,-0.0011213235557079315
1746576384303837400,8.07883740234375,0.0009545963257551193,0.000058731529861688614,-0.00010773632675409317
1746576384313802500,8.088802490234375,0.0014890925958752632,0.00002277921885251999,-0.00009095855057239532
1746576384323766500,8.0987666015625,0.001173368887975812,0.0005333232693374157,0.0006053815595805645
1746576384333731300,8.1087314453125,-0.0005028247833251953,0.00024064211174845695,0.00050364900380373
1746576384343696600,8.118696533203124,0.0011249477975070477,-0.0010225721634924412,0.0015315599739551544
1746576384353660700,8.12866064453125,-0.00047934032045304775,-0.0010598567314445972,-0.00028578145429491997
1746576384363625500,8.13862548828125,-0.0010828396771103144,-0.0007943944074213505,0.0002325461246073246
1746576384373590500,8.148590576171875,0.0008735186420381069,-0.00022980384528636932,-0.00008783210068941116
1746576384383554600,8.158554443359375,-0.0012212051078677177,0.0006242846138775349,-0.0009186253882944584
1746576384393519400,8.168519287109374,-0.0010113478638231754,-0.0006609573028981686,-0.0006328686140477657
1746576384403484700,8.178484619140624,0.00039746961556375027,-0.0000558788888156414,-0.00017708493396639824
1746576384413448400,8.188448486328125,0.001182303298264742,0.0008519925177097321,-0.0006415401585400105
1746576384423413500,8.19841357421875,0.00035028113052248955,0.00036820629611611366,-0.00022324314340949059
1746576384433378600,8.208378662109375,0.000756146851927042,-0.0007588434964418411,0.00033016176894307137
1746576384443342300,8.21834228515625,-0.00007840152829885483,-0.0003818557597696781,0.00040986621752381325
1746576384453307400,8.228307373046874,0.0007003068458288908,-0.0002899765968322754,-0.0009025395847856998
1746576384463272400,8.2382724609375,0.001036361325532198,-0.00012259278446435928,-0.00017412658780813217
1746576384473236500,8.248236572265625,-0.0004946901462972164,0.0005666334182024002,-0.0010204790160059929
1746576384483201500,8.258201416015625,0.00026900600641965866,0.00013166479766368866,0.0007749749347567558
1746576384493166300,8.268166259765625,-0.00013446295633912086,-0.001060632523149252,-0.0002894904464483261
1746576384503130400,8.27813037109375,-0.00040158978663384914,-0.00030532991513609886,-0.0006726570427417755
1746576384513095700,8.288095703125,0.00033903541043400764,0.0006704521365463734,-0.0005544126033782959
1746576384523060500,8.298060546875,0.0003276753704994917,0.00011476641520857811,0.0011633080430328846
1746576384533024500,8.3080244140625,0.00047787767834961414,-0.0005156039260327816,0.0011747595854103565
1746576384542989600,8.317989501953125,-0.0010904869996011257,-0.0005814111791551113,0.0006812694482505322
1746576384552954400,8.327954345703125,-0.000007113208994269371,-0.0008605103939771652,-0.0007549733854830265
1746576384562919700,8.337919677734375,-0.00012063584290444851,-0.000924983061850071,-0.00016605667769908905
1746576384572883700,8.3478837890625,-0.0005981405265629292,0.0013821134343743324,0.0011111954227089882
1746576384582848500,8.3578486328125,-0.0002797984052449465,-0.00045470288023352623,0.0016396620776504278
1746576384592813600,8.3678134765625,0.00002912827767431736,-0.0009159627370536327,0.00012139370664954185
1746576384602777600,8.377777587890625,-0.0013823523186147213,0.00002898275852203369,-0.00046191737055778503
1746576384612742400,8.387742431640625,0.0006855924148112535,-0.0002967221662402153,-0.0004597869701683521
1746576384622707700,8.397707763671875,0.00006131315603852272,0.0005238200537860394,0.0004040990024805069
1746576384632671500,8.40767138671875,0.0004671788774430752,-0.000502296257764101,0.00030476273968815804
1746576384642636500,8.417636474609376,0.0022390480153262615,0.00010755471885204315,-0.0006405133754014969
1746576384652601600,8.4276015625,-0.00013755704276263714,0.0006348607130348682,0.00027428241446614265
1746576384662565400,8.4375654296875,-0.00007714121602475643,-0.0002734065055847168,0.0014809477142989635
1746576384672530400,8.447530517578125,-0.0000047031790018081665,-0.001624161610379815,-0.0012621083296835423
1746576384682495700,8.457495849609375,0.0007209097966551781,0.000828632153570652,0.0007450049743056297
1746576384692459800,8.467459716796874,-0.0011664724443107843,0.0007894835434854031,-0.00012664776295423508
1746576384702424800,8.4774248046875,0.00035631866194307804,-0.0008162246085703373,0.00028390809893608093
1746576384712390000,8.487389892578125,-0.00040241610258817673,-0.0004782695323228836,-0.0002916012890636921
1746576384722354000,8.49735400390625,0.00042204419150948524,0.0004148702137172222,-0.00026413658633828163
1746576384732319000,8.507319091796875,-0.00036039226688444614,0.00026147207245230675,-0.002000783570110798
1746576384742283800,8.51728369140625,-0.0010203109122812748,0.0005589323118329048,0.0003547803498804569
1746576384752247800,8.527247802734376,0.0002936928067356348,0.0004990114830434322,0.0001864684745669365
1746576384762212900,8.537212890625,-0.0001733370590955019,0.001408508513122797,0.00032671913504600525
1746576384772178000,8.547177978515625,0.0015028566122055054,0.000638056080788374,0.000650559552013874
1746576384782142000,8.557141845703125,-0.0014185430482029915,0.0013545486144721508,-0.0006166864186525345
1746576384792106800,8.567106689453125,0.00012475880794227123,-0.0005906242877244949,0.0007087686099112034
1746576384802071800,8.57707177734375,0.0004897320177406073,-0.00003366498276591301,0.0013580089434981346
1746576384812035800,8.587035888671876,-0.0013001787010580301,-0.001823043217882514,-0.0014726649969816208
1746576384822000600,8.597000732421876,0.00008125673048198223,0.00005648750811815262,0.001169813796877861
1746576384831966000,8.606966064453125,0.0005164174363017082,-0.00033100228756666183,-0.0011330214329063892
1746576384841930000,8.616929931640625,-0.00033925799652934074,0.0010209712199866772,0.00011203857138752937
1746576384851894800,8.626894775390625,0.0008570339996367693,-0.00011060573160648346,0.001558135263621807
1746576384861859800,8.63685986328125,-0.0010628809686750174,0.00045087048783898354,0.0003102235496044159
1746576384871824000,8.646823974609376,0.000022090738639235497,0.0009515448473393917,-0.0003537023440003395
1746576384881788700,8.65678857421875,-0.000001532258465886116,0.000379243865609169,0.0002216128632426262
1746576384891754000,8.66675390625,0.0006506757345050573,-0.0005035940557718277,-0.00006654113531112671
1746576384901718000,8.676718017578125,-0.0013392986729741096,-0.0003715124912559986,-0.000164850614964962
1746576384911682800,8.686682861328125,-0.00020505813881754875,0.001617336180061102,-0.0013150698505342007
1746576384921647900,8.69664794921875,0.0002548100892454386,0.0007314695976674557,0.0008677211590111256
1746576384931612000,8.70661181640625,0.0011874493211507797,-0.0010877354070544243,0.00016491301357746124
1746576384941576700,8.71657666015625,0.0005411605816334486,-0.0005525588057935238,0.00012597581371665
1746576384951542000,8.7265419921875,-0.0010500780772417784,-0.0006460356526076794,-0.0012910920195281506
1746576384961506800,8.7365068359375,-0.0007968624122440815,-0.0005743061192333698,0.00042495131492614746
1746576384971470800,8.746470947265625,-0.0002826061099767685,-0.0007127905264496803,-0.0011833314783871174
1746576384981435600,8.756435546875,0.0014990733470767736,-0.000565042719244957,0.00018332619220018387
1746576384991400700,8.766400634765626,-0.0012623583897948265,-0.0012494754046201706,0.0004882579669356346
1746576385001365000,8.776364990234375,0.00040724780410528183,0.00010758312419056892,0.00011295359581708908
1746576385011329800,8.786329833984375,-0.00013204244896769524,-0.0009976285509765148,-0.00015256367623806
1746576385021294800,8.796294921875,-0.0010244594886898994,-0.0001704581081867218,0.0003654956817626953
1746576385031259000,8.8062587890625,-0.0007855738513171673,0.000040197744965553284,0.0012733670882880688
1746576385041223700,8.8162236328125,0.000497244531288743,0.0007456578314304352,0.000727328471839428
1746576385051189000,8.82618896484375,-0.0016191697213798761,0.0008777505718171597,0.0006559561006724834
1746576385061153000,8.836153076171875,0.00024364818818867207,0.000118291936814785,0.0005187094211578369
1746576385071117800,8.846117919921875,-0.0016807520296424627,-0.000973870512098074,-0.0005737193860113621
1746576385081083000,8.856082763671875,-0.0002179516013711691,0.0011981846764683723,0.0008471505716443062
1746576385091047000,8.866046875,-0.00008772313594818115,0.000699374359101057,0.000678040087223053
1746576385101011700,8.87601171875,0.0010374034754931927,0.0006443019956350327,0.0006281123496592045
1746576385110977000,8.88597705078125,0.0010504531674087048,0.00014868797734379768,0.0013764607720077038
1746576385120940800,8.89594091796875,0.00019530928693711758,-0.0011494094505906105,0.000794033519923687
1746576385130905900,8.90590576171875,-0.0025549372658133507,-0.0005190391093492508,0.0019210830796509981
1746576385140871000,8.915870849609375,0.0009390527848154306,0.00007265293970704079,-0.000318736769258976
1746576385150834700,8.925834716796874,0.0002793879248201847,-0.0005041877739131451,-0.00010035745799541473
1746576385160799700,8.9357998046875,-0.0008067418821156025,0.00004131020978093147,-0.002135265152901411
1746576385170764800,8.945764892578126,-0.001193698961287737,0.0009497147984802723,0.001611003652215004
1746576385180728800,8.955728759765625,-0.001440633786842227,-0.00010307552292943001,0.0004484257660806179
1746576385190694000,8.96569384765625,-0.0001274289097636938,0.0009691128507256508,-0.00026476848870515823
1746576385200658700,8.97565869140625,-0.0002037582453340292,-0.001114225946366787,-0.0005779555067420006
1746576385210622700,8.985622802734374,-0.0005797964986413717,0.0009241579100489616,-0.000484478659927845
1746576385220587800,8.995587890625,-0.00009670364670455456,0.00045428285375237465,-0.0008560977876186371
1746576385230552800,9.005552734375,0.0009131671395152807,-0.0009803622961044312,-0.00033731432631611824
1746576385240516900,9.015516845703125,-0.0003789921756833792,0.0011083073914051056,0.001294497400522232
1746576385250482000,9.02548193359375,-0.000054619042202830315,-0.00030955951660871506,0.0006747795268893242
1746576385260446700,9.03544677734375,0.0018283622339367867,-0.0005201417952775955,-0.0004995772615075111
1746576385270410800,9.04541064453125,0.0013926690444350243,0.0008801487274467945,0.0010727527551352978
1746576385280375800,9.055375732421876,0.0012534945271909237,-0.00007194653153419495,0.0017512226477265358
1746576385290340900,9.0653408203125,-0.0003177707549184561,0.0008103586733341217,-0.0004671905189752579
1746576385300306000,9.075305908203125,-0.000837231520563364,0.00004606274887919426,0.0007762308232486248
1746576385310270000,9.08527001953125,0.0009510810486972332,-0.0007542171515524387,-0.00002165231853723526
1746576385320234800,9.09523486328125,0.0004462327342480421,-0.0011284765787422657,-0.0019414983689785004
1746576385330199800,9.10519970703125,0.00009203213267028332,0.0005128295160830021,-0.00040299026295542717
1746576385340163800,9.115163818359376,0.00010887719690799713,-0.00010341126471757889,-0.0005123820155858994
1746576385350129000,9.12512890625,0.000816479092463851,0.00033867359161376953,0.00038057612255215645
1746576385360094000,9.135093994140625,-0.0008855939377099276,0.0003691096790134907,0.0008991691283881664
1746576385370057700,9.1450576171875,0.0013985992409288883,0.0003235694020986557,0.00023870496079325676
1746576385380022800,9.155022705078125,0.0009890885557979345,0.00035046180710196495,-0.0001867576502263546
1746576385389987800,9.16498779296875,-0.0011835184413939714,-0.0005073421634733677,0.00008541764691472054
1746576385399952000,9.174951904296876,-0.0001272305380553007,-0.0003097956068813801,0.0004573003388941288
1746576385409917000,9.1849169921875,-0.00021271780133247375,-0.0006506801582872868,0.00028579263016581535
1746576385419881700,9.1948818359375,-0.0010710377246141434,-0.0010756091214716434,0.00010722456499934196
1746576385429845800,9.204845703125,-0.0015714457258582115,-0.0006495029665529728,0.0018081858288496733
1746576385439810800,9.214810791015625,-0.00016202358528971672,0.001901659183204174,-0.0013015354052186012
1746576385449775900,9.22477587890625,-0.00033725984394550323,-0.0006802757270634174,-0.0002828766591846943
1746576385459740000,9.234739990234376,-0.0006476554553955793,0.00027569103986024857,-0.0008567357435822487
1746576385469705000,9.244705078125,-0.00040024775080382824,-0.00043004658073186874,-0.00036671385169029236
1746576385479669800,9.254669677734375,-0.000025179237127304077,-0.000047744251787662506,-0.00046077976003289223
1746576385489633800,9.2646337890625,0.00016576936468482018,-0.0005811750888824463,-0.0004879441112279892
1746576385499598800,9.274598876953124,0.0006396465469151735,-0.00014887051656842232,-0.0011677611619234085
1746576385509564000,9.28456396484375,-0.001336951507255435,-0.00015925662592053413,-0.0009975852444767952
1746576385519528000,9.29452783203125,0.0011824623215943575,0.00004632631316781044,0.00025803130120038986
1746576385529492700,9.30449267578125,-0.0008926726877689362,0.0002833479084074497,0.0007147635333240032
1746576385539457800,9.314457763671875,-0.0005994343664497137,0.001265553291887045,-0.0009596259333193302
1746576385549421800,9.324421875,0.00045997113920748234,0.00013717170804738998,0.0005906000733375549
1746576385559386600,9.33438671875,0.00016480009071528912,-0.0012869075872004032,0.00025718240067362785
1746576385569352000,9.34435205078125,0.00013577169738709927,-0.0003633229061961174,-0.0007694661617279053
1746576385579316000,9.35431591796875,0.0003279510419815779,-9.32253897190094e-7,-0.0008010431192815304
1746576385589280800,9.36428076171875,0.00022382126189768314,0.00031491881236433983,0.0008061747066676617
1746576385599245800,9.374245849609375,0.0021741013042628765,0.00019569741562008858,-0.0007748492062091827
1746576385609209900,9.3842099609375,-0.0009604389779269695,0.0010063634254038334,0.0003383522853255272
1746576385619174700,9.394174560546874,0.0006758610252290964,0.0001808363012969494,0.00024676648899912834
1746576385629140000,9.404139892578126,0.0021909335628151894,0.0009299833327531815,0.0005785967223346233
1746576385639104000,9.41410400390625,0.00012744334526360035,0.00010910816490650177,0.00026048580184578896
1746576385649068800,9.42406884765625,-0.00039586774073541164,-0.00036573316901922226,0.0007430505938827991
1746576385659033900,9.434033935546875,0.000023921485990285873,-0.00022887159138917923,0.00011258944869041443
1746576385668998000,9.443997802734375,-0.000650390749797225,0.0011905934661626816,-0.0013390998356044292
1746576385678963000,9.453962890625,0.0004993458278477192,0.00004840455949306488,-0.0013392046093940735
1746576385688927700,9.463927734375,-0.0005121226422488689,0.0002939477562904358,-0.00005609355866909027
1746576385698892800,9.473892822265626,-0.0021318376529961824,0.0001398194581270218,-0.00014315638691186905
1746576385708856800,9.48385693359375,0.0002343808300793171,0.0003099953755736351,0.0010438142344355583
1746576385718822000,9.49382177734375,0.0008945111185312271,0.0011078505776822567,-0.0006717587821185589
1746576385728786700,9.50378662109375,0.0001227268949151039,0.0008593774400651455,0.00010881386697292328
1746576385738750700,9.513750732421874,0.00043552485294640064,0.0004740981385111809,0.001062828116118908
1746576385748715500,9.523715576171876,0.001784149557352066,0.0001941998489201069,-0.0009382711723446846
1746576385758680800,9.533680908203126,-0.0007663017604500055,0.0012476188130676746,0.0005603418685495853
1746576385768644900,9.543644775390625,0.0011506415903568268,0.0016172653995454311,-0.0006548585370182991
1746576385778609700,9.553609619140625,0.0007283932063728571,0.0004959478974342346,-0.00006689317524433136
1746576385788574700,9.56357470703125,-0.00036803027614951134,-0.00047104572877287865,0.0007557575590908527
1746576385798538800,9.573538818359374,-0.000025603221729397774,-0.0004671122878789902,-0.00031298398971557617
1746576385808503800,9.58350390625,-0.0008069747127592564,0.0003504781052470207,-0.00017902720719575882
1746576385818468900,9.59346875,-0.0003996447194367647,0.00047138240188360214,0.0019529694691300392
1746576385828433000,9.603432861328125,-0.00016848254017531872,0.000044477637857198715,-0.00020046252757310867
1746576385838397700,9.613397705078125,-0.0008445519488304853,0.0008012470789253712,-0.0010310998186469078
1746576385848362800,9.62336279296875,-0.0008072678465396166,-0.0009271446615457535,-0.0007298961281776428
1746576385858326800,9.633326904296876,-0.0008457317017018795,0.00040540099143981934,-0.00019436469301581383
1746576385868291800,9.643291748046876,0.0013742793817073107,-0.0010114009492099285,0.0007486604154109955
1746576385878257000,9.6532568359375,0.0006572466809302568,0.0006085825152695179,0.0006217891350388527
1746576385888220700,9.663220703125,0.00024845125153660774,-0.0013885218650102615,-0.0009332303889095783
1746576385898185700,9.673185791015625,0.0007308204658329487,-0.00022324640303850174,0.0005248594097793102
1746576385908150800,9.68315087890625,0.00027009379118680954,0.0005064597353339195,0.0004034191370010376
1746576385918114600,9.693114501953126,-0.00042244954966008663,0.0008367160335183144,-0.00047374051064252853
1746576385928080000,9.703079833984376,0.001301947282627225,0.0005775904282927513,-0.0017725643701851368
1746576385938044700,9.713044677734375,-0.0008970461785793304,-0.00045031262561678886,0.0003666263073682785
1746576385948008700,9.7230087890625,-0.0010467157699167728,0.00021601049229502678,0.0005615698173642159
1746576385957973800,9.732973876953125,0.0010345454793423414,-0.000047682784497737885,-0.0010122861713171005
1746576385967938600,9.7429384765625,-0.0005894501227885485,-0.0013222713023424149,0.00046603474766016006
1746576385977902600,9.752902587890626,-0.0007943920791149139,0.0002411743625998497,0.0003771851770579815
1746576385987868000,9.762867919921876,-0.0005887961015105247,0.00019510183483362198,-0.00043454626575112343
1746576385997832700,9.772832763671875,0.00048069912008941174,0.000811250414699316,0.0011258278973400593
1746576386007796700,9.782796630859375,-0.00006551528349518776,-0.0007525580003857613,-0.0004278603009879589
1746576386017761800,9.79276171875,0.0003489237278699875,-0.0011601326987147331,0.0005555995739996433
1746576386027726600,9.8027265625,0.0001846065279096365,0.0007291138172149658,-0.0004457486793398857
1746576386037690600,9.812690673828126,0.001277372008189559,0.0008531846106052399,-0.00043410249054431915
1746576386047656000,9.822656005859375,-0.0025639717932790518,-0.0010248767212033272,0.0005752355791628361
1746576386057620700,9.832620849609375,0.0004086848348379135,0.00011526746675372124,-0.0000661979429423809
1746576386067585800,9.842585693359375,-0.0010789569932967424,-0.0005332124419510365,-0.000307480338960886
1746576386077549600,9.852549560546874,-0.0008076713420450687,0.0001518111675977707,0.0008110129274427891
1746576386087514600,9.8625146484375,-0.0010446924716234207,-0.00017815455794334412,-0.0017149951308965683
1746576386097480000,9.87247998046875,0.0010002846829593182,0.0006665061227977276,-0.0006548142991960049
1746576386107443700,9.882443603515625,0.00024953950196504593,0.00008806772530078888,0.0001278887502849102
1746576386117408800,9.89240869140625,-0.0010510750580579042,-0.0009573814459145069,0.0011533494107425213
1746576386127373600,9.90237353515625,-0.0006401494611054659,-0.0006702928803861141,0.00021698186174035072
1746576386137337600,9.912337646484374,-0.0005293574649840593,0.0006240443326532841,-0.00020721228793263435
1746576386147303000,9.922302978515624,-0.0019461594056338072,-0.0012865075841546059,0.000958719290792942
1746576386157267700,9.932267822265626,-0.000691934023052454,0.0004148762673139572,-0.0004221266135573387
1746576386167231700,9.942231689453125,0.0007677448447793722,-0.0002804752439260483,-0.00036726566031575203
1746576386177196800,9.95219677734375,-0.00005926075391471386,0.00008019385859370232,-0.0010238699615001678
1746576386187161600,9.96216162109375,0.0004669798072427511,-0.00031262263655662537,0.00005151471123099327
1746576386197125600,9.972125732421874,-0.00000980566255748272,-0.00042228400707244873,0.00008186139166355133
1746576386207091000,9.982091064453124,-0.0011975753586739302,0.00024270731955766678,0.0024129264056682587
1746576386217055700,9.9920556640625,-0.0004976452328264713,0.0009940331801772118,0.0012249331921339035
1746576386227019800,10.002019775390625,-0.000012417323887348175,0.0007365052588284016,-0.000017697922885417938
1746576386236984800,10.01198486328125,0.0009969302918761969,-0.0009650546126067638,0.0009428141638636589
1746576386246949600,10.02194970703125,0.0002331356517970562,0.0006544138304889202,0.0005694390274584293
1746576386256913700,10.03191357421875,0.0008349982090294361,-0.0007002092897891998,0.0001218053512275219
1746576386266878700,10.041878662109376,-0.000611897325143218,-0.0005846279673278332,-0.00047634076327085495
1746576386276843800,10.05184375,-0.0007947084959596395,-0.00018772808834910393,0.0002987617626786232
1746576386286807800,10.061807861328125,-0.00009935745038092136,-0.0017970763146877289,-0.0010309545323252678
1746576386296772600,10.071772705078125,-0.0004632389172911644,-0.00047783181071281433,-0.0007710875943303108
1746576386306737700,10.081737548828125,0.0008651458192616701,-0.0012783780694007874,0.0005061640404164791
1746576386316701700,10.09170166015625,-0.0011453991755843163,0.00023814989253878593,0.0007843133062124252
1746576386326666800,10.101666748046876,0.0006900513544678688,-0.0011317799799144268,0.000547291710972786
1746576386336631800,10.1116318359375,0.0006168223917484283,0.00035907234996557236,-0.00013833679258823395
1746576386346595800,10.121595947265625,-0.0002921144478023052,-0.0006992677226662636,-0.0013085296377539635
1746576386356560600,10.131560546875,0.00039347587153315544,0.000051983632147312164,-0.00014981022104620934
1746576386366525700,10.141525634765625,-0.0005578051786869764,-0.0006079478189349174,0.00003554578870534897
1746576386376490800,10.15149072265625,-0.0006064078770577908,0.00026430143043398857,-0.0006142002530395985
1746576386386454800,10.161454833984376,0.0006399515550583601,-0.0005133417434990406,-0.00015054410323500633
1746576386396419800,10.171419921875,-0.001655456144362688,0.0006933603435754776,-0.0007049739360809326
1746576386406384600,10.181384521484375,0.00009796884842216969,0.0016244016587734222,0.001029276754707098
1746576386416348700,10.1913486328125,0.0010382262989878654,0.00043949391692876816,0.001136539038270712
1746576386426313700,10.201313720703125,0.001147149596363306,0.0012163380160927773,-0.00018838373944163322
1746576386436278800,10.21127880859375,0.0013557698111981153,0.00043587246909737587,-0.0005907239392399788
1746576386446242800,10.221242919921876,0.0006593530997633934,0.0004257527180016041,0.0005118250846862793
1746576386456208000,10.231207763671875,-0.00008475151844322681,0.0009247511625289917,0.00022591697052121162
1746576386466172700,10.241172607421875,-0.0028195518534630537,0.0020363545045256615,-0.0006031249649822712
1746576386476136700,10.25113671875,0.0013154216576367617,0.0013002208434045315,-0.0011758962646126747
1746576386486101800,10.261101806640625,-0.0010523947421461344,-0.0008665267378091812,0.0006073564291000366
1746576386496066800,10.27106689453125,-0.0010233207140117884,0.0007675359956920147,0.00039672432467341423
1746576386506030800,10.28103076171875,0.0002661820035427809,-0.0008090552873909473,-0.0013910559937357903
1746576386515995600,10.29099560546875,-0.0004154164344072342,0.0007404079660773277,0.0011601136066019535
1746576386525960700,10.300960693359375,0.0022496089804917574,-0.0000857044942677021,0.0003686221316456795
1746576386535924700,10.3109248046875,0.0004696378018707037,0.0005074050277471542,-0.000059042591601610184
1746576386545889800,10.320889892578125,-0.002036929363384843,0.00015640025958418846,-0.0026207370683550835
1746576386555854800,10.330854736328124,0.0010498170740902424,0.0012775086797773838,-0.0004153931513428688
1746576386565819000,10.34081884765625,-0.00016245385631918907,0.00047563109546899796,0.0007337606512010098
1746576386575783700,10.35078369140625,0.0007894472219049931,-0.00017096148803830147,-0.0005134278908371925
1746576386585748700,10.360748779296875,0.001729276729747653,0.0006863097660243511,-0.0005813385359942913
1746576386595712800,10.370712646484375,-0.001997595652937889,-0.000808794517070055,-0.0002219448797404766
1746576386605677800,10.380677734375,0.000666364561766386,0.0015379833057522774,-0.00020170491188764572
1746576386615643000,10.390642822265624,-0.0013428358361124992,0.0020015016198158264,-0.0009043342433869839
1746576386625606700,10.400606689453125,0.0012667959090322256,0.0011660680174827576,0.000034430064260959625
1746576386635571700,10.41057177734375,-0.001278070267289877,0.00008541392162442207,0.0006767986342310905
1746576386645536800,10.420536865234375,-0.0011198786087334156,-0.00040753744542598724,0.0001966306008398533
1746576386655501800,10.430501708984375,0.0001348080113530159,0.00015399837866425514,0.00034012412652373314
1746576386665465900,10.4404658203125,0.0003449313808232546,-0.00034800730645656586,0.0010836790315806866
1746576386675430700,10.4504306640625,-0.00005074497312307358,-0.00010276166722178459,0.0000050924718379974365
1746576386685396000,10.46039599609375,-0.00027258647605776787,-0.0008263424970209599,0.00009057996794581413
1746576386695360000,10.470360107421875,-0.000026304740458726883,-0.00019991863518953323,0.000037684570997953415
1746576386705324800,10.48032470703125,-0.0006944919005036354,0.00012605218216776848,0.0006936211138963699
1746576386715290000,10.4902900390625,-0.00005624676123261452,0.0001811380498111248,0.00005571311339735985
1746576386725254100,10.500254150390624,0.0011877156794071198,-0.000677997712045908,0.0009667803533375263
1746576386735219000,10.510218994140626,0.00046473718248307705,-0.0005675950087606907,-0.0003796154633164406
1746576386745184000,10.52018408203125,-0.0011107889004051685,0.0020865113474428654,0.0004369094967842102
1746576386755148000,10.53014794921875,0.0013134293258190155,-0.00011137127876281738,-0.0005411421880125999
1746576386765112800,10.54011279296875,0.000785590847954154,-0.00007808208465576172,0.0010301228612661362
1746576386775078100,10.550078125,0.0007441421039402485,0.000922907143831253,0.0007710815407335758
1746576386785042000,10.5600419921875,-0.00016852328553795815,0.0006187739782035351,-0.0005343998782336712
1746576386795007000,10.570007080078126,0.0002868417650461197,0.000426391139626503,-0.0001549464650452137
1746576386804972000,10.579971923828126,0.0007574222981929779,-0.0007432689890265465,-0.0020370022393763065
1746576386814935800,10.589935791015625,-0.0015114089474081993,0.001103812362998724,-0.00006830412894487381
1746576386824900900,10.59990087890625,-0.0010323063470423222,-0.0001566619612276554,0.0007410305552184582
1746576386834866000,10.609865966796875,-0.0008322419598698616,0.0008441307581961155,-0.0004292977973818779
1746576386844830000,10.619829833984374,-0.00017523998394608498,-0.0007577608339488506,0.0008530141785740852
1746576386854795000,10.629794921875,0.0009446470066905022,0.00007186597213149071,-0.0012678136117756367
1746576386864759800,10.639759765625,0.001522020436823368,-0.00012707244604825974,-0.0004923008382320404
1746576386874723800,10.649723876953125,0.00045253243297338486,-0.00005043204873800278,-0.0004162485711276531
1746576386884689000,10.65968896484375,0.001026443438604474,0.0004502423107624054,-0.00120987044647336
1746576386894654000,10.669654052734375,0.0009075722191482782,0.0007854960858821869,-0.0006631407886743546
1746576386904618000,10.679617919921874,0.0019834893755614758,-0.000522382091730833,0.0012364923022687435
1746576386914583000,10.6895830078125,-0.00019774353131651878,0.001038938295096159,0.0010435404255986214
1746576386924547800,10.6995478515625,0.0008478136733174324,-0.0004942435771226883,0.0012467396445572376
1746576386934511900,10.709511962890625,0.000726811122149229,-0.0005872361361980438,-0.00005640089511871338
1746576386944477000,10.719476806640625,-0.001079078298062086,0.0013877642340958118,0.0008384212851524353
1746576386954442000,10.72944189453125,0.0010244427248835564,-0.0007360326126217842,-0.00037973979488015175
1746576386964406000,10.739406005859376,0.0004665104206651449,0.0008525429293513298,0.00019683456048369408
1746576386974371000,10.74937109375,-0.0015838928520679474,-0.000874706543982029,-0.001392220612615347
1746576386984336000,10.7593359375,0.0006246664561331272,0.00045714061707258224,0.0013313940726220608
1746576386994300000,10.7692998046875,-0.000364488223567605,0.0010870276018977165,0.0006011240184307098
1746576387004265000,10.779264892578125,-0.0004438504111021757,0.0015413626097142696,-0.0010817274451255798
1746576387014230000,10.78922998046875,-0.0012237909249961376,-0.00018093734979629517,0.00043163495138287544
1746576387024195000,10.799195068359374,0.0011605373583734035,-0.0005836072377860546,0.0013030213303864002
1746576387034158800,10.809158935546876,0.0023291469551622868,0.000315188430249691,-0.0011024088598787785
1746576387044124000,10.8191240234375,0.0013805287890136242,0.000302937813103199,-0.00027736183255910873
1746576387054089000,10.8290888671875,-0.0007698358967900276,0.0010095159523189068,0.0010011042468249798
1746576387064053000,10.839052978515625,0.0016781417652964592,0.0014998037368059158,0.00042160041630268097
1746576387074018000,10.84901806640625,0.00027883192524313927,-0.0001349220983684063,0.0003089415840804577
1746576387083982800,10.85898291015625,0.0014780531637370586,0.0007500466890633106,0.0003291815519332886
1746576387093947000,10.86894677734375,0.0008060273248702288,-0.0008230330422520638,0.0011039343662559986
1746576387103912000,10.878911865234375,0.00039883004501461983,-0.00002674805000424385,0.00036810338497161865
1746576387113877000,10.888876953125,-0.0015725630801171064,0.00024075759574770927,0.00040299631655216217
1746576387123841000,10.898841064453125,-0.0009075717534869909,0.000536368228495121,0.001628316706046462
1746576387133806000,10.90880615234375,0.0003667534328997135,-0.000674739945679903,0.00015061767771840096
1746576387143771000,10.91877099609375,0.0016338855493813753,0.0015764301642775536,0.00016872724518179893
1746576387153735000,10.92873486328125,0.00007113441824913025,0.0006340891122817993,-0.001302559394389391
1746576387163700000,10.938699951171875,0.0019931376446038485,0.00004393234848976135,0.0009560673497617245
1746576387173665000,10.9486650390625,0.00021149218082427979,0.00047056935727596283,0.00018901517614722252
1746576387183629000,10.958629150390625,-0.00041701365262269974,-0.0010807220824062824,-0.0002104588784277439
1746576387193593900,10.96859375,0.0010677590034902096,0.00039130309596657753,0.000901802908629179
1746576387203559000,10.978558837890626,0.0013101065997034311,0.0003521549515426159,-0.0009956993162631989
1746576387213523000,10.98852294921875,0.0011195188853889704,0.0005863220430910587,0.0002626241184771061
1746576387223487700,10.99848779296875,-0.0009305826388299465,-0.00025470415130257607,-0.0004673483781516552
1746576387233453000,11.008453125,0.0008699120953679085,0.00037495652213692665,-0.0007838606834411621
1746576387243417000,11.0184169921875,0.0021410388872027397,-0.00009881984442472458,0.00036822259426116943
1746576387253382000,11.0283818359375,0.001780388643965125,-0.0005101258866488934,-0.000657801516354084
1746576387263347000,11.038346923828126,0.000215515261515975,0.0013199984095990658,0.0011014826595783234
1746576387273311000,11.04831103515625,0.0003355809021741152,0.0005485657602548599,0.00010289205238223076
1746576387283275800,11.05827587890625,0.0005206707864999771,0.0012788046151399612,-0.0003152242861688137
1746576387293241000,11.068240966796875,-0.0009916250128298998,0.0017293435521423817,-0.0008315024897456169
1746576387303205000,11.078205078125,-0.0009050725493580103,0.000594304408878088,-0.00012017181143164635
1746576387313170000,11.088169921875,-0.001280035125091672,0.0007506147958338261,0.0008197790011763573
1746576387323135000,11.098135009765626,-0.0012669858988374472,0.0002888226881623268,0.0008831620216369629
1746576387333099000,11.10809912109375,-0.00004789605736732483,-0.0010038483887910843,-0.002498504240065813
1746576387343064000,11.11806396484375,0.001052788458764553,-0.00007254071533679962,-0.0007139202207326889
1746576387353029000,11.128029052734375,-0.001614642795175314,0.001005261205136776,-0.0010151183232665062
1746576387362994000,11.137993896484375,-0.000196775421500206,-0.0003657341003417969,-0.00029659783467650414
1746576387372958000,11.1479580078125,0.001490515423938632,0.0009185099042952061,0.0007766098715364933
1746576387382923000,11.157923095703126,-0.0004253624938428402,0.0003629745915532112,0.0007204175926744938
1746576387392888000,11.16788818359375,0.0008036429062485695,-0.0021360842511057854,-0.0004196302033960819
1746576387402852000,11.17785205078125,-0.0012310121674090624,0.000161691103130579,0.0003177989274263382
1746576387412817000,11.18781689453125,-0.0004945250693708658,0.001635636668652296,0.000993010587990284
1746576387422782000,11.197781982421875,0.0008567627519369125,0.0015299092046916485,0.000442535150796175
1746576387432746000,11.20774609375,0.001075952546671033,-0.000018751248717308044,-0.0005664601922035217
1746576387442710800,11.217710693359376,0.00018379371613264084,0.00023691216483712196,0.00045139994472265244
1746576387452676000,11.227676025390625,-0.0012411375064402819,-0.0001662340946495533,-0.00018319347873330116
1746576387462640000,11.23764013671875,0.0009522419422864914,0.0005932995118200779,-0.000504104420542717
1746576387472605000,11.24760498046875,-0.00019878125749528408,-0.0005173594690859318,0.0013736831024289131
1746576387482570000,11.257570068359374,-0.0007154345512390137,-0.0005881995894014835,-0.0003541759215295315
1746576387492534000,11.267533935546876,-0.002380428137257695,0.00009773252531886101,-0.00044903717935085297
1746576387502498800,11.277498779296875,-0.00018385285511612892,-0.00041519245132803917,-0.0016663679853081703
1746576387512464100,11.287464111328125,0.0007939978968352079,-0.000543045811355114,0.0010101157240569592
1746576387522428200,11.29742822265625,-0.000008678995072841644,-0.0003568907268345356,0.00024632131680846214
1746576387532393000,11.30739306640625,0.0005061812698841095,0.0005269451066851616,-0.0005741114728152752
1746576387542358000,11.31735791015625,0.000004974426701664925,-0.00179133634082973,0.0010653301142156124
1746576387552321800,11.32732177734375,-0.00018125632777810097,0.0015102457255125046,-0.0012778681702911854
1746576387562286800,11.337286865234375,-0.0003554271534085274,0.0005967812612652779,-0.00018810294568538666
1746576387572252200,11.347252197265625,-0.000182347372174263,-0.0008958368562161922,-0.0005553835071623325
1746576387582216000,11.3572158203125,0.0006147369276732206,0.00027382373809814453,0.0004883091896772385
1746576387592181000,11.367180908203125,0.00048535969108343124,0.0006357650272548199,-0.0004950007423758507
1746576387602145800,11.377145751953124,-0.00014474405907094479,0.0008315076120197773,-0.000020425301045179367
1746576387612109800,11.38710986328125,0.00028078886680305004,-0.00009012361988425255,-0.0022792238742113113
1746576387622075000,11.397074951171875,-0.00044971611350774765,-0.00001928349956870079,-0.0006435103714466095
1746576387632040000,11.4070400390625,-0.00019722199067473412,-0.0004945420660078526,0.0001437375321984291
