time,seconds_elapsed,z,y,x
1746735652863268900,0.017268798828125,0.0003629066050052643,0.00032774265855550766,0.0011749472469091415
1746735652873234700,0.027234619140625,0.000801529036834836,0.0009314813651144505,0.000036712270230054855
1746735652883200800,0.03720068359375,0.000661755446344614,-0.0006691771559417248,-0.00012536020949482918
1746735652893166800,0.047166748046875,0.001324882498010993,-0.0005179094150662422,0.0003742487169802189
1746735652903133000,0.0571328125,-0.0007515023462474346,-0.0015122843906283379,-0.001962034497410059
1746735652913098800,0.0670986328125,-0.00021221209317445755,0.00017908914014697075,0.0007772929966449738
1746735652923064800,0.07706494140625,0.0005276340525597334,0.00010272301733493805,-0.0012258486822247505
1746735652933031000,0.087031005859375,-0.0010332446545362473,-0.0007217917591333389,0.0024623628705739975
1746735652942997800,0.096997802734375,0.0010033347643911839,-0.0002607526257634163,0.00026945723220705986
1746735652952963800,0.1069638671875,0.0002344802487641573,-0.0006058984436094761,-0.002419003751128912
1746735652962929700,0.1169296875,-0.0008556367829442024,0.00007907720282673836,0.00018349336460232735
1746735652972895700,0.126895751953125,-0.00178987393155694,0.0009683063253760338,-0.000549674965441227
1746735652982861800,0.13686181640625,-0.0008950582705438137,-0.00022248132154345512,0.0009405035525560379
1746735652992828000,0.146827880859375,-0.0006548408418893814,-0.00045896973460912704,-0.00004939362406730652
1746735653002793700,0.156793701171875,0.0009631093125790358,-0.001090476755052805,-0.00020324625074863434
1746735653012759800,0.166759765625,-0.0007855221629142761,-0.0005202936008572578,0.0007536276243627071
1746735653022726000,0.176725830078125,-0.00010142521932721138,-0.00028430717065930367,-0.00037440843880176544
1746735653032691700,0.186691650390625,0.0008698299061506987,0.00010451441630721092,-0.00018612295389175415
1746735653042657800,0.19665771484375,-0.00009772181510925293,-0.000752114225178957,-0.00025440286844968796
1746735653052624600,0.206624755859375,0.0016144244000315666,-0.0006373319774866104,0.00024440744891762733
1746735653062590700,0.2165908203125,-0.0001449882984161377,0.0005028466694056988,-0.00024117203429341316
1746735653072556800,0.226556884765625,0.00127101456746459,-0.0012303385883569717,-0.0015037767589092255
1746735653082523000,0.23652294921875,0.00037016673013567924,-0.00009814277291297913,0.0004270006902515888
1746735653092488700,0.24648876953125,0.0008596559055149555,0.0002810913138091564,-0.0012944666668772697
1746735653102454800,0.256454833984375,-0.001376376487314701,-0.00034918123856186867,0.00031713349744677544
1746735653112420900,0.2664208984375,0.00017597991973161697,0.0005139489658176899,0.00023164600133895874
1746735653122386700,0.27638671875,0.0008147372864186764,0.0005057160742580891,0.000792753417044878
1746735653132352800,0.286352783203125,-0.0013528093695640564,0.0006532552652060986,-0.0004272405058145523
1746735653142318800,0.29631884765625,-0.0001270584762096405,-0.0005170097574591637,0.0010926173999905586
1746735653152285700,0.30628564453125,0.0008974596858024597,-0.0010815998539328575,0.00003800541162490845
1746735653162251800,0.316251708984375,-0.0014320965856313705,-0.0019650706090033054,0.0004332023672759533
1746735653172217900,0.3262177734375,0.00007338821887969971,0.00028503406792879105,-0.0010046381503343582
1746735653182183700,0.33618359375,-0.0017059994861483574,-0.0018422647845000029,0.0015405183658003807
1746735653192150000,0.34614990234375,0.0003725977148860693,-0.0005056243389844894,-0.0004928051494061947
1746735653202116000,0.3561162109375,-0.0005296654999256134,-0.00017538713291287422,-0.0006262660026550293
1746735653212082200,0.366082275390625,-0.0007102275267243385,-0.0011583599261939526,0.0028036192525178194
1746735653222048000,0.376048095703125,0.000496742082759738,0.0007852204144001007,-0.0005036983639001846
1746735653232014000,0.38601416015625,0.00020006578415632248,-0.00019349157810211182,-0.0002783946692943573
1746735653241980200,0.395980224609375,0.001840883633121848,-0.0004618312232196331,-0.00011870358139276505
1746735653251947300,0.405947265625,0.0019410185050219297,-0.0007265494205057621,0.00039635179564356804
1746735653261913000,0.4159130859375,0.00021496741101145744,0.000757765956223011,0.0004038047045469284
1746735653271879200,0.425879150390625,0.0012147182133048773,0.00216657854616642,-0.002190913073718548
1746735653281845000,0.435844970703125,-0.0003396514803171158,-0.0007014023140072823,-0.000435427762567997
1746735653291811000,0.44581103515625,-0.0005343286320567131,-0.0009000743739306927,-0.0007989490404725075
1746735653301777200,0.455777099609375,-0.0008925683796405792,-0.00008064368739724159,0.00008928868919610977
1746735653311743000,0.465742919921875,0.00012662331573665142,0.0004037851467728615,0.00002856878563761711
1746735653321709000,0.475708984375,-0.0009082690812647343,-0.00037499936297535896,0.0014161234721541405
1746735653331675100,0.485675048828125,0.0010566110722720623,-0.0002828538417816162,0.00045791827142238617
1746735653341641200,0.49564111328125,-0.0023924862034618855,-0.0009407061152160168,0.00039919139817357063
1746735653351608000,0.505608154296875,0.0006658877246081829,-0.0002557411789894104,0.0012117219157516956
1746735653361574100,0.51557421875,0.0002537132240831852,0.0008383570238947868,0.0013900883495807648
1746735653371540000,0.5255400390625,0.0008654412813484669,0.000015706289559602737,-0.00007118796929717064
1746735653381506300,0.53550634765625,-0.000350788701325655,-0.00010779360309243202,-0.0009307903237640858
1746735653391472000,0.54547216796875,-0.0004983278922736645,0.000008586328476667404,0.0005890754982829094
1746735653401438000,0.55543798828125,0.0012746707070618868,0.000023554079234600067,-0.0002719094045460224
1746735653411404000,0.565404052734375,0.00053457822650671,0.00045418739318847656,-0.0016338499262928963
1746735653421370000,0.5753701171875,0.0018078666180372238,0.00002181483432650566,0.001100338064134121
1746735653431336200,0.585336181640625,-0.00012771878391504288,-0.0014122971333563328,-0.0008530905470252037
1746735653441302000,0.595302001953125,0.0015449726488441229,-0.0005946503952145576,0.0013781022280454636
1746735653451268000,0.60526806640625,-0.00002469448372721672,-0.000016744248569011688,-0.0020192922092974186
1746735653461235000,0.61523486328125,-0.00002768542617559433,-0.0004939618520438671,0.0014433949254453182
1746735653471201300,0.625201171875,-0.00009746011346578598,-0.0005157999694347382,0.00040183262899518013
1746735653481167000,0.6351669921875,0.0002328045666217804,0.0002202056348323822,-0.0026336447335779667
1746735653491133000,0.6451328125,0.0015987397637218237,-0.0005052397027611732,0.002052719471976161
1746735653501099000,0.65509912109375,0.000003866851329803467,0.0003403131850063801,-0.0008186991326510906
1746735653511065000,0.665065185546875,0.0005061388947069645,-0.0007342719472944736,-0.0008035195060074329
1746735653521031200,0.67503125,0.0011678908485919237,-0.0011012610048055649,0.0005933358334004879
1746735653530997000,0.6849970703125,0.002052859403192997,-0.0009305523708462715,0.0010447418317198753
1746735653540963000,0.694963134765625,-0.0006760153919458389,-0.000049009453505277634,-0.0006494214758276939
1746735653550929200,0.70492919921875,0.00039137969724833965,-0.00020080944523215294,-0.00017910730093717575
1746735653560896300,0.714896240234375,-0.00011621369048953056,-0.0003413660451769829,-0.0000485503114759922
1746735653570862000,0.724862060546875,0.0002920490223914385,0.00019339658319950104,0.00002575153484940529
1746735653580828200,0.734828125,-0.0010439706966280937,0.00004668254405260086,-0.00034841010347008705
1746735653590794000,0.7447939453125,-0.0001536761410534382,0.000531644094735384,-0.001180914230644703
1746735653600760000,0.754760009765625,-0.0016875467263162136,-0.00018904777243733406,0.0008620382286608219
1746735653610726100,0.76472607421875,-0.001089134719222784,0.00011961255222558975,-0.001003506127744913
1746735653620692000,0.77469189453125,0.0012911001686006784,0.0006989752873778343,-0.00011218199506402016
1746735653630658000,0.784657958984375,-0.0007249126210808754,-0.0016715042293071747,-0.0007809018716216087
1746735653640624000,0.7946240234375,0.0005044513382017612,-0.0007492303848266602,0.00048607727512717247
1746735653650590200,0.804590087890625,-0.0004265899769961834,-0.0002464256249368191,-0.0006913063116371632
1746735653660557000,0.81455712890625,0.00038172840140759945,-0.0006150193512439728,0.0008495529182255268
1746735653670523100,0.824523193359375,0.0006411203648895025,-0.0015724257100373507,-0.0008285045623779297
1746735653680489000,0.834489013671875,-0.0008643390610814095,0.00008158385753631592,0.001068783923983574
1746735653690455300,0.844455322265625,0.0003063865005970001,-0.0006302790716290474,-0.0007557477802038193
1746735653700421000,0.854421142578125,-0.0013503842055797577,-0.0008261404000222683,-0.001432834193110466
1746735653710387000,0.864386962890625,0.0008674962446093559,-0.00013345247134566307,0.00041966047137975693
1746735653720353000,0.87435302734375,-0.0009932531975209713,-0.0004897965118288994,0.00045995553955435753
1746735653730319000,0.884319091796875,-0.0014111031778156757,-0.0012397430837154388,-0.0004955865442752838
1746735653740285200,0.89428515625,0.0011964307632297277,-0.0017341682687401772,0.00027737533673644066
1746735653750251000,0.9042509765625,0.0008819112554192543,-0.0016092660371214151,0.0007109381258487701
1746735653760218000,0.914218017578125,0.0013848710805177689,-0.0009819576516747475,0.0005338736809790134
1746735653770184000,0.924183837890625,-0.0002774740569293499,0.00012378674000501633,0.0004944587126374245
1746735653780150300,0.934150390625,-0.0016604582779109478,-0.0004868493415415287,0.001175513956695795
1746735653790116000,0.9441162109375,-0.0005011842586100101,-0.0010602278634905815,-0.0004977504722774029
1746735653800082200,0.954082275390625,0.0018699252977967262,-0.000977459829300642,-0.0007521887309849262
1746735653810048000,0.964048095703125,-0.0013945773243904114,-0.0017324660439044237,-0.0009234300814568996
1746735653820014000,0.97401416015625,0.0022733486257493496,0.000549734104424715,-0.00046270014718174934
1746735653829980200,0.983980224609375,-0.00004040589556097984,0.0004884814843535423,-0.0010667052119970322
1746735653839946000,0.993946044921875,-0.002183324657380581,-0.0004497445188462734,-0.0010498198680579662
1746735653849912000,1.003912109375,0.00006811181083321571,-0.00007343990728259087,0.0008820374496281147
1746735653859879000,1.01387890625,-0.0006636008620262146,0.0007938509806990623,0.000430278480052948
1746735653869845200,1.02384521484375,0.0005441424436867237,-0.0006035096012055874,-0.0006203386001288891
1746735653879811000,1.03381103515625,-0.000650002621114254,0.0004993891343474388,-0.0003429427742958069
1746735653889777200,1.043777099609375,-0.000671574380248785,0.00026263389736413956,-0.000861726701259613
1746735653899743000,1.053742919921875,-0.001055009663105011,0.0003442023880779743,0.001175223384052515
1746735653909709000,1.063708984375,-0.0007082661613821983,-0.00021080020815134048,0.0002279370091855526
1746735653919675100,1.073675048828125,-0.0016321702860295773,0.00037086522206664085,-0.0003077620640397072
1746735653929641000,1.083640869140625,-0.0013115257024765015,-0.0017367603722959757,-0.0008920594118535519
1746735653939607000,1.09360693359375,-0.00014014961197972298,-0.0004251580685377121,-0.0007585817947983742
1746735653949573000,1.103572998046875,-0.001451756339520216,0.0012454427778720856,0.0014347978867590427
1746735653959540200,1.113540283203125,0.001226814929395914,0.00039277318865060806,-0.0003341576084494591
1746735653969506000,1.123506103515625,-0.000633669551461935,0.0008452446199953556,0.0007513468153774738
1746735653979472100,1.13347216796875,-0.0013548717834055424,0.0002633333206176758,-0.000437228474766016
1746735653989438000,1.14343798828125,0.0006134705618023872,0.0002617351710796356,0.0009990143589675426
1746735653999404300,1.153404296875,-0.00015956442803144455,-0.0006890641525387764,0.00009829085320234299
1746735654009370000,1.1633701171875,0.00021221302449703217,0.0010507786646485329,0.0006170747801661491
1746735654019336000,1.1733359375,0.001358303241431713,0.0007233070209622383,-5.252659320831299e-7
1746735654029302000,1.183302001953125,0.0004783947952091694,-0.0002828352153301239,-0.00016670627519488335
1746735654039268000,1.19326806640625,-0.000026353169232606888,0.0003053867258131504,0.00016679707914590836
1746735654049234200,1.203234130859375,0.00019602105021476746,-0.000016855541616678238,-0.001378369051963091
1746735654059201000,1.213200927734375,0.00030236574821174145,-0.0005154726095497608,0.0012666480615735054
1746735654069167000,1.2231669921875,-0.0008435924537479877,-0.0014036367647349834,0.0008418741635978222
1746735654079133000,1.2331328125,-0.0006341659463942051,0.0006859800778329372,-0.000279000960290432
1746735654089099300,1.243099365234375,-0.0018866504542529583,-0.0000842059962451458,-0.000051034148782491684
1746735654099065000,1.253065185546875,-0.0002212286926805973,-0.0016193762421607971,0.0003011920489370823
1746735654109031200,1.26303125,-0.00027768779546022415,-0.0014281612820923328,0.0006833556108176708
1746735654118997000,1.2729970703125,-0.00026886165142059326,-0.0006170677952468395,0.0011966899037361145
1746735654128963000,1.282963134765625,-0.0009961710311472416,0.0008980045095086098,-0.0017636800184845924
1746735654138929200,1.29292919921875,0.0005802805535495281,0.0014392789453268051,-0.0009463271126151085
1746735654148895000,1.30289501953125,-0.0010242736898362637,-0.0011618304997682571,0.0011852667666971684
1746735654158862000,1.312862060546875,0.0003916313871741295,0.000532359816133976,0.000864851288497448
1746735654168828000,1.322827880859375,-0.0006704372353851795,0.00046178558841347694,0.000326360110193491
1746735654178794200,1.332794189453125,0.0009221634827554226,0.0006199497729539871,0.0013899323530495167
1746735654188759800,1.342759765625,0.0009336152579635382,-0.00007699942216277122,0.00043225986883044243
1746735654198726000,1.352725830078125,0.0008828071877360344,-0.0012155263684689999,-0.0006556897424161434
1746735654208691700,1.362691650390625,-0.001186202745884657,-0.0008251070976257324,0.00111025245860219
1746735654218657800,1.37265771484375,0.00043933303095400333,-0.0010242653079330921,-0.00015160813927650452
1746735654228624000,1.382623779296875,-0.000157215166836977,-0.000250350683927536,-0.0009785196743905544
1746735654238589700,1.392589599609375,-0.0006358274258673191,-0.0007290318608283997,-0.0004320475272834301
1746735654248555800,1.4025556640625,0.0003684507682919502,-0.0011809701099991798,-0.0001388336531817913
1746735654258522600,1.412522705078125,0.0014059110544621944,-0.00042050890624523163,-0.00025724200531840324
1746735654268489000,1.422489013671875,0.0009190852288156748,0.0002815006300806999,-0.0010505975224077702
1746735654278454800,1.432454833984375,-0.000928378663957119,0.0008751018904149532,0.00011964095756411552
1746735654288420900,1.4424208984375,-0.0001352890394628048,0.0009515346027910709,0.0006338972598314285
1746735654298386700,1.45238671875,-0.000169483944773674,-0.0007688701152801514,-0.0023330096155405045
1746735654308353000,1.46235302734375,0.0005935118533670902,-0.00026366859674453735,0.00010032067075371742
1746735654318318800,1.47231884765625,-0.0005419598892331123,-0.0011810418218374252,-0.0008732550777494907
1746735654328284700,1.48228466796875,0.00016857124865055084,0.001671469770371914,0.0015145353972911835
1746735654338250800,1.492250732421875,-0.00047339266166090965,0.00005789380520582199,-0.0005994979292154312
1746735654348217600,1.502217529296875,0.00008347444236278534,0.0011513875797390938,-0.0005779266357421875
1746735654358184000,1.512183837890625,0.00020256242714822292,0.0006865006871521473,-0.0009668059647083282
1746735654368149800,1.522149658203125,-0.0002248748205602169,0.00038236798718571663,0.0006729019805788994
1746735654378115800,1.53211572265625,0.00030527799390256405,0.001370611134916544,0.000027764588594436646
1746735654388081700,1.54208154296875,0.0010360493324697018,0.0002081412822008133,0.000685032457113266
1746735654398048000,1.552048095703125,0.001564153702929616,-0.0006902678869664669,0.0000317147932946682
1746735654408013800,1.562013916015625,0.0023591071367263794,0.0008479738608002663,0.0012218817137181759
1746735654417980000,1.57197998046875,0.0004934533499181271,-0.0006205663084983826,0.0006184405647218227
1746735654427945700,1.58194580078125,-0.0001363842748105526,0.0002926317974925041,-0.001031121239066124
1746735654437911800,1.591911865234375,-0.00014700694009661674,0.0002832994796335697,-0.0001268289051949978
1746735654447879000,1.60187890625,0.0010085385292768478,-0.000843483954668045,0.0010244552977383137
1746735654457844700,1.6118447265625,0.0017136153765022755,-0.00008162297308444977,-0.00015982706099748611
1746735654467810800,1.621810791015625,-0.00041664717718958855,-0.0001756330020725727,-0.0011939327232539654
1746735654477776600,1.631776611328125,-0.0013306657783687115,0.000683734193444252,-0.00022724643349647522
1746735654487743000,1.641742919921875,0.00031010759994387627,-0.00013572024181485176,0.0012350953184068203
1746735654497708800,1.651708740234375,0.0002098199911415577,-0.0009388732723891735,0.0006124433130025864
1746735654507675000,1.6616748046875,0.0014287487138062716,-0.000011028256267309189,0.00017861463129520416
1746735654517640700,1.671640625,-0.00008662557229399681,-0.0005153738893568516,-0.0000709271989762783
1746735654527606800,1.681606689453125,0.0008081963751465082,-0.0003894059918820858,0.0004318775609135628
1746735654537572900,1.69157275390625,0.0006904748734086752,-0.0009991098195314407,-0.00017169257625937462
1746735654547540000,1.7015400390625,-0.000039231497794389725,-0.0004001646302640438,-0.0005293549038469791
1746735654557505800,1.711505859375,-0.0012565860524773598,0.0016783899627625942,-0.00003061024472117424
1746735654567471600,1.7214716796875,0.00011201249435544014,0.0009502819739282131,0.00025541288778185844
1746735654577438000,1.73143798828125,0.0005080041009932756,0.0001300848089158535,0.0005142237059772015
1746735654587403800,1.74140380859375,0.0010747245978564024,-0.0004851054400205612,-0.00031348690390586853
1746735654597369900,1.751369873046875,-0.0005906536243855953,0.00035863276571035385,-0.0002219085581600666
1746735654607335700,1.761335693359375,-0.0016721636056900024,0.0007314751856029034,-0.000879975501447916
1746735654617302000,1.771302001953125,-0.001209246926009655,0.0005867439322173595,0.0003725811839103699
1746735654627267800,1.781267822265625,-0.0007272148504853249,0.0005702325142920017,0.0005169245414435863
1746735654637233700,1.791233642578125,0.0006146731320768595,-0.0005176886916160583,0.0005892855115234852
1746735654647200800,1.80120068359375,-0.00005750870332121849,0.0007840646430850029,0.00007209973409771919
1746735654657166800,1.811166748046875,0.0004672328941524029,-0.000966265331953764,0.0002549481578171253
1746735654667133000,1.8211328125,0.0005183655302971601,0.0003397488035261631,0.0005300529301166534
1746735654677098800,1.8310986328125,-0.0015608016401529312,-0.00039278948679566383,-0.0006991429254412651
1746735654687064800,1.84106494140625,-0.0009093922562897205,0.0005409144796431065,0.00012936629354953766
1746735654697030700,1.85103076171875,-0.000199249479919672,0.00024706916883587837,0.0009155413135886192
1746735654706997000,1.8609970703125,-0.000685542356222868,-0.001220865175127983,-0.00030312128365039825
1746735654716962800,1.870962890625,0.0007261552382260561,-0.000011646188795566559,-0.00009108986705541611
1746735654726929000,1.880928955078125,-0.000042166560888290405,-0.0001149764284491539,-0.0008413023315370083
1746735654736895700,1.890895751953125,0.00015772879123687744,-0.000602667685598135,-0.0008855173364281654
1746735654746861800,1.90086181640625,-0.00008595036342740059,0.00022371159866452217,0.0016881613992154598
1746735654756828000,1.910827880859375,0.00007085711695253849,-0.0007907180115580559,0.0006881621666252613
1746735654766793700,1.920793701171875,-0.0012498046271502972,-0.0007409169338643551,0.00046951649710536003
1746735654776759800,1.930759765625,-0.0007123830728232861,0.0003710431046783924,0.00027349963784217834
1746735654786725600,1.9407255859375,-0.0006189062260091305,-0.0005594654940068722,0.0005957423709332943
1746735654796692000,1.95069189453125,-0.0010997629724442959,-0.0017424221150577068,-0.0013689366169273853
1746735654806657800,1.96065771484375,-0.000036096200346946716,-0.0003107069060206413,-0.0019034333527088165
1746735654816623900,1.970623779296875,0.0006099394522607327,0.00007041310891509056,0.0007592001929879189
1746735654826589700,1.980589599609375,-0.0003101825714111328,-0.0010079010389745235,-0.0009199227206408978
1746735654836556800,1.990556884765625,-0.0013438514433801174,-0.0008817436173558235,-0.00007559871301054955
1746735654846523000,2.00052294921875,0.0001123649999499321,0.001046651042997837,-0.0006130249239504337
1746735654856489000,2.010489013671875,0.0007269515190273523,0.0007424233481287956,0.0008634040132164955
1746735654866454800,2.020454833984375,-0.0016272827051579952,0.001699297223240137,-0.00042423419654369354
1746735654876420900,2.0304208984375,-0.0016966694965958595,0.0009994716383516788,-0.0003275820054113865
1746735654886387000,2.040386962890625,0.0000844527967274189,-0.00208526779897511,-0.0011038933880627155
1746735654896352800,2.050352783203125,-0.0006095464341342449,0.0013766055926680565,0.00016059726476669312
1746735654906318800,2.06031884765625,0.00009246286936104298,-0.0003930646926164627,0.0007819123566150665
1746735654916284700,2.07028466796875,0.00008753640577197075,-0.0009530489332973957,-0.0008553178049623966
1746735654926251000,2.0802509765625,0.0010899503249675035,0.000019803643226623535,0.0009748064912855625
1746735654936217900,2.0902177734375,0.0003317166119813919,-0.0002198680303990841,0.000537362415343523
1746735654946184000,2.100183837890625,-0.0008392753079533577,0.0006278161890804768,-0.001566268503665924
1746735654956149800,2.110149658203125,-0.0013171820901334286,-0.00024195341393351555,-0.0004557427018880844
1746735654966115800,2.12011572265625,0.001685531809926033,0.0001780269667506218,0.0005842214450240135
1746735654976082000,2.13008203125,-0.000019136816263198853,-0.0006027258932590485,-0.0018011280335485935
1746735654986047700,2.1400478515625,0.0010344095062464476,0.0007696012035012245,0.0005168872885406017
1746735654996013800,2.150013916015625,-0.00008651195093989372,0.0009832191281020641,-0.0004347064532339573
1746735655005980000,2.15997998046875,-0.0022878809832036495,0.0005078446120023727,-0.00015028100460767746
1746735655015946000,2.169946044921875,-0.00041797757148742676,0.0002899658866226673,0.0005624811165034771
1746735655025912800,2.179912841796875,0.00008535967208445072,-0.0008205720223486423,-0.001020235475152731
1746735655035879000,2.18987890625,0.0013139243237674236,-0.00040076905861496925,-0.0013790181837975979
1746735655045844700,2.1998447265625,0.000045993365347385406,0.0005790079012513161,-0.0002378537319600582
1746735655055810800,2.209810791015625,-0.00024813972413539886,0.0009059817530214787,0.0006524338386952877
1746735655065777000,2.21977685546875,-0.0006681201048195362,0.00010836496949195862,-0.0009198961779475212
1746735655075743000,2.229742919921875,0.00016301707364618778,-0.0009311744943261147,0.0010028625838458538
1746735655085708800,2.239708740234375,0.0011526478920131922,-0.0006616627797484398,0.0002260184846818447
1746735655095675000,2.2496748046875,-0.0014489172026515007,-0.00004763063043355942,0.0013854019343852997
1746735655105641000,2.259640869140625,-0.000897909514605999,0.0009739580564200878,0.0003315890207886696
1746735655115606800,2.269606689453125,-0.0004444611258804798,-0.0000956323929131031,0.00041254376992583275
1746735655125574000,2.279573974609375,0.0024946031626313925,0.000447120051831007,-0.001258057076483965
1746735655135539700,2.289539794921875,-0.0014454936608672142,-0.0011138366535305977,0.0007458748295903206
1746735655145505800,2.299505859375,-0.0003663809038698673,-0.0011881389655172825,-0.0009036869741976261
1746735655155472000,2.309471923828125,0.0014250862877815962,-0.0011556614190340042,0.0012390841729938984
1746735655165438000,2.31943798828125,0.00005116150714457035,-0.000380681362003088,-0.0000030142255127429962
1746735655175403800,2.32940380859375,-0.00018326379358768463,-0.0007410915568470955,0.00010763388127088547
1746735655185369900,2.339369873046875,0.000589851988479495,0.0003577284514904022,0.0005382667295634747
1746735655195335400,2.34933544921875,0.000774097628891468,-0.0005780132487416267,-0.0009273914620280266
1746735655205301200,2.35930126953125,-0.0011372528970241547,0.00011387607082724571,0.0009855572134256363
1746735655215267300,2.369267333984375,0.0014380489010363817,-0.0011868844740092754,-0.000046421773731708527
1746735655225234200,2.379234130859375,-0.00000991160050034523,-0.00012614717707037926,0.0003732927143573761
1746735655235200500,2.389200439453125,0.0010600830428302288,-0.00011778576299548149,0.0015502627938985825
1746735655245166300,2.399166259765625,-0.000812651589512825,0.0008758394978940487,-0.0005006375722587109
1746735655255132200,2.409132080078125,-0.00138437794521451,-0.00035798316821455956,0.00018544867634773254
1746735655265098200,2.41909814453125,0.002852445002645254,-0.00036517390981316566,0.0001931721344590187
1746735655275064300,2.429064208984375,-0.00020907213911414146,-0.0026231028605252504,0.001709658419713378
1746735655285030400,2.439030517578125,-0.0001624668948352337,-0.0013991137966513634,-0.0007018339820206165
1746735655294996200,2.448996337890625,-0.0000752592459321022,0.00045561930164694786,-0.00016140472143888474
1746735655304962300,2.45896240234375,-0.0000997600145637989,-0.00022907927632331848,0.0005091791972517967
1746735655314929200,2.46892919921875,0.0004874730948358774,0.0011196667328476906,0.000573950819671154
1746735655324895500,2.4788955078125,0.0014523363206535578,0.0002504107542335987,0.0007662312127649784
1746735655334861300,2.488861328125,-0.00010101962834596634,-0.0010845763608813286,-0.00042437994852662086
1746735655344827400,2.498827392578125,0.000012964010238647461,0.0002408786676824093,-0.0009506205096840858
1746735655354793200,2.508793212890625,-0.001463055144995451,-0.000297455582767725,-0.00003880448639392853
1746735655364759300,2.51875927734375,0.0005771927535533905,-0.0005677668377757072,0.00018277065828442574
1746735655374725400,2.528725341796875,0.0025567887350916862,0.0005526612512767315,-0.00015906430780887604
1746735655384691200,2.538691162109375,-0.0007319487631320953,0.0007334896363317966,-0.001262944657355547
1746735655394657300,2.5486572265625,-0.00042801955714821815,0.00025281962007284164,0.0006212461739778519
1746735655404623400,2.558623291015625,-0.0021944944746792316,-0.0008406741544604301,-0.0011787842959165573
1746735655414590500,2.568590576171875,0.0006713061593472958,-0.00014611240476369858,-0.000778361689299345
1746735655424556300,2.578556396484375,-0.002350050024688244,-0.0005250801332294941,0.0003042132593691349
1746735655434522400,2.5885224609375,0.0002786756958812475,-0.00020565511658787727,-0.0002796165645122528
1746735655444488200,2.59848828125,0.00043127499520778656,-0.000264244619756937,0.0007643429562449455
1746735655454454300,2.608454345703125,0.0008376918267458677,-0.0004524989053606987,-0.00025503523647785187
1746735655464420400,2.61842041015625,0.0007665853481739759,-0.00016035046428442,0.0010696211829781532
1746735655474386200,2.62838623046875,-0.0015308610163629055,-0.000026640016585588455,0.00000708363950252533
1746735655484352300,2.638352294921875,0.0004132466856390238,0.0011267750523984432,-0.0006009158678352833
1746735655494318300,2.648318359375,-0.0003024986945092678,0.0005105701275169849,0.000710376538336277
1746735655504285400,2.658285400390625,0.0003047019708901644,-0.0008670827373862267,-0.0008670138195157051
1746735655514251300,2.668251220703125,-0.00036674411967396736,0.0006123636849224567,0.00010075746104121208
1746735655524217300,2.67821728515625,0.0015667106490582228,-0.00004357285797595978,0.00011833431199193001
1746735655534183200,2.68818310546875,-0.00031985295936465263,0.00009330641478300095,0.00023265602067112923
1746735655544149500,2.6981494140625,-0.00004128646105527878,0.00023072585463523865,-0.0008672294206917286
1746735655554115300,2.708115234375,-0.0006786054000258446,-0.000024423468858003616,-0.00003352900967001915
1746735655564081200,2.7180810546875,0.0001815957948565483,-0.0004755626432597637,0.0008879248052835464
1746735655574047200,2.728047119140625,0.0006526676006615162,0.0004849298857152462,0.0003308248706161976
1746735655584013300,2.738013427734375,-0.0008517522364854813,-0.00011534662917256355,0.0013494840823113918
1746735655593979400,2.7479794921875,-0.0003087068907916546,-0.00018089544028043747,-0.00032074423506855965
1746735655603945200,2.7579453125,-0.001489285845309496,-0.0007678559049963951,0.00023532379418611526
1746735655613912300,2.767912353515625,0.0004490464925765991,-0.0000611492432653904,-0.0007671881467103958
1746735655623878100,2.777878173828125,-0.00031634606420993805,-0.001673160819336772,0.0002288338728249073
1746735655633844500,2.787844482421875,0.000886937603354454,-0.002075405092909932,0.0007565617561340332
1746735655643810300,2.797810302734375,0.0007007825188338757,-0.0005030748434364796,-0.0002687554806470871
1746735655653776400,2.8077763671875,0.0006734908092767,0.0005125189200043678,-0.0014472100883722305
1746735655663742200,2.8177421875,0.0008974624797701836,0.00024194177240133286,-0.00014279410243034363
1746735655673708300,2.827708251953125,0.0007690652273595333,0.00003369944170117378,0.0002951393835246563
1746735655683674400,2.83767431640625,-0.0011779717169702053,0.0004177270457148552,-0.0008276491425931454
1746735655693640200,2.84764013671875,-0.0014209640212357044,-0.0013371831737458706,0.0003626914694905281
1746735655703607300,2.857607177734375,-0.0012390702031552792,-0.0005044126883149147,0.0009533804841339588
1746735655713573000,2.867572998046875,-0.0005388255231082439,-0.00003087380900979042,0.0003228643909096718
1746735655723539500,2.87753955078125,-0.000262655783444643,0.0006197365000844002,0.0011806683614850044
1746735655733505300,2.88750537109375,0.0005427692085504532,-0.00039159879088401794,-0.0008826865814626217
1746735655743471400,2.897471435546875,0.001098837237805128,-0.000851260032504797,-0.0008800234645605087
1746735655753437200,2.907437255859375,-0.0007501784712076187,0.00010382384061813354,0.0010108505375683308
1746735655763403500,2.917403564453125,-0.0009781448170542717,-0.00021309265866875648,0.0007485290989279747
1746735655773369300,2.927369384765625,0.0005787399131804705,0.000043641310185194016,-0.00045434804633259773
1746735655783335200,2.937335205078125,-0.00004896707832813263,-0.0003792685456573963,0.0013030720874667168
1746735655793301200,2.94730126953125,-0.0005996623076498508,-0.00009242584928870201,-0.001304075587540865
1746735655803268000,2.95726806640625,-0.0006603826768696308,-0.0007670042105019093,0.0016584245022386312
1746735655813234400,2.967234375,0.0017754267901182175,-0.00001592608168721199,0.00038771284744143486
1746735655823200300,2.9772001953125,0.0018356144428253174,0.0001225583255290985,-0.0004317415878176689
1746735655833166300,2.987166259765625,0.00042813969776034355,-0.00023288093507289886,0.0007388032972812653
1746735655843132200,2.997132080078125,0.0002670183312147856,0.0008038878440856934,-0.0002087494358420372
1746735655853098500,3.007098388671875,0.0002681342884898186,-0.0007029115222394466,-0.00017808377742767334
1746735655863064300,3.017064208984375,-0.00009991461411118507,-0.0006677578203380108,-0.00043987249955534935
1746735655873030100,3.027030029296875,-0.0014789518900215626,-0.0006826967000961304,-0.00009973021224141121
1746735655882996200,3.036996337890625,0.0006646262481808662,0.0003700507804751396,-0.0003391485661268234
1746735655892962300,3.04696240234375,-0.00003482308238744736,0.0003950856626033783,-0.00011248653754591942
1746735655902929400,3.056929443359375,-0.0005794395692646503,0.0003759111277759075,-0.0008778790943324566
1746735655912895200,3.066895263671875,0.0015338717494159937,0.0003043105825781822,0.0012654545716941357
1746735655922861300,3.076861328125,0.0002630110830068588,0.000025744084268808365,-0.000057870522141456604
1746735655932827100,3.0868271484375,-0.0011104429140686989,-0.0002507544122636318,0.001207415945827961
1746735655942793500,3.09679345703125,-0.0009301472455263138,0.0002808128483593464,-0.0003012646920979023
1746735655952759300,3.10675927734375,-0.0012760739773511887,0.0013540028594434261,0.0009243031963706017
1746735655962725400,3.116725341796875,-0.00048085395246744156,-0.0012076916173100471,-0.0004589427262544632
1746735655972691200,3.126691162109375,0.0010897060856223106,0.0012505454942584038,0.0004535154439508915
1746735655982657300,3.1366572265625,-0.0006980737671256065,0.00026650726795196533,-0.0004535573534667492
1746735655992623400,3.146623291015625,-0.00041688093915581703,-0.0003857067786157131,0.00004582386463880539
1746735656002590500,3.156590576171875,-0.00036814529448747635,-0.0015361923724412918,0.0018178913742303848
1746735656012556300,3.166556396484375,-0.000276125967502594,0.00009439932182431221,-0.0002907724119722843
1746735656022522000,3.176522216796875,-0.0005546929314732552,-0.0005711247213184834,-0.0003802548162639141
1746735656032488400,3.186488525390625,0.00018490920774638653,-0.0005870256572961807,0.001173508819192648
1746735656042454300,3.196454345703125,-0.00043427571654319763,0.001409280113875866,-0.00014582090079784393
1746735656052420400,3.20642041015625,0.0011698261369019747,0.00041816243901848793,-0.0012912163510918617
1746735656062386200,3.21638623046875,0.0012087083887308836,-0.0006849193014204502,-0.0005364762619137764
1746735656072352500,3.2263525390625,-0.000419695395976305,0.0011997767724096775,0.00025401823222637177
1746735656082318300,3.236318359375,-0.0001568417064845562,0.0011451817117631435,0.001028731931000948
1746735656092284200,3.2462841796875,-0.00008135288953781128,0.0005557243712246418,0.00011400505900382996
1746735656102251300,3.256251220703125,0.0013796573039144278,-0.0008472288027405739,0.00025248946622014046
1746735656112217000,3.266217041015625,-0.0007036407478153706,-0.0005801115185022354,0.0010527069680392742
1746735656122183400,3.276183349609375,-0.0012804814614355564,0.0003282926045358181,0.00020049512386322021
1746735656132149200,3.286149169921875,0.0004960962105542421,-0.000638988334685564,-0.0013592839241027832
1746735656142115300,3.296115234375,-0.0026421728543937206,-0.0002586888149380684,0.0000764261931180954
1746735656152081200,3.3060810546875,-0.0005819564685225487,0.0010814517736434937,-0.0010001934133470058
1746735656162047500,3.316047607421875,-0.002108480781316757,0.002094518393278122,-0.0013472032733261585
1746735656172013300,3.326013427734375,-0.0001380639150738716,-0.000057775527238845825,0.0007158732041716576
1746735656181979400,3.3359794921875,-0.00034232810139656067,0.0004391702823340893,0.0021414633374661207
1746735656191945500,3.345945556640625,-0.00008274707943201065,0.0005022380501031876,0.0005058194510638714
1746735656201911800,3.355911865234375,0.0002839702647179365,0.0006223465315997601,-0.0010894141159951687
1746735656211878700,3.365878662109375,0.0015805086586624384,-0.0009998329915106297,-0.00040958868339657784
1746735656221844700,3.3758447265625,-0.00013989349827170372,-0.00007385155186057091,0.00018003536388278008
1746735656231810600,3.385810546875,0.0006718626245856285,0.00016824575141072273,0.0004163072444498539
1746735656241776600,3.395776611328125,0.0018119618762284517,0.0007040738128125668,0.000337743666023016
1746735656251742700,3.40574267578125,-0.00027717556804418564,0.00013421103358268738,0.00017724186182022095
1746735656261708500,3.41570849609375,0.00012256484478712082,0.0008508679457008839,-0.0017167981714010239
1746735656271674600,3.425674560546875,0.00038950610905885696,0.00015014642849564552,0.0004093707539141178
1746735656281640400,3.435640380859375,-0.0005106423050165176,-0.0007625189609825611,0.0003672926686704159
1746735656291606800,3.445606689453125,0.0003160980995744467,0.00016908161342144012,0.0010505546815693378
1746735656301572600,3.455572509765625,-0.0013142889365553856,0.0005017104558646679,0.0013632094487547874
1746735656311539700,3.465539794921875,-0.0006842995062470436,-0.0007559540681540966,-0.0007839333266019821
1746735656321505500,3.475505615234375,0.00006697839125990868,0.0005228957161307335,0.0004533710889518261
1746735656331471600,3.4854716796875,-0.0008207638747990131,-0.0004056445322930813,0.0007441667839884758
1746735656341437700,3.495437744140625,-0.0021251798607409,0.0012100948952138424,0.0015854595694690943
1746735656351403500,3.505403564453125,-0.00022639194503426552,-0.0009369691833853722,0.0012370278127491474
1746735656361369600,3.51536962890625,-0.0004916428588330746,-0.0003649224527180195,-0.0009124097414314747
1746735656371335400,3.52533544921875,-0.0007739425636827946,-0.0010611480101943016,-0.0001812344416975975
1746735656381301800,3.5353017578125,0.00009398162364959717,-0.001180457416921854,-0.0004318375140428543
1746735656391267600,3.545267578125,-0.0003408147022128105,-0.00007905066013336182,0.0004135561175644398
1746735656401233700,3.555233642578125,0.000579840037971735,-0.0017144978046417236,0.0004391223192214966
1746735656411199500,3.565199462890625,-0.001396766398102045,-0.0005061188712716103,0.00065257353708148
1746735656421166600,3.57516650390625,0.0005542656872421503,0.00028430717065930367,0.0013348753564059734
1746735656431132700,3.585132568359375,-0.000696464441716671,0.0005092001520097256,-0.000513322651386261
1746735656441098800,3.5950986328125,0.00021700002253055573,-0.00006843963637948036,0.0004091965965926647
1746735656451064600,3.605064697265625,-0.0007389062084257603,0.000466757919639349,0.00021190335974097252
1746735656461030400,3.615030517578125,0.0006672430317848921,-0.0011961199343204498,0.0008342843502759933
1746735656470996700,3.624996826171875,0.00031171529553830624,0.00006991392001509666,-0.000997135415673256
1746735656480962600,3.634962646484375,0.001015588641166687,0.0006688586436212063,0.0007269950583577156
1746735656490928600,3.6449287109375,0.0006665054243057966,-0.0008024782873690128,-0.0006737438961863518
1746735656500894500,3.65489453125,-0.00033351127058267593,0.0002555958926677704,0.00040084123611450195
1746735656510860800,3.66486083984375,0.0005376155022531748,-0.0009950892999768257,-0.0006823372095823288
1746735656520827600,3.67482763671875,0.00004386529326438904,0.0008017453365027905,-0.0002027018927037716
1746735656530793700,3.684793701171875,-0.0005179657600820065,0.00037246616557240486,-0.0005523469299077988
1746735656540759600,3.694759521484375,-0.0003150328993797302,0.0004124138504266739,-0.0008141356520354748
1746735656550725600,3.7047255859375,-0.0011005746200680733,-0.0013135257177054882,0.0014911091420799494
1746735656560691700,3.714691650390625,0.0002547081094235182,0.0005645356141030788,-0.0007281028665602207
1746735656570657500,3.724657470703125,-0.0009227879345417023,-0.0003409693017601967,-0.0002390015870332718
1746735656580623600,3.73462353515625,-0.0003597959876060486,0.00030271708965301514,0.001797517528757453
1746735656590589400,3.74458935546875,0.0006414703093469143,0.000026664230972528458,-0.001664087176322937
1746735656600555800,3.7545556640625,0.000316298333927989,0.00022586854174733162,0.0009737741202116013
1746735656610521600,3.764521484375,-0.001228642649948597,0.00003488222137093544,0.000659317709505558
1746735656620487700,3.77448779296875,-0.0002810899168252945,0.0002482011914253235,0.00012002745643258095
1746735656630454500,3.78445458984375,-0.002195509150624275,0.0003215600736439228,-0.00009137671440839767
1746735656640420600,3.794420654296875,0.001029578736051917,0.0008656438440084457,0.000279868021607399
1746735656650386700,3.80438671875,-0.0004935343749821186,-0.0012802737765014172,-0.0009354846552014351
1746735656660352800,3.814352783203125,0.0006827840115875006,0.0011171037331223488,-0.00011736154556274414
1746735656670318600,3.824318603515625,-0.0003222641535103321,0.00007862504571676254,0.00024390872567892075
1746735656680284400,3.834284423828125,0.0010585847776383162,0.000038411468267440796,0.00020635826513171196
1746735656690250800,3.844250732421875,0.0003489458467811346,-0.00009822053834795952,-0.0004941793158650398
1746735656700216600,3.854216552734375,-0.0005346909165382385,0.001063716597855091,0.00005709519609808922
1746735656710182700,3.8641826171875,-0.001122151967138052,-0.0007216092199087143,-0.00030770059674978256
1746735656720148500,3.8741484375,0.00003126286901533604,-0.00044117867946624756,-0.00046562589704990387
1746735656730115600,3.884115478515625,-0.0005084732547402382,0.0002756570465862751,0.0011437861248850822
1746735656740081700,3.89408154296875,0.0014992838259786367,-0.000519829336553812,-0.0010658386163413525
1746735656750047700,3.9040478515625,-0.00026779482141137123,0.0013033747673034668,-0.0005226107314229012
1746735656760013600,3.914013671875,0.00033407961018383503,-0.00006282702088356018,-0.0012866719625890255
1746735656769979400,3.9239794921875,-0.0003425944596529007,0.0003350386396050453,-0.0004196842201054096
1746735656779945700,3.93394580078125,0.0005335856694728136,-0.000373894814401865,-0.00030889688059687614
1746735656789911600,3.94391162109375,0.0002912788186222315,0.0009990977123379707,0.00004515890032052994
1746735656799877600,3.953877685546875,-0.0004759775474667549,-0.0005109147168695927,0.00040282169356942177
1746735656809843500,3.963843505859375,0.001020536059513688,-0.0007941555231809616,-0.000004009343683719635
1746735656819809800,3.973809814453125,-0.0007954733446240425,0.00048043346032500267,0.001869790954515338
1746735656829775600,3.983775634765625,0.00032517407089471817,0.0009736130014061928,-0.000003018416464328766
1746735656839742700,3.99374267578125,-0.000138748437166214,-0.0005236160941421986,-0.0013367296196520329
1746735656849708500,4.00370849609375,-0.0017391624860465527,-0.0010701874271035194,0.0006026364862918854
1746735656859674600,4.013674560546875,-0.0010163807310163975,-0.0016576806083321571,-0.0006013787351548672
1746735656869640700,4.023640625,-0.0009301216341555119,0.0009298408403992653,-0.0010058209300041199
1746735656879606500,4.0336064453125,0.00014313217252492905,-0.00008508982136845589,-0.0007541519589722157
1746735656889572600,4.043572509765625,0.0006660665385425091,-0.0009745592251420021,0.000008705537766218185
1746735656899538400,4.053538330078125,0.0002828377764672041,-0.00043207360431551933,0.001116846688091755
1746735656909504800,4.0635048828125,0.0020699482411146164,0.00021725241094827652,-0.0003082696348428726
1746735656919470600,4.073470703125,-0.0007905531674623489,0.0005325707606971264,-0.0024377331137657166
1746735656929436700,4.083436767578125,0.0011803330853581429,0.000491319689899683,-0.0012493552640080452
1746735656939402500,4.093402587890625,0.0013971144799143076,0.0010718884877860546,-0.0003420161083340645
1746735656949369600,4.10336962890625,-0.0004198979586362839,0.00004089297726750374,-0.0002496880479156971
1746735656959335700,4.113335693359375,0.00008583627641201019,0.00012211967259645462,0.00015830853953957558
1746735656969301800,4.1233017578125,-0.00014166394248604774,-0.00005681626498699188,0.0005928804166615009
1746735656979267600,4.133267578125,0.0018751481547951698,-0.0007487055845558643,-0.000490227248519659
1746735656989233400,4.1432333984375,0.0017467087600380182,-0.00027540186420083046,-0.0001646997407078743
1746735656999199700,4.15319970703125,0.0014982358552515507,-0.0008541066199541092,-0.0008057230152189732
1746735657009165600,4.16316552734375,-0.0004737880080938339,0.0005223709158599377,0.000877926591783762
1746735657019131600,4.173131591796875,0.0012442171573638916,0.00015698513016104698,0.0012971083633601665
1746735657029097500,4.183097412109375,-0.0009071724489331245,0.0005801776424050331,-0.00035247066989541054
1746735657039063800,4.193063720703125,-0.0015583154745399952,-0.0005426113493740559,0.0009841700084507465
1746735657049029600,4.203029541015625,-0.0003347136080265045,0.00018265657126903534,-0.0011415714398026466
1746735657058996700,4.212996826171875,-0.0011645546182990074,-0.00009484449401497841,0.0005764337256550789
1746735657068962600,4.222962646484375,-0.00021897116675972939,0.0006229821592569351,0.0017328602261841297
1746735657078928600,4.2329287109375,-0.0002474673092365265,0.00032097985967993736,-0.0011084661819040775
1746735657088894700,4.242894775390625,-0.0003604530356824398,-0.0005985856987535954,0.00006243307143449783
1746735657098860500,4.252860595703125,-0.0007998747751116753,-0.0000909869559109211,0.0010073226876556873
1746735657108826600,4.26282666015625,0.00014193682000041008,-0.0012523545883595943,-0.0006664460524916649
1746735657118792400,4.27279248046875,0.00173610495403409,0.00042570335790514946,0.0000624610111117363
1746735657128758800,4.2827587890625,-0.0006353934295475483,0.00003893347457051277,0.0002155601978302002
1746735657138724600,4.292724609375,-0.000035649631172418594,0.0006117797456681728,-0.0020020543597638607
1746735657148690700,4.302690673828125,-0.0010330684017390013,-0.00018961727619171143,0.0004655183292925358
1746735657158656500,4.312656494140625,-0.000053824158385396004,-0.0009347698651254177,0.0007587322033941746
1746735657168623600,4.32262353515625,0.0025131297297775745,0.0000012544915080070496,-0.0005716048181056976
1746735657178589700,4.332589599609375,0.000007627764716744423,-0.000215260311961174,0.0002872645854949951
1746735657188555500,4.342555419921875,0.0025395324919372797,0.0017649643123149872,-0.0007740715518593788
1746735657198522000,4.352522216796875,0.0010393739212304354,-0.00018287170678377151,-0.000010543502867221832
1746735657208488000,4.362488037109375,0.0014772156719118357,0.0008242311887443066,-0.0010763886384665966
1746735657218454000,4.3724541015625,0.0008798686321824789,-0.0012258701026439667,-0.00027664145454764366
1746735657228420000,4.382420166015625,-0.00013135862536728382,0.00046536885201931,-0.00015415064990520477
1746735657238386200,4.39238623046875,-0.00003734859637916088,0.0003521847538650036,0.0005944636650383472
1746735657248352000,4.40235205078125,0.0003375816158950329,-0.0002458058297634125,0.0009439452551305294
1746735657258317800,4.41231787109375,0.00004063919186592102,0.0003850972279906273,-0.0007721958681941032
1746735657268285000,4.422284912109375,-0.0006949028465896845,-0.00013590743765234947,-0.00025098351761698723
1746735657278251000,4.4322509765625,0.0011698424350470304,-0.00031593721359968185,-0.00004352349787950516
1746735657288217000,4.442217041015625,-0.0001875576563179493,0.0014727124944329262,0.0005119489505887032
1746735657298183000,4.452182861328125,-0.0012680022045969963,-0.000071654561907053,0.001300776842981577
1746735657308149000,4.46214892578125,-0.00012120301835238934,0.0005377461202442646,0.001181210856884718
1746735657318115000,4.472114990234375,-0.0004823275376111269,-0.0017629589419811964,-0.0001927139237523079
1746735657328081200,4.4820810546875,0.00011372053995728493,-0.0009432099759578705,-0.0006029214709997177
1746735657338047000,4.492046875,-0.0009078681468963623,0.0009388457983732224,-0.0004620403051376343
1746735657348013000,4.502012939453125,-0.0008848328143358231,0.000014788936823606491,0.000831130426377058
1746735657357979100,4.511979248046875,-0.00012423377484083176,0.0007146676070988178,-0.0005278806202113628
1746735657367945000,4.521945068359375,-0.0016784369945526123,0.000662853941321373,0.001155246514827013
1746735657377912000,4.531912109375,-0.0006059817969799042,-0.00034675048664212227,0.0017294238787144423
1746735657387878000,4.5418779296875,-0.001853778725489974,-0.0007231943309307098,0.0012658271007239819
1746735657397844000,4.551843994140625,0.0010432079434394836,-0.0012097540311515331,-0.000875087920576334
1746735657407810000,4.56181005859375,0.0006585810333490372,-0.0000164741650223732,0.00014868425205349922
1746735657417776000,4.571776123046875,-0.0009060259908437729,-0.0010846680961549282,0.0000863661989569664
1746735657427742000,4.581741943359375,0.0001554426271468401,-0.0009277788922190666,-0.00036073848605155945
1746735657437708000,4.5917080078125,-0.0007327215280383825,0.0007295063696801662,0.00017562229186296463
1746735657447674000,4.601674072265625,0.000420805299654603,0.00032750749960541725,-0.00006559723988175392
1746735657457640000,4.611639892578125,-0.001021828968077898,-0.00018168892711400986,0.00048381276428699493
1746735657467606000,4.62160595703125,-0.000004398170858621597,0.0002413676120340824,-0.00008135847747325897
1746735657477571800,4.63157177734375,0.00006963755004107952,-0.0001029791310429573,0.0028443902265280485
1746735657487538200,4.6415380859375,-0.0010854797437787056,0.0009621717035770416,0.002097677905112505
1746735657497505000,4.651505126953125,-0.0015632505528628826,0.0003784066066145897,-0.0008072983473539352
1746735657507471000,4.66147119140625,-0.001416684128344059,-0.00007541337981820107,0.00033007003366947174
1746735657517437000,4.67143701171875,-0.00011066999286413193,0.0006241993978619576,0.00022327760234475136
1746735657527403000,4.681403076171875,-0.00045550987124443054,0.0014765243977308273,-0.0005519818514585495
1746735657537369000,4.691369140625,0.0007727399934083223,0.0008378983475267887,-0.0007953946478664875
1746735657547335200,4.701335205078125,0.0005284859798848629,-0.0013666555751115084,-0.00014804862439632416
1746735657557301000,4.711301025390625,0.00015724124386906624,0.0008901073597371578,0.0005643470212817192
1746735657567266800,4.721266845703125,-0.0009963896591216326,-0.0000895909033715725,0.001193867065012455
1746735657577233200,4.731233154296875,-3.671739250421524e-7,0.000041969120502471924,-0.0002812575548887253
1746735657587199000,4.741198974609375,0.0003918982110917568,-0.0004232623614370823,0.0006754687055945396
1746735657597165000,4.7511650390625,0.00031413394026458263,0.0008228309452533722,-0.000016952864825725555
1746735657607132000,4.7611318359375,0.0010241013951599598,-0.00024729641154408455,0.0004712468944489956
1746735657617098000,4.771097900390625,-0.0006435702089220285,-0.0001948322169482708,-0.00045766402035951614
1746735657627064000,4.78106396484375,0.00007016188465058804,-0.000600199680775404,0.000607682392001152
1746735657637030100,4.791030029296875,0.00005231867544353008,0.0003635981120169163,-0.001216050237417221
1746735657646996000,4.800995849609375,-0.0005687144584953785,0.00035427697002887726,-0.00029484694823622704
1746735657656962000,4.810962158203125,0.0013207984156906605,-0.0007607885636389256,0.0005403202958405018
1746735657666928000,4.82092822265625,-0.0005452381446957588,-0.0005023935809731483,-0.0004318193532526493
1746735657676894000,4.83089404296875,-0.0002437680959701538,-0.0007439418695867062,0.0017277379520237446
1746735657686860000,4.840860107421875,0.0012529101222753525,0.0011917892843484879,-0.0009030154906213284
1746735657696825900,4.850825927734375,-0.00024724844843149185,0.0013332031667232513,-0.0019280659034848213
1746735657706792200,4.860792236328125,0.0020630471408367157,-0.000029709190130233765,0.00015372131019830704
1746735657716759000,4.870759033203125,0.00041508302092552185,-0.0016670206096023321,-0.000647357665002346
1746735657726725000,4.88072509765625,-0.0009619118645787239,-0.00012211361899971962,0.0019089605193585157
1746735657736691000,4.89069091796875,-0.0001696213148534298,-0.0007093404419720173,-0.0005613877438008785
1746735657746657000,4.900656982421875,-0.0014180399011820555,0.000574926845729351,0.001275496557354927
1746735657756623000,4.910623046875,-0.0004662263672798872,-0.0001108371652662754,0.00018599722534418106
1746735657766589200,4.920589111328125,0.0007444163784384727,-0.00040798494592309,-0.00056802062317729
1746735657776555000,4.930554931640625,0.00013268832117319107,0.00013530021533370018,-0.000028996728360652924
1746735657786520800,4.940520751953125,-0.0004527017008513212,-0.0010172748006880283,-0.0006826557219028473
1746735657796487200,4.950487060546875,0.00022986670956015587,0.00010551372542977333,-0.00051833875477314
1746735657806453000,4.960452880859375,-0.0008211990352720022,-0.0006548874080181122,0.00046755000948905945
1746735657816419000,4.970419189453125,0.00031783501617610455,-0.0007885778322815895,-0.00034498050808906555
1746735657826386000,4.980385986328125,-0.0011115905363112688,-0.0003848276101052761,-0.0007433467544615269
1746735657836352000,4.99035205078125,-0.0013765750918537378,0.000854873564094305,-0.0011220481246709824
1746735657846318000,5.000318115234375,0.0014420656953006983,0.00045163044705986977,0.0002657049335539341
1746735657856284200,5.0102841796875,0.0010005137883126736,0.0007826611399650574,0.0007301601581275463
1746735657866250000,5.02025,-0.00006086775101721287,0.00028965063393116,-0.0001350482925772667
1746735657876215800,5.0302158203125,-0.00000866968184709549,-0.0008184905163943768,-0.0007212101481854916
1746735657886182100,5.04018212890625,-0.00079771364107728,0.00041575776413083076,-0.0002899635583162308
1746735657896148000,5.05014794921875,-0.0006240755319595337,0.000639996025711298,-0.00005027931183576584
1746735657906114000,5.060114013671875,0.002136613242328167,0.0001672748476266861,-0.000708519946783781
1746735657916079900,5.070079833984375,-0.00022933888249099255,0.0003097541630268097,0.0009322534315288067
1746735657926046200,5.080046142578125,0.0006622308865189552,-0.00010531069710850716,0.0015232132282108068
1746735657936012000,5.090011962890625,0.0000015005934983491898,0.00035008974373340607,0.0001538158394396305
1746735657945979100,5.099979248046875,-0.0012156360317021608,-0.0006068721413612366,-0.0003062942996621132
1746735657955945000,5.109945068359375,0.00024137948639690876,0.0005113892257213593,-0.0013505197130143642
1746735657965911000,5.1199111328125,0.0011366340331733227,0.0011358722113072872,0.0012924042530357838
1746735657975877000,5.129877197265625,-0.0012077467981725931,-0.0013893370050936937,0.0011840136721730232
1746735657985843000,5.139843017578125,-0.0012115971185266972,0.00054524140432477,0.00008503394201397896
1746735657995809000,5.14980908203125,0.00043849763460457325,-0.0003200196661055088,0.0006426996551454067
1746735658005774800,5.15977490234375,-0.001002866541966796,0.0005576028488576412,-0.00006018020212650299
1746735658015741200,5.1697412109375,-0.00042895530350506306,0.00004281383007764816,0.00016112858429551125
1746735658025707000,5.17970703125,-0.0009798579849302769,-0.0006127306260168552,-0.0009284601546823978
1746735658035673000,5.189673095703125,0.0021251216530799866,-0.00008356058970093727,-0.0004432322457432747
1746735658045639000,5.199638916015625,-0.0000693020410835743,0.0007463120855391026,-0.0005131191574037075
1746735658055606000,5.20960595703125,-0.00011910311877727509,-0.00040017860010266304,-0.0018707988783717155
1746735658065572000,5.219572021484375,0.0010833204723894596,0.00015336554497480392,-0.0004500690847635269
1746735658075538200,5.2295380859375,-0.0009726400021463633,0.0005547041073441505,0.00047404784709215164
1746735658085504000,5.23950390625,0.00025944458320736885,-0.000049795955419540405,0.00020355451852083206
1746735658095469800,5.2494697265625,0.0005739640910178423,0.000020777806639671326,-0.00043587060645222664
1746735658105436200,5.259436279296875,-0.0009899516589939594,0.00009221676737070084,-0.0003087623044848442
1746735658115402000,5.269402099609375,0.0007645387668162584,0.0004703858867287636,0.0001791287213563919
1746735658125368000,5.2793681640625,0.00031633535400032997,0.00019349297508597374,-0.0022018486633896828
1746735658135334000,5.289333984375,-0.00028287596069276333,-0.00031144265085458755,0.0008693085983395576
1746735658145300200,5.29930029296875,0.0002828428987413645,0.00011783326044678688,-0.00018036086112260818
1746735658155266000,5.30926611328125,0.00041200616396963596,-0.00009735021740198135,-0.0006091301329433918
1746735658165233200,5.319233154296875,0.00020431377924978733,0.0011231396347284317,-0.0004995344206690788
1746735658175199000,5.329198974609375,0.00019312836229801178,0.0010637510567903519,0.0007990230806171894
1746735658185165000,5.3391650390625,-0.00028432649560272694,-0.00009205564856529236,0.0007293261587619781
1746735658195131100,5.349131103515625,0.0004871911369264126,-0.0001751459203660488,0.0013724793680012226
1746735658205097000,5.359096923828125,-0.001512489514425397,0.0014909696765244007,-0.000023589935153722763
1746735658215063000,5.36906298828125,0.001533634029328823,-0.0016166730783879757,-0.0005908436141908169
1746735658225028900,5.37902880859375,-0.00007568905130028725,0.00030666589736938477,0.00018039345741271973
1746735658234995200,5.3889951171875,0.000056403689086437225,0.0001940140500664711,0.0003705429844558239
1746735658244961000,5.3989609375,-0.00023460597731173038,-0.0002947431057691574,0.0010400237515568733
1746735658254927000,5.408927001953125,0.00024929014034569263,-0.0007288381457328796,0.00021178089082241058
1746735658264893000,5.418892822265625,0.0020175455138087273,0.0006076465360820293,-0.00023369630798697472
1746735658274859000,5.42885888671875,-0.00044268276542425156,0.00011363020166754723,-0.00014368165284395218
1746735658284826000,5.438826171875,0.0001269201748073101,-0.0002598082646727562,-0.00027698324993252754
1746735658294792000,5.4487919921875,-0.0013671130873262882,0.0012161154299974442,0.0006221001967787743
1746735658304758000,5.458758056640625,0.000091952970251441,0.0003257305361330509,0.0006965738721191883
1746735658314724000,5.46872412109375,0.0007377695292234421,0.000020532403141260147,0.00042226817458868027
1746735658324690200,5.478690185546875,0.0008430213201791048,-0.001266256207600236,0.001209124457091093
1746735658334656000,5.488656005859375,0.0006190494168549776,-0.0007498692721128464,-0.0007229987531900406
1746735658344622000,5.4986220703125,-0.0003146710805594921,-0.0003540399484336376,-0.0012682531960308552
1746735658354588000,5.508587890625,-0.00013490766286849976,0.0006843265146017075,0.0013815918937325478
1746735658364554200,5.51855419921875,0.0007355052512139082,0.0007749814540147781,0.00017735455185174942
1746735658374520000,5.52852001953125,0.00021485728211700916,0.00045646773651242256,0.0001344778575003147
1746735658384486000,5.53848583984375,-0.0013647282030433416,-0.0011012395843863487,-0.00048371730372309685
1746735658394452000,5.548451904296875,-0.0007916160393506289,0.0009145066142082214,0.00013440242037177086
1746735658404419000,5.558419189453125,0.00012405449524521828,0.00021399976685643196,0.0007651150226593018
1746735658414385200,5.56838525390625,-0.0018227160908281803,-0.00022275839000940323,-0.00018589990213513374
1746735658424351000,5.57835107421875,-0.00019412371329963207,-0.00006334297358989716,0.000812044832855463
1746735658434317000,5.588317138671875,0.0007939091883599758,0.00009058741852641106,0.0008139093406498432
1746735658444283100,5.598283203125,-0.0005803587846457958,0.00038305995985865593,-0.0003208369016647339
1746735658454249200,5.608249267578125,-0.0011334973387420177,-0.001326156547293067,0.0011713323183357716
1746735658464215000,5.618215087890625,0.00011027953587472439,0.0007157968357205391,-0.000284555833786726
1746735658474180900,5.628180908203125,0.0003235987387597561,0.0011221952736377716,0.001013734843581915
1746735658484147000,5.63814697265625,0.0004605718422681093,-0.00010716821998357773,-0.00015340326353907585
1746735658494113000,5.648113037109375,0.0003047769423574209,-0.0001537739299237728,0.0006471429951488972
1746735658504079000,5.6580791015625,0.00037810299545526505,0.0004983153194189072,-0.0006783194839954376
1746735658514046000,5.6680458984375,0.0023608263581991196,0.0005073701031506062,0.00048228632658720016
1746735658524012000,5.678011962890625,0.0010763932950794697,0.0006575444713234901,-0.0005597188137471676
1746735658533978000,5.68797802734375,0.002368825487792492,0.0012477007694542408,-0.0013661240227520466
1746735658543944200,5.697944091796875,0.0007862672209739685,0.00017476361244916916,0.00026853661984205246
1746735658553910000,5.707909912109375,-0.0007703504525125027,-0.0005775792524218559,0.0014006467536091805
1746735658563876000,5.7178759765625,0.00038814241997897625,0.0009179729968309402,0.00023486139252781868
1746735658573842200,5.72784228515625,0.0006882806774228811,-0.0002575465478003025,0.0002290024422109127
1746735658583808000,5.73780810546875,0.0003818029072135687,-0.00036231568083167076,-0.00008999044075608253
1746735658593774000,5.747774169921875,-0.00045895716175436974,-0.000248864758759737,0.0009252065792679787
1746735658603740000,5.757739990234375,0.0013492349535226822,0.001139503438025713,0.0007793018594384193
1746735658613706000,5.7677060546875,0.0007827805820852518,-0.0006927512586116791,-0.0014540250413119793
1746735658623672000,5.777672119140625,-0.0007735360413789749,0.00041222432628273964,0.0005570086650550365
1746735658633639200,5.78763916015625,-0.0006052241660654545,-0.00001920759677886963,0.00021825451403856277
1746735658643605000,5.79760498046875,-0.00011629471555352211,0.00031395675614476204,-0.0006521241739392281
1746735658653571000,5.807571044921875,-0.0008470662869513035,0.0007001147605478764,-0.0012220405042171478
1746735658663537200,5.817537109375,-0.0013175541535019875,0.0005237376317381859,-0.0018270397558808327
1746735658673503200,5.827503173828125,0.000920566264539957,0.0003325226716697216,0.00009469734504818916
1746735658683469000,5.837468994140625,0.00002663908526301384,0.0004562661051750183,-0.0002895426005125046
1746735658693435000,5.847434814453125,-0.0008593946695327759,0.00013721967115998268,-0.00035931728780269623
1746735658703401200,5.857401123046875,-0.0017101084813475609,0.00003775628283619881,0.0003222925588488579
1746735658713367000,5.867366943359375,-0.001098912674933672,0.00017038127407431602,0.0014147213660180569
1746735658723333000,5.8773330078125,0.00008255895227193832,0.0009922925382852554,0.0003769933246076107
1746735658733299000,5.887298828125,0.00069402065128088,-0.00006711296737194061,0.0015096357092261314
1746735658743265000,5.89726513671875,0.0010705303866416216,-0.00033138738945126534,-0.0007490986026823521
1746735658753232100,5.907232177734375,-0.0008738434407860041,0.00004704762250185013,-0.0004244591109454632
1746735658763198200,5.9171982421875,0.000014215242117643356,-0.00040392205119132996,0.0006515681743621826
1746735658773164000,5.9271640625,-0.00014104717411100864,0.0003950260579586029,-0.0005575069226324558
1746735658783130000,5.937130126953125,0.00002762232907116413,0.0008246158249676228,0.00024631014093756676
1746735658793096200,5.94709619140625,0.0011687867809087038,0.000015014782547950745,-0.0001808609813451767
1746735658803062000,5.95706201171875,0.000013662735000252724,0.000011791940778493881,0.0006951633840799332
1746735658813028000,5.967028076171875,0.0013574936892837286,0.00010846462100744247,0.001018471084535122
1746735658822994000,5.976993896484375,0.0011191307567059994,0.00004712305963039398,0.0005985270254313946
1746735658832960300,5.986960205078125,-0.0014090081676840782,0.0005712332203984261,0.0005093109793961048
1746735658842926000,5.996926025390625,0.0011591475922614336,0.0007464266382157803,0.0002578366547822952
1746735658852892200,6.00689208984375,-0.0013112006708979607,-0.001274379901587963,0.0006700940430164337
1746735658862858000,6.01685791015625,0.0006269775331020355,-0.0010843127965927124,-0.00002960488200187683
1746735658872825000,6.0268251953125,-0.00037277303636074066,0.00037403451278805733,0.00005694804713129997
1746735658882791200,6.036791259765625,-0.0007556620985269547,0.00037203915417194366,0.0011691702529788017
1746735658892757000,6.046757080078125,-0.0006874850951135159,-0.00010440032929182053,0.00019471999257802963
1746735658902723000,6.05672314453125,0.0019130590371787548,0.000095427967607975,-0.0004644193686544895
1746735658912689000,6.06668896484375,-0.00008005090057849884,0.0012709475122392178,0.000197642482817173
1746735658922655200,6.0766552734375,0.0008510861080139875,0.00028618844226002693,0.00008185300976037979
1746735658932621000,6.08662109375,-0.0006091250106692314,-0.00056788744404912,0.0012738839723169804
1746735658942587100,6.096587158203125,0.0003513125702738762,0.000722506083548069,-0.0004810979589819908
1746735658952553000,6.106552978515625,-0.0003008956555277109,-0.0007203947752714157,0.0004395567812025547
1746735658962519300,6.116519287109375,-0.0002416558563709259,-0.00021002953872084618,-0.00012822961434721947
1746735658972485000,6.126485107421875,-0.0002810708247125149,-0.0007117688655853271,-0.0005391552112996578
1746735658982452200,6.1364521484375,-0.0003306909929960966,-0.0003374931402504444,-0.00013647135347127914
1746735658992418000,6.14641796875,0.0008783838711678982,0.0008486788719892502,0.0016422541812062263
1746735659002384000,6.1563837890625,0.00015525869093835354,0.001242990605533123,-0.001445077359676361
1746735659012350200,6.16635009765625,0.0006974781863391399,0.00031967228278517723,-0.00007860967889428139
1746735659022316000,6.17631591796875,-0.0009293870534747839,0.0007180841639637947,0.0003798762336373329
1746735659032282000,6.1862822265625,0.0004826206713914871,-0.000983942300081253,0.0004531131125986576
1746735659042248000,6.196248046875,0.0003089979290962219,-0.0007898691110312939,0.000779386144131422
1746735659052214300,6.20621435546875,-0.0014066104777157307,-0.0008077123202383518,-0.00027549220249056816
1746735659062180000,6.21618017578125,-0.0011202620808035135,0.0008087982423603535,-0.00048114825040102005
1746735659072146000,6.22614599609375,-0.0002014713827520609,-0.00022717146202921867,0.0011154166422784328
1746735659082112000,6.236112060546875,-0.0001384385395795107,0.0004696119576692581,0.0017015892080962658
1746735659092078000,6.246078125,-0.0003411050420254469,-0.00031229201704263687,0.00031408248469233513
1746735659102044200,6.256044189453125,-0.0008559389971196651,-0.000058086588978767395,-0.00016888463869690895
1746735659112011000,6.266010986328125,0.00023276149295270443,-0.00013185618445277214,0.0003072884865105152
1746735659121977000,6.27597705078125,-0.0001433277502655983,0.00004657357931137085,-0.00015867967158555984
1746735659131943000,6.28594287109375,-0.0008663758635520935,-0.001336938701570034,0.0007143043912947178
1746735659141909200,6.2959091796875,0.0001547415740787983,-0.0009168749675154686,-0.0012821536511182785
1746735659151875000,6.305875,-0.00044686649926006794,0.000500459223985672,0.0011871294118463993
1746735659161841200,6.315841064453125,-0.0023695845156908035,0.00043001119047403336,0.0014907727017998695
1746735659171807000,6.325806884765625,-0.00043506408110260963,-0.00046001747250556946,-0.0007545384578406811
1746735659181773000,6.33577294921875,-0.0005898149684071541,0.0017914222553372383,0.00020405463874340057
1746735659191739100,6.3457392578125,0.0007750550284981728,0.0014026006683707237,0.00016091112047433853
1746735659201704200,6.3557041015625,-0.0022786767221987247,0.0008797342889010906,0.0003104051575064659
1746735659211670300,6.365670166015625,-0.0010163383558392525,-0.0003016442060470581,0.0020880650263279676
1746735659221636400,6.37563623046875,-0.00018706824630498886,-0.0005447240546345711,-0.00013285130262374878
1746735659231603500,6.385603515625,0.001452107448130846,-0.00011036265641450882,0.00047754542902112007
1746735659241569300,6.3955693359375,-0.00038033747114241123,0.000931453425437212,-0.000608004629611969
1746735659251535400,6.405535400390625,-0.000433068023994565,-0.00005151936784386635,0.00016511091962456703
1746735659261501400,6.41550146484375,-0.000015092547982931137,0.00016285711899399757,0.0002971747890114784
1746735659271467300,6.42546728515625,-0.0005605081096291542,-0.0002877498045563698,-0.0012655681930482388
1746735659281433300,6.435433349609375,-0.0003818594850599766,0.00023162830621004105,-0.0011634435504674911
1746735659291399200,6.445399169921875,-0.0007738769054412842,0.00004201103001832962,0.0003825216554105282
1746735659301365200,6.455365234375,-0.00023619201965630054,0.001488993875682354,0.0010145502164959908
1746735659311331300,6.465331298828125,-0.00008891918696463108,-0.00034299446269869804,-0.00024166284129023552
1746735659321297400,6.47529736328125,-0.00038049882277846336,-0.0006880839355289936,0.0010332372039556503
1746735659331263200,6.48526318359375,0.0011801135260611773,-0.00037303194403648376,0.0004667830653488636
1746735659341229300,6.495229248046875,0.0008344303350895643,0.00006152177229523659,-0.00031078699976205826
1746735659351196400,6.505196533203125,-0.00017730449326336384,-0.001267129322513938,-0.0008601970039308071
1746735659361162200,6.515162353515625,-0.001084137475118041,0.000056185293942689896,0.0020678620785474777
1746735659371128300,6.52512841796875,-0.0011440583039075136,0.000006916467100381851,0.0008611837401986122
1746735659381094100,6.53509423828125,-0.0006550592370331287,-0.0001329313963651657,0.001826559193432331
1746735659391060500,6.545060546875,-0.000097659882158041,0.00038292258977890015,-0.0017351526767015457
1746735659401026300,6.5550263671875,-0.0000920342281460762,0.0007727756164968014,-0.0007789181545376778
1746735659410992400,6.564992431640625,-0.00023291539400815964,-0.001254955306649208,-0.0005126022733747959
1746735659420958200,6.574958251953125,-0.00017972500063478947,0.0005910010077059269,-0.0005845623090863228
1746735659430924300,6.58492431640625,0.0008309448603540659,-0.000006878748536109924,0.0004468797706067562
1746735659440890400,6.594890380859375,0.0007696454413235188,0.0007590958848595619,0.000001661013811826706
1746735659450856200,6.604856201171875,0.000696142204105854,-0.000033993273973464966,0.00006344635039567947
1746735659460822300,6.614822265625,-0.00042710546404123306,0.0008098087273538113,-0.0004249853082001209
1746735659470789000,6.6247890625,0.0016802537720650434,-0.000750537496060133,-0.00021619349718093872
1746735659480755500,6.63475537109375,0.0006353957578539848,0.0008443607948720455,0.0002386169508099556
1746735659490721300,6.64472119140625,0.0011403311509639025,0.0007476881146430969,0.0013723247684538364
1746735659500687400,6.654687255859375,0.0004475763998925686,-0.0008858391083776951,0.0026123933494091034
1746735659510653200,6.664653076171875,-0.0020717738661915064,0.00038102688267827034,-0.0003160187043249607
1746735659520619500,6.67461962890625,-0.00011076475493609905,0.0001409752294421196,-0.0007072086445987225
1746735659530585300,6.68458544921875,0.0006708733271807432,-0.0005932580679655075,0.00037802988663315773
1746735659540551200,6.69455126953125,-0.0009800309780985117,-0.00012946687638759613,0.0007285005412995815
1746735659550517200,6.704517333984375,-0.0002929356414824724,-0.00004238123074173927,-0.0022028409875929356
1746735659560483300,6.7144833984375,-0.00041640852577984333,0.0010249558836221695,-0.00028709787875413895
1746735659570449400,6.724449462890625,0.00045604282058775425,-0.0004485710524022579,0.0010314332321286201
1746735659580415200,6.734415283203125,0.0005609416402876377,-0.0004420909099280834,-0.0018833433277904987
1746735659590382300,6.74438232421875,0.0006850450299680233,-0.0004902943037450314,-0.00010488461703062057
1746735659600348200,6.75434814453125,0.0010567104909569025,-0.000854147132486105,0.00016855401918292046
1746735659610314500,6.764314453125,0.00008119456470012665,-0.0013135424815118313,-0.0018892702646553516
1746735659620280300,6.7742802734375,-0.0007639816030859947,0.000851149670779705,0.0004300740547478199
1746735659630246400,6.784246337890625,-0.0007032616995275021,0.0005757785402238369,-0.0007686149328947067
1746735659640212200,6.794212158203125,0.0010376360733062029,0.0007913103327155113,0.00035612424835562706
1746735659650178300,6.80417822265625,0.0011428308207541704,-0.00007980968803167343,0.00018887780606746674
1746735659660144400,6.814144287109375,-0.001806051703169942,-0.0005682623013854027,0.0008783061057329178
1746735659670110200,6.824110107421875,0.0004088995046913624,-0.0001733154058456421,-0.0017030960880219936
1746735659680076300,6.834076171875,-0.0002403596881777048,-0.0009118467569351196,-0.0006873244419693947
1746735659690042400,6.84404248046875,-0.0006289149168878794,0.0005622128956019878,0.0003899242728948593
1746735659700008400,6.854008544921875,0.00005039898678660393,-0.0005491017363965511,0.00011132750660181046
1746735659709975300,6.863975341796875,0.000028294743970036507,0.0014669112861156464,-0.0009954823181033134
1746735659719941400,6.87394140625,0.00024722469970583916,-0.0008192900568246841,-0.0018208562396466732
1746735659729907200,6.8839072265625,0.001332462765276432,0.0005077631212770939,-0.0008277632296085358
1746735659739873500,6.89387353515625,0.0007460741326212883,-0.00021170778200030327,-0.0014752675779163837
1746735659749839400,6.90383935546875,0.0012070671655237675,-0.0002830806188285351,-0.0003711213357746601
1746735659759805200,6.91380517578125,-0.0009791061747819185,0.0003054453991353512,-0.00005134381353855133
1746735659769771300,6.923771240234375,-0.0008603294845670462,0.002182707656174898,-0.001162414439022541
1746735659779737300,6.9337373046875,0.0012047996278852224,0.0005338629707694054,-0.0003027217462658882
1746735659789703400,6.943703369140625,0.00012621935456991196,0.0007961844094097614,0.00009595369920134544
1746735659799669200,6.953669189453125,0.001123633235692978,-0.001361641800031066,0.0008939830586314201
1746735659809635300,6.96363525390625,0.0007236264646053314,-0.0005384590476751328,-0.00020483741536736488
1746735659819601400,6.973601318359375,0.00011115591041743755,-0.00036618392914533615,0.0004883613437414169
1746735659829567200,6.983567138671875,-0.0006302681285887957,-0.00022530276328325272,0.0014857151545584202
1746735659839534300,6.993534423828125,0.0009879684075713158,-0.0009402218274772167,-0.000049457885324954987
1746735659849500400,7.00350048828125,-0.0012152644339948893,-0.00034180935472249985,-0.0015189903788268566
1746735659859466200,7.01346630859375,0.0013436509761959314,-0.0005141561850905418,0.000014345627278089523
1746735659869432300,7.023432373046875,0.000396364601328969,-0.0005202814936637878,-0.0010911324061453342
1746735659879398400,7.0333984375,-0.0015738012734800577,0.0008706678636372089,-0.0011767242103815079
1746735659889364200,7.0433642578125,-0.0007250516209751368,0.001066676340997219,-0.00017564184963703156
1746735659899330300,7.053330322265625,0.001015842193737626,-0.0006774654611945152,0.0010303263552486897
1746735659909296400,7.06329638671875,0.00013886322267353535,-0.0004417756572365761,-0.00045411987230181694
1746735659919262500,7.073262451171875,0.000685130013152957,-0.00039756810292601585,-0.0007868949323892593
1746735659929228300,7.083228271484375,0.0012989884708076715,-0.0013560398947447538,0.0011207275092601776
1746735659939194000,7.093194091796875,0.001434083329513669,0.00043265335261821747,0.0008335309103131294
1746735659949160400,7.103160400390625,0.0005946548189967871,-0.0005625700578093529,-0.0005459864623844624
1746735659959127300,7.113127197265625,-0.0008078778628259897,0.0009228908456861973,0.0015727789141237736
1746735659969093400,7.12309326171875,-0.0002885616850107908,-0.00047660060226917267,-0.00020195171236991882
1746735659979059200,7.13305908203125,-0.0006809611804783344,-0.00028185173869132996,0.0012874905951321125
1746735659989025300,7.143025390625,0.000792299397289753,0.0003389311023056507,-0.00006539514288306236
1746735659998991400,7.152991455078125,-0.001485779881477356,-0.0015112878754734993,0.00020639505237340927
1746735660008957400,7.16295751953125,0.0011161286383867264,0.0016120672225952148,0.0003411509096622467
1746735660018923300,7.17292333984375,-0.00006923382170498371,0.00017783697694540024,0.0003289952874183655
1746735660028889300,7.182889404296875,-0.0016841746401041746,0.001277189701795578,0.000452299602329731
1746735660038855400,7.19285546875,0.0014006723649799824,-0.0005270484834909439,0.0001536291092634201
1746735660048821200,7.2028212890625,-0.00005714176222681999,0.0008657849393785,0.0017688360530883074
1746735660058787300,7.212787353515625,-0.0016068078111857176,0.001331091858446598,0.00014199409633874893
1746735660068753200,7.222753173828125,-0.00007362593896687031,0.000012294389307498932,-0.000030578579753637314
1746735660078719500,7.232719482421875,-0.0011905638966709375,0.00010350719094276428,-0.0002245618961751461
1746735660088685300,7.242685302734375,-0.00007496564649045467,0.0005671633407473564,0.00018929317593574524
1746735660098652400,7.25265234375,-0.00104559026658535,0.0020961379632353783,0.0007099788635969162
1746735660108618200,7.2626181640625,-0.00025889230892062187,0.0010167588479816914,0.00036137085407972336
1746735660118584300,7.272584228515625,-0.0009208233095705509,0.00007599825039505959,0.000471397303044796
1746735660128550400,7.28255029296875,-0.0003064321354031563,0.0011093048378825188,-0.0010593878105282784
1746735660138516200,7.29251611328125,0.000058766454458236694,0.0003642928786575794,-0.00003709085285663605
1746735660148482300,7.302482421875,-0.001060559879988432,-0.000595244113355875,0.0008103270083665848
1746735660158448000,7.3124482421875,0.00036262767389416695,0.0005069421604275703,0.0003993762657046318
1746735660168414500,7.32241455078125,0.0006830058991909027,0.00029229139909148216,0.0011535831727087498
1746735660178380300,7.33238037109375,-0.00071502267383039,0.001631623599678278,0.0004732082597911358
1746735660188346400,7.342346435546875,-0.0003688118886202574,0.0001250733621418476,-0.0004972475580871105
1746735660198312200,7.352312255859375,-0.0007060596253722906,0.000012649688869714737,0.0019572596065700054
1746735660208278300,7.3622783203125,-0.001426977338269353,0.000048069749027490616,0.0009300783276557922
1746735660218245400,7.372245361328125,0.0005955356173217297,0.0001626727171242237,-0.00060990359634161
1746735660228211200,7.382211181640625,-0.0002079398836940527,0.0007962384261190891,-0.00004637846723198891
1746735660238177300,7.39217724609375,-0.0008551599457859993,0.00006965035572648048,-0.00014764489606022835
1746735660248143000,7.40214306640625,0.001447675283998251,-0.0007463423535227776,0.00002013426274061203
1746735660258109400,7.412109375,-0.0014444503467530012,-0.00009354716166853905,-0.0001516854390501976
1746735660268075300,7.4220751953125,0.0010751665104180574,0.00017037196084856987,0.0021351708564907312
1746735660278041000,7.432041015625,-0.0012851038482040167,0.0012571853585541248,-0.0012648268602788448
1746735660288007200,7.442007080078125,0.0008470229804515839,-0.0006784000433981419,0.000057165976613759995
1746735660297973200,7.45197314453125,-0.002006545662879944,-0.00038349349051713943,0.001408496405929327
1746735660307939300,7.461939208984375,0.00027684844098985195,-0.0003227735869586468,-0.0005175014957785606
1746735660317905200,7.4719052734375,0.0016070466954261065,-0.0010349643416702747,0.00022231508046388626
1746735660327871200,7.481871337890625,0.002620379440486431,0.0005701226182281971,-0.0022357827983796597
1746735660337837300,7.49183740234375,-0.00027621793560683727,-0.0019634899217635393,0.00015837932005524635
1746735660347804400,7.501804443359375,-0.0005968625191599131,0.00015745172277092934,0.000010840129107236862
1746735660357770200,7.511770263671875,0.00047346437349915504,-0.0005718511529266834,0.000007893424481153488
1746735660367736000,7.521736083984375,0.0010580283123999834,0.0004657167010009289,0.00007873354479670525
1746735660377702100,7.5317021484375,-0.00006560934707522392,0.00013425294309854507,-0.0006907652132213116
1746735660387668200,7.541668212890625,-0.0010389946401119232,0.00037819845601916313,0.0003768960013985634
1746735660397634300,7.55163427734375,0.00002010306343436241,0.0001500481739640236,-0.00015018507838249207
1746735660407600000,7.56160009765625,0.0005380876827985048,-0.0005849841982126236,-0.00024765683338046074
1746735660417566200,7.571566162109375,0.00006188312545418739,0.0012647663243114948,-0.001055738888680935
1746735660427532300,7.5815322265625,-0.0006369301117956638,-0.0009672287851572037,-0.00024480605497956276
1746735660437498400,7.591498291015625,-0.0001258153934031725,0.0010398398153483868,0.0018238392658531666
1746735660447464200,7.601464111328125,0.0001322450116276741,0.0003508799709379673,-0.0006068279035389423
1746735660457430000,7.611429931640625,0.00027675717137753963,-0.0017378826159983873,-0.0010392540134489536
1746735660467397000,7.621397216796875,0.00030285632237792015,-0.00004437845200300217,0.0005149669013917446
1746735660477363200,7.63136328125,-0.00009699328802525997,0.00044620782136917114,-0.0011703269556164742
1746735660487329300,7.641329345703125,0.00019968301057815552,0.001273119356483221,-0.0005303691141307354
1746735660497295000,7.651295166015625,0.0008641933090984821,0.0004584081470966339,-0.0016355514526367188
1746735660507261200,7.66126123046875,-0.0009081403259187937,-0.000614579301327467,-0.0011519212275743484
1746735660517227300,7.671227294921875,-0.0005717899184674025,0.0002624448388814926,0.0012735356576740742
1746735660527193300,7.681193359375,0.000765116885304451,0.0006632506847381592,0.0013787304051220417
1746735660537159200,7.6911591796875,-0.0011502925772219896,-0.00026916200295090675,0.0006097261793911457
1746735660547125000,7.701125,-0.0009750567842274904,0.0003660018555819988,-0.0006520794704556465
1746735660557091300,7.71109130859375,-0.002106139902025461,-0.00001935334876179695,-0.00015685893595218658
1746735660567057200,7.72105712890625,0.001724018482491374,-0.0003770161420106888,0.00012463703751564026
1746735660577023200,7.731023193359375,0.00033565983176231384,0.00044532353058457375,0.00014627398923039436
1746735660586989000,7.740989013671875,0.0014986624009907246,0.0002503800205886364,-0.0003623897209763527
1746735660596956200,7.7509560546875,0.0005302305798977613,0.00015811435878276825,0.0008633374236524105
1746735660606922200,7.760922119140625,0.00207859231159091,-0.0001753130927681923,0.00036878837272524834
1746735660616888300,7.770888427734375,-0.0002793602179735899,0.00009805988520383835,0.0002402355894446373
1746735660626854100,7.780854248046875,0.001867413753643632,-0.00047824811190366745,-0.001253531314432621
1746735660636820200,7.7908203125,0.0004499913193285465,-0.0009518531151115894,-0.0006308704614639282
1746735660646786300,7.800786376953125,-0.0006482962053269148,0.0012351344339549541,0.0005196151323616505
1746735660656752000,7.810752197265625,-0.0014197472482919693,0.0007696137763559818,0.00004248321056365967
1746735660666718200,7.82071826171875,-0.002079145982861519,-0.00016302522271871567,0.00013223150745034218
1746735660676684000,7.83068408203125,-0.0029974328354001045,-0.0003358633257448673,-0.00017253495752811432
1746735660686650400,7.840650390625,-0.0014027319848537445,0.000440448522567749,-0.0003690761514008045
1746735660696616200,7.8506162109375,-0.00005083414725959301,0.0009497115388512611,0.00032415613532066345
1746735660706582300,7.860582275390625,-0.0007251466158777475,-0.0015209028497338295,0.00018567172810435295
1746735660716548000,7.870548095703125,-0.00031140586361289024,0.00011617643758654594,-0.0015397882089018822
1746735660726515200,7.88051513671875,-0.0000919615849852562,-0.00004760781303048134,0.0019145982805639505
1746735660736481300,7.890481201171875,-0.00028283405117690563,-0.0005001258105039597,-0.00045336177572607994
1746735660746447400,7.900447265625,0.000008249655365943909,-0.00019759079441428185,0.00010883156210184097
1746735660756413200,7.9104130859375,0.0006073543336242437,0.000048407819122076035,-0.000025564804673194885
1746735660766379000,7.92037890625,-0.00011596037074923515,-0.000056786928325891495,0.0006966846995055676
1746735660776345300,7.930345458984375,-0.00040213693864643574,0.0005544363521039486,0.0013757096603512764
1746735660786311200,7.940311279296875,0.0003973438870161772,0.000433262437582016,-0.00007997406646609306
1746735660796277200,7.95027734375,0.00010212440975010395,0.0006722607649862766,0.0012647537514567375
1746735660806243000,7.9602431640625,-0.0002715173177421093,-0.0008199084550142288,-0.0016000084578990936
1746735660816209400,7.97020947265625,-0.0010754507966339588,0.0004882835783064365,-0.0002663233317434788
1746735660826175200,7.98017529296875,-0.0017763948999345303,-0.00008376361802220345,-0.00013130111619830132
1746735660836141000,7.99014111328125,0.000820116838440299,-0.00024663470685482025,-0.0002475394867360592
1746735660846107100,8.000107177734375,0.00001424434594810009,-0.0005534309893846512,0.0004334310069680214
1746735660856074200,8.01007421875,-0.0004099931102246046,0.0006512822583317757,-0.00007509719580411911
1746735660866040300,8.020040283203125,-0.0004392878618091345,0.0009197290055453777,0.0002050674520432949
1746735660876006100,8.030006103515625,0.0008054198697209358,-0.00029611773788928986,-0.0009031016379594803
1746735660885972200,8.03997216796875,-0.0018111357931047678,-0.0011169039644300938,-0.0009952466934919357
1746735660895938000,8.04993798828125,0.0006912273820489645,0.000879721250385046,-0.0004079430364072323
1746735660905904400,8.059904296875,-0.0006275703199207783,-0.0008233701810240746,-0.0009975666180253029
1746735660915870200,8.0698701171875,-0.00006751203909516335,0.000988976564258337,-0.0011604470200836658
1746735660925836300,8.079836181640625,0.0005524719599634409,0.0007018879987299442,0.001910710008814931
1746735660935802000,8.089802001953124,0.0008072757627815008,0.0010728975757956505,-0.00047101685777306557
1746735660945768200,8.099768310546875,0.0006770470645278692,-0.000918081495910883,-0.001421232707798481
1746735660955734300,8.109734375,0.00035013118758797646,0.0012178560718894005,0.0012778984382748604
1746735660965700000,8.1197001953125,-0.00044162687845528126,-0.00022025080397725105,0.0006184997037053108
1746735660975666200,8.129666259765624,-0.001142935361713171,-0.0006492543034255505,-0.0009435499086976051
1746735660985632300,8.13963232421875,0.0003614842426031828,-0.000557109247893095,0.0010615442879498005
1746735660995599400,8.149599365234375,-0.00003353692591190338,-0.0010744165629148483,-0.001145932823419571
1746735661005565200,8.159565185546874,-0.0007360787130892277,0.0002987091429531574,0.0005070911720395088
1746735661015531300,8.16953125,-0.0009443515446037054,0.00023908726871013641,0.0005059824325144291
1746735661025497000,8.1794970703125,0.0004170562606304884,0.00012643542140722275,-0.0005773915909230709
1746735661035463400,8.18946337890625,-0.00026852660812437534,-0.000614488497376442,-0.00047544483095407486
1746735661045429200,8.19942919921875,-0.0013106216210871935,0.00020709633827209473,0.00016238214448094368
1746735661055395000,8.20939501953125,-0.0003921154420822859,-0.0003619510680437088,-0.0004387935623526573
1746735661065361200,8.219361083984374,-0.0007638924289494753,-0.0004045614041388035,-0.001019362360239029
1746735661075327200,8.2293271484375,0.0005293774884194136,0.0011255405843257904,-0.0019508744589984417
1746735661085293300,8.239293212890624,-0.0006738386582583189,-0.0003746179863810539,0.001056100707501173
1746735661095259100,8.249259033203124,-0.00035324646160006523,0.0009954548440873623,-0.0006330967880785465
1746735661105225200,8.25922509765625,0.0007983045652508736,-0.0007401271723210812,0.00037490949034690857
1746735661115192000,8.269192138671874,0.00046346266753971577,-0.0005811289884150028,-0.0006699608638882637
1746735661125158400,8.279158447265624,-0.0009903567843139172,-0.0006261365488171577,-0.0006675641052424908
1746735661135124200,8.289124267578124,-0.0008046957664191723,0.00000971183180809021,0.0003303815610706806
1746735661145090000,8.299090087890624,-0.0009956443682312965,-0.00045421067625284195,0.0011082910932600498
1746735661155056000,8.30905615234375,-0.0011250150855630636,-0.0004303683526813984,0.00010463176295161247
1746735661165022200,8.319022216796874,0.0010222916025668383,-0.000776579137891531,0.0004817349836230278
1746735661174988300,8.32898828125,0.0011106529273092747,0.00032889144495129585,0.0005243350751698017
1746735661184954000,8.3389541015625,0.00010104849934577942,-0.0010908395051956177,0.0003264620900154114
1746735661194920400,8.34892041015625,0.0003025734331458807,0.00016417121514678001,0.0004967176355421543
1746735661204886800,8.35888671875,-0.00034031341783702374,0.0004539233632385731,0.00018352968618273735
1746735661214852600,8.3688525390625,0.000800885958597064,0.001902909018099308,0.0009571695700287819
1746735661224818700,8.378818603515626,-0.001097948057577014,0.0008669397793710232,-0.0002391221933066845
1746735661234784500,8.388784423828126,0.0014694794081151485,-0.0004625963047146797,0.000473623163998127
1746735661244750600,8.39875048828125,-0.0005079177208244801,-0.000337427482008934,-0.000311476644128561
1746735661254717700,8.4087177734375,-0.0003360426053404808,-0.0005418532527983189,0.0005220063030719757
1746735661264683500,8.41868359375,0.001150533789768815,-0.0015139072202146053,-0.0005041095428168774
1746735661274649600,8.428649658203126,-0.0005629777442663908,-0.000367830041795969,-0.001841663382947445
1746735661284615400,8.438615478515626,-0.0002745573874562979,0.0011022347025573254,-0.001050970982760191
1746735661294581800,8.448581787109376,-0.0009385044686496258,0.0020517450757324696,0.0004267692565917969
1746735661304547600,8.458547607421876,0.001018652692437172,-0.0003261915408074856,0.0019357164856046438
1746735661314513700,8.468513671875,-0.00015517277643084526,-0.000565952155739069,0.00009981589391827583
1746735661324479500,8.4784794921875,-0.00025051413103938103,0.00001701386645436287,-0.0005523920990526676
1746735661334445600,8.488445556640626,0.0016784567851573229,-0.00030221370980143547,0.0018165374640375376
1746735661344411600,8.49841162109375,0.0005021386314183474,-0.0013395152054727077,0.000508925411850214
1746735661354377500,8.50837744140625,0.0013697042595595121,-0.0012025507166981697,-0.0011479239910840988
1746735661364343600,8.518343505859375,0.0004146946594119072,0.0011237207800149918,0.000025198794901371002
1746735661374309600,8.5283095703125,-0.0009286282584071159,-0.00041652144864201546,-0.0004499126225709915
1746735661384275700,8.538275634765625,-0.0018010800704360008,-0.001148358453065157,0.0007575643248856068
1746735661394242600,8.54824267578125,0.0000658754725009203,0.00033460836857557297,-0.0002978220582008362
1746735661404208600,8.558208740234376,-0.00015996047295629978,0.00038653984665870667,-0.00024375971406698227
1746735661414174500,8.568174560546876,-0.00007532374002039433,0.0001257886178791523,-0.0010202438570559025
1746735661424140800,8.578140869140626,0.00091350800357759,-0.00015464192256331444,0.0010247975587844849
1746735661434106600,8.588106689453125,0.0013039994519203901,0.0003115846775472164,-0.0015750848688185215
1746735661444072400,8.598072509765625,-0.0009045600891113281,0.0007592616602778435,-0.0010584318079054356
1746735661454038500,8.60803857421875,-0.00047898851335048676,-0.0008576167747378349,-0.0006592064164578915
1746735661464004600,8.618004638671875,0.0013679135590791702,0.000803130678832531,-0.00010686693713068962
1746735661473970700,8.627970703125,0.0008079472463577986,-0.000710983294993639,0.0007763439789414406
1746735661483936500,8.6379365234375,0.00035547628067433834,0.0005737254396080971,-0.00032860180363059044
1746735661493902600,8.647902587890625,0.000051997601985931396,-0.00036895740777254105,-0.0005036136135458946
1746735661503868700,8.65786865234375,-0.00007982878014445305,-0.0003175581805408001,0.00047456519678235054
1746735661513834500,8.66783447265625,0.00010112137533724308,-0.00007476238533854485,0.0003503146581351757
1746735661523801600,8.677801513671875,-0.0005556140094995499,-0.0008015390485525131,-0.0002747294493019581
1746735661533767700,8.687767578125,-0.00031218258664011955,0.00027416832745075226,-0.00046684686094522476
1746735661543733500,8.6977333984375,-0.0005835588090121746,-0.0013381093740463257,0.0004016095772385597
1746735661553699600,8.707699462890625,-0.0006570247933268547,-0.00010174186900258064,-0.0012891143560409546
1746735661563665700,8.717665771484375,0.0005001185927540064,0.00030119437724351883,0.000642476137727499
1746735661573631500,8.727631591796875,0.0015596563462167978,0.0010034451261162758,0.00029315240681171417
1746735661583597600,8.73759765625,-0.0007959096692502499,0.0000689416192471981,0.0004707854241132736
1746735661593563600,8.747563720703125,-0.0002571609802544117,-0.0009285509586334229,0.00013514282181859016
1746735661603529700,8.75752978515625,-0.00032879970967769623,-0.00020576920360326767,-0.0021370663307607174
1746735661613495600,8.76749560546875,0.0013979272916913033,-0.00016161473467946053,0.0006341664120554924
1746735661623461400,8.77746142578125,0.0006005768664181232,0.00035823462530970573,0.003119960892945528
1746735661633427700,8.787427734375,0.00017727003432810307,0.00006479723379015923,0.000784073956310749
1746735661643393500,8.7973935546875,0.00006248778663575649,-0.0002257535234093666,0.00010363617911934853
1746735661653359600,8.807359619140625,-0.0011882861144840717,0.0000030258670449256897,0.0004949704743921757
1746735661663326500,8.817326416015625,-0.00035471655428409576,-0.00024305004626512527,0.0015245485119521618
1746735661673292500,8.82729248046875,0.000003082212060689926,0.0002545025199651718,0.0005529280751943588
1746735661683258600,8.837258544921875,-0.0015306323766708374,-0.0008443179540336132,-0.0015544313937425613
1746735661693224700,8.847224609375,0.0020585372112691402,0.0007495596073567867,0.0004246709868311882
1746735661703190500,8.8571904296875,-0.0025359485298395157,-0.0013002757914364338,-0.0004144911654293537
1746735661713156600,8.867156494140625,-0.00048249633982777596,0.0003297021612524986,0.0014432813040912151
1746735661723122700,8.877122802734375,0.00025599822402000427,-0.0005443473346531391,0.0005114409141242504
1746735661733088500,8.887088623046875,-0.0009369421750307083,0.0007683373987674713,0.0012799371033906937
1746735661743054600,8.8970546875,0.0004979688674211502,0.0003203940577805042,0.0003691362217068672
1746735661753020400,8.9070205078125,-0.0001192786730825901,-0.0011785747483372688,-0.0006465348415076733
1746735661762986800,8.91698681640625,-0.0007501817308366299,0.0014598187990486622,0.00008583441376686096
1746735661772952600,8.92695263671875,0.00020368886180222034,0.0012000459246337414,0.0019741724245250225
1746735661782918700,8.936918701171875,-0.0007087099365890026,-0.0006662975065410137,-0.0009302711114287376
1746735661792884500,8.946884521484375,0.0005036666989326477,-0.00032708700746297836,0.001158182043582201
1746735661802851600,8.9568515625,-0.0009980895556509495,-0.0005534556694328785,0.000917432364076376
1746735661812817700,8.966817626953125,-0.0008287341333925724,0.0003979182802140713,0.0009532123804092407
1746735661822783700,8.97678369140625,-0.0006870538927614689,-0.0002516270615160465,-0.0016431035473942757
1746735661832749600,8.98674951171875,0.00048088631592690945,0.00007557636126875877,0.0005920222029089928
1746735661842715400,8.99671533203125,-0.0020805420354008675,-0.00011324184015393257,0.000006126705557107925
1746735661852681700,9.006681640625,0.0006008902564644814,0.0013447217643260956,-0.0008564540185034275
1746735661862647600,9.0166474609375,0.000162533950060606,0.0004933089949190617,0.0010793977417051792
1746735661872613600,9.026613525390625,0.001063268631696701,0.00020827865228056908,0.0011898060329258442
1746735661882579500,9.036579345703124,0.0008566072210669518,-0.0003645671531558037,0.000689131673425436
1746735661892545800,9.0465458984375,-0.0007552872411906719,0.0010849791578948498,-0.00014865631237626076
1746735661902511600,9.05651171875,-0.0010639475658535957,-0.00027349963784217834,0.000664939172565937
1746735661912477400,9.0664775390625,-0.000016851350665092468,-0.00004997197538614273,-0.00018749386072158813
1746735661922443500,9.076443603515624,0.0005535974632948637,-0.000505372416228056,0.001127575058490038
1746735661932409600,9.08640966796875,-0.0005010911263525486,0.00001946091651916504,-0.0002637812867760658
1746735661942376700,9.096376708984375,-0.0005231956019997597,-0.0001581716351211071,0.0009064115583896637
1746735661952342500,9.106342529296874,-0.0007048239931464195,0.0004202187992632389,0.0007409295067191124
1746735661962308600,9.11630859375,-0.001636663917452097,-0.0007041678763926029,0.0010447963140904903
1746735661972274400,9.1262744140625,-0.0017998497933149338,-0.00016026105731725693,-0.00008947867900133133
1746735661982240800,9.13624072265625,0.00009312527254223824,-0.0010345769114792347,0.0009800465777516365
1746735661992206600,9.14620654296875,-0.0005436560604721308,-0.00009755510836839676,-0.000208340585231781
1746735662002172700,9.156172607421874,0.000744248740375042,-0.0005055512301623821,0.00022575492039322853
1746735662012138500,9.166138427734374,-0.0008238209411501884,0.0005280491895973682,0.0006797979585826397
1746735662022104600,9.1761044921875,0.00025582476519048214,0.001185583882033825,-0.000723421573638916
1746735662032070700,9.186070556640624,0.0012951497919857502,0.00019181985408067703,0.0006984849460422993
1746735662042036500,9.196036376953124,0.0005883469711989164,-0.0006470759399235249,-0.0005705114454030991
1746735662052002600,9.20600244140625,-0.00008362368680536747,0.00044117169454693794,0.0006960113532841206
1746735662061968600,9.21596875,-0.001786448759958148,-0.0006062495522201061,0.0006544659845530987
1746735662071934700,9.225934814453124,-0.0002310925628989935,-0.000887011643499136,-0.001547275111079216
1746735662081901600,9.235901611328124,0.0013489609118551016,0.00043711205944418907,-0.0015848255716264248
1746735662091867600,9.24586767578125,-0.00029761274345219135,0.00040967855602502823,0.0003732205368578434
1746735662101833500,9.25583349609375,0.00019320775754749775,0.00041180895641446114,-0.0007623513229191303
1746735662111799600,9.265799560546874,-0.00024081533774733543,0.0002467273734509945,0.0012906319461762905
1746735662121765600,9.275765625,0.002031926531344652,0.0002163671888411045,0.0006959480233490467
1746735662131731500,9.2857314453125,0.0014448794536292553,0.0007065129466354847,0.00021419953554868698
1746735662141697500,9.295697509765626,0.0012978729791939259,-0.0010722121223807335,0.00004668673500418663
1746735662151663600,9.30566357421875,0.0005898815579712391,0.000661974772810936,0.0007017231546342373
1746735662161629700,9.315629638671876,0.0006396826356649399,0.0004965928383171558,-0.00013504177331924438
1746735662171595500,9.325595458984376,-0.00024015037342905998,0.0006439243443310261,-0.0004846900701522827
1746735662181561600,9.3355615234375,-0.0011663977056741714,-0.00006287870928645134,-0.0015984242781996727
1746735662191527700,9.345527587890626,0.0005696332082152367,-0.0009440169669687748,-0.00037152552977204323
1746735662201493200,9.3554931640625,-0.00038377847522497177,-0.0006984733045101166,-0.0004221256822347641
1746735662211459000,9.365458984375,-0.00024405214935541153,-0.0008595208637416363,0.00016059307381510735
1746735662221426200,9.37542626953125,0.0005660816095769405,0.0002805781550705433,0.0003046700730919838
1746735662231392300,9.385392333984376,0.00030506681650877,-0.0011469265446066856,-0.002619386650621891
1746735662241358300,9.3953583984375,0.000010787509381771088,-0.0008321409113705158,0.0000384477898478508
1746735662251324200,9.40532421875,-0.0001114478800445795,-0.0016868074890226126,0.00041749095544219017
1746735662261290200,9.415290283203126,0.00044355494901537895,-0.00010515609756112099,0.0015743684489279985
1746735662271256300,9.42525634765625,-0.00043497118167579174,0.00007172068580985069,-0.00006403541192412376
1746735662281222100,9.43522216796875,0.0006316248327493668,0.00005574198439717293,0.0009729997254908085
1746735662291188200,9.445188232421875,-0.0017740747425705194,-0.0008302861824631691,-0.0005716299638152122
1746735662301154000,9.455154052734375,0.0009335612412542105,-0.0006665014661848545,-0.00016097025945782661
1746735662311120400,9.465120361328125,0.0005882044788450003,0.0005339221097528934,-0.001943548209965229
1746735662321086200,9.475086181640625,0.0028660062234848738,-0.0007646353915333748,0.00029537128284573555
1746735662331052300,9.48505224609375,0.0016493338625878096,-0.0007324228063225746,0.0006034607067704201
1746735662341018000,9.49501806640625,-0.0000961017794907093,0.0005661346949636936,-0.0007891058921813965
1746735662350984400,9.504984375,-0.00043203169479966164,0.0007782201282680035,0.0003440272994339466
1746735662360951300,9.514951416015625,0.0006902245804667473,-0.00004869140684604645,0.0005070129409432411
1746735662370917400,9.52491748046875,0.00045548821799457073,-0.00024018343538045883,0.00007766019552946091
1746735662380883200,9.53488330078125,0.00045575457625091076,0.0002517024986445904,-0.0006698891520500183
1746735662390849000,9.54484912109375,0.00017980905249714851,-0.0010703564621508121,-0.0010729455389082432
1746735662400815400,9.5548154296875,0.00007887533865869045,0.00036828313022851944,-0.0001251264475286007
1746735662410781200,9.56478125,0.0003927673678845167,0.0015485049225389957,-0.0012242374941706657
1746735662420747300,9.574747314453125,0.0006662739906460047,-0.0009585949592292309,-0.0005949325859546661
1746735662430713000,9.584713134765625,0.00004947069101035595,0.0007826047949492931,-0.0011132890358567238
1746735662440679400,9.594679443359375,-0.0012384338770061731,0.00021588429808616638,-0.0008546961471438408
1746735662450645200,9.604645263671875,-0.00173663767054677,-0.00033789174631237984,-0.0005613709799945354
1746735662460611000,9.614611083984375,-0.00016510626301169395,0.00034840498119592667,-0.00032008858397603035
1746735662470577200,9.6245771484375,-0.00024360651150345802,0.0007002763450145721,0.00037332670763134956
1746735662480543200,9.634543212890625,-0.00041777733713388443,-0.000018244143575429916,-0.0014778366312384605
1746735662490509300,9.64450927734375,0.0014454880729317665,-0.000020787585526704788,0.0007500662468373775
1746735662500476200,9.65447607421875,-0.0018570981919765472,-0.000741172581911087,0.0009540645405650139
1746735662510442200,9.664442138671875,-0.00012687104754149914,0.000005963724106550217,-0.00030779140070080757
1746735662520408000,9.674407958984375,0.000994852278381586,-0.0007370579987764359,-0.0005224421620368958
1746735662530374400,9.68437451171875,0.0014053026679903269,0.0015173363499343395,0.0019075714517384768
1746735662540340200,9.69434033203125,-0.0008091158233582973,-0.0007924232631921768,0.001797849079594016
1746735662550306300,9.704306396484375,0.00040906667709350586,-0.0005283346399664879,0.000185464508831501
1746735662560272100,9.714272216796875,0.000043148407712578773,0.00016462011262774467,-0.0016326755285263062
1746735662570238200,9.72423828125,0.001957681030035019,0.00031562894582748413,0.0027021828573197126
1746735662580204300,9.734204345703125,0.0005230361130088568,-0.0005642795003950596,0.0005186572670936584
1746735662590170000,9.744170166015625,0.0005638343282043934,0.00008382042869925499,-0.0010606003925204277
1746735662600136200,9.75413623046875,-0.0006092879921197891,0.0008862307295203209,-0.0001910785213112831
1746735662610102300,9.764102294921875,-0.0016811888199299574,-0.000028679613023996353,-0.0008079409599304199
1746735662620068400,9.774068359375,-0.001019926043227315,-0.00004172930493950844,0.0005974089726805687
1746735662630034200,9.7840341796875,0.00038387440145015717,-0.0011250129900872707,-0.0015619853511452675
1746735662640001300,9.794001220703125,-0.00003690528683364391,-0.002379362005740404,-0.0007680971175432205
1746735662649967000,9.803967041015625,0.0016270377673208714,0.0009877393022179604,-0.00036973971873521805
1746735662659933400,9.813933349609375,0.000269624637439847,0.0008860067464411259,0.0002529071643948555
1746735662669899300,9.823899169921875,-0.0001188723836094141,0.000618956983089447,-0.001017941627651453
1746735662679865000,9.833864990234375,-0.0007535035256296396,0.000356901902705431,-0.0007958337664604187
1746735662689831200,9.8438310546875,-0.0005644881166517735,0.0002647954970598221,0.00020006438717246056
1746735662699797200,9.85379736328125,-0.0009021768346428871,-0.00005318596959114075,-0.0011685341596603394
1746735662709763300,9.863763427734375,-0.0013515835162252188,0.0005322867073118687,0.0008653928525745869
1746735662719729200,9.873729248046875,0.001013303641229868,0.00017995014786720276,-0.0005442183464765549
1746735662729695200,9.8836953125,-0.0011130378115922213,0.0008539543487131596,0.0005346373654901981
1746735662739661300,9.893661376953125,-0.0002480430994182825,-0.00015325332060456276,0.0009583462961018085
1746735662749627100,9.903627197265624,-0.0009679296053946018,-0.0012492001987993717,-0.00028229178860783577
1746735662759593200,9.91359326171875,0.00007123593240976334,-0.0017786365933716297,-0.00012516509741544724
1746735662769559000,9.92355908203125,-0.0018655501771718264,-0.0006421445868909359,0.0010736798867583275
1746735662779525400,9.933525390625,-0.00009561306796967983,0.00020713778212666512,0.0014294781722128391
1746735662789492200,9.9434921875,-0.0012265481054782867,0.0008373437449336052,-0.0006924588233232498
1746735662799458300,9.953458251953125,0.0002983780577778816,-0.0006497655995190144,0.00040396489202976227
1746735662809424100,9.963424072265624,-0.0013432186096906662,-0.0002789534628391266,0.0005779769271612167
1746735662819390200,9.97339013671875,-0.0009940778836607933,-0.00035298941656947136,-0.00019247550517320633
1746735662829356300,9.983356201171874,0.0018484960310161114,-0.0002535455860197544,0.001112267840653658
1746735662839322400,9.993322265625,0.0015129377134144306,-0.0004591415636241436,-0.0004374254494905472
1746735662849288200,10.0032880859375,0.0010446179658174515,-0.00011355942115187645,-0.0011340207420289516
1746735662859254000,10.01325390625,-0.000003868481144309044,0.0011623608879745007,0.0013480456545948982
1746735662869220400,10.023220458984374,0.0014599075075238943,-0.000010955613106489182,-0.00020631402730941772
1746735662879186200,10.033186279296874,0.0020234324038028717,0.00011154962703585625,0.00026186974719166756
1746735662889152300,10.04315234375,-0.00043535931035876274,0.00009018834680318832,-0.00005339086055755615
1746735662899118000,10.0531181640625,0.0002725091762840748,-0.00043099233880639076,0.0001314324326813221
1746735662909084400,10.06308447265625,0.00022703129798173904,-0.0004436541348695755,0.0010320888832211494
1746735662919050200,10.07305029296875,0.0008813699241727591,0.0008045695722103119,-0.0004134750925004482
1746735662929016000,10.08301611328125,-0.0012871918734163046,-0.00018890900537371635,0.0002672388218343258
1746735662938983200,10.092983154296874,-0.00048558018170297146,-0.0012640268541872501,-0.0009671365842223167
1746735662948949000,10.102948974609374,-0.00027402560226619244,-0.000031907111406326294,-0.00005414336919784546
1746735662958915300,10.112915283203124,-0.0006282262038439512,-0.0007869135588407516,-0.0009526940993964672
1746735662968881200,10.122881103515626,0.00021742028184235096,0.0008412785828113556,-0.000947815366089344
1746735662978847200,10.13284716796875,0.0008278167806565762,0.000006643589586019516,0.0002450142055749893
1746735662988813000,10.14281298828125,-0.002706284634768963,0.000559619627892971,0.0003937617875635624
1746735662998779400,10.152779296875,-0.002692969050258398,0.0007534977048635483,-0.002199624665081501
1746735663008745200,10.1627451171875,0.00010855705477297306,-0.0010412214323878288,-0.0013734856620430946
1746735663018711300,10.172711181640626,-0.0004800013266503811,-0.0005733040161430836,0.0005080378614366055
1746735663028677000,10.182677001953126,-0.0012894922401756048,0.0008042249828577042,0.0010315263643860817
1746735663038643200,10.192643310546876,-0.0005464705172926188,0.0004697320982813835,-0.0010531959123909473
1746735663048609300,10.202609375,0.0007930663414299488,-0.0007952121086418629,0.00037242332473397255
1746735663058575000,10.2125751953125,-0.0014535761438310146,0.0020120255649089813,0.0006959973834455013
1746735663068541200,10.222541259765626,-0.0007512718439102173,-0.00034549785777926445,0.0010438989847898483
1746735663078508000,10.232508056640626,0.00028762733563780785,0.000581015832722187,0.0004161917604506016
1746735663088474400,10.242474365234376,-0.0017155935056507587,-0.0016718506813049316,0.0008194274269044399
1746735663098440200,10.252440185546876,-0.0017829714342951775,-0.000006842426955699921,0.00023832544684410095
1746735663108406300,10.26240625,0.0012711170129477978,-0.00023358315229415894,-0.0002893814817070961
1746735663118372000,10.2723720703125,0.0004708371125161648,-0.0002833842299878597,-0.0012534456327557564
1746735663128338400,10.28233837890625,0.0013094090390950441,-0.000044827815145254135,-0.0010539302602410316
1746735663138304300,10.29230419921875,-0.0009076723363250494,0.0003069760277867317,0.001418814528733492
1746735663148270000,10.30227001953125,0.001849801279604435,-0.0007072887383401394,-0.0009250016883015633
1746735663158236200,10.312236083984375,0.0009746865835040808,-0.000015133526176214218,0.00036716414615511894
1746735663168202200,10.3222021484375,-0.0008385146502405405,-0.0006880699656903744,0.0018776212818920612
1746735663178168300,10.332168212890625,0.00026403414085507393,0.00019263708963990211,0.0004365849308669567
1746735663188134100,10.342134033203125,-0.0005484151188284159,0.00015401188284158707,-0.0004491289146244526
1746735663198101000,10.35210107421875,0.0007389569655060768,-0.0003447984345257282,0.0006861765868961811
1746735663208066800,10.36206689453125,0.00032711843959987164,-0.0008332864381372929,-0.000517421867698431
1746735663218033000,10.372032958984375,-0.00017941463738679886,0.0003803158178925514,0.0011755498126149178
1746735663228000000,10.382,0.000908868620172143,0.00017711566761136055,-0.0013061566278338432
1746735663237965800,10.3919658203125,-0.0002256380394101143,0.0006692679598927498,-0.0004483521915972233
1746735663247932000,10.401931884765625,-0.0010038141626864672,-0.0003788773901760578,0.0009567253291606903
1746735663257897700,10.411897705078125,-0.0006813055370002985,0.002299197483807802,-0.0008465009741485119
1746735663267864000,10.421864013671875,-0.0009620029013603926,-0.0004344298504292965,-0.00012842053547501564
1746735663277830000,10.431829833984375,-0.00007463782094419003,0.00037144264206290245,-0.00035079475492239
1746735663287796000,10.4417958984375,-0.00019119703210890293,0.000124447513371706,-0.00037318747490644455
1746735663297761800,10.45176171875,0.0011539654806256294,-0.0015394955407828093,0.00048221973702311516
1746735663307728000,10.461727783203125,0.0004203773569315672,0.0007841647602617741,-0.001087320502847433
1746735663317694000,10.47169384765625,-0.0008968219626694918,0.0002102539874613285,-0.0010052951984107494
1746735663327659800,10.48165966796875,-0.0012546190991997719,-0.0006754002533853054,-0.00011633569374680519
1746735663337625900,10.4916259765625,0.000932368915528059,0.00042981142178177834,0.0009060516022145748
1746735663347592000,10.501592041015625,0.00040819495916366577,-0.00048624956980347633,-0.00041342293843626976
1746735663357558000,10.51155810546875,-0.00002696574665606022,-0.0010625575669109821,-0.00017640134319663048
1746735663367523800,10.52152392578125,-0.0007338435389101505,-0.00037342868745326996,-0.0003401818685233593
1746735663377491000,10.531490966796875,0.0005505988374352455,-0.0003627762198448181,-0.00047733448445796967
1746735663387456800,10.541456787109375,-0.00002229423262178898,0.00022524548694491386,0.00039473874494433403
1746735663397423000,10.551423095703125,-0.000822840491309762,0.0005474882200360298,-0.0008862419053912163
1746735663407389000,10.561388916015625,-0.00024230126291513443,0.0001070220023393631,0.0003158422186970711
1746735663417354800,10.571354736328125,-0.0007565575651824474,0.0004995721392333508,0.0015182597562670708
1746735663427320800,10.58132080078125,0.0007596688810735941,0.0011746352538466454,0.0013620206154882908
1746735663437287000,10.591286865234375,0.0014246602077037096,0.00018260767683386803,0.0007313843816518784
1746735663447253000,10.6012529296875,0.00013170833699405193,0.0007599620148539543,-0.0002668015658855438
1746735663457218800,10.61121875,0.00011173449456691742,0.00029923534020781517,-0.0006479001604020596
1746735663467185000,10.621184814453125,0.0006588064134120941,0.0002725454978644848,-0.0010221954435110092
1746735663477151000,10.63115087890625,0.001333385007455945,0.0001678834669291973,-0.0002093985676765442
1746735663487116800,10.64111669921875,0.0002489585895091295,0.00009444495663046837,0.0013656187802553177
1746735663497083000,10.651082763671875,0.0002545514144003391,-0.00034763989970088005,0.00011819414794445038
1746735663507049000,10.661049072265625,-0.0004490495193749666,0.0008866721764206886,0.0010128202848136425
1746735663517015000,10.67101513671875,-0.00011562160216271877,-0.0007410519756376743,-0.0003118356689810753
1746735663526980900,10.68098095703125,-0.0011081886477768421,-0.00020158058032393456,0.00029382621869444847
1746735663536948000,10.690947998046875,-0.00001149880699813366,-0.0008066506125032902,0.000432843342423439
1746735663546913800,10.700913818359375,0.0002014411147683859,-0.0010008569806814194,-0.00041673285886645317
1746735663556880000,10.7108798828125,-0.00010482245124876499,0.0014668279327452183,-0.0007336488924920559
1746735663566846000,10.720845947265625,-0.0010955200996249914,0.0008171549998223782,0.0005630981177091599
1746735663576812000,10.73081201171875,0.0001662855502218008,-0.00020017242059111595,-0.0013115010224282742
1746735663586777900,10.74077783203125,0.0013450589030981064,-0.0007606768049299717,0.0008885045535862446
1746735663596744000,10.750743896484375,-0.0010347419884055853,-0.00020141294226050377,0.0004853019490838051
1746735663606710000,10.7607099609375,-0.001879240619018674,0.0001482497900724411,-0.0010652528144419193
1746735663616675800,10.77067578125,-0.000022218329831957817,-0.0008581588044762611,-0.0004569864831864834
1746735663626642000,10.780641845703125,-0.0008833939209580421,0.0013828645460307598,0.0005250037647783756
1746735663636608000,10.79060791015625,-0.0008357237093150616,-0.0018696542829275131,0.0006507048383355141
1746735663646574000,10.800573974609375,0.001527655404061079,0.0006360858678817749,-0.0002132505178451538
1746735663656540000,10.810539794921874,-0.0008574714884161949,0.0007892176508903503,0.0008360352367162704
1746735663666505700,10.820505615234374,0.0001913208980113268,0.0017754565924406052,0.000356343574821949
1746735663676472000,10.83047216796875,0.00019078818149864674,-0.000054934062063694,-0.0002575153484940529
1746735663686439000,10.84043896484375,-0.0012309241574257612,0.00032614823430776596,-0.00018098670989274979
1746735663696405000,10.850405029296875,-0.0006463604513555765,-0.0005098180845379829,0.0008272859267890453
1746735663706370800,10.860370849609374,-0.0004913981538265944,0.0007852213457226753,0.0005728909745812416
1746735663716337000,10.8703369140625,0.0006966381333768368,-0.00040601054206490517,-0.000018597114831209183
1746735663726303000,10.880302978515624,0.0003675210755318403,-0.001025339588522911,0.0005714730359613895
1746735663736269000,10.89026904296875,0.0009483564645051956,-0.0009899195283651352,-0.0011582504957914352
1746735663746235000,10.90023486328125,-0.0010156675707548857,0.00018825754523277283,-0.0007814257405698299
1746735663756201000,10.910200927734374,0.0007468122057616711,-0.00016567623242735863,0.0013240696862339973
1746735663766167000,10.9201669921875,0.0007288877386599779,-0.00023583462461829185,-0.0008797929622232914
1746735663776132900,10.9301328125,-0.00044130533933639526,-0.0007556835189461708,-0.00042599020525813103
1746735663786099000,10.940098876953124,0.0015126289799809456,0.00034900614991784096,0.00047450000420212746
1746735663796064800,10.950064697265624,-0.00111511186696589,-0.0011354400776326656,0.0002468000166118145
1746735663806031000,10.960031005859374,0.0014792042784392834,-0.00016154302284121513,0.00046240072697401047
1746735663815997000,10.969996826171876,-0.0012665148824453354,-0.0008907164447009563,-0.00017223041504621506
1746735663825963000,10.979962890625,0.0009619686752557755,-0.000027501489967107773,-0.00010960455983877182
1746735663835929900,10.989929931640624,0.0005936534143984318,-0.0006094020791351795,-0.000290699303150177
1746735663845896000,10.99989599609375,0.0008700755424797535,0.0003580390475690365,0.0015596533194184303
1746735663855862000,11.009862060546874,-0.0013661810662597418,0.0006240885704755783,-0.000045167747884988785
1746735663865828000,11.019828125,0.0002781255170702934,0.0011554420925676823,0.0008062706328928471
1746735663875794000,11.0297939453125,0.00005974643863737583,-0.0002086292952299118,0.0017128107137978077
1746735663885759700,11.039759765625,-0.0004096084740012884,0.0010354653932154179,0.00032637733966112137
1746735663895726000,11.04972607421875,0.0015153242275118828,0.0001337192952632904,-0.0002893451601266861
1746735663905692000,11.05969189453125,-0.0008984091691672802,-0.0005646734498441219,-0.00041448231786489487
1746735663915658000,11.069657958984376,0.000135163776576519,-0.0007423064671456814,-0.0006480417214334011
1746735663925623800,11.079623779296876,0.0014903403352946043,0.00022224616259336472,0.000853945966809988
1746735663935590100,11.089590087890626,-0.0004524358082562685,-0.0007266383618116379,-0.00045020366087555885
1746735663945556000,11.099555908203126,0.0003869887441396713,0.0010254890657961369,-0.00023569632321596146
1746735663955521800,11.109521728515626,-0.0005949186161160469,0.00048593292012810707,0.0006074607372283936
1746735663965487900,11.11948779296875,0.0011332286521792412,0.002193655353039503,0.00006488244980573654
1746735663975454000,11.129453857421876,-0.00016000214964151382,0.0003648623824119568,-0.00047573912888765335
1746735663985420000,11.139419921875,-0.0014595789834856987,-0.0005951467901468277,-0.00040957285091280937
1746735663995387000,11.149386962890626,0.0005899895913898945,0.0013028881512582302,0.0003193342126905918
1746735664005353000,11.15935302734375,0.0010099036153405905,0.0008797422051429749,0.0010981415398418903
1746735664015318800,11.16931884765625,0.0007505116518586874,0.00029917294159531593,-0.0010126796551048756
1746735664025285000,11.17928515625,0.000805308111011982,-0.00023881951346993446,-0.0013387571088969707
1746735664035251000,11.1892509765625,-0.0003196112811565399,-0.000016712117940187454,0.0013992385938763618
1746735664045217000,11.199217041015626,-0.00004910328425467014,0.0011006984859704971,-0.000613038893789053
1746735664055182800,11.209182861328125,-0.00164300506003201,-0.000233545433729887,-0.0006455294787883759
1746735664065149000,11.21914892578125,0.0002797604538500309,-0.0009139110334217548,-0.0020802197977900505
1746735664075115000,11.229114990234375,0.0012600698973983526,0.00027412502095103264,-0.0010168193839490414
1746735664085080800,11.239080810546875,0.0008109593763947487,0.00032974639907479286,0.0013570180162787437
1746735664095047000,11.249046875,0.00025009759701788425,0.0010466696694493294,-0.0007724454626441002
1746735664105013000,11.259012939453125,0.0004001373890787363,0.0000843321904540062,0.0003302968107163906
1746735664114979000,11.26897900390625,0.0012302445247769356,-0.0006168782711029053,-0.00014161551371216774
1746735664124945000,11.27894482421875,0.0010278380941599607,-0.00033750617876648903,0.0011390545405447483
1746735664134910700,11.28891064453125,-0.0003703213296830654,0.0005868771113455296,-0.0005009197629988194
1746735664144877800,11.2988779296875,-0.001044074073433876,-0.00032917875796556473,-0.000632850918918848
1746735664154844000,11.308843994140625,0.00010508019477128983,0.00008920393884181976,0.0001352047547698021
1746735664164810000,11.31881005859375,0.0007884437218308449,-0.0011526234447956085,0.0000507100485265255
1746735664174775800,11.32877587890625,-0.0010406151413917542,0.0011113295331597328,0.00015270942822098732
1746735664184742000,11.338741943359375,-0.0006710859015583992,-0.0010764170438051224,0.0004315292462706566
1746735664194708000,11.3487080078125,0.0007132252212613821,-0.0015970650129020214,0.0007226127199828625
1746735664204673800,11.358673828125,0.001137326005846262,0.0006221956573426723,0.001653442857787013
1746735664214639900,11.368639892578125,0.0010113585740327835,0.00018224120140075684,-0.0010422086343169212
