time,seconds_elapsed,z,y,x
1746739464261546500,0.02454638671875,0.0035922047682106495,-0.010630589909851551,-0.01451224833726883
1746739464271626800,0.034626708984375,0.003464985406026244,-0.010813979431986809,-0.01886586658656597
1746739464281705700,0.044705810546875,-0.0017082048580050468,-0.01803513988852501,-0.018112724646925926
1746739464291785700,0.05478564453125,-0.0013495460152626038,-0.01719093881547451,-0.020602963864803314
1746739464301864700,0.06486474609375,-0.00571872852742672,-0.013721372932195663,-0.014647603034973145
1746739464311943700,0.074943603515625,-0.006387297995388508,-0.013526041992008686,-0.007908172905445099
1746739464322023700,0.085023681640625,-0.006527380086481571,-0.0105049517005682,-0.0017541403649374843
1746739464332102700,0.0951025390625,-0.00752909854054451,-0.010336104780435562,0.004686729051172733
1746739464342182700,0.1051826171875,-0.00948838610202074,-0.012773696333169937,0.012510030530393124
1746739464352261600,0.11526171875,-0.0075913239270448685,-0.011246989481151104,0.02005215361714363
1746739464362341600,0.125341552734375,-0.008819840848445892,-0.0022590872831642628,0.023820260539650917
1746739464372420600,0.135420654296875,-0.009926337748765945,0.0016420348547399044,0.020359264686703682
1746739464382499600,0.14549951171875,-0.010777218267321587,-0.003178020240738988,0.018110491335392
1746739464392579600,0.15557958984375,-0.007706314325332642,-0.003434401238337159,0.013001685030758381
1746739464402658800,0.165658935546875,-0.006933997385203838,-0.004322565160691738,0.012014184147119522
1746739464412738600,0.175738525390625,-0.002490375190973282,-0.002555517014116049,0.00840170681476593
1746739464422817800,0.18581787109375,-0.0024163397029042244,-0.002184272278100252,0.005849067121744156
1746739464432897500,0.1958974609375,0.002493441803380847,-0.0035096239298582077,0.0004512377781793475
1746739464442976800,0.205976806640625,0.0023938394151628017,-0.005269440822303295,-0.002054796786978841
1746739464453056500,0.216056396484375,0.003378490684553981,-0.004713537637144327,-0.007871822454035282
1746739464463135700,0.2261357421875,-0.000749408733099699,-0.0004119998775422573,-0.006075786426663399
1746739464473214700,0.236214599609375,-0.004110328387469053,-0.00005069049075245857,-0.004076485522091389
1746739464483294700,0.246294677734375,-0.005865884479135275,0.0008443985134363174,-0.0012490074150264263
1746739464493373700,0.256373779296875,-0.006760557182133198,0.002186753321439028,0.0031345898751169443
1746739464503453700,0.26645361328125,-0.0033927233889698982,0.00015689246356487274,0.0038520456291735172
1746739464513532700,0.27653271484375,-0.004419626668095589,0.0019050715491175652,0.00319444527849555
1746739464523612700,0.28661279296875,-0.004055572673678398,0.000032603275030851364,-0.0020224209874868393
1746739464533691600,0.296691650390625,-0.004158382304012775,-0.0037504974752664566,-0.0032439471688121557
1746739464543770600,0.3067705078125,-0.007257768884301186,-0.0027827047742903233,-0.001545649254694581
1746739464553850600,0.3168505859375,-0.005849350243806839,0.0016514980234205723,-0.0012667161645367742
1746739464563929600,0.3269296875,-0.005108725279569626,0.0002477462403476238,0.004298757761716843
1746739464574009600,0.337009521484375,-0.005294209346175194,-0.001146111637353897,0.0035529066808521748
1746739464584088600,0.347088623046875,-0.0029748622328042984,0.0009617805480957031,0.0000481868046335876
1746739464594168600,0.35716845703125,-0.0014034914784133434,0.003090508282184601,-0.0006969341193325818
1746739464604247600,0.36724755859375,-0.0008783163502812386,0.004652185365557671,0.00418996624648571
1746739464614327600,0.37732763671875,0.00042364466935396194,0.009926637634634972,0.008707502856850624
1746739464624406500,0.387406494140625,0.0008670608513057232,0.007903967052698135,0.007005210965871811
1746739464634485800,0.39748583984375,0.0035276059061288834,0.004887527786195278,0.009171742014586926
1746739464644565500,0.4075654296875,-0.0005073496140539646,0.0054419981315732,0.005160754546523094
1746739464654644700,0.417644775390625,-0.0027795801870524883,0.0067590344697237015,0.006857587955892086
1746739464664724500,0.427724365234375,-0.0027329749427735806,0.010923951864242554,0.007730305194854736
1746739464674803700,0.4378037109375,-0.004183103330433369,0.004090505186468363,0.0063384217210114
1746739464684883700,0.4478837890625,-0.0033103851601481438,0.0022233626805245876,0.009184807538986206
1746739464694962700,0.457962646484375,-0.004008978605270386,0.003465070854872465,0.00803906749933958
1746739464705041700,0.468041748046875,-0.0032718153670430183,0.0025287033058702946,0.008019626140594482
1746739464715121700,0.47812158203125,-0.0028930562548339367,0.0035025603137910366,0.005896803457289934
1746739464725200600,0.48820068359375,-0.001744701061397791,0.0037699411623179913,0.005394265055656433
1746739464735280600,0.49828076171875,-0.002428669948130846,-0.0014975452795624733,0.002749562729150057
1746739464745359600,0.508359619140625,-0.0009317067451775074,-0.0027984995394945145,-0.002895805984735489
1746739464755439900,0.51843994140625,-0.004074839409440756,-0.003947940189391375,-0.006138387601822615
1746739464765518600,0.5285185546875,-0.003322762902826071,-0.003009708598256111,-0.013201623223721981
1746739464775598800,0.538598876953125,-0.0016193469054996967,-0.0023775347508490086,-0.009511563926935196
1746739464785677600,0.548677490234375,-0.0030108485370874405,-0.0015093442052602768,-0.009737400338053703
1746739464795756500,0.558756591796875,-0.0009630164131522179,-0.0018060607835650444,-0.007785137742757797
1746739464805836800,0.5688369140625,-0.0005108118057250977,-0.0034340512938797474,-0.006946241948753595
1746739464815915500,0.57891552734375,-0.0009544608183205128,-0.004832766018807888,-0.0021213244181126356
1746739464825995800,0.588995849609375,-0.0009153122082352638,-0.008615253493189812,-0.0017455524066463113
1746739464836074500,0.599074462890625,-0.003936052788048983,-0.00809896644204855,0.006729322951287031
1746739464846154800,0.60915478515625,-0.0020220386795699596,-0.009205243550240993,0.008824432268738747
1746739464856233500,0.6192333984375,-0.0002917386591434479,-0.007903164252638817,0.013551810756325722
1746739464866313700,0.629313720703125,-0.002999907359480858,-0.002547014970332384,0.012735019437968731
1746739464876392700,0.639392822265625,-0.003374821972101927,0.0021973452530801296,0.011594636365771294
1746739464886471700,0.6494716796875,-0.00016278354451060295,0.005332950968295336,0.007440105080604553
1746739464896551700,0.6595517578125,-0.0009793774224817753,0.005318815354257822,0.006413007155060768
1746739464906630700,0.669630615234375,-0.001353285275399685,0.004908156115561724,0.0036071008071303368
1746739464916710700,0.679710693359375,-0.0011915038339793682,0.008700190111994743,-0.0009478038409724832
1746739464926790000,0.689789794921875,0.0007403530180454254,0.00838513858616352,-0.0035374616272747517
1746739464936869600,0.69986962890625,0.00033537717536091805,0.005807381588965654,-0.00354406819678843
1746739464946948900,0.709948974609375,-0.0006513241678476334,0.004583659116178751,-0.0031794814858585596
1746739464957027600,0.720027587890625,-0.002622420433908701,0.008527617901563644,-0.006421132478863001
1746739464967107600,0.730107666015625,-0.0013038893230259418,0.006892969831824303,-0.00865605752915144
1746739464977186600,0.7401865234375,-0.003928354009985924,0.007587091065943241,-0.0018800593679770827
1746739464987266600,0.7502666015625,-0.0031850654631853104,0.005091442726552486,0.0010158621007576585
1746739464997345800,0.760345703125,-0.00015998119488358498,-0.0016311747021973133,0.004839095752686262
1746739465007425500,0.770425537109375,-0.0002784915268421173,-0.010364478453993797,0.009379785507917404
1746739465017504800,0.7805048828125,0.00023986445739865303,-0.00735131511464715,0.004671881906688213
1746739465027584500,0.79058447265625,0.002899829763919115,-0.0034596379846334457,0.004251634702086449
1746739465037663700,0.800663818359375,0.0015209945850074291,-0.005437179934233427,-0.005302953999489546
1746739465047742700,0.81074267578125,0.0014898357912898064,-0.002018480096012354,-0.012578443624079227
1746739465057822700,0.82082275390625,0.0011722929775714874,-0.0019681286066770554,-0.014064052142202854
1746739465067901700,0.830901611328125,0.0024921554140746593,-0.0006330860778689384,-0.011554821394383907
1746739465077981700,0.840981689453125,-0.0003814511001110077,-0.0027690804563462734,-0.006383698899298906
1746739465088060700,0.851060791015625,-0.0032669855281710625,-0.003934213425964117,-0.00569793488830328
1746739465098140700,0.861140625,-0.0047523258253932,-0.005582957994192839,-0.005243431311100721
1746739465108219600,0.8712197265625,-0.004540870897471905,-0.011987860314548016,0.0003547996748238802
1746739465118299000,0.881298828125,-0.005460933782160282,-0.00804511085152626,0.005220644176006317
1746739465128378600,0.891378662109375,-0.0031471801921725273,-0.010502941906452179,0.007075269240885973
1746739465138457600,0.90145751953125,-0.0031912322156131268,-0.011793406680226326,0.003403701353818178
1746739465148537600,0.91153759765625,-0.00038399454206228256,-0.01259901374578476,0.0012353555066511035
1746739465158616600,0.921616455078125,-0.0007068971171975136,-0.011221565306186676,-0.0002530682540964335
1746739465168696600,0.931696533203125,0.0013874126598238945,-0.007582888938486576,-0.00008049540338106453
1746739465178775600,0.941775634765625,0.004703485406935215,-0.0069513507187366486,-0.00046946591464802623
1746739465188855600,0.95185546875,0.0035292976535856724,-0.004094311967492104,-0.0019403297919780016
1746739465198934500,0.9619345703125,0.0008240002207458019,-0.004995464812964201,0.00006185195525176823
1746739465209013800,0.972013671875,-0.003244777675718069,-0.0019354927353560925,-0.001967210555449128
1746739465219093500,0.982093505859375,-0.00015093525871634483,-0.003742323722690344,-0.0020409312564879656
1746739465229172700,0.9921728515625,0.0007558711804449558,-0.0017809057608246803,-0.004525661002844572
1746739465239252500,1.00225244140625,0.0020036089699715376,-0.003691865596920252,-0.002057393779978156
1746739465249331700,1.012331787109375,0.000981221441179514,-0.0072218854911625385,-0.00022966622782405466
1746739465259411500,1.022411376953125,-0.0019045243971049786,-0.006940250284969807,0.006921124644577503
1746739465269490700,1.03249072265625,-0.002308526076376438,-0.003977749962359667,0.00991105567663908
1746739465279569700,1.042569580078125,-0.0032524531707167625,0.0022351411171257496,0.005658533424139023
1746739465289649700,1.052649658203125,-0.0035283565521240234,0.01112903468310833,0.005959204398095608
1746739465299728600,1.062728759765625,-0.004544676747173071,0.004874661564826965,0.003914979286491871
1746739465309808600,1.07280859375,-0.0029728789813816547,-0.0009067952632904053,0.0013370392844080925
1746739465319887600,1.0828876953125,0.0007794913835823536,-0.004843008238822222,0.004335208795964718
1746739465329967600,1.092967529296875,0.000880957581102848,-0.008884355425834656,0.0027543564792722464
1746739465340046600,1.103046630859375,0.0012002792209386826,-0.010474569164216518,0.0019103005761280656
1746739465350126800,1.113126953125,-0.0008418327197432518,-0.006019899621605873,0.005231528542935848
1746739465360205600,1.12320556640625,0.00012295600026845932,-0.001120852306485176,0.00628574239090085
1746739465370284500,1.133284423828125,-0.0025665704160928726,0.004207600373774767,0.005564291961491108
1746739465380364500,1.143364501953125,-0.0052554612047970295,0.006763662677258253,0.01089157909154892
1746739465390443500,1.153443603515625,-0.004304179456084967,0.008649447932839394,0.008131478913128376
1746739465400523800,1.163523681640625,-0.0013301591388881207,0.0010847579687833786,0.00536144245415926
1746739465410602500,1.1736025390625,-0.0014659804292023182,-0.00385700399056077,0.002543551381677389
1746739465420682800,1.183682861328125,-0.001746016088873148,-0.002496968489140272,0.0055509586818516254
1746739465430761500,1.193761474609375,-0.0006615770980715752,0.0021843360736966133,0.009961153380572796
1746739465440840700,1.2038408203125,0.000021917279809713364,0.006645623128861189,0.007975134067237377
1746739465450920700,1.213920654296875,0.0014688125811517239,0.0074730669148266315,0.0019073882140219212
1746739465460999700,1.223999755859375,0.001672846730798483,0.004089829977601767,0.0008227982325479388
1746739465471079700,1.23407958984375,0.0000802767463028431,0.0026823491789400578,0.00299167656339705
1746739465481158700,1.24415869140625,0.0010708309710025787,0.0008601085282862186,0.005696502514183521
1746739465491238700,1.25423876953125,0.0002801385708153248,-0.001923427451401949,0.004981710109859705
1746739465501317600,1.264317626953125,-0.003169720061123371,0.001235347706824541,0.007122092414647341
1746739465511396600,1.274396728515625,-0.0030703842639923096,0.0014609177596867085,0.0032389373518526554
1746739465521476900,1.284476806640625,-0.0012518367730081081,-0.0004934701137244701,0.0053954459726810455
1746739465531555600,1.2945556640625,0.0001556440256536007,-0.000033542513847351074,0.004328317008912563
1746739465541635800,1.3046357421875,-0.0006591114215552807,-0.003159542102366686,0.001703140907920897
1746739465551714600,1.314714599609375,-0.0014796312898397446,-0.0045859310775995255,0.00003626839315984398
1746739465561794800,1.324794921875,-0.0009376560337841511,-0.0019393865950405598,0.000016695834347046912
1746739465571873800,1.334873779296875,-0.0034455545246601105,0.0010633273050189018,-0.0004919678904116154
1746739465581953800,1.344953857421875,-0.0016760253347456455,0.00545211648568511,0.0021961091551929712
1746739465592032800,1.35503271484375,-0.0029828385449945927,0.008210884407162666,0.006721884943544865
1746739465602111500,1.365111572265625,-0.0025392360985279083,0.006145768333226442,0.010172424837946892
1746739465612191700,1.375191650390625,-0.0033594900742173195,0.0003219675272703171,0.00677849305793643
1746739465622270500,1.3852705078125,0.00035150907933712006,0.004366631619632244,0.006003547925502062
1746739465632350700,1.395350830078125,-0.0004394496791064739,0.00449233315885067,0.004911918193101883
1746739465642429700,1.4054296875,0.00017588213086128235,0.000368267297744751,0.0027463827282190323
1746739465652509700,1.415509765625,-0.0001484905369579792,-0.002031241077929735,0.0036697008181363344
1746739465662588700,1.425588623046875,0.00011343322694301605,-0.0011399053037166595,0.005436494946479797
1746739465672667600,1.435667724609375,-0.001477805431932211,-0.004028369672596455,0.005040483083575964
1746739465682747600,1.44574755859375,0.00001341523602604866,-0.004415182396769524,0.005644186865538359
1746739465692826600,1.45582666015625,-0.0023291013203561306,-0.0011975513771176338,0.0064276885241270065
1746739465702906600,1.46590673828125,-0.0037624724209308624,0.001391368918120861,0.006211990024894476
1746739465712985900,1.47598583984375,-0.004260217770934105,0.010706573724746704,0.005028214771300554
1746739465723065600,1.486065673828125,-0.003167569637298584,0.008646493777632713,0.0050582606345415115
1746739465733144800,1.496144775390625,-0.00314519926905632,0.008274717256426811,-0.001979142427444458
1746739465743224600,1.506224609375,-0.0039128027856349945,0.009250132367014885,-0.00263732741586864
1746739465753303800,1.5163037109375,-0.0019860053434967995,0.006749422755092382,0.003389406017959118
1746739465763382800,1.5263828125,0.0005558314733207226,0.005972457118332386,0.004418416880071163
1746739465773462500,1.536462646484375,-0.000085457693785429,0.0064209336414933205,0.007304484490305185
1746739465783541800,1.546541748046875,0.0021680293139070272,0.004693238530308008,0.004886216949671507
1746739465793621500,1.55662158203125,0.0032197115942835808,0.010258181020617485,-0.0005679369787685573
1746739465803700700,1.56670068359375,-0.0022854632697999477,0.008590037934482098,0.00229923939332366
1746739465813780500,1.576780517578125,-0.0005608005449175835,0.007058453746140003,-0.004619120620191097
1746739465823859700,1.586859619140625,0.002245580079033971,0.010671092197299004,-0.005670253187417984
1746739465833938700,1.596938720703125,0.013602364808321,-0.010947117581963539,-0.02634037844836712
1746739465844018700,1.607018798828125,0.0007228204049170017,0.001929042860865593,-0.04352697357535362
1746739465854097700,1.61709765625,0.004015286453068256,0.012251189909875393,-0.02894589863717556
1746739465864177700,1.627177734375,0.018870443105697632,0.006664468441158533,-0.007990281097590923
1746739465874256600,1.637256591796875,0.027912940829992294,-0.027884719893336296,-0.05144614353775978
1746739465884336600,1.647336669921875,-0.00983392633497715,0.00884996261447668,-0.02128012292087078
1746739465894415600,1.65741552734375,-0.0036942758597433567,-0.005177706480026245,-0.003194861812517047
1746739465904494800,1.667494873046875,-0.006090853828936815,-0.022136982530355453,-0.008314522914588451
1746739465914574600,1.67757470703125,-0.008409667760133743,-0.023838743567466736,0.004767989739775658
1746739465924653800,1.68765380859375,-0.005710879806429148,-0.02425173856317997,0.00032771844416856766
1746739465934733600,1.697733642578125,0.0018860534764826298,-0.006633062846958637,-0.00968203879892826
1746739465944812500,1.7078125,0.003995820879936218,-0.0026976289227604866,-0.019879881292581558
1746739465954892500,1.717892578125,0.0023800809867680073,-0.0012145144864916801,-0.02699531428515911
1746739465964970800,1.727970703125,0.0033836178481578827,-0.0010385401546955109,-0.02156221680343151
1746739465975050800,1.73805078125,-0.0008398895151913166,-0.0021389583125710487,-0.02209191955626011
1746739465985129700,1.748129638671875,-0.0027045072056353092,-0.003476438345387578,-0.017760388553142548
1746739465995208700,1.758208740234375,-0.0037772287614643574,-0.009178532287478447,-0.009488077834248543
1746739466005289000,1.7682890625,-0.003039137925952673,-0.0040554506704211235,-0.0009181254426948726
1746739466015367700,1.77836767578125,0.0016485583037137985,0.007072035223245621,0.010184326209127903
1746739466025448000,1.788447998046875,-0.0008415449410676956,0.012163342908024788,0.021371418610215187
1746739466035526700,1.798526611328125,-0.0033422536216676235,0.016414280980825424,0.029283670708537102
1746739466045607000,1.80860693359375,-0.005450816359370947,0.014155080541968346,0.03398218750953674
1746739466055685600,1.818685546875,-0.005964007694274187,0.013135354965925217,0.03240319713950157
1746739466065764600,1.8287646484375,-0.005228234454989433,0.010708745568990707,0.027699539437890053
1746739466075844900,1.838844970703125,-0.006315869279205799,0.0049390061758458614,0.024406807497143745
1746739466085923600,1.848923583984375,-0.0024323677644133568,0.0016282652504742146,0.021614866331219673
1746739466096003800,1.85900390625,-0.0048798127099871635,-0.004971313755959272,0.01097447331994772
1746739466106082600,1.86908251953125,-0.000943219754844904,-0.006292956881225109,0.005367934238165617
1746739466116162800,1.879162841796875,-0.0009975484572350979,-0.0067102741450071335,0.0012552144471555948
1746739466126241800,1.88924169921875,0.0012454935349524021,-0.008149220608174801,-0.0012120382161810994
1746739466136320800,1.89932080078125,-0.0033841454423964024,-0.00859263725578785,0.00036961311707273126
1746739466146400800,1.90940087890625,-0.003875509835779667,-0.008117344230413437,0.0028749145567417145
1746739466156479700,1.919479736328125,-0.00735386461019516,-0.011397825554013252,0.006507732439786196
1746739466166559700,1.929559814453125,-0.010370566509664059,-0.011293737217783928,0.011669371277093887
1746739466176638700,1.939638671875,-0.014146395958960056,-0.004259529989212751,0.01795016974210739
1746739466186718700,1.94971875,-0.01427457481622696,0.000789988785982132,0.026589348912239075
1746739466196798000,1.9597978515625,-0.013913184404373169,0.004196438007056713,0.027377644553780556
1746739466206876700,1.969876708984375,-0.009722121059894562,0.0005871141329407692,0.02037299983203411
1746739466216957000,1.97995703125,-0.008243268355727196,-0.004400986712425947,0.01188550516963005
1746739466227035600,1.99003564453125,-0.00454589631408453,-0.008882224559783936,0.005383695010095835
1746739466237116000,2.000115966796875,-0.0047136759385466576,-0.01182954479008913,-0.00014316280430648476
1746739466247195000,2.01019482421875,-0.00008226651698350906,-0.006832105573266745,-0.0070272646844387054
1746739466257275000,2.02027490234375,0.000737188383936882,-0.0023558642715215683,-0.012045991607010365
1746739466267353900,2.030353759765625,-0.0033336253836750984,-0.0033537684939801693,-0.013022742234170437
1746739466277433900,2.040433837890625,-0.004480382427573204,-0.001829641405493021,-0.007946756668388844
1746739466287512800,2.050512939453125,-0.004796361550688744,-0.0032855505123734474,0.0007978322682902217
1746739466297591800,2.060591796875,-0.0019603618420660496,-0.002547055948525667,0.007860003039240837
1746739466307671800,2.070671875,-0.003466611262410879,-0.0011372016742825508,0.011395950801670551
1746739466317750800,2.080750732421875,-0.0007331431843340397,0.0010694931261241436,0.012854564003646374
1746739466327830800,2.090830810546875,0.0003174515441060066,0.0027686948888003826,0.01649177446961403
1746739466337909800,2.10090966796875,-0.001320126000791788,-0.0016574789769947529,0.011324177496135235
1746739466347989800,2.11098974609375,0.0016988213174045086,-0.0004090704023838043,0.006912183947861195
1746739466358068700,2.12106884765625,-0.001558756921440363,-0.0038533364422619343,-0.001786765526048839
1746739466368148000,2.13114794921875,-0.0032238010317087173,-0.0058978889137506485,-0.0050721550360322
1746739466378227700,2.141227783203125,-0.004470426589250565,-0.003792926436290145,-0.00521037308499217
1746739466388307000,2.151306884765625,0.0023113021161407232,-0.00948205217719078,-0.004720286466181278
1746739466398386700,2.16138671875,-0.003110627643764019,-0.013606488704681396,0.0012329441960901022
1746739466408466000,2.1714658203125,-0.000205199234187603,-0.018074043095111847,0.0007843503262847662
1746739466418545700,2.181545654296875,-0.001261142548173666,-0.013383417390286922,0.0042624385096132755
1746739466428625000,2.191625,-0.008119907230138779,-0.012036596424877644,0.009815679863095284
1746739466438703900,2.201703857421875,-0.008931105956435204,-0.006791766732931137,0.013962754048407078
1746739466448784000,2.211783935546875,-0.007617575582116842,-0.0043462468311190605,0.012169363908469677
1746739466458862800,2.22186279296875,-0.006379205267876387,-0.006496216636151075,0.008457982912659645
1746739466468942800,2.23194287109375,-0.006044748704880476,-0.006189730949699879,0.006090584676712751
1746739466479021800,2.242021728515625,-0.004470288287848234,-0.0025278846733272076,0.0019560272339731455
1746739466489101800,2.252101806640625,-0.0014248248189687729,0.0026131225749850273,0.00004158128285780549
1746739466499180800,2.262180908203125,-0.0036134100519120693,0.0002711387351155281,-0.0021603202912956476
1746739466509260800,2.2722607421875,-0.0018957052379846573,-0.00433876970782876,0.0012125036446377635
1746739466519339800,2.28233984375,-0.0015678699128329754,-0.005148104391992092,0.0030950920190662146
1746739466529418800,2.292418701171875,-0.0032015684992074966,-0.0019010570831596851,0.0031028499361127615
1746739466539498800,2.302498779296875,-0.004311041906476021,-0.0014445912092924118,0.007058709394186735
1746739466549577700,2.31257763671875,-0.004509170074015856,-0.003545478219166398,0.011989752762019634
1746739466559657700,2.32265771484375,-0.0022215149365365505,-0.006125282496213913,0.005848769564181566
1746739466569736700,2.33273681640625,-0.001321293879300356,-0.0037110403645783663,-0.00024085149925667793
1746739466579816700,2.342816650390625,-0.0006714826449751854,-0.009881584905087948,-0.006765862461179495
1746739466589895700,2.352895751953125,0.0005075088702142239,-0.009145671501755714,-0.013909059576690197
1746739466599975000,2.362974853515625,0.0007362742908298969,-0.0003878665156662464,-0.017890485003590584
1746739466610054700,2.3730546875,-0.0015071048401296139,0.006287567317485809,-0.02118840627372265
1746739466620134000,2.3831337890625,-0.002845343668013811,0.008226614445447922,-0.020428339019417763
1746739466630213600,2.393213623046875,-0.0017191260121762753,0.008920924738049507,-0.022128038108348846
1746739466640292900,2.40329296875,-0.005526380613446236,0.0032936641946434975,-0.018549282103776932
1746739466650372900,2.413372802734375,-0.002834191545844078,-0.0025865952484309673,-0.011011471971869469
1746739466660451800,2.423451904296875,-0.0024767955765128136,-0.0043653203174471855,-0.006386359687894583
1746739466670530800,2.43353076171875,-0.0020435680635273457,-0.0047775981947779655,-0.005739394575357437
1746739466680610800,2.44361083984375,-0.0037173652090132236,-0.005987472366541624,-0.007016113959252834
1746739466690689800,2.453689697265625,-0.0050523607060313225,-0.00607363460585475,-0.009586549364030361
1746739466700769500,2.46376953125,0.000016433652490377426,-0.005712509620934725,-0.008691460825502872
1746739466710848800,2.473848876953125,0.0036830489989370108,-0.006659491453319788,-0.013433664105832577
1746739466720928800,2.4839287109375,0.003871068125590682,-0.0007070600986480713,-0.01764092594385147
1746739466731007700,2.4940078125,0.002740095602348447,0.0025261035189032555,-0.021022912114858627
1746739466741086700,2.504086669921875,0.0011493894271552563,0.0007796026766300201,-0.019277742132544518
1746739466751166700,2.514166748046875,0.0018622237257659435,0.0034467754885554314,-0.019252274185419083
1746739466761245700,2.52424560546875,0.000144218560308218,0.0015367567539215088,-0.01532224752008915
1746739466771326000,2.534325927734375,0.0019652079790830612,-0.002300693653523922,-0.0064561692997813225
1746739466781404700,2.54440478515625,0.0029063690453767776,-0.004408319480717182,-0.0017090843757614493
1746739466791485000,2.55448486328125,0.003269149689003825,0.0007024919614195824,0.0013998727081343532
1746739466801563600,2.564563720703125,0.003798319958150387,0.004036237020045519,0.004220160190016031
1746739466811644000,2.574643798828125,0.001514761708676815,0.006659181322902441,0.0026270432863384485
1746739466821722600,2.58472265625,-0.003523140214383602,0.006575558800250292,0.0022494071163237095
1746739466831801900,2.5948017578125,-0.002505871467292309,0.010317627340555191,0.0018976209685206413
1746739466841881900,2.6048818359375,-0.0003329981118440628,0.009117074310779572,0.005746155045926571
1746739466851960600,2.614960693359375,0.0015644486993551254,0.0017567570321261883,0.008809652179479599
1746739466862040800,2.625040771484375,0.003567412029951811,0.0034728976897895336,0.007871952839195728
1746739466872119600,2.63511962890625,0.0011508935131132603,0.0018819021061062813,0.010018794797360897
1746739466882199800,2.64519970703125,0.00268993410281837,0.0034619560465216637,0.005810734815895557
1746739466892278800,2.65527880859375,-0.00021021300926804543,0.005740333814173937,0.0009271446615457535
1746739466902357800,2.665357666015625,0.001293940469622612,0.00699228560552001,0.0015407369937747717
1746739466912437800,2.675437744140625,-0.0011341325007379055,0.007322230841964483,0.001582099124789238
1746739466922516700,2.685516845703125,0.0005151634104549885,0.004398346412926912,-0.003245146479457617
1746739466932596700,2.6955966796875,0.0033921515569090843,0.002450548578053713,-0.0077327536419034
1746739466942675700,2.70567578125,0.00009835418313741684,0.0037965099327266216,-0.003030410036444664
1746739466952755700,2.715755615234375,0.0017458905931562185,0.004033328499644995,-0.00528847286477685
1746739466962835000,2.7258349609375,0.0012004752643406391,0.0040487744845449924,-0.0037704710848629475
1746739466972914200,2.7359140625,-0.0009892228990793228,0.0018664561212062836,-0.004046157002449036
1746739466982994200,2.745994140625,0.0010901731438934803,-0.002793010789901018,-0.006048587616533041
1746739466993073200,2.7560732421875,-0.00005888938903808594,-0.002061523962765932,-0.006731902249157429
1746739467003153200,2.766153076171875,0.0022985409013926983,-0.0025387625209987164,-0.008653905242681503
1746739467013232000,2.776232177734375,-0.0010151942260563374,-0.005750757642090321,-0.005310193635523319
1746739467023312100,2.78631201171875,0.00006285356357693672,-0.0038790882099419832,-0.00624629482626915
1746739467033391400,2.796391357421875,0.002295994432643056,-0.007246021181344986,-0.0007017420721240342
1746739467043471000,2.80647119140625,-0.0012385528534650803,-0.004547706339508295,0.001667406060732901
1746739467053550300,2.81655029296875,-0.004041450098156929,-0.0035369351971894503,0.0035466505214571953
1746739467063629000,2.826629150390625,-0.0030345087870955467,-0.003003770485520363,0.0039559779688715935
1746739467073709300,2.836709228515625,-0.006155616138130426,-0.001541817095130682,0.005077932961285114
1746739467083788000,2.8467880859375,-0.003126803319901228,-0.0005095759406685829,0.006858522538095713
1746739467093868300,2.856868408203125,-0.0007874714210629463,-0.002191547304391861,0.00844570156186819
1746739467103947300,2.866947265625,0.0018525200430303812,-0.0023713107220828533,0.010763716883957386
1746739467114027300,2.87702734375,-0.0007930640131235123,-0.007051283493638039,0.014164307154715061
1746739467124106200,2.887106201171875,-0.001450065989047289,-0.0041686780750751495,0.008655558340251446
1746739467134185000,2.89718505859375,-0.000653131864964962,-0.0029509360902011395,0.00536172604188323
1746739467144265200,2.90726513671875,-0.001215857919305563,-0.0016819396987557411,0.002429851796478033
1746739467154344200,2.91734423828125,0.00035252468660473824,0.0003855964168906212,0.0038264619652181864
1746739467164424200,2.927424072265625,0.000010841060429811478,0.0019145174883306026,0.001132940873503685
1746739467174503200,2.937503173828125,0.0008667916990816593,-0.0020825397223234177,0.0005368596175685525
1746739467184583200,2.947583251953125,0.0026015748735517263,-0.00026306789368391037,-0.0013521204236894846
1746739467194662100,2.957662109375,0.002267614472657442,-0.002080675680190325,-0.0009276127093471587
1746739467204741000,2.9677412109375,0.00020739296451210976,0.010138706304132938,-0.004906641319394112
1746739467214821000,2.977821044921875,-0.0010921484790742397,0.007111859042197466,-0.0032319282181560993
1746739467224900400,2.987900390625,-0.002911886665970087,0.007492690812796354,0.004717607516795397
1746739467234980000,2.99797998046875,-0.003970018588006496,0.004174719098955393,0.006235094275325537
1746739467245059300,3.008059326171875,-0.004935680888593197,0.007210189942270517,0.009227688424289227
1746739467255139000,3.01813916015625,0.002490821061655879,0.004813159815967083,0.009362911805510521
1746739467265218300,3.02821826171875,-0.0017728996463119984,0.0009334664791822433,0.004849386401474476
1746739467275297300,3.03829736328125,-0.004903758876025677,-0.0008581662550568581,0.003295916598290205
1746739467285377300,3.048377197265625,-0.0026571163907647133,-0.0014376700855791569,0.0034581029321998358
1746739467295456300,3.058456298828125,-0.0008631749078631401,0.0004902356304228306,0.004381001461297274
1746739467305536300,3.068536376953125,-0.0025819791480898857,-0.002577193547040224,0.00429950887337327
1746739467315615200,3.078615234375,-0.0015117349103093147,-0.002527759876102209,-0.00210071774199605
1746739467325695200,3.0886953125,0.001172464806586504,0.0034691467881202698,-0.009924286045134068
1746739467335774200,3.098774169921875,0.0017502433620393276,0.00032186321914196014,-0.011146577075123787
1746739467345854200,3.108854248046875,-0.0019574095495045185,0.00172002287581563,-0.012276822701096535
1746739467355933200,3.11893310546875,-0.0022517251782119274,-0.0005399789661169052,-0.010958137921988964
1746739467366012200,3.12901220703125,0.0015294309705495834,-0.00580185279250145,-0.009128812700510025
1746739467376092200,3.139092041015625,-0.0006926856003701687,-0.0019096806645393372,-0.00880079809576273
1746739467386171100,3.149171142578125,0.002425609854981303,-0.0022580218501389027,-0.0017261115135625005
1746739467396251100,3.159251220703125,0.0015215096063911915,-0.007484313566237688,0.0038493513129651546
1746739467406330000,3.169330078125,0.00023919763043522835,-0.008258228190243244,0.006546601187437773
1746739467416410000,3.17941015625,-0.0004046638496220112,-0.0030228644609451294,0.008818046189844608
1746739467426489000,3.189489013671875,-0.0033330759033560753,0.0033058710396289825,0.006906162481755018
1746739467436568300,3.199568359375,-0.003763307351619005,0.0048846774734556675,0.0034085807856172323
1746739467446648000,3.20964794921875,-0.0026993746869266033,0.0036316602490842342,0.007870974019169807
1746739467456727300,3.219727294921875,-0.0015833089128136635,0.0013184179551899433,0.008037503808736801
1746739467466807000,3.22980712890625,-0.0013217860832810402,0.0017069731839001179,0.009692125953733921
1746739467476886300,3.23988623046875,-0.003021340351551771,-0.0007502445951104164,0.008557554334402084
1746739467486966000,3.249966064453125,0.0007305210456252098,-0.0035103445407003164,0.00594259612262249
1746739467497045200,3.260045166015625,-0.0005847746506333351,-0.0031753394287079573,0.0029591394122689962
1746739467507124200,3.270124267578125,0.0003265594132244587,-0.0001886044628918171,0.0017458033980801702
1746739467517204200,3.280204345703125,-0.0009706378914415836,-0.004723559133708477,0.0008064587600529194
1746739467527283200,3.290283203125,0.001018743496388197,-0.0027552167885005474,0.0022267226595431566
1746739467537363200,3.30036328125,0.0014550341293215752,-0.005308446474373341,0.0018067378550767899
1746739467547442200,3.310442138671875,0.0005002911202609539,-0.00392200518399477,-0.002355516655370593
1746739467557522200,3.320522216796875,0.0010666437447071075,-0.0028792968951165676,-0.00036407052539289
1746739467567601200,3.33060107421875,0.0009417412802577019,-0.005492124240845442,-0.0022109728306531906
1746739467577680100,3.34068017578125,0.0036453816574066877,-0.0030565187335014343,-0.002024585846811533
1746739467587760000,3.350760009765625,0.0011907462030649185,-0.003128690179437399,-0.003268015570938587
1746739467597839000,3.360839111328125,-0.001123890746384859,-0.0034309590701013803,-0.00387095520272851
1746739467607919000,3.370919189453125,-0.0006064386107027531,0.00046204961836338043,0.0008982334402389824
1746739467617998000,3.380998046875,-0.002200573682785034,-0.0018083788454532623,0.001821603043936193
1746739467628078300,3.391078369140625,-0.0008673956617712975,-0.004925076384097338,0.006054431200027466
1746739467638157000,3.401156982421875,0.00105306226760149,-0.004651121329516172,0.004620904102921486
1746739467648236300,3.411236328125,-0.0024780230596661568,-0.0065142689272761345,0.003971359226852655
1746739467658316000,3.42131591796875,0.00007296865805983543,-0.009479941800236702,0.003762497566640377
1746739467668395300,3.431395263671875,0.0012056110426783562,-0.006776567082852125,0.006065333262085915
1746739467678475300,3.441475341796875,0.000406704843044281,-0.003930878359824419,0.004329868592321873
1746739467688554200,3.45155419921875,-0.00015149405226111412,-0.000698333140462637,0.004009224008768797
1746739467698634200,3.46163427734375,-0.00047708023339509964,0.007095100823789835,0.006741260644048452
1746739467708713200,3.471713134765625,-0.0008206279017031193,0.006365661043673754,0.0082169184461236
1746739467718792200,3.481792236328125,-0.0018083415925502777,0.0029821721836924553,0.010170884430408478
1746739467728872200,3.4918720703125,-0.004586550872772932,-0.0024006087332963943,0.00921667367219925
1746739467738951200,3.501951171875,-0.0055171893909573555,-0.005027139093726873,0.009052055887877941
1746739467749031400,3.512031494140625,-0.007487662136554718,-0.0014158925041556358,0.0061489432118833065
1746739467759110100,3.522110107421875,-0.004978065378963947,-0.0023521357215940952,0.0038874344900250435
1746739467769190400,3.5321904296875,-0.0014839977957308292,-0.005029944237321615,0.0007558234501630068
1746739467779269000,3.54226904296875,-0.0007419507019221783,-0.001592827495187521,-0.002829223405569792
1746739467789348000,3.55234814453125,0.0025414603296667337,-0.0073673599399626255,-0.003449207404628396
1746739467799428400,3.562428466796875,0.0008042650297284126,-0.010766517370939255,-0.003921001683920622
1746739467809507000,3.572507080078125,0.0024413103237748146,-0.005896661430597305,-0.005932487081736326
1746739467819587300,3.58258740234375,0.004158934578299522,-0.00028429552912712097,-0.003515484742820263
1746739467829666000,3.592666015625,0.00036526191979646683,0.005554684903472662,0.0003887093625962734
1746739467839746300,3.602746337890625,-0.0030657192692160606,0.009420407935976982,0.0005860142409801483
1746739467849825000,3.612824951171875,-0.0015719523653388023,0.011742418631911278,0.006328854709863663
1746739467859904300,3.622904296875,-0.0034385323524475098,0.01743769273161888,0.008265902288258076
1746739467869984300,3.632984375,-0.0024046925827860832,0.020699266344308853,0.005151868797838688
1746739467880063200,3.643063232421875,0.0006747553125023842,0.01597619242966175,0.005475557409226894
1746739467890143200,3.653143310546875,0.0031142111402004957,0.00845329649746418,0.001997202867642045
1746739467900222200,3.66322216796875,0.005939822643995285,0.01144129503518343,-0.005350769963115454
1746739467910302200,3.67330224609375,0.004351247102022171,0.0031868284568190575,-0.01412215642631054
1746739467920381200,3.683381103515625,0.0048829312436282635,0.0012553823180496693,-0.020620837807655334
1746739467930461200,3.693461181640625,0.0061463345773518085,-0.0012876703403890133,-0.01946023292839527
1746739467940540200,3.7035400390625,0.006455261260271072,-0.003975865431129932,-0.018174724653363228
1746739467950619100,3.713619140625,0.005521290935575962,-0.0010559754446148872,-0.022139372304081917
1746739467960699100,3.72369921875,0.006036462262272835,0.003583928570151329,-0.026505926623940468
1746739467970778000,3.733778076171875,0.0037631881423294544,0.008303316310048103,-0.02243075706064701
1746739467980858000,3.743858154296875,0.0028735173400491476,0.003845633938908577,-0.014389822259545326
1746739467990937000,3.75393701171875,0.004776878748089075,0.0022637154906988144,-0.009462707675993443
1746739468001016000,3.76401611328125,0.004110022913664579,0.0023846235126256943,-0.0033289154525846243
1746739468011096000,3.774095947265625,0.004970224108546972,0.0038485629484057426,0.00016754880198277533
1746739468021175000,3.784175048828125,0.0033816241193562746,0.0026099635288119316,0.001710939803160727
1746739468031255000,3.794255126953125,0.004200546070933342,0.005657951347529888,0.0001772253745002672
1746739468041334000,3.804333984375,0.0028295170050114393,0.008360550738871098,-0.0032894830219447613
1746739468051414000,3.8144140625,0.003822609782218933,0.0060563841834664345,-0.0057044378481805325
1746739468061493000,3.824492919921875,0.002051352523267269,0.006445020437240601,-0.0035390863195061684
1746739468071572000,3.834572021484375,0.0018593387212604284,0.0032372428104281425,-0.005653636064380407
1746739468081652000,3.84465185546875,0.00017498387023806572,0.0019442611373960972,-0.0034029032103717327
1746739468091731000,3.85473095703125,-0.0018380996771156788,-0.0006419350393116474,-0.005907073616981506
1746739468101811000,3.86481103515625,-0.0016474537551403046,0.004720296710729599,0.000060158141423016787
1746739468111890200,3.87489013671875,0.0015099900774657726,0.008225549012422562,0.0007432589773088694
1746739468121970000,3.884969970703125,0.006202005315572023,0.004929293878376484,0.0002295175363542512
1746739468132049200,3.895049072265625,0.001275423914194107,0.00286134984344244,-0.003250701352953911
1746739468142127900,3.9051279296875,0.004550313111394644,-0.00195364560931921,-0.006783384829759598
1746739468152208100,3.9152080078125,0.007337311282753944,-0.0031616552732884884,-0.021261658519506454
1746739468162287000,3.925287109375,0.005082573741674423,-0.0007446347735822201,-0.024776263162493706
1746739468172367000,3.9353671875,0.007284475490450859,0.0063569508492946625,-0.03362754359841347
1746739468182446000,3.945446044921875,0.00599130243062973,0.015084069222211838,-0.03764387592673302
1746739468192526000,3.955526123046875,0.0037973904982209206,0.024463986977934837,-0.03867771476507187
1746739468202605000,3.96560498046875,0.004935720004141331,0.02180427312850952,-0.04096873477101326
1746739468212684000,3.97568408203125,0.0044494266621768475,0.02033820189535618,-0.03929946571588516
1746739468222764000,3.985763916015625,0.004478640854358673,0.010424749925732613,-0.03289894387125969
1746739468232843000,3.995843017578125,0.003529223846271634,0.003935691434890032,-0.030224066227674484
1746739468242923000,4.005923095703125,0.006583070382475853,-0.0038639081176370382,-0.030834462493658066
1746739468253002000,4.016001953125,0.011808725073933601,-0.0033443253487348557,-0.038643915206193924
1746739468263082000,4.02608203125,0.017140615731477737,-0.021219691261649132,-0.08083469420671463
1746739468273161000,4.036160888671875,0.005992889404296875,0.012068224139511585,-0.05319587513804436
1746739468283240200,4.046240234375,0.024703215807676315,-0.008368711918592453,-0.06476504355669022
1746739468293320000,4.05631982421875,0.02545396238565445,-0.018537459895014763,-0.08863948285579681
1746739468303399200,4.066399169921875,0.02080060914158821,-0.021895786747336388,-0.13238823413848877
1746739468313479000,4.07647900390625,0.014062810689210892,0.010591316968202591,-0.09279420971870422
1746739468323558100,4.08655810546875,0.027496710419654846,-0.014890994876623154,-0.10507142543792725
1746739468333638000,4.096637939453125,0.01892639324069023,-0.009864279069006443,-0.13101114332675934
1746739468343717000,4.106717041015625,0.00947557482868433,-0.006764299236238003,-0.12631091475486755
1746739468353796000,4.116796142578125,0.013560331426560879,-0.04454629868268967,-0.1673041582107544
1746739468363876000,4.1268759765625,-0.01473368238657713,0.018634594976902008,-0.10029873251914978
1746739468373955000,4.136955078125,0.01622929237782955,-0.012130774557590485,-0.07505382597446442
1746739468384035000,4.14703515625,0.009638537652790546,-0.013840479776263237,-0.07061369717121124
1746739468394114000,4.157114013671875,0.004787589889019728,-0.0025361604057252407,-0.061609283089637756
1746739468404194000,4.167194091796875,-0.002355506643652916,-0.006147429812699556,-0.047168221324682236
1746739468414273000,4.17727294921875,-0.004740101285278797,0.004423188511282206,-0.022969407960772514
1746739468424352000,4.18735205078125,-0.006305657792836428,-0.0014233700931072235,-0.004098817706108093
1746739468434432000,4.197431884765625,-0.0044989692978560925,-0.004962178412824869,0.006944778375327587
1746739468444511000,4.207510986328125,-0.0057139149866998196,-0.004462383687496185,0.01160351186990738
1746739468454591000,4.217591064453125,-0.00715867942199111,-0.007706380449235439,0.016027022153139114
1746739468464670000,4.227669921875,-0.0072479755617678165,-0.007764538750052452,0.014113955199718475
1746739468474750000,4.23775,-0.00690975459292531,-0.0055075096897780895,0.008354070596396923
1746739468484829000,4.247828857421875,-0.008124527521431446,-0.00971190631389618,0.007649368140846491
1746739468494908200,4.257908203125,-0.005541261285543442,-0.007929451763629913,0.0010780183365568519
1746739468504988000,4.26798779296875,-0.008595848456025124,-0.019947826862335205,-0.00926518440246582
1746739468515067100,4.278067138671875,-0.009885884821414948,-0.07095508277416229,-0.11274657398462296
1746739468525147000,4.28814697265625,-0.02806968055665493,0.0026999618858098984,-0.06402590125799179
1746739468535226000,4.29822607421875,0.011780794709920883,-0.010848603211343288,-0.07279463112354279
1746739468545305900,4.308305908203125,0.020724106580018997,0.02594814822077751,-0.030161641538143158
1746739468555385000,4.318385009765625,0.017821528017520905,0.013273898512125015,-0.037496257573366165
1746739468565464000,4.328464111328125,-0.009091255255043507,0.029484499245882034,-0.05398629978299141
1746739468575544000,4.3385439453125,-0.008567145094275475,0.04336968809366226,-0.016948387026786804
1746739468585623000,4.348623046875,0.006336415186524391,0.0036764410324394703,-0.024027470499277115
1746739468595703000,4.358703125,-0.001695146318525076,0.008381448686122894,-0.021267637610435486
1746739468605782000,4.368781982421875,-0.0026581231504678726,-0.005273215472698212,-0.02162170223891735
1746739468615862000,4.378862060546875,-0.0010991087183356285,-0.009603248909115791,-0.020916763693094254
1746739468625941000,4.38894091796875,0.002415395574644208,-0.005305459722876549,-0.012902694754302502
1746739468636020000,4.39902001953125,0.0007591755129396915,-0.008865040726959705,-0.009294644929468632
1746739468646100000,4.409099853515625,-0.002351038157939911,-0.0029236129485070705,-0.008117474615573883
1746739468656179000,4.419178955078125,-0.0037835529074072838,-0.0009611295536160469,-0.008152894675731659
1746739468666259000,4.429259033203125,0.001260995864868164,0.0052098664455115795,-0.01121919322758913
1746739468676338000,4.439337890625,-0.000897496473044157,0.006306555587798357,-0.013989413157105446
1746739468686418200,4.449418212890625,0.0017215614207088947,0.008502395823597908,-0.012000534683465958
1746739468696497000,4.459496826171875,0.001133269164711237,0.008946077898144722,-0.010745120234787464
1746739468706576100,4.469576171875,0.0010121292434632778,0.009778293780982494,-0.009212134405970573
1746739468716655900,4.47965576171875,0.0005945456214249134,0.009462443180382252,-0.009002809412777424
1746739468726735000,4.489735107421875,-0.0012192865833640099,0.009832213632762432,-0.003210919676348567
1746739468736814800,4.49981494140625,-0.0003351173363626003,0.011689768172800541,-0.006800328381359577
1746739468746894000,4.50989404296875,-0.003111497964709997,0.015915362164378166,-0.0024799939710646868
1746739468756974000,4.51997412109375,-0.006651371251791716,0.015112951397895813,-0.00097264489158988
1746739468767053000,4.530052978515625,-0.012069851160049438,0.012680339626967907,-0.0018958980217576027
1746739468777132000,4.540132080078125,-0.013109814375638962,0.003022918477654457,-0.0033747514244168997
1746739468787212000,4.5502119140625,-0.013312967494130135,-0.0035776011645793915,-0.001524073421023786
1746739468797291000,4.560291015625,-0.012103892862796783,-0.011149500496685505,-0.016448160633444786
1746739468807371300,4.570371337890625,-0.00947786495089531,-0.013602416962385178,-0.024610448628664017
1746739468817450000,4.580449951171875,-0.0071321530267596245,-0.020997749641537666,-0.030361810699105263
1746739468827530200,4.5905302734375,-0.002317840699106455,-0.02221280336380005,-0.038469310849905014
1746739468837609000,4.60060888671875,0.002370388014242053,-0.01945749670267105,-0.05409008264541626
1746739468847688000,4.61068798828125,0.009994277730584145,-0.013053454458713531,-0.06511984020471573
1746739468857768000,4.620767822265625,0.012725615873932838,-0.009058980271220207,-0.07565157860517502
1746739468867847000,4.630846923828125,0.014958027750253677,-0.0027133445255458355,-0.07455246150493622
1746739468877927200,4.64092724609375,0.01870855689048767,0.003862799610942602,-0.06463857740163803
1746739468888006000,4.651005859375,0.015220696106553078,0.015987474471330643,-0.048723407089710236
1746739468898086100,4.661086181640625,0.011434745043516159,0.02077743411064148,-0.024576526135206223
1746739468908164900,4.671164794921875,0.006523182615637779,0.020779363811016083,-0.0027774577029049397
1746739468918244000,4.681244140625,0.0025830359663814306,0.018371067941188812,0.015212462283670902
1746739468928324000,4.691323974609375,-0.00241063442081213,0.013390319421887398,0.02572515979409218
1746739468938403000,4.701403076171875,-0.002278542146086693,0.005792320240288973,0.030323639512062073
1746739468948483000,4.711483154296875,-0.008039098232984543,-0.0027785715647041798,0.02807583101093769
1746739468958562000,4.72156201171875,-0.006663841661065817,-0.007314734160900116,0.018339581787586212
1746739468968642300,4.731642333984375,-0.004031990189105272,-0.011118648573756218,0.011241156607866287
1746739468978721000,4.741720947265625,-0.004376070108264685,-0.013828414492309093,-0.005729571916162968
1746739468988800300,4.75180029296875,-0.0006842575967311859,-0.008375817909836769,-0.019878845661878586
1746739468998880300,4.76188037109375,-0.0018912022933363914,0.0007444429211318493,-0.02911069430410862
1746739469008959200,4.771959228515625,0.0019903217907994986,0.0021647298708558083,-0.03450100123882294
1746739469019039200,4.782039306640625,0.0034175098408013582,0.00021236669272184372,-0.03425758704543114
1746739469029118200,4.7921181640625,0.0066201332956552505,0.0006249076686799526,-0.0324760302901268
1746739469039198200,4.8021982421875,0.006170591805130243,-0.0028457241132855415,-0.022159475833177567
1746739469049277200,4.812277099609375,0.0020454823970794678,-0.006711076479405165,-0.014746135100722313
1746739469059356200,4.822356201171875,0.0033293922897428274,-0.007763557601720095,-0.0012244678800925612
1746739469069436400,4.8324365234375,0.0008424166589975357,-0.009092086926102638,0.01372761931270361
1746739469079515100,4.84251513671875,-0.005300164222717285,-0.0036456563975661993,0.024215146899223328
1746739469089595100,4.85259521484375,-0.00558813288807869,0.002366594970226288,0.028099514544010162
1746739469099674000,4.862674072265625,-0.007165256887674332,0.0034702084958553314,0.025787359103560448
1746739469109754000,4.872754150390625,-0.007874399423599243,0.0037314044311642647,0.0234762504696846
1746739469119833300,4.882833251953125,-0.006335091311484575,-0.0008226009085774422,0.019891370087862015
1746739469129912000,4.892912109375,-0.004693715367466211,-0.0025600274093449116,0.015203057788312435
1746739469139992300,4.902992431640625,-0.0007072295993566513,-0.005262603051960468,0.014371619559824467
1746739469150071000,4.913071044921875,-0.006160168908536434,-0.00957893393933773,0.009233618155121803
1746739469160151300,4.9231513671875,-0.0029079169034957886,-0.007977308705449104,-0.0023798951879143715
1746739469170230300,4.933230224609375,-0.001444243360310793,-0.004533841274678707,-0.011279113590717316
1746739469180310300,4.943310302734375,-0.0031276270747184753,-0.0025657652877271175,-0.013094058260321617
1746739469190389200,4.95338916015625,-0.002821987960487604,-0.0033792760223150253,-0.01007967907935381
1746739469200468200,4.96346826171875,-0.0011519198305904865,-0.005404343828558922,-0.00896860845386982
1746739469210548200,4.97354833984375,0.0008411896415054798,-0.004170235246419907,-0.006997869815677404
1746739469220627200,4.983627197265625,-0.0001079607754945755,-0.009172983467578888,-0.0010917773470282555
1746739469230707200,4.993707275390625,0.000014927703887224197,-0.007722481153905392,0.0058190906420350075
1746739469240786200,5.0037861328125,-0.0009334241040050983,-0.006074517033994198,0.012964352034032345
1746739469250866200,5.0138662109375,-0.0019510653801262379,-0.009593741968274117,0.01940515823662281
1746739469260945200,5.023945068359375,-0.002778509631752968,-0.004722820594906807,0.024836143478751183
1746739469271024000,5.034024169921875,-0.003983242437243462,-0.0023082979023456573,0.02403864450752735
1746739469281104100,5.044104248046875,-0.0021323454566299915,-0.002688597422093153,0.020265212282538414
1746739469291183400,5.054183349609375,-0.004285789560526609,-0.00109557481482625,0.014313112944364548
1746739469301263000,5.06426318359375,-0.0017291544936597347,0.0013846270740032196,0.006284214090555906
1746739469311342300,5.07434228515625,0.0016812789253890514,-0.003197955898940563,0.0009126836084760725
1746739469321422000,5.084422119140625,-0.0020119929686188698,-0.009936019778251648,-0.00015604290820192546
1746739469331501300,5.094501220703125,0.00026330631226301193,-0.014220843091607094,-0.00007804218330420554
1746739469341580000,5.104580078125,-0.0018155574798583984,-0.01191374659538269,0.0006934755947440863
1746739469351660300,5.114660400390625,-0.0033035227097570896,-0.008059026673436165,-0.0011835024924948812
1746739469361739300,5.1247392578125,-0.0031184335239231586,-0.006125838495790958,-0.0027883234433829784
1746739469371819300,5.1348193359375,-0.0030736341141164303,-0.003366064978763461,-0.004053608980029821
1746739469381898200,5.144898193359375,-0.0010115490294992924,-0.006458261515945196,-0.0040301731787621975
1746739469391978200,5.154978271484375,-0.0010638739913702011,-0.008154122158885002,0.00004536285996437073
1746739469402057200,5.16505712890625,0.0006370870396494865,-0.010164542123675346,-0.0026300486642867327
1746739469412136200,5.17513623046875,0.0010959850624203682,-0.006509044207632542,-0.006579670589417219
1746739469422216200,5.18521630859375,0.0008469792082905769,-0.004290897399187088,-0.005218262784183025
1746739469432295200,5.195295166015625,-0.0008047595620155334,-0.002132529392838478,-0.005721115041524172
1746739469442375200,5.205375244140625,0.001998483669012785,0.00032290536910295486,-0.007556565571576357
1746739469452454100,5.2154541015625,0.0025405175983905792,0.002817056141793728,-0.00405971659347415
1746739469462534100,5.2255341796875,-0.0016257315874099731,0.007124452851712704,-0.0031750143971294165
1746739469472613000,5.235613037109375,-0.0007081679068505764,0.006294144317507744,0.003410213626921177
1746739469482692400,5.2456923828125,-0.004934337921440601,0.006885898299515247,0.006444619037210941
1746739469492772000,5.255772216796875,-0.004464348312467337,0.0035881660878658295,0.013471653684973717
1746739469502851300,5.265851318359375,-0.0058481269516050816,0.006986626423895359,0.015465829521417618
1746739469512931000,5.27593115234375,-0.006119641941040754,0.009922986850142479,0.013278207741677761
1746739469523010300,5.28601025390625,-0.0004934477619826794,0.004432614892721176,0.011021978221833706
1746739469533089300,5.29608935546875,-0.0019149621948599815,-0.0002350066788494587,0.010932347737252712
1746739469543169300,5.306169189453125,0.0006051873788237572,-0.00021503306925296783,0.009270002134144306
1746739469553248300,5.316248291015625,-0.0028296196833252907,0.0035603041760623455,0.0028782500885427
1746739469563328300,5.326328369140625,-0.003607795573771,0.006425332743674517,-0.004147168714553118
1746739469573407200,5.3364072265625,-0.0001718178391456604,-0.0000969916582107544,-0.008621083572506905
1746739469583487200,5.3464873046875,-0.00001975148916244507,-0.002784919925034046,-0.010181962512433529
1746739469593566200,5.356566162109375,0.0019554789178073406,-0.003827590961009264,-0.007724244147539139
1746739469603645200,5.366645263671875,0.00253072171472013,-0.006257991772145033,0.001133163459599018
1746739469613725200,5.37672509765625,0.00166360754519701,-0.006805456709116697,0.0031283386051654816
1746739469623804200,5.38680419921875,0.0024425822775810957,-0.007053663022816181,0.002588515868410468
1746739469633884200,5.39688427734375,0.0016630524769425392,-0.006365397945046425,-0.0008745284285396338
1746739469643963100,5.406963134765625,-0.0010637580417096615,-0.004087596200406551,-0.0026884074322879314
1746739469654043100,5.417043212890625,0.0017403066158294678,-0.001237319316715002,-0.003167906776070595
1746739469664122000,5.4271220703125,0.0011118007823824883,0.00023540854454040527,-0.010777623392641544
1746739469674201300,5.437201416015625,0.0012116692960262299,0.0038549108430743217,-0.009471609257161617
1746739469684281000,5.447281005859375,0.0013573439791798592,0.004575029946863651,-0.0072180419228971004
1746739469694360300,5.4573603515625,0.001418516505509615,0.00643807603046298,0.0012421696446835995
1746739469704440000,5.467440185546875,0.0047583868727087975,0.005094510968774557,0.006858244072645903
1746739469714519300,5.477519287109375,0.0037584970705211163,0.0016499385237693787,0.015317674726247787
1746739469724599000,5.48759912109375,0.0012218360789120197,0.0036337273195385933,0.020854651927947998
1746739469734678300,5.49767822265625,-0.0029852748848497868,0.006318846717476845,0.011219104751944542
1746739469744757200,5.50775732421875,-0.00190829299390316,0.0057350825518369675,0.006224079988896847
1746739469754837200,5.517837158203125,-0.0002680993638932705,0.0056659807451069355,0.0015405984595417976
1746739469764916200,5.527916259765625,-0.00047422805801033974,0.0015793605707585812,0.0016303469892591238
1746739469774996200,5.537996337890625,0.0014446787536144257,-0.002055793534964323,0.0003019803552888334
1746739469785075200,5.5480751953125,-0.0019409977830946445,-0.008777878247201443,-0.0014186881016939878
1746739469795155200,5.5581552734375,-0.000643028412014246,-0.007056936621665955,-0.004910868126899004
1746739469805234200,5.568234130859375,0.0009471452794969082,-0.006616982631385326,-0.010501641780138016
1746739469815313200,5.578313232421875,0.00009303959086537361,-0.00679461844265461,-0.007983901537954807
1746739469825393200,5.58839306640625,0.004636925179511309,-0.011447161436080933,-0.008191628381609917
1746739469835472100,5.59847216796875,0.004825164098292589,-0.004911355674266815,-0.004933031741529703
1746739469845552000,5.60855224609375,0.0016368278302252293,-0.005434933118522167,-0.0008171163499355316
1746739469855631000,5.618631103515625,0.0013648965395987034,-0.0023650028742849827,-0.0010335015831515193
1746739469865711000,5.628711181640625,0.001893267733976245,-0.003059555310755968,0.0012538875453174114
1746739469875790000,5.6387900390625,-0.002165168523788452,0.0030813696794211864,-0.0010870357509702444
1746739469885869300,5.648869384765625,-0.0023593129590153694,0.003747959155589342,0.0030661639757454395
1746739469895949000,5.658948974609375,-0.00104040140286088,0.0008233534172177315,0.003257833421230316
1746739469906028300,5.6690283203125,-0.003386646043509245,-0.003022517077624798,0.00794899184256792
1746739469916108000,5.67910791015625,0.0000256979838013649,-0.0030445782467722893,0.007968545891344547
1746739469926187300,5.689187255859375,0.0032696945127099752,-0.003795589553192258,0.004059824161231518
1746739469936267300,5.699267333984375,0.0032796512823551893,-0.004826768301427364,0.0005886477301828563
1746739469946346200,5.70934619140625,0.0009232861921191216,-0.006037973798811436,-0.006509209051728249
1746739469956425200,5.71942529296875,0.0031924378126859665,-0.007868857122957706,-0.0015036972472444177
1746739469966505200,5.729505126953125,0.0016334233805537224,-0.009902446530759335,-0.002644861815497279
1746739469976584200,5.739584228515625,-0.0011909864842891693,-0.01016845554113388,0.002801935886964202
1746739469986664000,5.749663818359375,-0.0019324105232954025,-0.005162778310477734,0.0068632569164037704
1746739469996743200,5.7597431640625,-0.00019650347530841827,-0.0003318651579320431,0.010200445540249348
1746739470006823200,5.7698232421875,0.001083145383745432,-0.00007407134398818016,0.009322933852672577
1746739470016902100,5.779902099609375,-0.000013126060366630554,-0.0011364840902388096,0.006494734901934862
1746739470026981000,5.789981201171875,0.0016148644499480724,0.000016665086150169373,0.0027378136292099953
1746739470037061000,5.80006103515625,-0.002917987760156393,-0.004297844599932432,-0.0005073259235359728
1746739470047140000,5.81014013671875,-0.0016593779437243938,-0.007143698632717133,-0.004690352827310562
1746739470057220000,5.82022021484375,-0.0018208101391792297,-0.008519012480974197,-0.008504005149006844
1746739470067299000,5.830299072265625,-0.004293821286410093,-0.00624493882060051,-0.005985986441373825
1746739470077379300,5.84037939453125,-0.00489318510517478,-0.005681868642568588,-0.006750657223165035
1746739470087458000,5.8504580078125,-0.00039404118433594704,-0.0064784204587340355,-0.006813774351030588
1746739470097537000,5.860537109375,-0.0014908919110894203,-0.00588100915774703,-0.0031423107720911503
1746739470107617000,5.870616943359375,-0.002484783995896578,-0.004363805986940861,-0.0033028991892933846
1746739470117696000,5.880696044921875,-0.0020246696658432484,-0.0015790406614542007,0.0007609664462506771
1746739470127776300,5.8907763671875,-0.00254584988579154,-0.002845640294253826,0.003191100899130106
1746739470137855000,5.90085498046875,-0.008629079908132553,-0.011045556515455246,0.004124159924685955
1746739470147935200,5.910935302734375,-0.00573475519195199,-0.014408063143491745,0.005764933302998543
1746739470158014000,5.921013916015625,-0.005892670247703791,-0.013265753164887428,0.0032564366701990366
1746739470168093200,5.93109326171875,-0.005814373027533293,-0.015644222497940063,-0.0015676131006330252
1746739470178173200,5.941173095703125,-0.006458555348217487,-0.01437464915215969,-0.0073814475908875465
1746739470188252200,5.951252197265625,-0.002366342581808567,-0.013332021422684193,-0.010812930762767792
1746739470198332200,5.961332275390625,0.002435336820781231,-0.011618277058005333,-0.010308527387678623
1746739470208411100,5.9714111328125,0.0015506348572671413,-0.009690947830677032,-0.009706387296319008
1746739470218490000,5.981489990234375,0.0009699161164462566,-0.007287832908332348,-0.004607534036040306
1746739470228570000,5.991570068359375,0.00008601322770118713,-0.0038584803696721792,-0.0010213213972747326
1746739470238649000,6.001649169921875,-0.00046151038259267807,-0.005149951204657555,0.004891830496490002
1746739470248729300,6.011729248046875,-0.0017339689657092094,-0.005464204587042332,0.00664232624694705
1746739470258808000,6.02180810546875,-0.0008937190286815166,-0.003915414679795504,0.009455293416976929
1746739470268888300,6.031888427734375,-0.004001095425337553,-0.001941213384270668,0.015192807652056217
1746739470278967000,6.041967041015625,-0.0042950729839503765,-0.001078038476407528,0.01613008603453636
1746739470289047300,6.05204736328125,-0.007291129324585199,-0.00025245873257517815,0.01648828200995922
1746739470299126300,6.062126220703125,-0.0035232300870120525,0.0007520243525505066,0.011103352531790733
1746739470309205000,6.072205078125,-0.0025535733439028263,0.002497193869203329,0.006553607992827892
1746739470319285200,6.08228515625,-0.0016508670523762703,0.000906157772988081,0.001189971691928804
1746739470329364000,6.092364013671875,0.0017129718326032162,-0.0045080482959747314,-0.002811427926644683
1746739470339444200,6.1024443359375,0.0015634875744581223,-0.0071116560138762,-0.012317965738475323
1746739470349523000,6.11252294921875,0.0008801203221082687,-0.005707903765141964,-0.018679991364479065
1746739470359602200,6.122602294921875,0.0020653544925153255,-0.004867450334131718,-0.01793813519179821
1746739470369682200,6.13268212890625,-0.0009397566318511963,0.000223448034375906,-0.013884537853300571
1746739470379761200,6.14276123046875,0.0017570522613823414,-0.001927405595779419,-0.0030997474677860737
1746739470389841200,6.152841064453125,-0.0007737497799098492,-0.0047162678092718124,0.0067334421910345554
1746739470399920000,6.162920166015625,-0.004105699714273214,-0.004047301597893238,0.010998311452567577
1746739470410000100,6.173000244140625,-0.006874588783830404,0.002880113199353218,0.01947861537337303
1746739470420079000,6.1830791015625,-0.007934261113405228,0.005821574479341507,0.02157984860241413
1746739470430158000,6.193157958984375,-0.011695975437760353,0.005591743625700474,0.02260436676442623
1746739470440238300,6.20323828125,-0.012623250484466553,-0.0022387057542800903,0.022784775123000145
1746739470450317000,6.213317138671875,-0.006038586143404245,-0.002058143261820078,0.014234963804483414
1746739470460397300,6.223397216796875,-0.004226804710924625,-0.004327446222305298,0.009930300526320934
1746739470470476000,6.23347607421875,0.0022654496133327484,-0.011617050506174564,-0.003006270620971918
1746739470480556300,6.243556396484375,0.0009708176366984844,-0.01245436817407608,-0.012651624158024788
1746739470490635300,6.25363525390625,0.0031697899103164673,-0.012365419417619705,-0.021120211109519005
1746739470500714000,6.2637138671875,-0.0017079398967325687,-0.01450139470398426,-0.027567759156227112
1746739470510794200,6.273794189453125,-0.0018485547043383121,-0.01185687631368637,-0.023750916123390198
1746739470520873000,6.283873046875,-0.003004262689501047,-0.012050491757690907,-0.01957562379539013
1746739470530953200,6.293953125,-0.003970191348344088,-0.015192755497992039,-0.006814022548496723
1746739470541032200,6.3040322265625,-0.004448146093636751,-0.016148662194609642,0.004468619357794523
1746739470551112200,6.3141123046875,-0.005059874150902033,-0.010278522968292236,0.008143515326082706
1746739470561191200,6.324191162109375,-0.003890052903443575,-0.011579006910324097,0.011337148025631905
1746739470571270100,6.334270263671875,-0.004592860583215952,-0.013567057438194752,0.01473747193813324
1746739470581350100,6.34435009765625,-0.004938748199492693,-0.0051422081887722015,0.009236428886651993
1746739470591429000,6.35442919921875,-0.005514523480087519,-0.003125662449747324,0.0063002933748066425
1746739470601509000,6.364509033203125,-0.004790259525179863,-0.0022437684237957,0.0038203937001526356
1746739470611588400,6.37458837890625,-0.0016080481000244617,-0.003098643384873867,-0.0012619828339666128
1746739470621668000,6.384668212890625,0.0019883427303284407,-0.004339204169809818,-0.00770631805062294
1746739470631747300,6.394747314453125,0.0015494534745812416,0.00029469607397913933,-0.00009047618368640542
1746739470641826000,6.404825927734375,0.0006911857053637505,-0.0018475307151675224,0.008174561895430088
1746739470651906300,6.41490625,0.001058169174939394,-0.004949847236275673,0.017330242320895195
1746739470661985300,6.4249853515625,-0.005215972196310759,-0.0035226589534431696,0.020765719935297966
1746739470672065300,6.435065185546875,-0.00479918671771884,-0.004047567956149578,0.017801621928811073
1746739470682144300,6.445144287109375,-0.004614641424268484,0.0017607053741812706,0.014237578958272934
1746739470692224300,6.455224365234375,-0.005200536455959082,-0.0015964754857122898,0.010875338688492775
1746739470702303200,6.46530322265625,-0.003013698384165764,0.0015938696451485157,0.007863800041377544
1746739470712382000,6.4753818359375,-0.0008560051210224628,0.0038442411459982395,0.002255982020869851
1746739470722462200,6.485462158203125,-0.003456235397607088,0.0011758548207581043,-0.0018134762067347765
1746739470732541200,6.495541259765625,-0.005366786848753691,0.002391588408499956,-0.0005189136136323214
1746739470742621200,6.50562109375,-0.00104040140286088,0.004692660644650459,-0.0014615543186664581
1746739470752700200,6.5157001953125,-0.0019083255901932716,0.007082048803567886,0.00017309391114395112
1746739470762780200,6.5257802734375,-0.0025826958008110523,0.004500973038375378,-0.001953422324731946
1746739470772859100,6.535859130859375,0.001027218997478485,0.00487940851598978,-0.004504730459302664
1746739470782938400,6.5459384765625,0.0019256554078310728,0.004108611959964037,0.00008796821930445731
1746739470793018000,6.55601806640625,0.0027309951838105917,0.00421833386644721,0.0037077367305755615
1746739470803097300,6.566097412109375,-0.0006960900500416756,0.0040023247711360455,0.007343543693423271
1746739470813177000,6.576177001953125,-0.003078287933021784,0.0028047016821801662,0.010301516391336918
1746739470823256300,6.58625634765625,-0.0003584236837923527,-0.0028344374150037766,0.014332073740661144
1746739470833336000,6.596336181640625,-0.0033464902080595493,-0.0011989902704954147,0.012166391126811504
1746739470843415300,6.606415283203125,-0.003190451767295599,0.0017191399820148945,0.014406773261725903
1746739470853494300,6.616494384765625,-0.003238655161112547,0.0010573440231382847,0.011886890046298504
1746739470863574300,6.62657421875,-0.004337092395871878,0.004661278333514929,0.004522415343672037
1746739470873653200,6.6366533203125,-0.0030380026437342167,0.006770235951989889,0.00247098202817142
1746739470883733000,6.64673291015625,-0.0011030081659555435,0.001956367399543524,-0.0007974980399012566
1746739470893812200,6.656812255859375,-0.0007860921323299408,-0.0005424767732620239,-0.0017658233409747481
1746739470903891200,6.66689111328125,0.0023710501845926046,0.000731002539396286,0.00019761284056585282
1746739470913971200,6.67697119140625,0.0006450554355978966,0.0012950599193572998,-0.001683377893641591
1746739470924050200,6.68705029296875,-0.0006992146372795105,0.0015296670608222485,-0.0031261835247278214
1746739470934130200,6.697130126953125,-0.0020507685840129852,-0.00210048770532012,-0.0006590310949832201
1746739470944209200,6.707209228515625,-0.0018962947651743889,-0.003119864035397768,-0.001063630566932261
1746739470954289200,6.7172890625,-0.0012366296723484993,-0.005855729803442955,-0.00013019260950386524
1746739470964368100,6.7273681640625,-0.0011441037058830261,-0.011761479079723358,0.005119886714965105
1746739470974447600,6.737447509765625,-0.0016184127889573574,-0.0028430847451090813,0.003246353007853031
1746739470984527600,6.747527587890625,0.000013505574315786362,-0.0021500829607248306,-0.0010617184452712536
1746739470994606800,6.75760693359375,-0.000018718652427196503,-0.00010371021926403046,-0.006840511690825224
1746739471004686600,6.7676865234375,0.0026985383592545986,0.0017402390949428082,-0.009622645564377308
1746739471014765800,6.777765869140625,0.003232235787436366,0.002407361287623644,-0.005783699452877045
1746739471024845600,6.787845458984375,0.0012877699919044971,0.00599312549456954,-0.0038066210690885782
1746739471034924800,6.7979248046875,0.001286970917135477,0.004121988546103239,0.004853446036577225
1746739471045003800,6.808003662109375,-0.00013723131269216537,0.004143698140978813,0.012431412003934383
1746739471055083800,6.818083740234375,-0.0020030420273542404,0.007351209409534931,0.017120972275733948
1746739471065162800,6.828162841796875,-0.005551089532673359,0.007469356060028076,0.017277192324399948
1746739471075242800,6.83824267578125,-0.006872816011309624,0.00791277177631855,0.017197297886013985
1746739471085321700,6.84832177734375,-0.006245017517358065,0.00719443429261446,0.01296638697385788
1746739471095401700,6.858401611328125,-0.0022140569053590298,0.002366122789680958,0.004069298505783081
1746739471105480700,6.868480712890625,-0.00023134425282478333,-0.0037022370379418135,-0.001387186930514872
1746739471115559700,6.8785595703125,0.0009396476671099663,-0.006680449936538935,-0.010741007514297962
1746739471125639700,6.8886396484375,0.005199176725000143,-0.012264546006917953,-0.017032543197274208
1746739471135718700,6.89871875,0.002598599996417761,-0.011497288942337036,-0.022201206535100937
1746739471145798700,6.908798583984375,-0.0010486687533557415,-0.009416582062840462,-0.019705740734934807
1746739471155877600,6.918877685546875,-0.0008531925268471241,-0.008955055847764015,-0.018611181527376175
1746739471165957600,6.92895751953125,-0.0017838981002569199,-0.007007199339568615,-0.017980094999074936
1746739471176036600,6.93903662109375,-0.0010645780712366104,-0.003815933596342802,-0.013423159718513489
1746739471186115800,6.94911572265625,-0.002484261989593506,-0.002646415028721094,-0.008056043647229671
1746739471196195600,6.959195556640625,-0.004710664972662926,0.0010351384989917278,-0.00009532283002045006
1746739471206274800,6.96927490234375,-0.007571107242256403,0.003671341110020876,0.006912501994520426
1746739471216354600,6.9793544921875,-0.005248564761132002,0.00634542154148221,0.008341553620994091
1746739471226433800,6.989433837890625,-0.0035016839392483234,0.006669872440397739,0.010330591350793839
1746739471236513500,6.999513427734375,-0.0029232450760900974,-0.00003250548616051674,0.013923462480306625
1746739471246592800,7.0095927734375,0.0008047646842896938,-0.0049882372841238976,0.010538016445934772
1746739471256671700,7.019671630859375,0.0016127675771713257,-0.00900747999548912,0.008213076740503311
1746739471266751700,7.029751708984375,0.0042659807950258255,-0.008493207395076752,-0.00021751970052719116
1746739471276830700,7.039830810546875,0.003209238639101386,-0.0031160186044871807,-0.004828783217817545
1746739471286910500,7.049910400390625,0.00130107207223773,-0.0035294219851493835,-0.00952387135475874
1746739471296989700,7.05998974609375,0.0029301277827471495,-0.0024282047525048256,-0.009272202849388123
1746739471307069400,7.0700693359375,0.0025873451959341764,-0.0033626840449869633,-0.00489323865622282
1746739471317148700,7.080148681640625,-0.00006889179348945618,-0.004870299249887466,-0.003750742645934224
1746739471327227600,7.0902275390625,0.004624940920621157,-0.004908834584057331,-0.006976161617785692
1746739471337307600,7.1003076171875,0.0007407204248011112,-0.005835614167153835,-0.005122335162013769
1746739471347386600,7.11038671875,0.00202629785053432,-0.004059798549860716,-0.004301898181438446
1746739471357466600,7.120466552734375,-0.00025017233565449715,0.0008603916503489017,-0.0031346348114311695
1746739471367545600,7.130545654296875,0.000845280010253191,0.0010409369133412838,-0.0055303191766142845
1746739471377625600,7.14062548828125,-0.0030160374008119106,0.00006435578688979149,-0.003390469355508685
1746739471387704600,7.15070458984375,-0.0020035975612699986,0.0009426833130419254,0.0008843414252623916
1746739471397783800,7.16078369140625,-0.0022696470841765404,0.0037531168200075626,0.004405040293931961
1746739471407863600,7.170863525390625,-0.005087155383080244,0.0010821116156876087,0.006658571772277355
1746739471417942800,7.18094287109375,-0.0038711554370820522,-0.0008886274881660938,0.0038966075517237186
1746739471428022500,7.1910224609375,0.0018644025549292564,-0.0026382403448224068,0.0016126278787851334
1746739471438101800,7.201101806640625,0.0034069055691361427,0.0001431652344763279,-0.003606635145843029
1746739471448181500,7.211181396484375,0.00496514281257987,0.0023707952350378036,-0.006851827725768089
1746739471458260500,7.221260498046875,0.003796015400439501,-0.0018678917549550533,-0.00661667063832283
1746739471468339700,7.231339599609375,0.0056739491410553455,-0.005935297347605228,-0.009241115301847458
1746739471478419500,7.24141943359375,0.004819606896489859,-0.000999128445982933,-0.011682434938848019
1746739471488498700,7.251498779296875,0.0007508876733481884,-0.0016945404931902885,-0.011779923923313618
1746739471498578400,7.261578369140625,-0.004257453605532646,-0.002614396158605814,-0.008666954934597015
1746739471508657700,7.27165771484375,-0.0025758519768714905,0.000802274327725172,-0.006669999100267887
1746739471518737700,7.281737548828125,0.0008321949280798435,-0.0011634049005806446,-0.003611891297623515
1746739471528816600,7.291816650390625,-0.001013896893709898,0.0005584098398685455,0.0018736229976639152
1746739471538895600,7.3018955078125,-0.0011688931845128536,0.0058186850510537624,0.004262744914740324
1746739471548975600,7.3119755859375,0.0021661606151610613,0.00598923210054636,0.00962807983160019
1746739471559054600,7.3220546875,0.0009525581263005733,0.0024195313453674316,0.011754347011446953
1746739471569134600,7.332134521484375,-0.0004849238321185112,0.003966743126511574,0.01178129855543375
1746739471579213600,7.342213623046875,-0.0009587001986801624,0.0012505855411291122,0.01036023534834385
1746739471589293800,7.3522939453125,-0.0015179752372205257,0.0034513412974774837,-0.000185817334568128
1746739471599372500,7.36237255859375,-0.0019310317002236843,-0.0017125285230576992,-0.0029776091687381268
1746739471609451800,7.37245166015625,0.001665417104959488,-0.00046948622912168503,-0.004379798658192158
1746739471619531500,7.382531494140625,-0.0005178423598408699,-0.0012471294030547142,-0.006286355666816235
1746739471629610500,7.392610595703125,0.0033544632606208324,-0.008174257352948189,-0.0068142772652208805
1746739471639690800,7.402690673828125,0.003188548143953085,-0.010311177000403404,-0.009539755992591381
1746739471649769500,7.41276953125,0.0041884263046085835,-0.006743913982063532,-0.017368217930197716
1746739471659849700,7.422849609375,0.003161777975037694,-0.007682411931455135,-0.023991765454411507
1746739471669928400,7.432928466796875,0.0033913536462932825,-0.007892721332609653,-0.02574312686920166
1746739471680007700,7.443007568359375,0.002970574190840125,-0.004980820696800947,-0.023734036833047867
1746739471690087700,7.453087646484375,0.0023041353560984135,-0.002004616428166628,-0.013756203465163708
1746739471700166700,7.463166748046875,-0.0009667589329183102,0.0022820071317255497,-0.008088996633887291
1746739471710246700,7.47324658203125,-0.003351375926285982,0.003185190260410309,0.002597866812720895
1746739471720325600,7.48332568359375,-0.0037223543040454388,0.004519966430962086,0.008360681124031544
1746739471730405600,7.493405517578125,-0.004041076637804508,0.004737218841910362,0.010105567052960396
1746739471740484600,7.503484619140625,-0.007556449621915817,0.008017434738576412,0.010133263655006886
1746739471750563600,7.5135634765625,-0.005187971983104944,0.010173222050070763,0.006635367404669523
1746739471760643800,7.523643798828125,-0.004485164303332567,0.009308494627475739,0.004847853444516659
1746739471770722600,7.53372265625,-0.0037315008230507374,0.002347709611058235,0.003680389141663909
1746739471780802800,7.543802734375,-0.0034132529981434345,0.0015506260097026825,-0.0020651144441217184
1746739471790881500,7.553881591796875,0.00033017760142683983,-0.003980577457696199,-0.0017883596010506153
1746739471800961800,7.5639619140625,0.0009706676937639713,-0.005559032782912254,-0.0065799192525446415
1746739471811040500,7.57404052734375,0.0008216006681323051,-0.004924647975713015,-0.009968874044716358
1746739471821119500,7.584119384765625,0.001657300628721714,-0.00023348955437541008,-0.014477073214948177
1746739471831199700,7.59419970703125,0.0017261262983083725,-0.0009926124475896358,-0.01352902315557003
1746739471841278500,7.604278564453125,0.0017037559300661087,-0.003061622381210327,-0.009902063757181168
1746739471851358700,7.614358642578125,0.0017357245087623596,-0.003705759532749653,-0.003698828397318721
1746739471861437400,7.6244375,-0.00041744112968444824,-0.002357667312026024,0.0025044726207852364
1746739471871517700,7.634517578125,-0.0018765977583825588,0.0016124914400279522,0.007164271082729101
1746739471881596700,7.6445966796875,0.0011801784858107567,0.006281279493123293,0.010041549801826477
1746739471891675600,7.654675537109375,-0.0016024312935769558,0.005954202730208635,0.011306983418762684
1746739471901755600,7.664755615234375,-0.0014295917935669422,0.003950707148760557,0.013550696894526482
1746739471911834600,7.674834716796875,0.000544295646250248,0.0029127486050128937,0.007999556139111519
1746739471921914600,7.68491455078125,-0.00035265693441033363,0.0023468267172574997,0.00710473395884037
1746739471931993600,7.69499365234375,0.0018126899376511574,-0.0008979891426861286,0.003181980922818184
1746739471942073600,7.705073486328125,0.00258740340359509,-0.00018772389739751816,-0.0015243574744090438
1746739471952152800,7.71515283203125,0.003468607785180211,0.0007288926281034946,-0.004933316260576248
1746739471962231600,7.7252314453125,0.005090472754091024,0.0023920368403196335,-0.006064893212169409
1746739471972311600,7.7353115234375,0.004402012098580599,-0.0020181345753371716,-0.0005634061526507139
1746739471982390500,7.745390625,0.005260881502181292,-0.0026072259061038494,-0.00053943763487041
1746739471992470500,7.755470458984375,0.0027438004035502672,-0.0004377742297947407,0.0017991847125813365
1746739472002549500,7.765549560546875,0.001058019232004881,0.0019521461799740791,0.0022364757023751736
1746739472012629500,7.77562939453125,-0.0011942959390580654,0.0025959969498217106,0.0034691349137574434
1746739472022708500,7.78570849609375,-0.0015554209239780903,0.0032929466105997562,0.002635032869875431
1746739472032787500,7.795787353515625,-0.0003744252026081085,0.00704945670440793,-0.0030217524617910385
1746739472042867500,7.805867431640625,0.00008017662912607193,0.005579391960054636,-0.0035743582993745804
1746739472052946400,7.815946533203125,-0.0003811996430158615,0.007027207408100367,-0.009578685276210308
1746739472063026400,7.8260263671875,0.0008726166561245918,0.0040473961271345615,-0.002556729130446911
1746739472073105400,7.83610546875,0.0024158472660928965,0.0007551074959337711,-0.004207311198115349
1746739472083185400,7.846185302734375,0.0028206477873027325,-0.0010233516804873943,0.00030621414771303535
1746739472093264400,7.856264404296875,0.0012189685367047787,-0.0010311435908079147,0.0064411708153784275
1746739472103343400,7.86634326171875,-0.0008769389241933823,0.0020581227727234364,0.009048937819898129
1746739472113423400,7.87642333984375,-0.0002860887907445431,0.0026407581754028797,0.011169582605361938
1746739472123502600,7.886502685546875,0.0011088750325143337,0.00046016229316592216,0.010418037883937359
1746739472133582300,7.896582275390625,-0.0026989709585905075,-0.0030751232989132404,0.006061390973627567
1746739472143661600,7.90666162109375,-0.0008273017592728138,-0.002357401419430971,-0.002031423384323716
1746739472153741300,7.9167412109375,-0.0005151205696165562,-0.003730055410414934,-0.008144194260239601
1746739472163820500,7.926820556640625,0.002502240939065814,-0.009157044813036919,-0.008082409389317036
1746739472173899500,7.9368994140625,-0.00012822169810533524,-0.0015813559293746948,-0.006246408447623253
1746739472183979500,7.9469794921875,-0.002080851700156927,0.0024940790608525276,-0.005021354183554649
1746739472194058500,7.95705859375,0.0002145492471754551,0.0035312757827341557,-0.0010666904272511601
1746739472204138500,7.967138427734375,-0.0033492930233478546,0.002823940012603998,-0.0012858685804530978
1746739472214217500,7.977217529296875,-0.00214237067848444,0.00298862811177969,0.0025169895961880684
1746739472224297500,7.98729736328125,-0.006799972616136074,0.0059889452531933784,0.004547383636236191
1746739472234376400,7.99737646484375,-0.006223467644304037,-0.001088957767933607,0.005770922172814608
1746739472244455400,8.007455322265624,-0.003136331681162119,0.0007803156040608883,0.0004009245312772691
1746739472254535400,8.017535400390624,-0.003803964238613844,0.002826317213475704,0.0023089491296559572
1746739472264614400,8.027614501953124,-0.0038188775070011616,-0.0026121241971850395,0.0047758352011442184
1746739472274694400,8.0376943359375,-0.001695284154266119,-0.0037472443655133247,0.009687302634119987
1746739472284773400,8.0477734375,-0.0009125811047852039,-0.002418327145278454,0.005363393574953079
1746739472294853400,8.057853271484374,0.000054344069212675095,-0.0009517441503703594,0.0021021694410592318
1746739472304932400,8.067932373046874,-0.0019800448790192604,0.0005755787715315819,-0.0030358671210706234
1746739472315011600,8.078011474609376,-0.003229147754609585,0.0013126400299370289,-0.00309004751034081
1746739472325091300,8.08809130859375,-0.0019060894846916199,0.0012503224425017834,-0.0059042093344032764
1746739472335170600,8.098170654296876,-0.0008526486344635487,0.0021061981096863747,-0.009231858886778355
1746739472345250300,8.108250244140624,-0.000053966883569955826,0.0010715601965785027,-0.007017973344773054
1746739472355329500,8.11832958984375,-0.001640003640204668,-0.002291372511535883,-0.00851798802614212
1746739472365409300,8.1284091796875,-0.004669882357120514,-0.0028940457850694656,-0.006585332565009594
1746739472375488500,8.138488525390626,-0.008722972124814987,0.00006156833842396736,-0.008832686580717564
1746739472385567500,8.1485673828125,-0.0014802394434809685,0.0038320720195770264,-0.00806383229792118
1746739472395647500,8.1586474609375,-0.001074107363820076,0.0019209878519177437,-0.008832686580717564
1746739472405726500,8.1687265625,-0.0000977925956249237,0.0016650576144456863,-0.005209989380091429
1746739472415806500,8.178806396484376,-0.001599825918674469,0.001523295883089304,-0.009558599442243576
1746739472425885400,8.188885498046876,-0.0004368238151073456,0.002379236277192831,-0.008910119533538818
1746739472435964400,8.19896435546875,-0.0012594740837812424,0.003732388373464346,-0.009320778772234917
1746739472446044400,8.20904443359375,-0.002492251805961132,0.005081546027213335,-0.0032879202626645565
1746739472456123400,8.219123291015626,-0.003791330847889185,-0.00038770679384469986,0.0009690773440524936
1746739472466203400,8.229203369140626,-0.003251241985708475,-0.0023376732133328915,0.006069296970963478
1746739472476282400,8.239282470703126,-0.0026101483963429928,-0.0024694795720279217,0.007728097029030323
1746739472486362400,8.2493623046875,-0.0009270310401916504,0.00038383109495043755,0.00792224146425724
1746739472496441300,8.25944140625,-0.0018643946386873722,0.0016099708154797554,0.006440375931560993
1746739472506521300,8.269521240234376,0.0017388621345162392,-0.000493926927447319,0.006482719909399748
1746739472516600300,8.279600341796876,0.0011560237035155296,0.00023014657199382782,0.003472448792308569
1746739472526679600,8.289679443359375,0.0015227408148348331,0.0007899431511759758,-0.0006631740834563971
1746739472536759300,8.29975927734375,-0.00033594854176044464,0.0015164325013756752,-0.0015051827067509294
1746739472546838500,8.309838623046875,0.0011341162025928497,0.0008698171004652977,-0.0015563153428956866
1746739472556918300,8.319918212890625,-0.0012457538396120071,0.0020080325193703175,-0.0018909919308498502
1746739472566997500,8.32999755859375,0.00045041367411613464,0.0014050924219191074,-0.0043152677826583385
1746739472577076500,8.340076416015625,0.0018517689313739538,-0.00028095440939068794,-0.0034121894277632236
1746739472587156500,8.350156494140625,0.0004711863584816456,-0.001367257907986641,-0.0009349171305075288
1746739472597235500,8.3602353515625,-0.0011945292353630066,0.000054519157856702805,0.00361567921936512
1746739472607315500,8.3703154296875,-0.0010419301688671112,0.00005931267514824867,0.005704929586499929
1746739472617394400,8.38039453125,-0.002672733273357153,-0.000533627811819315,0.008504942059516907
1746739472627474400,8.390474365234375,-0.0012836284004151821,0.003164969850331545,0.011764917522668839
1746739472637553400,8.400553466796875,-0.000653386116027832,0.006748293526470661,0.009780430234968662
1746739472647633700,8.410633544921875,0.0012502414174377918,0.003900042735040188,0.007242436986416578
1746739472657712400,8.42071240234375,-0.0006177914328873158,-0.0032352805137634277,0.004953930154442787
1746739472667791400,8.430791259765625,0.0017644059844315052,-0.0039050655905157328,-0.0032025331165641546
1746739472677871400,8.440871337890625,-0.000038761645555496216,-0.0021916483528912067,-0.007292367052286863
1746739472687950300,8.450950439453125,-0.002308840397745371,-0.0017466340214014053,-0.006623647641390562
1746739472698030600,8.461030517578125,0.0003607706166803837,0.00044748326763510704,-0.009507334791123867
1746739472708109300,8.471109375,0.003625007113441825,-0.002781333401799202,-0.005028431303799152
1746739472718189600,8.481189453125,0.0028013475239276886,-0.004038206301629543,-0.0033062254078686237
1746739472728268300,8.491268310546875,0.004103899467736483,-0.003236594842746854,0.005918432027101517
1746739472738347500,8.501347412109375,0.0022185086272656918,-0.0010943887755274773,0.011396986432373524
1746739472748427300,8.51142724609375,0.0012901308946311474,0.0019477400928735733,0.01104012317955494
1746739472758506500,8.521506591796875,0.0016677556559443474,0.004029718227684498,0.009927253238856792
1746739472768586500,8.53158642578125,-0.001136020291596651,0.00019796239212155342,0.0026688072830438614
1746739472778665500,8.54166552734375,-0.0026784315705299377,-0.0012586046941578388,-0.00369689310900867
1746739472788745500,8.551745361328125,-0.00006107660010457039,-0.0058938367292284966,-0.00506123062223196
1746739472798824400,8.561824462890625,-0.002043717075139284,-0.00669874157756567,-0.005094360094517469
1746739472808903400,8.5719033203125,0.0006921486929059029,-0.006405794061720371,-0.0066467165015637875
1746739472818983700,8.581983642578125,-0.0007424051873385906,-0.0035009020939469337,-0.002267361618578434
1746739472829062400,8.5920625,0.000020324252545833588,-0.002084366511553526,0.0027313916943967342
1746739472839142700,8.602142578125,0.0022155679762363434,0.000589447095990181,0.007077137473970652
1746739472849221400,8.612221435546875,-0.001157059334218502,0.004140240140259266,0.006413744296878576
1746739472859301400,8.62230126953125,0.0006289621815085411,0.0031442814506590366,0.008650030940771103
1746739472869380400,8.63238037109375,-0.000984380953013897,0.003844959195703268,0.007342951372265816
1746739472879459300,8.642459228515625,-0.003029618877917528,0.0038726762868463993,0.005307414568960667
1746739472889539600,8.65253955078125,0.0021566208451986313,-0.006649739574640989,0.005745770875364542
1746739472899618300,8.662618408203125,0.0022462166380137205,-0.009887266904115677,0.004079353529959917
1746739472909698600,8.672698486328125,0.003438780317083001,-0.007492818403989077,0.0006609200499951839
1746739472919777300,8.68277734375,0.004094949457794428,-0.007080004550516605,-0.005470813252031803
1746739472929857500,8.692857421875,0.00031911954283714294,-0.010332256555557251,-0.008554752916097641
1746739472939936500,8.7029365234375,0.0011636773124337196,-0.007334582973271608,-0.010441952385008335
1746739472950015500,8.713015380859375,0.0027442635037004948,-0.0062344311736524105,-0.0070434920489788055
1746739472960095500,8.723095458984375,0.00199978519231081,-0.0052958265878260136,-0.008353355340659618
1746739472970174500,8.733174560546875,0.001197640784084797,-0.01152043230831623,-0.008196495473384857
1746739472980254500,8.74325439453125,0.0022555848117917776,-0.009997929446399212,-0.0032229868229478598
1746739472990333400,8.75333349609375,-0.001210519578307867,-0.003279839176684618,0.003934791311621666
1746739473000413400,8.763413330078125,-0.004442750476300716,-0.0016639749519526958,0.006339140702039003
1746739473010492400,8.773492431640625,-0.001939911860972643,-0.00021175341680645943,0.012316339649260044
1746739473020571400,8.7835712890625,-0.00020217662677168846,-0.0007508816197514534,0.012905833311378956
1746739473030651400,8.7936513671875,-0.00014491891488432884,-0.00009201513603329659,0.011538033373653889
1746739473040730400,8.80373046875,-0.0033445688895881176,-0.0016387389041483402,0.00966007262468338
1746739473050810400,8.813810302734375,-0.0026082047261297703,-0.007406080607324839,0.009454210288822651
1746739473060889600,8.8238896484375,-0.0042097135446965694,-0.007513793185353279,0.0034354308154433966
1746739473070969300,8.83396923828125,-0.0014109970070421696,-0.0069177779369056225,0.0002465617726556957
1746739473081048600,8.844048583984375,-0.0008857520297169685,-0.006379000376909971,-0.002415883122012019
1746739473091127300,8.854127197265624,-0.0024402388371527195,-0.0038948035798966885,-0.009030641987919807
1746739473101207600,8.86420751953125,-0.00048466864973306656,-0.005961867980659008,-0.007996069267392159
1746739473111286500,8.87428662109375,0.002976908115670085,-0.00799119658768177,-0.005308673717081547
1746739473121366500,8.884366455078125,0.002117611002177,-0.010323530063033104,-0.00487481476739049
1746739473131445500,8.894445556640624,0.0021881847642362118,-0.00870406161993742,-0.0037975662853568792
1746739473141525500,8.904525390625,0.0005068727768957615,-0.005674920976161957,0.0013663204153999686
1746739473151604500,8.9146044921875,-0.0007871575653553009,-0.0025571584701538086,0.0008605860639363527
1746739473161683200,8.92468310546875,-0.0028770556673407555,-0.0020017679780721664,0.006992016918957233
1746739473171763500,8.934763427734374,-0.00272285845130682,0.0027053686790168285,0.011745493859052658
1746739473181842400,8.944842529296874,-0.004431426990777254,0.005417943466454744,0.010870344005525112
1746739473191922400,8.95492236328125,-0.0019991621375083923,0.0018029692582786083,0.013147080317139626
1746739473202001400,8.96500146484375,-0.00030638743191957474,0.002913260832428932,0.007963153533637524
1746739473212081400,8.975081298828124,0.002423885278403759,-0.0008420627564191818,0.008438262157142162
1746739473222160400,8.985160400390624,0.001365534495562315,-0.0004597143270075321,0.005722968373447657
1746739473232239400,8.9952392578125,-0.0012600761838257313,0.0018836013041436672,0.002720520133152604
1746739473242319400,9.0053193359375,-0.0011926982551813126,-0.000014699995517730713,0.0009678939823061228
1746739473252398600,9.015398681640624,-0.00006911065429449081,0.0009669414721429348,-0.000869953422807157
1746739473262478300,9.025478271484374,0.002758806338533759,-0.0012479927390813828,-0.003161432221531868
1746739473272557600,9.0355576171875,0.0008434606716036797,-0.0023121917620301247,-0.0009827001485973597
1746739473282637300,9.04563720703125,0.0010822322219610214,-0.0005370061844587326,0.001644585863687098
1746739473292716500,9.055716552734374,0.00014080479741096497,-0.0008528572507202625,0.00017771674902178347
1746739473302795500,9.06579541015625,0.0023116504307836294,-0.0015655220486223698,0.0014885120326653123
1746739473312875500,9.07587548828125,0.0001004277728497982,-0.005839629098773003,-0.0026846614200621843
1746739473322954500,9.08595458984375,0.0017682150937616825,-0.005498866084963083,-0.004594982601702213
1746739473333034500,9.096034423828126,0.0008638054132461548,-0.003587781684473157,-0.004527337849140167
1746739473343113500,9.106113525390626,0.00022556260228157043,-0.0025506019592285156,-0.006468018516898155
1746739473353193200,9.116193115234376,0.0010428866371512413,-0.0008810660801827908,-0.00685657374560833
1746739473363272400,9.1262724609375,-0.0007656658999621868,-0.0009953160770237446,-0.007885619066655636
1746739473373351400,9.136351318359376,-0.004057066980749369,0.0037946454249322414,-0.0037055215798318386
1746739473383431400,9.146431396484376,-0.004740874748677015,0.008184249512851238,-0.0026074473280459642
1746739473393510400,9.156510498046876,-0.0032036988995969296,0.0060752928256988525,-0.002314765937626362
1746739473403590400,9.16659033203125,-0.003303960897028446,0.006334991659969091,-0.0024632697459310293
1746739473413669400,9.17666943359375,-0.0005089729093015194,0.00352722080424428,0.00017192804079968482
1746739473423749400,9.186749267578126,-0.0012144558131694794,0.0017971508204936981,0.00260745408013463
1746739473433828400,9.196828369140626,-0.0011089947074651718,-0.0004902384243905544,0.004336378071457148
1746739473443907600,9.206907470703126,0.0007579508237540722,0.0010863733477890491,0.001457950915209949
1746739473453987300,9.2169873046875,-0.0008697728626430035,-0.002189315389841795,0.0012219947529956698
1746739473464066600,9.227066650390626,0.0008084811270236969,0.00013187574222683907,-0.003601972246542573
1746739473474146300,9.237146240234376,0.0019416562281548977,-0.0002750549465417862,-0.009097937494516373
1746739473484225500,9.2472255859375,-0.0007558236829936504,-0.0035123503766953945,-0.012495218776166439
1746739473494305300,9.25730517578125,0.00006389711052179337,-0.0002824687398970127,-0.014249175786972046
1746739473504384500,9.267384521484376,0.0018579636234790087,-0.0029321112670004368,-0.01107445266097784
1746739473514463500,9.27746337890625,-0.000037674326449632645,-0.0005762791261076927,-0.010011851787567139
1746739473524543200,9.287543212890625,0.0017009647563099861,0.0012106606736779213,-0.006122671999037266
1746739473534622500,9.29762255859375,-0.0005065295845270157,0.0032996442168951035,-0.0008565371972508729
1746739473544702200,9.3077021484375,-0.0028161858208477497,0.006601428613066673,0.00605089170858264
1746739473554781400,9.317781494140625,-0.004086513537913561,0.007447515614330769,0.007570757530629635
1746739473564861200,9.327861083984375,0.0004164637066423893,0.0010035289451479912,0.010739949531853199
1746739473574940400,9.3379404296875,-0.0011236420832574368,-0.0005107447504997253,0.01465586107224226
1746739473585019400,9.348019287109375,-0.0010293186642229557,0.000033729709684848785,0.01137729175388813
1746739473595099400,9.358099365234375,-0.0018415828235447407,0.00014531612396240234,0.009397231042385101
1746739473605178400,9.368178466796875,-0.0037034349516034126,-0.0011452953331172466,0.008461283519864082
1746739473615258400,9.37825830078125,-0.005595077760517597,0.004109121393412352,0.005753913428634405
1746739473625337300,9.38833740234375,-0.0008060070686042309,0.004785381723195314,0.0009684266988188028
1746739473635417300,9.398417236328125,-0.00320737948641181,0.00805015116930008,-0.007333977613598108
1746739473645496300,9.408496337890625,-0.002072745468467474,0.003925140481442213,-0.007873901166021824
1746739473655575600,9.418575439453125,-0.0015885825268924236,0.003389845136553049,-0.0066102310083806515
1746739473665655300,9.4286552734375,-0.006993329618126154,0.006599793676286936,-0.0013498549815267324
1746739473675734500,9.438734619140625,-0.004352804739028215,0.006959852296859026,0.0014547199243679643
1746739473685814300,9.448814208984375,-0.006387552246451378,0.008339455351233482,0.007875016890466213
1746739473695893200,9.458893310546875,-0.003925193101167679,0.008300039917230606,0.011379470117390156
1746739473705973500,9.468973388671875,-0.006437608040869236,0.008203447796404362,0.013884373940527439
1746739473716052200,9.47905224609375,-0.0033557983115315437,-0.0009911158122122288,0.011909639462828636
1746739473726131500,9.48913134765625,-0.003666461445391178,-0.003767767921090126,0.013394518755376339
1746739473736211200,9.499211181640625,-0.006304589100182056,-0.0031184894032776356,0.011470384895801544
1746739473746290400,9.50929052734375,-0.00461558997631073,-0.002738560549914837,0.0005225305212661624
1746739473756370400,9.519370361328125,-0.007488607428967953,-0.0009244154207408428,-0.002408544532954693
1746739473766449400,9.529449462890625,-0.007194282487034798,-0.0034950398840010166,-0.00514409551396966
1746739473776529400,9.539529296875,-0.0010061608627438545,-0.008138260804116726,-0.007907124236226082
1746739473786608400,9.5496083984375,0.0007564108818769455,-0.010062478482723236,-0.01123122964054346
1746739473796687400,9.559687255859375,0.0008059456013143063,-0.005954819265753031,-0.011086087673902512
1746739473806767400,9.569767333984375,0.003981337882578373,-0.008139613084495068,-0.01136462390422821
1746739473816846300,9.579846435546875,0.0009890105575323105,-0.011978027410805225,-0.008434614166617393
1746739473826926600,9.589926513671875,0.0015970324166119099,-0.00675620511174202,-0.006258942652493715
1746739473837005300,9.60000537109375,-0.0023452453315258026,-0.00456362497061491,-0.003894055960699916
1746739473847085600,9.61008544921875,-0.00459200469776988,-0.0005858060903847218,0.0017351030837744474
1746739473857164300,9.620164306640625,-0.004746200982481241,0.004765816032886505,0.0017670609522610903
1746739473867243300,9.6302431640625,-0.0021879798732697964,0.005922613199800253,0.004910721443593502
1746739473877323300,9.6403232421875,-0.0017158016562461853,0.0028024534694850445,0.004231082741171122
1746739473887402200,9.65040234375,0.0027032620273530483,0.0035740723833441734,0.005961456336081028
1746739473897482500,9.660482421875,0.000408682506531477,0.0021439548581838608,0.0038921807426959276
1746739473907561200,9.670561279296875,0.00027558254078030586,0.00012175599113106728,0.00006173839210532606
1746739473917641500,9.680641357421875,0.0024141010362654924,-0.005241850391030312,-0.0004549148434307426
1746739473927720200,9.69072021484375,0.0007907189428806305,-0.0024859104305505753,-0.0013229871401563287
1746739473937799400,9.70079931640625,-0.0020290357060730457,-0.0037839349824935198,-0.002082520630210638
1746739473947879400,9.71087939453125,-0.0026535806246101856,-0.0012866654433310032,0.0025198839139193296
1746739473957958400,9.72095849609375,-0.0018474417738616467,0.00156105263158679,0.007291469722986221
1746739473968038400,9.731038330078125,-0.0006360174156725407,-0.0019307425245642662,0.010134613141417503
1746739473978116900,9.741116943359375,-0.0033806716091930866,-0.0007448368705809116,0.013845461420714855
1746739473988197000,9.751197021484375,-0.0012477925047278404,0.0043856180272996426,0.013138610869646072
1746739473998276000,9.761276123046875,-0.0007697548717260361,0.002781329210847616,0.007172863930463791
1746739474008355000,9.77135498046875,0.00028369948267936707,-0.002602165564894676,0.0050089918076992035
1746739474018435000,9.78143505859375,0.00006878282874822617,-0.0023009623400866985,-0.002767171710729599
1746739474028513800,9.791513671875,-0.00009606685489416122,-0.0009158519096672535,-0.00797604862600565
1746739474038594000,9.801593994140624,0.0029340775217860937,-0.00080533092841506,-0.011607002466917038
1746739474048673000,9.811673095703124,0.003607069607824087,-0.002327513415366411,-0.014647332020103931
1746739474058753000,9.8217529296875,0.001800913829356432,-0.0027498905546963215,-0.01027255691587925
1746739474068832000,9.83183203125,-0.000011877622455358505,0.001094810664653778,-0.006061164662241936
1746739474078911000,9.841910888671874,0.0016406141221523285,0.0024817846715450287,-0.004425185266882181
1746739474088991000,9.851990966796874,0.0010053003206849098,0.0022632847540080547,-0.0015681814402341843
1746739474099070000,9.862070068359374,0.0012551047839224339,0.004840425681322813,0.006794676650315523
1746739474109150000,9.87214990234375,0.0018182354979217052,0.0009495876729488373,0.010138642974197865
1746739474119229200,9.882229248046874,0.0009447187185287476,-0.0009135599248111248,0.013033765368163586
1746739474129309000,9.892308837890624,0.0000567873939871788,0.0008132569491863251,0.012755926698446274
1746739474139388200,9.90238818359375,-0.0003943522460758686,0.00029873428866267204,0.010807824321091175
1746739474149467000,9.912466796875,-0.0022768238559365273,0.003908527549356222,0.008851432241499424
1746739474159547100,9.922547119140624,-0.0010027680546045303,0.0020879902876913548,0.0021264173556119204
1746739474169626000,9.932626220703124,-0.0017601707950234413,0.00509869446977973,0.0004864428483415395
1746739474179706000,9.9427060546875,-0.0017367349937558174,0.0019654850475490093,-0.004130413290113211
1746739474189785000,9.95278515625,-0.00215623015537858,0.0034516709856688976,-0.0036478969268500805
1746739474199865000,9.962864990234374,-0.00158285116776824,0.006145724561065435,-0.007657552137970924
1746739474209944000,9.972944091796874,0.00003513507544994354,0.008214879781007767,-0.005200021900236607
1746739474220023000,9.98302294921875,0.0013193110935389996,0.007452949415892363,0.0021148829255253077
1746739474230103000,9.99310302734375,0.00047380290925502777,0.0019487855024635792,0.0057945773005485535
1746739474240182000,10.00318212890625,0.001239994540810585,0.004818873945623636,0.010366958566009998
1746739474250262000,10.013261962890626,-0.0007923450320959091,0.006823068484663963,0.012364744208753109
1746739474260341000,10.023341064453126,-0.004291738849133253,0.005636629648506641,0.008754296228289604
1746739474270421000,10.0334208984375,-0.0038588689640164375,-0.0024691703729331493,0.008578291162848473
1746739474280500000,10.0435,-0.001676409039646387,-0.002003649715334177,0.006644038017839193
1746739474290579200,10.0535791015625,-0.00033714063465595245,0.0005678553134202957,0.005440175533294678
1746739474300659000,10.063658935546876,-0.0017126635648310184,-0.003036999609321356,0.003668374614790082
1746739474310738200,10.07373828125,-0.002118412870913744,-0.002891446463763714,0.00039531438960693777
1746739474320818000,10.08381787109375,0.0012169298715889454,0.0025406028144061565,-0.00615606177598238
1746739474330897200,10.093897216796876,-0.0005532843060791492,-0.0005282377824187279,-0.012968895025551319
1746739474340977000,10.103976806640626,0.0027173436246812344,-0.0019128154963254929,-0.013941481709480286
1746739474351056100,10.11405615234375,0.002757405396550894,-0.006616679020226002,-0.011745782569050789
1746739474361135000,10.124135009765626,0.0025424882769584656,-0.005313594359904528,-0.011397440917789936
1746739474371215000,10.134215087890626,0.0029372808057814837,0.0017415941692888737,-0.007090049795806408
1746739474381294000,10.144294189453126,0.0015548337250947952,0.0035834363661706448,-0.0010950079886242747
1746739474391374000,10.1543740234375,-0.0032905894331634045,0.005698846187442541,0.005076352972537279
1746739474401453000,10.164453125,-0.003939867485314608,0.006915644276887178,0.012306569144129753
1746739474411533000,10.174532958984376,-0.003702959045767784,0.006024205591529608,0.014655024744570255
1746739474421612000,10.184612060546876,-0.006880376487970352,0.006994395051151514,0.01869210973381996
1746739474431691000,10.19469091796875,-0.0035131946206092834,0.00768181262537837,0.016097115352749825
1746739474441771000,10.20477099609375,-0.004020260646939278,0.0032918578945100307,0.011687987484037876
1746739474451850000,10.21485009765625,-0.0003295568749308586,-0.002433955669403076,0.005031244829297066
1746739474461930000,10.224929931640625,0.0009120088070631027,-0.009167758747935295,-0.0005776387406513095
1746739474472009000,10.235009033203125,0.0006569004617631435,-0.00981447845697403,-0.007582149934023619
1746739474482089000,10.2450888671875,0.002993291709572077,-0.011818240396678448,-0.015326888300478458
1746739474492168000,10.25516796875,0.0018277999479323626,-0.008839677087962627,-0.016328023746609688
1746739474502248000,10.265248046875,0.0002240445464849472,-0.006166662555187941,-0.01827159710228443
1746739474512327000,10.275326904296875,0.00006138300523161888,-0.005537684541195631,-0.011789214797317982
1746739474522406100,10.28540625,-0.004094745963811874,-0.0018345587886869907,-0.010687997564673424
1746739474532486000,10.29548583984375,-0.00031803641468286514,0.0038889413699507713,-0.004308810457587242
1746739474542565000,10.305565185546875,-0.0018110047094523907,0.007747329771518707,0.00010005278454627842
1746739474552644900,10.315644775390625,-0.001190731767565012,0.008720611222088337,0.009720858186483383
1746739474562724000,10.32572412109375,-0.0013638371601700783,0.0049184150993824005,0.015706045553088188
1746739474572804000,10.33580419921875,-0.0008226251229643822,0.0036440324038267136,0.02042994275689125
1746739474582883000,10.345883056640625,-0.0034240009263157845,0.0019950028508901596,0.019784925505518913
1746739474592962000,10.355962158203125,-0.001101108267903328,-0.00008555781096220016,0.013632653281092644
1746739474603042000,10.3660419921875,-0.0031003430485725403,-0.0009130020625889301,0.008319913409650326
1746739474613121000,10.37612109375,-0.00025296397507190704,-0.0028595924377441406,0.002729977248236537
1746739474623201000,10.386200927734375,-0.0022532641887664795,0.0007929326966404915,-0.004568948410451412
1746739474633280000,10.396280029296875,0.0005440176464617252,0.0005079777911305428,-0.0019585052505135536
1746739474643360300,10.4063603515625,0.0007615978829562664,0.0024278508499264717,-0.0021574432030320168
1746739474653439000,10.41643896484375,0.0018684412352740765,-0.003263614373281598,0.0028182107489556074
1746739474663518000,10.42651806640625,-0.0009249481372535229,-0.0024257837794721127,0.0035324704367667437
1746739474673598000,10.436597900390625,-0.00184674933552742,-0.001341179944574833,0.0005860971286892891
1746739474683677000,10.446677001953125,-0.0030177412554621696,0.0008165128529071808,-0.00044188305037096143
1746739474693757200,10.456757080078125,-0.0029925666749477386,-0.0013043214567005634,-0.0030710760038346052
1746739474703836000,10.4668359375,-0.00036855367943644524,0.0009441860020160675,-0.002837516600266099
1746739474713916200,10.476916259765625,-0.000013625714927911758,0.0006282487884163857,-0.002820168621838093
1746739474723995000,10.486994873046875,0.0018119709566235542,-0.000006915070116519928,-0.0033935473766177893
1746739474734074000,10.49707421875,0.002407858846709132,-0.0005887756124138832,-0.0008210995001718402
1746739474744153900,10.50715380859375,0.00046827876940369606,0.0018661264330148697,0.0012335292994976044
1746739474754233000,10.517233154296875,-0.00045302510261535645,0.004709438420832157,0.004804597701877356
1746739474764313000,10.52731298828125,-0.0013329335488379002,0.005464976653456688,0.005445087794214487
1746739474774392000,10.53739208984375,-0.0014280197210609913,0.006528829224407673,0.004155916161835194
1746739474784472000,10.54747216796875,-0.00020190002396702766,0.006024425849318504,0.0027878505643457174
1746739474794551000,10.557551025390625,0.0011815433390438557,0.0037474031560122967,0.001097891479730606
1746739474804630000,10.567630126953125,0.00024970294907689095,0.00455114571377635,0.0024704847019165754
1746739474814710000,10.5777099609375,-0.001323554664850235,0.006269457750022411,0.0008218222064897418
1746739474824789000,10.5877890625,0.0007547764107584953,0.002282172441482544,-0.001488736248575151
1746739474834869000,10.597868896484375,-0.0046931104734539986,0.00023324321955442429,-0.0027163089253008366
1746739474844948000,10.607947998046875,-0.004876335151493549,-0.0009305584244430065,-0.005620486102998257
1746739474855028000,10.618028076171875,-0.006331420503556728,-0.0002821246162056923,-0.006958851125091314
1746739474865107000,10.62810693359375,-0.0020346762612462044,-0.0018784231506288052,-0.008572726510465145
1746739474875186000,10.63818603515625,-0.0009236279875040054,0.0008311816491186619,-0.00873425044119358
1746739474885266200,10.64826611328125,0.003804281819611788,-0.0015542120672762394,-0.0018864645389840007
1746739474895345000,10.658344970703125,0.0019146993290632963,-0.0020535755902528763,0.0024388583842664957
1746739474905425200,10.668425048828125,0.00008377619087696075,-0.0012466376647353172,-0.0002637175493873656
1746739474915503900,10.67850390625,0.0002128705382347107,0.00002393638715147972,0.0009531636605970562
1746739474925584100,10.688584228515625,-0.004435943439602852,0.0016617807559669018,-0.0009424743475392461
1746739474935663000,10.6986630859375,-0.00243539921939373,0.00488857040181756,-0.0027990988455712795
1746739474945742000,10.7087421875,-0.002850586548447609,0.0002179187722504139,-0.00287819467484951
1746739474955822000,10.718822021484375,-0.004861298017203808,-0.0032335000578314066,-0.005119157489389181
1746739474965901000,10.728901123046874,0.00012307427823543549,-0.001468357164412737,-0.0059271608479321
1746739474975981600,10.738981689453125,0.002590080024674535,-0.0069716754369437695,-0.0033112731762230396
1746739474986060300,10.749060302734375,0.0035437580663710833,-0.007146645337343216,-0.0033879722468554974
1746739474996140500,10.759140625,0.0040993536822497845,-0.005560833960771561,-0.0035830331034958363
1746739475006219300,10.76921923828125,0.001264152117073536,-0.002836686559021473,-0.005818756762892008
1746739475016298200,10.77929833984375,-0.00019719963893294334,-0.0003265184350311756,-0.006357042118906975
1746739475026378500,10.78937841796875,0.0028561146464198828,-0.0036125928163528442,-0.007981304079294205
1746739475036457200,10.799457275390624,0.00019930116832256317,-0.007924985140562057,-0.012112103402614594
1746739475046537500,10.809537353515625,0.0005969107151031494,-0.007480769883841276,-0.0106814531609416
1746739475056616200,10.8196162109375,-0.0009718728251755238,-0.002573259174823761,-0.006110539194196463
1746739475066696400,10.829696533203125,-0.0009060925804078579,-0.0024150675162672997,-0.000060103542637079954
1746739475076775400,10.839775390625,0.0005995337851345539,0.00040671415627002716,0.004752629902213812
1746739475086854400,10.8498544921875,-0.0009757261723279953,0.006439573131501675,0.007703146431595087
1746739475096934400,10.859934326171874,-0.002873965073376894,0.007272693328559399,0.015680592507123947
1746739475107013400,10.870013427734374,-0.004347757901996374,0.005834054201841354,0.012639529071748257
1746739475117093400,10.88009326171875,-0.0064232973381876945,0.005357304587960243,0.009190356358885765
1746739475127172400,10.89017236328125,-0.005295981653034687,0.003201475366950035,0.0011388212442398071
1746739475137252400,10.90025244140625,-0.0014069783501327038,0.0016775340773165226,-0.0004483575758058578
1746739475147331600,10.91033154296875,-0.0002839234657585621,-0.0022913748398423195,-0.008228516206145287
1746739475157411300,10.920411376953124,0.00010328879579901695,-0.006868098396807909,-0.012368867173790932
1746739475167490600,10.930490478515624,0.0027422152925282717,-0.008218587376177311,-0.016282647848129272
1746739475177569300,10.9405693359375,0.002820373745635152,-0.006630318704992533,-0.0181440319865942
1746739475187649500,10.9506494140625,0.003927716054022312,-0.008168560452759266,-0.01845002919435501
1746739475197728500,10.960728515625,0.005457771476358175,-0.006518445443361998,-0.01563381962478161
1746739475207808500,10.97080859375,0.0018574441783130169,-0.0038771224208176136,-0.009210808202624321
1746739475217887500,10.980887451171874,0.0021093098912388086,0.002459848765283823,-0.005753675475716591
1746739475227966200,10.99096630859375,0.005839333403855562,0.00433791009709239,0.00252476055175066
1746739475238046500,11.00104638671875,0.0018201018683612347,0.004468752536922693,0.004592107143253088
1746739475248125400,11.01112548828125,0.0021162452176213264,0.00583175802603364,0.006253386847674847
1746739475258205400,11.021205322265626,0.0005434872582554817,0.005998003762215376,0.007944258861243725
1746739475268284400,11.031284423828126,-0.00009220931679010391,0.005646200384944677,0.007909371517598629
1746739475278364400,11.041364501953124,-0.0006715627387166023,0.0013724802993237972,0.001445115078240633
1746739475288443400,11.051443359375,0.0023295532446354628,-0.0013316934928297997,0.0015452499501407146
1746739475298523400,11.0615234375,0.0037231966853141785,-0.0020440081134438515,0.00023783861252013594
1746739475308602400,11.071602294921876,0.003876328468322754,-0.0020669111981987953,-0.003117744345217943
1746739475318681600,11.081681640625,0.005029709544032812,-0.003790219547227025,-0.0039708237163722515
1746739475328761300,11.09176123046875,0.0026578980032354593,-0.0024932599626481533,-0.003116748295724392
1746739475338840600,11.101840576171876,0.002480601891875267,-0.0033912579528987408,-0.004704874474555254
1746739475348920300,11.11192041015625,-0.0003990740515291691,-0.002509485464543104,-0.0016912411665543914
1746739475358999600,11.12199951171875,-0.0011714496649801731,-0.0036780193913728,-0.001411858364008367
1746739475369079300,11.132079345703126,0.0007513528689742088,-0.004928373731672764,0.0006041545420885086
1746739475379158500,11.142158447265626,0.0010199849493801594,-0.00646671699360013,0.0009582375059835613
1746739475389237500,11.152237548828126,0.0022530287969857454,-0.0026354934088885784,0.0014136381214484572
1746739475399317500,11.1623173828125,0.0015457849949598312,-0.0023908326402306557,-0.003611428663134575
1746739475409396500,11.172396484375,0.003300009062513709,-0.0019277092069387436,-0.0056378282606601715
1746739475419476500,11.1824765625,0.006132397335022688,-0.0018766974098980427,-0.008135907351970673
1746739475429555500,11.192555419921876,0.00480401236563921,0.002777975518256426,-0.004589376039803028
1746739475439635500,11.202635498046876,0.0029753809794783592,0.0034109442494809628,-0.004863446112722158
1746739475449714400,11.21271435546875,0.00484571885317564,0.003445299807935953,-0.008175619877874851
1746739475459793400,11.22279345703125,0.0031701407860964537,0.002746386919170618,-0.007997823879122734
1746739475469873400,11.232873291015625,0.005557131953537464,0.007550463546067476,-0.0027801585383713245
1746739475479952400,11.242952392578125,0.002375939628109336,0.008193226531147957,-0.0015490283258259296
1746739475490032400,11.253032470703126,0.001420930027961731,0.011590355075895786,0.0015977626899257302
1746739475500111400,11.263111328125,0.0003039417788386345,0.01214754767715931,0.010415240190923214
1746739475510191400,11.27319140625,0.0010011573322117329,0.006175943184643984,0.01588324084877968
1746739475520270300,11.283270263671875,-0.001149564515799284,0.0047587319277226925,0.01415170356631279
1746739475530350300,11.293350341796875,0.0022515584714710712,0.0013410975225269794,0.005682585295289755
1746739475540429300,11.30342919921875,0.0030898163095116615,0.0041983406990766525,0.0009788785828277469
1746739475550508500,11.313508544921875,0.03363121300935745,-0.08224441111087799,-0.15443602204322815
1746739475560588300,11.32358837890625,-0.01023324765264988,-0.0074767121113836765,-0.11581715941429138
1746739475570667500,11.33366748046875,0.027455274015665054,0.018545035272836685,-0.04433418810367584
1746739475580747300,11.343747314453125,0.04344870150089264,-0.0015734480693936348,-0.035468943417072296
1746739475590826500,11.353826416015625,0.007636376190930605,-0.006720273289829493,-0.032868899405002594
1746739475600906500,11.363906494140625,-0.006574492901563644,-0.03132898360490799,-0.05845610052347183
1746739475610985500,11.3739853515625,-0.009666688740253448,0.004701720550656319,0.008208676241338253
1746739475621064400,11.384064453125,-0.00004662247374653816,-0.014868272468447685,0.000005690919351764023
1746739475631144200,11.394144287109375,0.005467984825372696,-0.004847596399486065,-0.007046359591186047
1746739475641223400,11.404223388671875,0.008099940605461597,0.013494802638888359,-0.004424259997904301
1746739475651303200,11.41430322265625,0.0031829464714974165,0.0030341711826622486,-0.000897169578820467
1746739475661382400,11.42438232421875,0.0004389304667711258,-0.00269795348867774,0.0018174225697293878
1746739475671462400,11.43446240234375,-0.0024580559693276882,-0.00797287654131651,0.00005281199992168695
1746739475681541400,11.444541259765625,-0.003506994806230068,-0.003098125569522381,-0.006437727250158787
1746739475691621400,11.454621337890625,-0.004397023469209671,-0.00373142515309155,-0.009309946559369564
1746739475701700400,11.464700439453125,-0.0010682577267289162,-0.011697636917233467,-0.015396484173834324
1746739475711779300,11.474779296875,0.0018071574158966541,-0.012105366215109825,-0.01593843847513199
1746739475721859300,11.484859375,0.0019540246576070786,-0.01572943665087223,-0.01469350978732109
1746739475731938300,11.494938232421875,0.002851243596524,-0.012392496690154076,-0.012127287685871124
1746739475742018600,11.5050185546875,-0.0008755940943956375,-0.005812705494463444,-0.004467171151190996
1746739475752097300,11.51509716796875,-0.0038447529077529907,0.0010100463405251503,0.00593247264623642
1746739475762177500,11.525177490234375,-0.005081617273390293,0.006931402254849672,0.013490207493305206
1746739475772256300,11.53525634765625,-0.0035412441939115524,0.0061018276028335094,0.01206754706799984
1746739475782336500,11.54533642578125,-0.0033643883652985096,0.0017727562226355076,0.007206878624856472
1746739475792415500,11.55541552734375,-0.0033904877491295338,-0.0015961425378918648,0.0013708273181691766
1746739475802494200,11.565494140625,-0.004382051061838865,-0.005474258214235306,-0.0039327749982476234
1746739475812574500,11.575574462890625,-0.0032880245707929134,-0.006345910951495171,-0.011981912888586521
1746739475822653200,11.585653076171875,0.00006636558100581169,-0.008313680067658424,-0.012330420315265656
1746739475832733400,11.5957333984375,0.0009164470247924328,-0.010754999704658985,-0.012193534523248672
1746739475842812400,11.6058125,0.0018252807203680277,-0.007510202005505562,-0.007567607332020998
1746739475852892400,11.615892333984375,0.000559480395168066,-0.006125624757260084,-0.001492404262535274
1746739475862971400,11.625971435546875,-0.0019987300038337708,-0.004719579592347145,0.00022307115432340652
1746739475873051400,11.636051513671875,-0.001323085743933916,-0.0022271270863711834,0.0015218948246911168
1746739475883130400,11.64613037109375,-0.0010023722425103188,0.0004411144182085991,0.002767372177913785
1746739475893209300,11.656209228515625,-0.003492694813758135,0.0014515174552798271,0.003627040423452854
1746739475903289300,11.666289306640625,0.0006026234477758408,0.004231675062328577,0.00469385227188468
1746739475913368600,11.67636865234375,-0.00045651569962501526,0.004267894197255373,0.0050832065753638744
1746739475923448300,11.6864482421875,-0.000362553633749485,-0.0017278054729104042,0.009748216718435287
1746739475933527600,11.696527587890625,-0.0007894583977758884,-0.0014098240062594414,0.00658917473629117
1746739475943607300,11.706607177734375,-0.0009142686612904072,0.0003192839212715626,0.0019063228974118829
1746739475953686500,11.7166865234375,0.0005869553424417973,0.0038807294331490993,-0.0007549740257672966
1746739475963765500,11.726765625,-0.0012126346118748188,0.001381967682391405,-0.0047337873838841915
1746739475973845500,11.736845458984375,0.0000694110058248043,-0.000020985491573810577,-0.004483450204133987
1746739475983925000,11.746925048828125,-0.0001939418725669384,-0.0005517746321856976,-0.0019033118151128292
1746739475994004700,11.757004638671875,-0.00026265159249305725,0.0009047077037394047,0.0020405633840709925
