time,seconds_elapsed,roll,rotationRateZ,quaternionY,rotationRateY,quaternionZ,quaternionW,yaw,devicelocation,accelerationZ,pitch,gravityX,gravityZ,quaternionX,rotationRateX,accelerationX,gravityY,accelerationY
1746576171905946000,0.219946044921875,-0.9012514845167805,-0.06138617545366287,-0.4242489644215887,0.014080293476581573,1.5364813204349806e-17,0.8946663814873663,-0.12296125037176263,right,-0.2849814295768738,-0.2531037835158501,-7.444449159738421,-5.892383383622765,-0.13994605270289068,0.01706305518746376,0.8728653192520142,2.4556837183400986,0.21071085333824158
1746576171945945900,0.25994580078125,-0.32908929487285676,-0.06931190937757492,-0.1777921104349953,0.031708404421806335,0.11801597276013784,0.954808004736475,0.1695812837739351,right,-0.03097003698348999,-0.4523134935714474,-2.850613302758336,-8.347145018681884,-0.20689129496689648,0.02864205092191696,0.40313807129859924,4.285972269335389,0.008477240800857544
1746576171985945900,0.29994580078125,-0.023411052273732906,-0.05503968149423599,-0.05235538947697166,0.03259836137294769,0.17169539996005068,0.9562394733241233,0.3496168288796161,right,0.0009069442749023438,-0.477841659958873,-0.20384917775029315,-8.705816418021916,-0.23105368374830723,-0.006918452680110931,0.12687081098556519,4.509721988010406,-0.017818480730056763
1746576172025945900,0.33994580078125,0.05922971539503705,-0.03513610363006592,-0.017973913559978186,0.04745475947856903,0.18508266627826755,0.954031816071148,0.39750412637107385,right,0.007524669170379639,-0.4725154526281603,0.5168977485511451,-8.716786140325665,-0.2350415472230431,-0.008948574773967266,0.052243638783693314,4.4632764631778,-0.011840671300888062
1746576172065946000,0.379946044921875,0.10147338964379748,-0.01983891986310482,0.00006307680431206905,0.06321895122528076,0.19143060188757632,0.9527082420201796,0.4207069255520783,right,0.007863879203796387,-0.46640214999513924,0.8873036440223455,-8.714163390606641,-0.23601127919364087,-0.028155487030744553,0.012121632695198059,4.409811414971948,-0.0020838677883148193
1746576172105946000,0.419946044921875,0.1101270158101227,-0.024826429784297943,0.0038574972593946135,0.07431894540786743,0.19202820722498087,0.9524466253591741,0.4240437505424203,right,0.0020058155059814453,-0.46578066454731015,0.9629795741882174,-8.708881066289544,-0.23654970478590948,-0.012161293998360634,0.012967616319656372,4.404366885830462,0.010432839393615723
1746576172145946000,0.459946044921875,0.11877547914481737,-0.029813941568136215,0.007651860475107253,0.0854189395904541,0.19262286287956928,0.95217054637183,0.4273732233952902,right,-0.003907561302185059,-0.4651333252348485,1.0385986596003174,-8.703056305658817,-0.23708453002061378,0.003832899034023285,0.013819403946399689,4.398693808630108,0.022972792387008667
1746576172185946000,0.499946044921875,0.12218086610489486,-0.03885623440146446,0.009021381606503374,0.05749796703457832,0.19203576256523122,0.9519101348266191,0.4272597248510723,right,-0.003506004810333252,-0.4675477605502313,1.066932408354804,-8.688902108100056,-0.23855373848221023,-0.018056774511933327,0.011992603540420532,4.419842979642748,0.020468860864639282
1746576172225945900,0.53994580078125,0.12559011141572626,-0.04789852350950241,0.010390854710458869,0.029576994478702545,0.19144779208706075,0.9516455544184289,0.427155313188418,right,-0.003119528293609619,-0.469962653973615,1.0952085817031563,-8.674600026503205,-0.24002192769872402,-0.03994644433259964,0.010171681642532349,4.44097052334547,0.017967194318771362
1746576172265945900,0.57994580078125,0.12900327695711059,-0.05694081634283066,0.011760285312800036,0.001656021922826767,0.19085901374702466,0.9513767035139961,0.4270600852617486,right,-0.00274813175201416,-0.4723777366060088,1.1234269604496656,-8.660150060868263,-0.24148900689225766,-0.0618361160159111,0.008356668055057526,4.46207380938977,0.015467971563339233
1746576172305945900,0.61994580078125,0.1304047037571112,-0.04022315889596939,0.012149298217989697,0.006680612452328205,0.1899098481253203,0.9510681454432847,0.4258695536545472,right,0.005275726318359375,-0.4762101932463915,1.1333303686961531,-8.641547651728986,-0.24342570668451705,-0.0011279513128101826,0.0065555572509765625,4.495508753740787,0.01041322946548462
1746576172345946000,0.659946044921875,0.1319289290054941,-0.032192643731832504,0.012940045814438807,0.021202415227890015,0.18880695220687027,0.9510781124530336,0.42410140227439325,right,0.00221407413482666,-0.4775727339748093,1.145693883445859,-8.63373025597632,-0.24420243713056755,-0.015971001237630844,0.0061757490038871765,4.507379808798432,-0.0025584399700164795
1746576172385946000,0.699946044921875,0.13309008561773258,0.003804456442594528,0.013369507800825794,0.020307419821619987,0.18846728179079844,0.950942111449328,0.4238512399554382,right,0.006266891956329346,-0.4789705809085757,1.1548810331817716,-8.626140823760629,-0.2449703643888712,-0.020482009276747704,0.006447844207286835,4.519549846802652,-0.0166018009185791
1746576172425946000,0.739946044921875,0.13491519709642727,0.01398299727588892,0.013909672017684118,-0.004611242562532425,0.18876571056748997,0.9506399282978613,0.4251348099392641,right,-0.004277050495147705,-0.48051779651840915,1.1696807621024548,-8.617078980904816,-0.2458816008184484,-0.06813029944896698,0.004278652369976044,4.533009924617409,-0.00715482234954834
1746576172465945900,0.77994580078125,0.1354601819583006,0.009988214820623398,0.013776465658118074,-0.003931849729269743,0.1891090874838834,0.9502786771998579,0.42627369534214504,right,-0.003851771354675293,-0.4828030042478945,1.1729748352117835,-8.606153682264685,-0.24701917959719716,-0.07430848479270935,0.003159545361995697,4.552870517124235,-0.0041276514530181885
1746576172505945900,0.81994580078125,0.13600872585074444,0.0059934318996965885,0.013643229758996593,-0.003252456896007061,0.18945217272056836,0.9499158490515398,0.4274153075221335,right,-0.003431379795074463,-0.4850875386186212,1.1762821331288664,-8.595181621873378,-0.248156339531305,-0.08048667758703232,0.002039097249507904,4.572701591275632,-0.0010973811149597168
1746576172545945900,0.85994580078125,0.1364474621246657,0.004218474496155977,0.01347916168471998,-0.003142749425023794,0.18974761949052546,0.9495714285176245,0.4284236118467008,right,0.0006066560745239258,-0.487316896471235,1.1786634753074496,-8.584543908002972,-0.24925564841478215,-0.06573659926652908,0.002476736903190613,4.592030561123788,0.0027008354663848877
1746576172585946000,0.899946044921875,0.13690431005695192,-0.013996116816997528,0.013400121270226327,0.012644495815038681,0.1897437150759485,0.9492843517180372,0.4288084509005383,right,0.00798875093460083,-0.4895495364558035,1.1811829838477075,-8.57382669915557,-0.2503536260621944,-0.04549738019704819,0.003433145582675934,4.611365083929896,0.0014127790927886963
1746576172625946000,0.939946044921875,0.1377010122801215,-0.017360664904117584,0.013663275434917082,0.021030332893133163,0.18936999240221503,0.9491516661154866,0.4284133194861117,right,0.005536854267120361,-0.4910309642214524,1.1870743799738586,-8.566106918558479,-0.2511243130347883,-0.02299332432448864,0.0038974732160568237,4.624181310883164,-0.00006699562072753906
1746576172665946000,0.979946044921875,0.13843964071105735,-0.014838851056993008,0.013918721721577995,0.021390458568930626,0.18901293031750271,0.9490385618439491,0.4280174334713936,right,0.011500835418701172,-0.492335909284293,1.1925674974974245,-8.559244047051667,-0.2518060423510257,-0.043493568897247314,0.0023731067776679993,4.635462583354116,-0.008764892816543579
1746576172705945900,1.01994580078125,0.14024865695751718,-0.00036708544939756393,0.014460343446690423,0.032164059579372406,0.18874183556762497,0.9487141669178145,0.428248572669534,right,0.011570394039154053,-0.4949242357996172,1.2063680593129247,-8.545163499251007,-0.2531971905051734,-0.07632891088724136,-0.0006214827299118042,4.6578152849376195,-0.012395709753036499
1746576172745945900,1.05994580078125,0.14169177999709373,-0.0021318038925528526,0.014699212194287724,0.04034467414021492,0.18863902938287072,0.9482731994245341,0.428836026838505,right,0.019128859043121338,-0.4982580595519518,1.2164989196397364,-8.527993753263354,-0.25490639510736507,-0.12878119945526123,0.0018085017800331116,4.686559733384847,-0.007348358631134033
1746576172785945900,1.09994580078125,0.1431397732870897,-0.0038965228013694286,0.014938043790343388,0.04852529242634773,0.1885356086877168,0.9478291286472557,0.42942997512006975,right,0.026676297187805176,-0.5015910705999115,1.2266110022008418,-8.510715286204219,-0.2566147835347169,-0.1812334954738617,0.004240378737449646,4.715245437382161,-0.002294987440109253
1746576172825946000,1.139946044921875,0.14486274035138477,-0.026798656210303307,0.014685123071583367,0.04419275373220444,0.18781923629815092,0.9467256791505946,0.4295900003479112,right,0.016418635845184326,-0.5109764136482748,1.2348299644917249,-8.46442407515049,-0.2611873121104917,-0.24208605289459229,0.004993721842765808,4.795737900984287,0.003474891185760498
1746576172865946000,1.179946044921875,0.14659664025272004,-0.0497007891535759,0.014431876292475623,0.03986021876335144,0.18709860166708958,0.9456006706011735,0.42976949575012485,right,0.006083369255065918,-0.5203614460964886,1.2428751776508986,-8.417372985640167,-0.2657539057490383,-0.3029386103153229,0.005764797329902649,4.875805124911666,0.009288191795349121
1746576172905946000,1.219946044921875,0.1474218908568003,-0.051291827112436295,0.013401697841128591,0.017562856897711754,0.18598527410430313,0.9440621147969606,0.4293821436121514,right,0.006031990051269531,-0.533510300088004,1.240296120943129,-8.352202886593341,-0.271986324270471,-0.274063378572464,0.00875072181224823,4.987259420749544,0.012495219707489014
1746576172945945900,1.25994580078125,0.14817997374047936,-0.04407242313027382,0.012589688024617145,0.005486621521413326,0.1849085749333213,0.9427481292752308,0.4288103958576353,right,-0.0164642333984375,-0.5446607433524958,1.2383400184392928,-8.295741579180955,-0.2772659098265305,-0.1787039339542389,0.010304108262062073,5.081099149441719,0.03144925832748413
1746576172985945900,1.29994580078125,0.14777017372076845,-0.02634366787970066,0.012112463599049437,0.003567867912352085,0.18434886076454887,0.9423845358995266,0.4279820386758057,right,-0.013160288333892822,-0.5482317447379221,1.2322608446560799,-8.278248592588305,-0.27889080799885707,-0.11862422525882721,0.009010076522827148,5.111019071409106,0.021567344665527344
1746576173025945900,1.33994580078125,0.14735606175910487,-0.008614914491772652,0.011635202631348858,0.0016491141868755221,0.18378857141667615,0.942018003175052,0.4271503277361701,right,-0.009866774082183838,-0.5518026546145822,1.2261451382547617,-8.26065214562118,-0.28051481971034875,-0.05854451656341553,0.007719799876213074,5.140872942402958,0.011692166328430176
1746576173065946000,1.379946044921875,0.14755664746680078,0.018222354352474213,0.011325849951157211,0.0022028593812137842,0.18380014105992784,0.9415947146058629,0.4276397426784252,right,0.0053359270095825195,-0.5548054091482247,1.2255270794216542,-8.24509977170229,-0.2819372734248903,-0.05280199646949768,0.005458042025566101,5.165926135116815,0.0007926225662231445
1746576173105946000,1.419946044921875,0.14860526323585568,0.009575680829584599,0.011326031317199179,0.0046443333849310875,0.1839945081420764,0.9411082817395894,0.42877201936858345,right,0.002985715866088867,-0.5577870597671011,1.2318863122552632,-8.228540266567467,-0.28343063139799773,-0.06409706175327301,0.0035220682621002197,5.190757209512591,0.0014979243278503418
1746576173145946000,1.459946044921875,0.14965983052977555,0.0009290073066949844,0.011326180664937678,0.00708580669015646,0.18418840655368096,0.9406195341144751,0.4299101158446627,right,0.0006274580955505371,-0.5607677951433495,1.2382507327206431,-8.211900681933761,-0.2849233098743843,-0.07539212703704834,0.001585543155670166,5.215535092416405,0.002208709716796875
1746576173185946000,1.499946044921875,0.1500331711299764,-0.014150625094771385,0.011016931008828883,-0.014212056063115597,0.18418969765131096,0.9401096852630396,0.43051399526264533,right,-0.002091050148010254,-0.5643134522642062,1.238544601100683,-8.19310187343955,-0.2866124338003457,-0.07457894086837769,0.0024070143699645996,5.244947649383545,0.007711291313171387
1746576173225945900,1.53994580078125,0.14937715430083037,-0.009089922532439232,0.01034854400770623,-0.02933051437139511,0.18406538440033543,0.9397008370022691,0.43049400566621515,right,-0.00007790327072143555,-0.567540867757303,1.2306439109787344,-8.177130981847643,-0.28805427720481713,-0.06883496791124344,0.0013341009616851807,5.27166322235167,0.005728542804718018
1746576173265945900,1.57994580078125,0.1488664414139134,-0.002310657873749733,0.009814522563068577,-0.01936882920563221,0.1841123962456217,0.9393849873911146,0.4307522883509973,right,0.004871845245361328,-0.5698246811470649,1.2246786458987742,-8.165830420154332,-0.28907125254934873,-0.06585891544818878,0.0004888176918029785,5.290535096082091,0.0028070807456970215
1746576173305945900,1.61994580078125,0.1483557673271204,0.004468606784939766,0.00928051051759749,-0.009407144971191883,0.18415914425716293,0.9390678574491192,0.43100962738123955,right,0.009816765785217285,-0.5721087570261343,1.2187191529724746,-8.154482512187958,-0.29008787257002844,-0.06288286298513412,-0.00035703182220458984,5.309381250849366,-0.00011175870895385742
1746576173345946000,1.659946044921875,0.14944232865457246,0.02387705259025097,0.009170689183880415,0.0062447478994727135,0.18465984562099302,0.9384863441757595,0.43284657186424924,right,-0.0004953145980834961,-0.5752364494879892,1.225100305376947,-8.136692588475347,-0.2916505506791455,-0.05987625941634178,-0.0013845041394233704,5.335142884093523,0.0038945674896240234
1746576173500962600,1.814962646484375,0.15346832712296896,0.00765863386914134,0.009238422416955301,-0.021704908460378647,0.18598531140657817,0.9367807592926234,0.4382148307985869,right,-0.0017634376417845488,-0.5842954568742804,1.250408788026124,-8.083598127147555,-0.2962530322295542,-0.05193722993135452,0.004329805262386799,5.409464257845282,0.007998359389603138
1746576173540962600,1.854962646484375,0.1532920495130594,0.01632634922862053,0.00877629491780712,-0.015941256657242775,0.18640485864399323,0.9364300564499786,0.4393236536842176,right,-0.0016647577285766602,-0.586171285848217,1.2474322564333677,-8.073775821313262,-0.29711103498068225,-0.03841855376958847,0.004670694470405579,5.42479860509932,0.007616579532623291
1746576173580962300,1.89496240234375,0.15346343061713935,0.02371269464492798,0.008622862948853945,-0.017091235145926476,0.1867486052326301,0.9362309491199086,0.4402350203557823,right,-0.0013016462326049805,-0.5870257768404213,1.2481069408245384,-8.068978065642714,-0.29752689683129235,-0.023965487256646156,0.004322156310081482,5.431777211940288,0.010977685451507568
1746576173620962300,1.93496240234375,0.15353527363289368,0.011025235056877136,0.00835565544527489,-0.016207722947001457,0.1873248419740748,0.9359911894800282,0.44160930873285065,right,-0.004937887191772461,-0.5878615197064134,1.2479919361427425,-8.064399505680798,-0.2979265466350607,-0.006464783102273941,0.004245862364768982,5.438599166914821,0.012512803077697754
1746576173660962300,1.97496240234375,0.15243557390711907,0.008088060654699802,0.00788922721052543,-0.021237509325146675,0.18740624079825663,0.9360356343995706,0.4414100991990177,right,-0.003785073757171631,-0.5877003013980364,1.2392558181099593,-8.066633548343182,-0.297748077441888,0.0010495036840438843,0.0036804229021072388,5.437283408141136,0.00996387004852295
1746576173700962300,2.01496240234375,0.15133608897664932,0.005150886252522469,0.0074228088086039055,-0.026267295703291893,0.18748760029114128,0.936079915383885,0.4412112076287598,right,-0.0026332736015319824,-0.58753903161086,1.2305180926419794,-8.068857654133438,-0.297569567264908,0.00856379047036171,0.0031151622533798218,5.435967064845562,0.00741499662399292
1746576173740962600,2.054962646484375,0.15023675348563376,0.0022137113846838474,0.0069563973681777014,-0.03129708394408226,0.1875688696360981,0.9361240012819892,0.44101247577703384,right,-0.0014823079109191895,-0.5873776156364268,1.2217783213473856,-8.07107299209535,-0.29739098290805854,0.016078077256679535,0.002550087869167328,5.434649552506208,0.004866302013397217
1746576173780962600,2.094962646484375,0.14888589527249282,0.011247057467699051,0.006416318244953627,-0.02770773507654667,0.1877740458752844,0.936228382663038,0.4409242873856349,right,-0.0006835460662841797,-0.5866890824061379,1.211429142094776,-8.076414937645197,-0.29694487410007153,0.01741591840982437,-0.0007419884204864502,5.4290282054930925,0.0019472837448120117
1746576173820962300,2.13496240234375,0.1477357858559319,0.013209820725023746,0.0058774572800428925,-0.01934436522424221,0.18837924937768644,0.9362921818262819,0.44170998699167313,right,0.001999974250793457,-0.5856790184401801,1.2029461951054632,-8.083222864094376,-0.2963710226467291,0.018386557698249817,0.0006035491824150085,5.4207765099763865,0.007700741291046143
1746576173860962300,2.17496240234375,0.14644121700383494,-0.0032926471903920174,0.005301763329887141,-0.03774542734026909,0.1885666999235291,0.9363277398278143,0.4416706839597993,right,0.0025258660316467285,-0.5854653405051388,1.192649842018634,-8.08591867904961,-0.2961499114957677,0.008748105727136135,-0.0001587793231010437,5.419029958570003,0.004141867160797119
1746576173900962300,2.21496240234375,0.14453350703196868,-0.01755739375948906,0.004549110611611824,-0.036005694419145584,0.18857154176305768,0.9364452943511944,0.44102355165595575,right,0.0058852434158325195,-0.585075330180519,1.1775264341015368,-8.090270444518326,-0.2957876201580551,0.014115609228610992,0.0013142675161361694,5.4158419761836525,0.0042266845703125
1746576173940962300,2.25496240234375,0.14268527350395618,-0.013087470084428787,0.0038226385196395377,-0.01844479888677597,0.18838424074242113,0.9365348313889871,0.44004658875254427,right,0.01191037893295288,-0.5851233269112427,1.1625347628053277,-8.092175401356815,-0.29563366380943185,0.000848657451570034,-0.0001290440559387207,5.4162341903716325,-0.0010924339294433594
1746576173980962600,2.294962646484375,0.14227789423688234,-0.002996698021888733,0.0034734067113596735,-0.018070027232170105,0.1883348424433845,0.9363480858596431,0.44001045884767165,right,0.0035046935081481934,-0.5865574780411882,1.1581354318678379,-8.084950710800289,-0.296260298769375,-0.023338880389928818,-0.0016987770795822144,5.427953269737959,0.0024840831756591797
1746576174020962600,2.334962646484375,0.14187003967852072,0.007094074040651321,0.0031241761219152446,-0.01769525557756424,0.18828527533382539,0.9361608173736329,0.43997344883049067,right,-0.004902839660644531,-0.587991663084581,1.1537359547998756,-8.077707900065183,-0.29688679315732514,-0.047526419162750244,-0.003268502652645111,5.439661243188381,0.0060617923736572266
1746576174060962600,2.374962646484375,0.14160411298198625,0.01003225240856409,0.00272161970667599,-0.011805292218923569,0.18854919393786773,0.9358907524673288,0.44066496205895195,right,-0.0017011761665344238,-0.5895262209915869,1.1504084178123621,-8.069740866708756,-0.297574046527157,-0.030668288469314575,-0.0005121529102325439,5.452176441368461,0.007073104381561279
1746576174100962300,2.41496240234375,0.14159710733310266,0.015926750376820564,0.0025262975172173313,-0.012901904992759228,0.18884004209079877,0.9357235374184992,0.44138664163045166,right,-0.010738193988800049,-0.5902657025271976,1.1497825409989804,-8.065755596464872,-0.29791701088697065,-0.012152474373579025,-0.0009052157402038574,5.458202862051129,0.008029758930206299
1746576174140962300,2.45496240234375,0.1410605522160318,0.013528448529541492,0.002185397187011362,-0.012841411866247654,0.18923511452109204,0.9356718779162206,0.44204957012569307,right,-0.0026169419288635254,-0.5901883412378393,1.1455139968343078,-8.066789031165838,-0.2978312346286074,0.0192636139690876,-0.0009357929229736328,5.457572162932157,0.006736576557159424
1746576174180962300,2.49496240234375,0.1408626877977026,0.002230202779173851,0.0021912647447048994,-0.003137916326522827,0.18949787575917115,0.9358126779469068,0.4423718409892536,right,-0.0024209022521972656,-0.5889115082230106,1.1448952804140746,-8.073908507782221,-0.2972211824763554,0.035027481615543365,-0.0012171268463134766,5.447164750686287,0.008384644985198975
1746576174220962300,2.53496240234375,0.14055099508147703,0.003089605364948511,0.002227990926536652,0.002523201983422041,0.18956619561174806,0.9360145181472778,0.44222549771690806,right,0.013476788997650146,-0.5875084783965193,1.1434482234109193,-8.081824103212355,-0.2965411776802905,0.045144371688365936,-0.001213274896144867,5.435718058520555,-0.0058373212814331055
1746576174260962600,2.574962646484375,0.14055099508147703,0.0029367846436798573,0.002227990926536652,-0.0043639070354402065,0.18956619561174806,0.9360145181472778,0.44222549771690806,right,0.01900339126586914,-0.5875084783965193,1.1434482234109193,-8.081824103212355,-0.2965411776802905,-0.002205975353717804,0.0003419145941734314,5.435718058520555,-0.014316976070404053
1746576174300962600,2.614962646484375,0.14055099508147703,0.002783964155241847,0.002227990926536652,-0.011251015588641167,0.18956619561174806,0.9360145181472778,0.44222549771690806,right,0.024529993534088135,-0.5875084783965193,1.1434482234109193,-8.081824103212355,-0.2965411776802905,-0.049556318670511246,0.0018971115350723267,5.435718058520555,-0.022796630859375
1746576174340962300,2.65496240234375,0.14093920797178838,0.025432446971535683,0.0020312735366766364,0.005618967115879059,0.18985577822270508,0.9356525203521819,0.4432412266147153,right,0.009676933288574219,-0.5894911464077238,1.145069394871965,-8.070693637388944,-0.29749795446407007,-0.07872089743614197,0.0029020607471466064,5.451890610164404,-0.009772181510925293
1746576174380962300,2.69496240234375,0.142056360667078,0.029568400233983994,0.0018428632643803212,-0.011542785912752151,0.19041355760420128,0.9349833699533497,0.4452809365052089,right,-0.0011841654777526855,-0.5930216067961068,1.1513525667946785,-8.050304929354786,-0.29924118736349614,-0.11151367425918579,0.0018163695931434631,5.4806350586116315,0.0012876391410827637
1746576174420962300,2.73496240234375,0.14342307457396153,0.04394099861383438,0.0016586236560136836,0.0009177140891551971,0.19119016166413746,0.9342314225093633,0.44790255032545795,right,-0.011002719402313232,-0.5967308159403825,1.159440376986563,-8.028548440098762,-0.30109001813498687,-0.09408669173717499,0.003677546977996826,5.510761316806078,0.012453198432922363
1746576174460962300,2.77496240234375,0.14482873120496498,0.03447283059358597,0.0015526169950718551,-0.00909809023141861,0.19201079385556108,0.9335547741258772,0.45055538199860834,right,-0.01925414800643921,-0.5998381575393608,1.1682475874941796,-8.009927326259017,-0.3026630818886323,-0.08250374346971512,0.001976519823074341,5.535940766248107,0.021659493446350098
1746576174500962600,2.814962646484375,0.14524976075665313,0.010011663660407066,0.001227808644891749,-0.017794478684663773,0.19263611084573945,0.9330912490599549,0.4523388001344065,right,-0.014179527759552002,-0.6019818275657263,1.1698995924849063,-7.997674578407406,-0.30369488379424814,-0.04039357230067253,0.002792149782180786,5.553280608105659,0.02412247657775879
1746576174540962600,2.854962646484375,0.14456644134768923,-0.00040575210005044937,0.0007345729783160423,-0.01884085312485695,0.19292545036674244,0.9329300305319799,0.45285401130035047,right,-0.003293633460998535,-0.6028016701941967,1.1637780408646912,-7.993963448929787,-0.3040077978012885,-0.0056542158126831055,0.0007007792592048645,5.559904994681477,0.014044880867004395
1746576174580962300,2.89496240234375,0.14456644134768923,0.0018250311259180307,0.0007345729783160423,-0.009382952004671097,0.19292545036674244,0.9329300305319799,0.45285401130035047,right,0.000043272972106933594,-0.6028016701941967,1.1637780408646912,-7.993963448929787,-0.3040077978012885,-0.00957430712878704,0.0008596330881118774,5.559904994681477,0.0035671591758728027
1746576174620962300,2.93496240234375,0.14456644134768923,0.004055814817547798,0.0007345729783160423,0.00007494911551475525,0.19292545036674244,0.9329300305319799,0.45285401130035047,right,0.0033801794052124023,-0.6028016701941967,1.1637780408646912,-7.993963448929787,-0.3040077978012885,-0.013494400307536125,0.0010184869170188904,5.559904994681477,-0.006910562515258789
1746576174660962300,2.97496240234375,0.14468434480966677,0.015475038439035416,0.0005944214879276444,0.001153886434622109,0.19299805128471853,0.9327322190023594,0.4532187160035141,right,0.011063873767852783,-0.603991193359764,1.1637661312311887,-7.987275933989882,-0.30456838212113485,-0.03179951012134552,0.00009543448686599731,5.569510442894697,-0.011981666088104248
1746576174700962300,3.01496240234375,0.14544895455083803,0.0016622301191091537,0.0005791603256649497,0.011056886054575443,0.19313159852845968,0.9323667848257036,0.4540544133338013,right,0.009700596332550049,-0.6060692497836233,1.16819300776273,-7.97491563411057,-0.3056012551837937,-0.08063195645809174,-0.0004691481590270996,5.58627160808146,-0.002981722354888916
1746576174740962600,3.054962646484375,0.1462816761624826,-0.0209745354950428,0.0003275521318897749,0.014903970062732697,0.19289532597325726,0.9316571255281492,0.4545203345067828,right,0.0056588053703308105,-0.6108935895513647,1.1708915261317043,-7.947184746620058,-0.3079062087432889,-0.17608234286308289,-0.0009398162364959717,5.625090875819325,0.0030990242958068848
1746576174780962600,3.094962646484375,0.1475015085266343,-0.0282730869948864,-0.0001408204135842985,0.03727603331208229,0.1922779134334107,0.9304606716589991,0.45482644449220727,right,0.0005401372909545898,-0.6192779822318047,1.1736121102020143,-7.89882140546739,-0.3118848753093815,-0.24906471371650696,0.0002799481153488159,5.692244257637858,0.0099717378616333
1746576174820962300,3.13496240234375,0.14938501140282956,-0.06574466824531555,-0.0008151366041733177,0.045883629471063614,0.19119243442899675,0.9286230432691827,0.4550351070346808,right,-0.001020193099975586,-0.632121438672303,1.1775090445753187,-7.823653644019365,-0.3179685880695629,-0.4069059491157532,-0.001280456781387329,5.794333343759178,0.010710537433624268
1746576174860962300,3.17496240234375,0.14955462063432756,-0.0831959992647171,-0.003380630287680471,0.030620764940977097,0.18904218065159975,0.9252559281912089,0.4540445659690077,right,0.006561338901519775,-0.6558702674249386,1.1580020878117532,-7.685187422615289,-0.32886631382577053,-0.4752100110054016,0.001102745532989502,5.980577215382456,-0.008021414279937744
1746576174900962300,3.21496240234375,0.14969725855235858,-0.10064733773469925,-0.005945648402805372,0.01535790041089058,0.18686529288623313,0.9217581095538537,0.4530406911808327,right,0.013704657554626465,-0.6796192562995212,1.1375908756848423,-7.542424380800128,-0.3397175709022578,-0.54351407289505,0.0035781338810920715,6.163448980224132,-0.026409506797790527
1746576174940962300,3.25496240234375,0.1490908173914578,-0.10932637006044388,-0.00829519674210588,-0.0011052470654249191,0.18501805031188998,0.9188388442915477,0.45183278783347947,right,-0.012801706790924072,-0.6990020963854274,1.1150596757292748,-7.423563608098029,-0.34847493091064935,-0.44191187620162964,0.0049524083733558655,6.310129487743973,0.021729707717895508
1746576174980962600,3.294962646484375,0.14603552537956224,-0.07197841256856918,-0.010903096924043997,0.015583174303174019,0.18290211381150015,0.9166649175544723,0.44847114839403207,right,0.0006563067436218262,-0.7143838241634233,1.0781206687800586,-7.33003367600739,-0.35518083578740783,-0.2394857108592987,0.004376009106636047,6.424846584770083,-0.016578257083892822
1746576175020962600,3.334962646484375,0.14574980407164145,-0.018346477299928665,-0.01145693098674954,0.010554740205407143,0.18205518038701274,0.9158923783210423,0.44735427522457305,right,-0.015293538570404053,-0.7197373543663892,1.0710154398847371,-7.296205056163668,-0.35758328105337545,-0.06713034212589264,0.004647806286811829,6.464418132179975,0.022243022918701172
1746576175060962600,3.374962646484375,0.14527878182434087,-0.00306868739426136,-0.011684145832109104,-0.011942492797970772,0.18180896092357476,0.91578150373223,0.44678627396852527,right,-0.00942319631576538,-0.7207131821509448,1.0666649895902722,-7.290463882163166,-0.3579850167118593,0.012141399085521698,0.005109354853630066,6.4716106740325685,0.016932785511016846
1746576175100962300,3.41496240234375,0.1445897179955762,0.019180405884981155,-0.011749995879373271,-0.020005222409963608,0.18210058931117984,0.9161342162435198,0.4468097868759211,right,-0.0012170672416687012,-0.7185210638089848,1.063682685843855,-7.305218383702635,-0.3569306246898593,0.09506316483020782,0.0031332597136497498,6.455443967607617,0.011590421199798584
1746576175140962300,3.45496240234375,0.14389751176442692,0.01211092621088028,-0.011552725504575645,-0.017008762806653976,0.18254975970701703,0.9168565112006314,0.44682336825446234,right,0.005072534084320068,-0.7140571973201368,1.0627473777551204,-7.334398300957679,-0.35484687026324174,0.1307373344898224,0.0009158849716186523,6.422426079624891,0.0058629512786865234
1746576175180962300,3.49496240234375,0.14454509974231602,0.02396855130791664,-0.010716545998176686,-0.007203530520200729,0.18324053089603007,0.9177421501970412,0.44765667897053246,right,0.002668142318725586,-0.7081344764407901,1.0729572216022758,-7.371221426442265,-0.3522179319935393,0.12457353621721268,0.000033877789974212646,6.378420349159836,0.008202731609344482
1746576175220962300,3.53496240234375,0.14518300441121776,0.035826176404953,-0.009880273285349834,0.0026017026975750923,0.18392970272196119,0.9186196777046856,0.44848087534037434,right,0.00023764371871948242,-0.7022114444179044,1.0831059829119591,-7.407787946817279,-0.3495858953973596,0.11840973794460297,-0.000841870903968811,6.3341889932453626,0.010565578937530518
1746576175260962600,3.574962646484375,0.14581125715840856,0.04768380522727966,-0.009043925812915498,0.012406935915350914,0.18461718503688204,0.9194888986373535,0.44929578182089286,right,-0.0022190213203430176,-0.6962877451803042,1.093192200379446,-7.444099031126499,-0.34695070187032434,0.11224593222141266,-0.0017112866044044495,6.289729673793912,0.012951493263244629
1746576175300962600,3.614962646484375,0.14654093902644438,0.01666756346821785,-0.008424356320074088,0.006990313064306974,0.18518232193364811,0.9200057084197326,0.45021129926412534,right,-0.004340767860412598,-0.6924955462071414,1.1020986334778369,-7.466842193332314,-0.3452912240937461,0.060781046748161316,0.0008486360311508179,6.261152398607134,0.013506412506103516
1746576175340962300,3.65496240234375,0.14626064208885411,-0.003543458878993988,-0.008385664627611322,-0.012094771489501,0.18538901752278938,0.9202437848678138,0.4503104694986834,right,-0.0029665231704711914,-0.6909138758982034,1.101447549157962,-7.476938639932871,-0.34454593969269265,0.01573200523853302,0.0015498921275138855,6.24920652474761,0.0147055983543396
1746576175380962300,3.69496240234375,0.14531089732766547,-0.012985417619347572,-0.008789387642602972,-0.010619061067700386,0.1852295737874604,0.9201999471147803,0.44970285550119954,right,-0.00335848331451416,-0.6915261368658632,1.093791700642556,-7.474194309660792,-0.3447388583315384,-0.026824265718460083,0.004373304545879364,6.253832430982589,0.0022684335708618164
1746576175420962300,3.73496240234375,0.14455702330186426,0.015324803069233894,-0.00930187999520145,-0.018812723457813263,0.18534302068905503,0.919993896163833,0.4498518845702179,right,0.0009095668792724609,-0.692726743927807,1.0870743750862777,-7.467581613522768,-0.3452140982741001,-0.014004422351717949,0.00438728928565979,6.262897196447849,-0.005663394927978516
1746576175460962300,3.77496240234375,0.14445486857667245,0.0112240519374609,-0.009564520071729504,-0.009881253354251385,0.18569407364446278,0.9198176546548684,0.4506741165223286,right,0.0033867359161376953,-0.6933582647573748,1.085741957438737,-7.4637769605427975,-0.34548776251904717,-0.015957023948431015,0.0026214495301246643,6.267661634370684,-0.002049863338470459
1746576175500962600,3.814962646484375,0.14435327599815537,0.00712329987436533,-0.009827171633585919,-0.0009497813880443573,0.18604506760292622,0.9196411672430616,0.451496665159887,right,0.005863547325134277,-0.6939898110995416,1.0844140698358415,-7.45996880043149,-0.3457612939797484,-0.017909623682498932,0.0008551403880119324,6.272423734205961,0.0015639066696166992
1746576175540962600,3.854962646484375,0.14475155709704943,-0.0071435412392020226,-0.009992657061449969,0.004810818005353212,0.1859458059555342,0.9192176833827796,0.4518181874871266,right,0.001529395580291748,-0.6964938220469157,1.0851161536905913,-7.443971020832658,-0.3469340757550618,-0.04558108001947403,0.0017690882086753845,6.29128041036725,0.005298495292663574
1746576175580962300,3.89496240234375,0.14515166796718215,-0.0214103814214468,-0.010158122038495322,0.010571416467428207,0.18584615917548894,0.918792774922078,0.45214149068117543,right,-0.0028096437454223633,-0.6989978020503392,1.0858125384569168,-7.427925310438871,-0.3481063206507233,-0.07325253635644913,0.0026836171746253967,6.310096754518151,0.009037196636199951
1746576175620962300,3.93496240234375,0.14395047659691418,-0.04894258826971054,-0.010821268867254343,-0.014598652720451355,0.18512009766742124,0.9184125724181609,0.4506080452827446,right,-0.003307342529296875,-0.7022386843500883,1.0739500320319086,-7.408945884680747,-0.34947357119601663,-0.07001516968011856,0.0031128302216529846,6.334392406862974,0.005409359931945801
1746576175660962300,3.97496240234375,0.1420898208803143,-0.03840559348464012,-0.011584856316224955,-0.017422325909137726,0.18431844118462595,0.9182171600740161,0.4485183603341708,right,-0.0018619894981384277,-0.7046011064833174,1.0580405883036552,-7.396097509023547,-0.3503851805112046,-0.03129804506897926,0.003587685525417328,6.35206075002253,0.0018894672393798828
1746576175700962300,4.01496240234375,0.1402083025397754,-0.013177940621972084,-0.012360756075033421,-0.03546421229839325,0.1839993578064358,0.9181404106376003,0.4472769855920882,right,-0.0025940537452697754,-0.7057209925861764,1.0431280466582626,-7.391026781630516,-0.3507274200738695,-0.015472996979951859,0.00041078031063079834,6.3604240892201656,0.0034834742546081543
1746576175740962600,4.054962646484375,0.13897486640784254,0.004407599568367004,-0.012972753591801224,-0.023157114163041115,0.1841707383543112,0.9180641853018529,0.44724663167644535,right,0.002232968807220459,-0.7061632271163306,1.033621090383455,-7.389521053242683,-0.3508147497834237,-0.000004954636096954346,-0.00037851929664611816,6.363724299809336,0.003953158855438232
1746576175780962600,4.094962646484375,0.13840523207169975,0.018063627183437347,-0.013319186428746911,-0.028661880642175674,0.1845591502631221,0.9180335414074439,0.44784807169955226,right,-0.004523038864135742,-0.7059855554886442,1.029567577208951,-7.391227857160568,-0.35067769348007494,0.002755126217380166,0.0007743611931800842,6.362398604163527,0.0003504157066345215
1746576175820962300,4.13496240234375,0.13786496523844927,0.032001007348299026,-0.01377295678296092,-0.0387318916618824,0.18528363088526553,0.9179457598404845,0.4491830358192239,right,-0.0009973645210266113,-0.7057417788843947,1.0257873280178755,-7.393319861003756,-0.35050806912357696,0.012613999657332897,0.0030300691723823547,6.360578987520933,-0.0036914944648742676
1746576175860962300,4.17496240234375,0.13765636513085255,0.033741820603609085,-0.014087517251582892,-0.029465146362781525,0.18593103532836217,0.917838415311012,0.45049861183451073,right,-0.0004273056983947754,-0.7056407331682986,1.024333256752044,-7.394169755831361,-0.35043372678493373,-0.0014072209596633911,0.0005167797207832336,6.359824954283237,-0.00314253568649292
1746576175900962300,4.21496240234375,0.1374476194256417,0.035482633858919144,-0.014402066668547422,-0.02019840106368065,0.18657834144321764,0.9177306609434694,0.45181414870806413,right,0.00014251470565795898,-0.7055399840096208,1.0228775049857795,-7.395018481615185,-0.3503592028904918,-0.015428440645337105,-0.001996338367462158,6.359072674611211,-0.002593696117401123
1746576175940962300,4.25496240234375,0.13723874475703457,0.0372234471142292,-0.014716602162519401,-0.010931655764579773,0.1872255295641822,0.9176224147702434,0.45312958831216466,right,0.0007121562957763672,-0.7054395338490594,1.0214202919147908,-7.395864869311452,-0.35028453063631226,-0.02944966033101082,-0.004509307444095612,6.358322733026743,-0.0020450949668884277
1746576175980962600,4.294962646484375,0.13823972587753997,0.03954233601689339,-0.014812475373523527,-0.009507264941930771,0.18786699162172446,0.9171671088569504,0.4551692352550164,right,-0.002379119396209717,-0.7071268104905221,1.0273430330272764,-7.384201904046535,-0.3511282783291299,-0.0777207687497139,-0.010394789278507233,6.370910996443033,-0.001520395278930664
1746576176020962600,4.334962646484375,0.13945797865399295,0.009394524618983269,-0.015045682424858875,0.004117472097277641,0.1883712970110823,0.91640225731296,0.45728788136440085,right,0.0015819668769836426,-0.7106906820023406,1.0331754655078054,-7.36041420122385,-0.35284125929240207,-0.11140754818916321,-0.005465321242809296,6.397440691450238,0.012866079807281494
1746576176060962600,4.374962646484375,0.14062319913560214,-0.007503999397158623,-0.015100201463207523,0.026240751147270203,0.18821606797389326,0.9157099088558104,0.45800806400639704,right,-0.0022855401039123535,-0.7145985144064508,1.0382391055729239,-7.334394793826341,-0.35471386594971227,-0.08485175669193268,-0.0013149082660675049,6.426437068831921,0.017302751541137695
1746576176100962300,4.41496240234375,0.14162398911032736,-0.006983452942222357,-0.014906097292822901,0.026910757645964622,0.18782076532714428,0.9153385969243477,0.4579075224599092,right,-0.003667116165161133,-0.7169862566596162,1.0434100054048001,-7.3181404091179365,-0.355888293359633,-0.031133174896240234,0.005317330360412598,6.4441059965133665,0.017751872539520264
1746576176140962300,4.45496240234375,0.14293730993864467,0.015071403235197067,-0.014383725317442234,0.018429629504680634,0.18767654244486545,0.9152765441944328,0.45815046252969654,right,-0.0036829113960266113,-0.7172860298676081,1.0527448930483312,-7.31485130444467,-0.35614530726019145,0.014561153948307037,0.009639717638492584,6.446321334475279,0.012936115264892578
1746576176180962300,4.49496240234375,0.1442774288337697,0.03897658735513687,-0.013848500837159779,0.0008254516869783401,0.18811883258593823,0.91537219124836,0.45943638930146435,right,-0.00550466775894165,-0.7160133297627191,1.0637254290070384,-7.32154700269103,-0.35568696373976283,0.041469380259513855,0.014958739280700684,6.436910532051325,0.0051000118255615234
1746576176220962300,4.53496240234375,0.1453627493196434,0.059942103922367096,-0.013580625668467223,-0.03315179795026779,0.18917168308377755,0.9154294933371294,0.4618828006165799,right,-0.009982526302337646,-0.7142839164898679,1.073281996577233,-7.331392689400911,-0.3549909654063243,0.031109139323234558,0.012980617582798004,6.42410599553585,0.0022760629653930664
1746576176260962600,4.574962646484375,0.14522214097760366,0.049109362065792084,-0.013969714100713864,-0.06330664455890656,0.19060217614362468,0.9153997022797351,0.46471640496802813,right,-0.004673779010772705,-0.7127980494353692,1.0736312484063208,-7.34097943291366,-0.3542866756527148,0.03225051239132881,0.008437328040599823,6.413089511480927,0.0032894015312194824
1746576176300962600,4.614962646484375,0.14329019589509065,0.019395573064684868,-0.014683662722392991,-0.046308036893606186,0.19120926993848775,0.9156560104933494,0.4650025109446069,right,-0.0005385279655456543,-0.7109544515931115,1.0611334397524594,-7.3547297258466475,-0.35326693727614095,0.039567507803440094,0.007868610322475433,6.399400593346357,0.001983821392059326
1746576176340962300,4.65496240234375,0.141360641351946,-0.010318215936422348,-0.015397589674421085,-0.029309432953596115,0.19181601305670076,0.9159104957538072,0.4652929408409646,right,0.0035915374755859375,-0.7091113305583477,1.0486001213937997,-7.368428580853343,-0.352246521447926,0.046884503215551376,0.007303506135940552,6.385694139555096,0.0006800293922424316
1746576176380962300,4.69496240234375,0.13939208817021503,-0.0213959738612175,-0.01597248004799448,-0.029104191809892654,0.19181304209833128,0.9161981818472846,0.46432500077186667,right,0.004976749420166016,-0.7078026453180198,1.0352531485646963,-7.3787477302938695,-0.35147327373184895,0.028975872322916985,0.004885882139205933,6.375948406088352,0.0027036070823669434
1746576176420962300,4.73496240234375,0.13759951443649965,-0.016960138455033302,-0.0164942853128155,-0.029079275205731392,0.19167330351149695,0.9164288747160256,0.4631999166265321,right,0.0035845041275024414,-0.7069476544817822,1.0227718526542187,-7.385988787463307,-0.3509235386802744,0.020746879279613495,-0.0002741292119026184,6.369575363925099,0.0023017525672912598
1746576176460962300,4.77496240234375,0.13604842108192527,0.008598441258072853,-0.017055307004261926,-0.018924204632639885,0.1918412086248424,0.916569764257367,0.4628564511536748,right,0.012622416019439697,-0.7061945521571155,1.0119646274358034,-7.392316821441054,-0.35043667995419003,0.020691297948360443,0.0001529976725578308,6.363958108565211,-0.0008647441864013672
1746576176500962600,4.814962646484375,0.13602340133320748,0.03767532855272293,-0.017245852122957372,-0.02731408178806305,0.1924903991917218,0.9165153896519187,0.46419237065614205,right,0.00842362642288208,-0.7057329754520169,1.0121779779255389,-7.39525170584917,-0.3502137461667097,-0.00036008842289447784,-0.006569184362888336,6.360513521069288,-0.007169246673583984
1746576176540962600,4.854962646484375,0.13657078745366957,0.06920097023248672,-0.017522795318559416,-0.0339895561337471,0.1938131566985139,0.9162383428960977,0.4672733028547773,right,0.013208746910095215,-0.705634795032287,1.0163109130118042,-7.395315418735146,-0.35019538016014423,-0.012848294340074062,-0.012645252048969269,6.359780530619621,-0.004581630229949951
1746576176580962300,4.89496240234375,0.13773879442006004,0.03186897188425064,-0.01768758481965338,-0.007178790867328644,0.19501150511706627,0.915757092701337,0.4705086364114826,right,0.01409846544265747,-0.7067387184557145,1.0239833473358302,-7.387164260983466,-0.3507799816272145,-0.05929751694202423,-0.01130494475364685,6.368017613089084,0.016015827655792236
1746576176620962300,4.93496240234375,0.13885926498713133,-0.010756682604551315,-0.01763178501848268,0.019506316632032394,0.19509286877600063,0.9152924837560313,0.47148696537943613,right,0.0022830963134765625,-0.7090996169258198,1.0301759183656423,-7.371102183976769,-0.3519481647076684,-0.052681438624858856,-0.00789874792098999,6.385606461271643,0.022295713424682617
1746576176660962300,4.97496240234375,0.13879083661813685,-0.032123059034347534,-0.017671844102416154,0.01573847606778145,0.194468573302041,0.9151261648259539,0.47036528356732515,right,-0.0031804442405700684,-0.7108073420791569,1.0281613636728375,-7.360361594253778,-0.3527232660198709,-0.018657658249139786,-0.0018069595098495483,6.398307537412643,0.021060466766357422
1746576176700962300,5.01496240234375,0.13795129970666495,-0.02830483205616474,-0.017782997266561143,-0.0006496906280517578,0.19378501485878455,0.915238542601753,0.4685983115903016,right,-0.003025054931640625,-0.711128306979352,1.02169932805188,-7.359188458821177,-0.3528024848612303,0.017182059586048126,0.0005417391657829285,6.4006923867225645,0.015164375305175781
1746576176740962600,5.054962646484375,0.1370924789010171,-0.004199368879199028,-0.017812118112419496,-0.0029128072783350945,0.19344215698340528,0.9155430633453255,0.46733461423434547,right,-0.0037418007850646973,-0.7099520417394821,1.0164069937974214,-7.367516726705431,-0.35219870985798857,0.046883806586265564,0.0006777867674827576,6.391948523774743,0.010194242000579834
1746576176780962600,5.094962646484375,0.13689050617682735,0.022625667974352837,-0.017684459986605984,-0.005332165397703648,0.1936655257416193,0.915850995867411,0.46743577269560593,right,0.0003179311752319336,-0.7079674863085316,1.016648036011681,-7.3802733324259515,-0.35128056158151055,0.05622638761997223,-0.0009699985384941101,6.377176486578583,0.009279072284698486
1746576176820962300,5.13496240234375,0.1376799564594722,0.03781285136938095,-0.01720655082332217,0.005388732999563217,0.19431313909383655,0.9161882126593988,0.4687110580779315,right,0.0007500648498535156,-0.7051363164455294,1.024947808453813,-7.39732266690433,-0.35006493044978076,0.0773518830537796,-0.0019216090440750122,6.3560588797479864,0.014619827270507812
1746576176860962300,5.17496240234375,0.13880422344378365,0.023770006373524666,-0.01626610820613843,0.01669514924287796,0.19476899057409364,0.9168561564036908,0.4694225920217796,right,-0.0010493993759155273,-0.7005727394345658,1.037266241952777,-7.424815653985738,-0.3481022434239409,0.11668328940868378,0.00010675936937332153,6.321912279996275,0.017127633094787598
1746576176900962300,5.21496240234375,0.13991997327530534,0.009727160446345806,-0.015325573519188217,0.028001565486192703,0.1952237948996951,0.9175191935764786,0.4701247480159417,right,-0.0028651952743530273,-0.6960085931533698,1.049563048141822,-7.452148482069373,-0.3461376822357376,0.15601469576358795,0.00213729590177536,6.287629486644268,0.019649207592010498
1746576176940962300,5.25496240234375,0.13994259093157377,-0.0022907834500074387,-0.01446153460880436,0.016157912090420723,0.1953250440198327,0.9185398991521616,0.4694122695486307,right,0.0031226277351379395,-0.68995502372444,1.0550216058086603,-7.489678879040479,-0.34339994082948777,0.1721777617931366,-0.00005288422107696533,6.241956699749827,0.009487032890319824
1746576176980962600,5.294962646484375,0.13971196689525406,-0.011205891147255898,-0.01344337190818403,0.02351067028939724,0.1952047444311484,0.9198094518158718,0.4679454233362149,right,-0.0005370974540710449,-0.682705605638261,1.0595680170666426,-7.534533919811248,-0.3400954969082789,0.19619476795196533,0.0018355101346969604,6.186961373236775,0.005375325679779053
1746576177020962600,5.334962646484375,0.13912644847812553,-0.015263685025274754,-0.012604011018789916,0.005836308002471924,0.19488083723561517,0.9209988655026901,0.46602748103423614,right,-0.0019317269325256348,-0.6761769904940732,1.0607353072803467,-7.574995109537244,-0.3370814184227606,0.13436183333396912,-0.0014449208974838257,6.13715601658225,-0.006988883018493652
1746576177060962600,5.374962646484375,0.13856151928113672,-0.010526467114686966,-0.01225270326213266,0.012501062825322151,0.19462593059275038,0.9216284213839165,0.46476232785986105,right,0.00707399845123291,-0.6728455107045754,1.0592738564256579,-7.5958005816787475,-0.33551724373405545,0.04214631766080856,0.001699104905128479,6.111639882531762,-0.02010291814804077
1746576177100962300,5.41496240234375,0.1390814531687071,-0.002515914849936962,-0.011908523626733435,0.022204237058758736,0.19437560581028215,0.9217181257898001,0.4643611287269235,right,0.005246460437774658,-0.6725334977990466,1.0634872363369912,-7.597136798718571,-0.33542811633789993,-0.01676109805703163,0.003982312977313995,6.109246849915385,-0.021230757236480713
1746576177140962300,5.45496240234375,0.14042498962351882,0.00692903995513916,-0.01140311543461077,0.027786877006292343,0.19425672817571915,0.9216170082903373,0.4646708089633207,right,-0.004209160804748535,-0.673050029005188,1.0732515283737332,-7.592575189891457,-0.3357921481340238,-0.009112213738262653,0.0071653276681900024,6.113208154761791,-0.011278033256530762
1746576177180962300,5.49496240234375,0.14142453388235016,-0.0047792596742510796,-0.010898316243677313,0.019843067973852158,0.1941167810480542,0.9216793640628972,0.46467428308148495,right,-0.008252561092376709,-0.6726761624788504,1.0811622284330427,-7.593761184805631,-0.3357188665369524,0.017741508781909943,0.012142442166805267,6.110341074892879,-0.0034513473510742188
1746576177220962300,5.53496240234375,0.14169218584757995,0.009802131913602352,-0.010701856877918761,0.011581755243241787,0.19424206530495583,0.9218001391779117,0.46490167171606145,right,-0.005422711372375488,-0.6717471985833802,1.0839956982932983,-7.599086763742566,-0.335320533574454,0.01594437099993229,0.011400751769542694,6.10321283044815,-0.008777379989624023
1746576177260962600,5.574962646484375,0.14195950422239026,0.02438352257013321,-0.010505384808001431,0.0033204425126314163,0.1943673807128402,0.9219208634762948,0.4651288965972127,right,-0.0025937557220458984,-0.6708184817220973,1.0868285836316645,-7.604405328416824,-0.3349221928242108,0.01414723414927721,0.010659128427505493,6.096081663393974,-0.014103055000305176
1746576177300962600,5.614962646484375,0.14209251118714017,0.0015262309461832047,-0.010561701103005536,0.00046732695773243904,0.19478818494904213,0.9218776369676029,0.46604462734116003,right,-0.0013266205787658691,-0.6705209870045874,1.0880967038713394,-7.6060554337114095,-0.33479479798338857,0.007439841981977224,0.007671557366847992,6.0937955982834096,-0.004677832126617432
1746576177340962300,5.65496240234375,0.14222518575979726,-0.02133106254041195,-0.010618010436515845,-0.002385789295658469,0.195209000670579,0.9218342776746656,0.46696023951542986,right,-0.000059545040130615234,-0.6702234204480775,1.089362851349637,-7.607705539005995,-0.3346673289626987,0.0007324498146772385,0.004684194922447205,6.091508948650956,0.004747569561004639
1746576177380962300,5.69496240234375,0.14108731065332325,-0.05915302783250809,-0.010843381415451507,-0.0007108094869181514,0.19460697739715796,0.9220090116242551,0.46522916585706897,right,-0.0010643601417541504,-0.6701441373831145,1.0807735213764011,-7.609418772664665,-0.33452957370691505,0.00614952901378274,0.00437183678150177,6.0908998768419025,0.0028805136680603027
1746576177420962300,5.73496240234375,0.13850875757224024,-0.06091253086924553,-0.011457335176591223,-0.008875514380633831,0.19340291918215224,0.9223177833401824,0.4617015286229461,right,0.00261688232421875,-0.670269148281638,1.061043496446684,-7.611426020833849,-0.3343561057795677,0.003641424234956503,0.00141993910074234,6.091860830828547,-0.0011400580406188965
1746576177460962300,5.77496240234375,0.13592932354591783,-0.06267203390598297,-0.012071292676394861,-0.01704021915793419,0.1921984594738648,0.9226247009519702,0.45817304087024363,right,0.00629734992980957,-0.6703869738354944,1.0413094529289753,-7.613425670218467,-0.3341819759760697,0.0011333189904689789,-0.0015315935015678406,6.092766255235672,-0.005154967308044434
1746576177500962600,5.814962646484375,0.1337115515759989,-0.031513214111328125,-0.012742733994658863,-0.018780609592795372,0.19138940530779774,0.9227675343610332,0.4556946131154689,right,0.0060921311378479,-0.6709184166637776,1.0239902885332703,-7.61250680180788,-0.33422716360623195,-0.02281847782433033,-0.004059433937072754,6.096849140635133,-0.006328761577606201
1746576177540962600,5.854962646484375,0.13274818723119958,0.0027121491730213165,-0.013282452661367763,-0.007861168123781681,0.19116535325286785,0.9225637020310706,0.45510328313053,right,0.005323588848114014,-0.672578071948347,1.015315472233668,-7.603449635127187,-0.33489632146826404,-0.04851962998509407,-0.004005812108516693,6.109588795220851,-0.004835605621337891
1746576177580962300,5.89496240234375,0.13321685613756165,0.029056506231427193,-0.01353528908650763,-0.010810391046106815,0.19151304062444005,0.9221071459693112,0.4563533234550114,right,-0.0003350377082824707,-0.6747934429411225,1.0170786825139075,-7.589539183196425,-0.33594342958792195,-0.06439270079135895,-0.003655754029750824,6.126567402550577,0.003018021583557129
1746576177620962300,5.93496240234375,0.13442768124400142,0.04337206110358238,-0.013624672390083567,-0.007339220494031906,0.19226361939669964,0.921563593774778,0.4587346133362887,right,-0.0015521049499511719,-0.6768937441351235,1.0245406889576465,-7.5755340387195345,-0.33700094115708495,-0.04968355596065521,-0.0036094114184379578,6.142637078341841,0.007828891277313232
1746576177660962300,5.97496240234375,0.13567534354070251,0.04112330824136734,-0.013597256593052316,-0.004634036682546139,0.19310154208416122,0.9211606250259873,0.4611806171920961,right,-0.003316521644592285,-0.6780347719698657,1.033042925169319,-7.567300463381409,-0.33762428817052115,-0.02472788468003273,-0.002376548945903778,6.151355222326517,0.013775229454040527
1746576177700962300,6.01496240234375,0.1367249429606597,0.02509005181491375,-0.01345392395869098,-0.00018769409507513046,0.19372701072432397,0.9209455917515366,0.4629712678179692,right,-0.0009932518005371094,-0.6783516876596187,1.040719158885628,-7.564280238777399,-0.3378580213251994,-0.0035713370889425278,-0.0006083771586418152,6.153775727471709,0.014880716800689697
1746576177740962600,6.054962646484375,0.1367249429606597,0.002811731770634651,-0.01345392395869098,-0.00039090373320505023,0.19372701072432397,0.9209455917515366,0.4629712678179692,right,0.0016425251960754395,-0.6783516876596187,1.040719158885628,-7.564280238777399,-0.3378580213251994,0.007353704422712326,-0.0003379061818122864,6.153775727471709,0.015826642513275146
1746576177780962600,6.094962646484375,0.13694920567660568,-0.014111997559666634,-0.013253215318880296,0.016993893310427666,0.19372001303858277,0.9210676338606923,0.46292480941002057,right,0.0072495341300964355,-0.6775988455862543,1.0430477479636668,-7.568634342333674,-0.33753727306992093,0.028244666755199432,0.0022728294134140015,6.148025201120972,0.01204293966293335
1746576177820962300,6.13496240234375,0.1367909398919994,-0.008461778983473778,-0.013022624764173395,0.01216498576104641,0.19330591214287549,0.9213250563881166,0.4618194850227755,right,0.005580544471740723,-0.6766138693980036,1.0426751152589917,-7.5747940340071915,-0.3370806841834487,0.028716033324599266,0.0020159780979156494,6.140497143703699,0.006937384605407715
1746576177860962300,6.17496240234375,0.13663422294622768,-0.002811560407280922,-0.012792020286475716,0.007336078677326441,0.19289171291892626,0.921582069077471,0.46071527179228944,right,0.003910541534423828,-0.675628844547549,1.042311396513134,-7.5809461268961424,-0.3366239469372392,0.02918740175664425,0.0017581954598426819,6.132962656545638,0.0018324851989746094
1746576177900962300,6.21496240234375,0.1368734892694184,0.016668900847434998,-0.012577646742570864,0.0061309561133384705,0.19292473799769166,0.9217211648164723,0.4607377120411572,right,0.004419982433319092,-0.6747182475310686,1.0448867999590932,-7.586225528603792,-0.33623197072543654,0.01735183596611023,0.0008948743343353271,6.1259916484892365,0.003256857395172119
1746576177940962300,6.25496240234375,0.1377897516950764,0.021340571343898773,-0.012253749827641746,0.005382282193750143,0.19326145834453048,0.9217180494330965,0.4617183742454071,right,0.0018981695175170898,-0.6741582284009672,1.0523084013272077,-7.588662400361895,-0.33605914722472335,0.006519922986626625,0.0011167973279953003,6.121702426862717,0.0053847432136535645
1746576177980962600,6.294962646484375,0.13866820617920977,0.013861443847417831,-0.011997541496327835,0.003791939001530409,0.19364276558556456,0.9216637545072409,0.4628198586861646,right,0.001784682273864746,-0.6738519189276634,1.0592334513500332,-7.589591790166497,-0.33599786958937794,0.0024186186492443085,0.0007556155323982239,6.119354986953735,0.005322277545928955
1746576178020962600,6.334962646484375,0.13866820617920977,0.005879824049770832,-0.011997541496327835,-0.0007055019959807396,0.19364276558556456,0.9216637545072409,0.4628198586861646,right,0.00005412101745605469,-0.6738519189276634,1.0592334513500332,-7.589591790166497,-0.33599786958937794,0.0016118520870804787,-0.00022219866514205933,6.119354986953735,0.003799617290496826
1746576178060962600,6.374962646484375,0.13866820617920977,-0.004160059615969658,-0.011997541496327835,0.008157456293702126,0.19364276558556456,0.9216637545072409,0.4628198586861646,right,0.0007398128509521484,-0.6738519189276634,1.0592334513500332,-7.589591790166497,-0.33599786958937794,0.016103975474834442,0.0006579086184501648,6.119354986953735,-0.00016939640045166016
1746576178100962300,6.41496240234375,0.13877815285984252,-0.0024222740903496742,-0.0118930446653335,0.005846275947988033,0.19376378809238984,0.9217564690151548,0.4630131145785568,right,0.0018913745880126953,-0.6731278125455237,1.0606805814184248,-7.593862307092547,-0.3356774433878039,0.009017571806907654,-0.0006207674741744995,6.113804367089271,-0.0028665661811828613
1746576178140962300,6.45496240234375,0.13877815285984252,-0.0006844887975603342,-0.0118930446653335,0.003535095602273941,0.19376378809238984,0.9217564690151548,0.4630131145785568,right,0.0026074647903442383,-0.6731278125455237,1.0606805814184248,-7.593862307092547,-0.3356774433878039,0.0019311681389808655,-0.0017518848180770874,6.113804367089271,-0.0061296820640563965
1746576178180962300,6.49496240234375,0.13877815285984252,0.01416997890919447,-0.0118930446653335,0.017265021800994873,0.19376378809238984,0.9217564690151548,0.4630131145785568,right,-0.00031876564025878906,-0.6731278125455237,1.0606805814184248,-7.593862307092547,-0.3356774433878039,-0.006918574683368206,0.0008468553423881531,6.113804367089271,-0.009268879890441895
1746576178220962300,6.53496240234375,0.14071036493492323,0.016871370375156403,-0.011194803744902422,0.016434023156762123,0.19409316305365598,0.9216829933637907,0.46438349767012826,right,-0.0006905198097229004,-0.6728113027243362,1.0756228606149554,-7.593713838532566,-0.335712726003016,-0.011096477508544922,0.0009767711162567139,6.111377432203293,-0.0029051899909973145
1746576178260962600,6.574962646484375,0.14218672743108574,0.023702111095190048,-0.010724650871517442,0.002917833626270294,0.1945021288961003,0.9215860879941901,0.46577826866472394,right,-0.004982292652130127,-0.6726114439942722,1.087005839894712,-7.5933263005197045,-0.33575747662239647,-0.008309881202876568,0.0020997151732444763,6.109844815808534,0.00917363166809082
1746576178300962600,6.614962646484375,0.14218672743108574,-0.0021456480026245117,-0.010724650871517442,-0.00328421825543046,0.1945021288961003,0.9215860879941901,0.46577826866472394,right,-0.00083160400390625,-0.6726114439942722,1.087005839894712,-7.5933263005197045,-0.33575747662239647,-0.008471070788800716,0.0071440935134887695,6.109844815808534,0.006514310836791992
1746576178340962300,6.65496240234375,0.14233385575773852,-0.0020276156719774008,-0.010752886907577395,0.0027072494849562645,0.19458056567592344,0.9214980508566124,0.4660635529970267,right,-0.0012391209602355957,-0.6730121379947798,1.0877756552234292,-7.5907421292454,-0.33595271264239995,-0.0008750893175601959,0.007921792566776276,6.112917647382616,0.003817141056060791
1746576178380962300,6.69496240234375,0.14233385575773852,0.015275437384843826,-0.010752886907577395,0.008615095168352127,0.19458056567592344,0.9214980508566124,0.4660635529970267,right,-0.0021509528160095215,-0.6730121379947798,1.0877756552234292,-7.5907421292454,-0.33595271264239995,-0.001663361443206668,0.007234059274196625,6.112917647382616,0.0068839192390441895
1746576178420962300,6.73496240234375,0.14338420373339852,0.012895268388092518,-0.010397293792242652,0.0031507154926657677,0.1949800145467723,0.9214752913154736,0.46722758951928245,right,-0.0017042160034179688,-0.6724541432723393,1.0962352213371545,-7.592970326688885,-0.33579478612946256,0.011646482162177563,0.005974665284156799,6.108637778106331,0.007635653018951416
1746576178460962300,6.77496240234375,0.1444331902455305,0.01051509939134121,-0.010041686753918045,-0.0023136641830205917,0.19537933393839682,0.9214521727528965,0.4683901270529367,right,-0.0012578964233398438,-0.6718950212216048,1.1046909149933606,-7.595195017001032,-0.335636711256787,0.02495632693171501,0.004715673625469208,6.104347387436032,0.008388400077819824
1746576178500962600,6.814962646484375,0.14452143184485222,0.0024700993672013283,-0.009939507558305987,-0.0107561144977808,0.1956245902052823,0.9215751110396402,0.46878999210081174,right,0.00033086538314819336,-0.6708313611150492,1.1062956467762588,-7.601518374803661,-0.3351591094578011,0.0267984289675951,0.005051873624324799,6.096180447593331,0.007268726825714111
1746576178540962600,6.854962646484375,0.1443233121567415,0.0019147340208292007,-0.009908295941276651,-0.010746099054813385,0.19572815925246495,0.92172731851082,0.468786776850534,right,0.004156589508056641,-0.6698225371866668,1.1056734962899237,-7.607818936252594,-0.3346804421539274,0.028304975479841232,0.0026663020253181458,6.088427933770418,0.0071604251861572266
1746576178580962300,6.89496240234375,0.1442012675740393,0.0017132522771134973,-0.009785141573868367,0.0007865149527788162,0.195801692893795,0.921940954033633,0.4686930600741454,right,0.0018275976181030273,-0.6684682942441026,1.1059288592904806,-7.616106872126459,-0.3340521850280636,0.038309890776872635,0.0019329562783241272,6.078011169174313,0.005552768707275391
1746576178620962300,6.93496240234375,0.1440945422435141,-0.0005528010660782456,-0.009631363195297594,-0.004232331179082394,0.19579656769966108,0.9221660063867062,0.4684386610261137,right,-0.004575490951538086,-0.6671400011167405,1.1062743117272853,-7.624207760995626,-0.3334378741613797,0.02564014121890068,-0.00014137476682662964,6.067783205148578,0.005522370338439941
1746576178660962300,6.97496240234375,0.14351876906628352,0.0012799553805962205,-0.009709183632182719,-0.007452050223946571,0.1957587264165681,0.9223495404121911,0.46800222587015466,right,-0.001877129077911377,-0.6661877845509668,1.1027101895049214,-7.630558591327071,-0.3329497349269352,0.026040993630886078,-0.004717297852039337,6.0604445328235625,-0.0025925040245056152
1746576178700962300,7.01496240234375,0.14335346915269578,0.008326699025928974,-0.00966682526361288,-0.005637517664581537,0.1959237251598322,0.9225101114501455,0.4681239549777463,right,-0.0014324188232421875,-0.6650373779250927,1.1024441589798777,-7.637635982367396,-0.33240861924936776,0.021877648308873177,-0.00687071681022644,6.05157090601623,0.004188954830169678
1746576178740962600,7.054962646484375,0.14347149010810192,-0.00441545806825161,-0.009522459473563002,0.011375254020094872,0.19593783801484901,0.9226191569726377,0.46809010849797744,right,0.00394362211227417,-0.6643391268729896,1.1039495220415294,-7.641686719062924,-0.33210199516411376,0.020135575905442238,-0.00522410124540329,6.04618161419332,0.004262030124664307
1746576178780962600,7.094962646484375,0.14395755892319126,-0.018450042232871056,-0.009090602274321945,0.02641189843416214,0.19559174823631278,0.9228045233302417,0.46739720283605257,right,-0.000736534595489502,-0.6635715105006352,1.1083292714957147,-7.645739793846011,-0.33180283153220386,0.018940726295113564,0.0020324215292930603,6.040252808666229,0.0075969696044921875
1746576178820962300,7.13496240234375,0.14431472075219792,-0.022891147062182426,-0.008647857569682837,0.03156639635562897,0.19491846362841178,0.9230007319274348,0.46600641959160255,right,-0.004629671573638916,-0.6631791496248314,1.1114006417650728,-7.647688005304336,-0.33166495836211224,0.021216554567217827,0.0073476508259773254,6.037220893624425,-0.00025773048400878906
1746576178860962300,7.17496240234375,0.1449586198617277,-0.006343727931380272,-0.00824735964520593,0.015929527580738068,0.19527954778520293,0.9232111729258344,0.4667348993797237,right,-0.0009046196937561035,-0.6613191186309342,1.11794502190724,-7.6580696985870595,-0.3308762655285918,0.025514189153909683,0.00620897114276886,6.022836394441128,-0.001131296157836914
1746576178900962300,7.21496240234375,0.1455999161767128,0.010203691199421883,-0.00784682404191853,0.00029265880584716797,0.19564042710519558,0.9234205794962358,0.46746070641822285,right,0.0028177499771118164,-0.6594585282714186,1.1244796843729912,-7.668424503862857,-0.33008723499179005,0.02981182374060154,0.0050712525844573975,6.008426176294684,-0.0020023584365844727
1746576178940962300,7.25496240234375,0.14623860275060205,0.026751112192869186,-0.0074462860009669365,-0.015344209969043732,0.1960011294343531,0.9236292483581111,0.46818407386767413,right,0.006537377834320068,-0.6575977776037017,1.1310044099666177,-7.678753005653619,-0.3292979233110048,0.034109458327293396,0.003934577107429504,5.993994330838322,-0.0028710365295410156
1746576178980962600,7.294962646484375,0.146198757718667,0.002818366512656212,-0.007386740834443509,-0.017808441072702408,0.19636595391748,0.923782836292616,0.4687439479462185,right,0.005340874195098877,-0.6561927263908341,1.1319242282252757,-7.687122774592042,-0.3286506667631372,0.01935553550720215,-0.0007607936859130859,5.983083060723543,-0.00457388162612915
1746576179020962600,7.334962646484375,0.1449998017060479,-0.02117706835269928,-0.0077974128503257144,-0.005967637524008751,0.19600570557832997,0.9238349394000009,0.4675952879838246,right,0.005452394485473633,-0.6565702151379382,1.1223805201366543,-7.686238977494836,-0.3287097331993199,-0.0010263454169034958,-0.0002937987446784973,5.9860156070441,-0.00322800874710083
1746576179060962600,7.374962646484375,0.14379995400876208,-0.04517250508069992,-0.00820807094321789,0.005873166024684906,0.1956454097275694,0.9238866638202986,0.4664456848016157,right,0.0055634379386901855,-0.6569464134449349,1.112834473960474,-7.685349919700622,-0.3287686512757662,-0.02140822634100914,0.00017340481281280518,5.988937631970644,-0.0018810629844665527
1746576179100962300,7.41496240234375,0.14277596834819048,-0.028751088306307793,-0.008528723291362984,0.0002053375355899334,0.19496625270159754,0.9238930957966304,0.4647671849616203,right,-0.0013229846954345703,-0.6579762048656065,1.1040861540332436,-7.680377391985059,-0.32914586729319284,-0.02619064971804619,-0.0010224804282188416,5.996930968812108,0.001184999942779541
1746576179140962300,7.45496240234375,0.14212777323812836,-0.018507469445466995,-0.008840075832680214,0.0059309774078428745,0.19449929971184515,0.9237658309037368,0.4637515331795539,right,0.0003756880760192871,-0.6594728809687872,1.0978349116187542,-7.672197592660784,-0.32977057029734147,-0.033534783869981766,0.00022558867931365967,6.008537819975614,0.0036275386810302734
1746576179180962300,7.49496240234375,0.14213936814094325,0.006943000480532646,-0.008972332447162008,-0.005488211754709482,0.19443084461129648,0.9235964869792399,0.4637762207489779,right,-0.004481852054595947,-0.6605891229522076,1.0969730340924113,-7.665541057381033,-0.33028122148338057,-0.015542883425951004,-0.0016411170363426208,6.017185236811637,0.008266210556030273
1746576179220962600,7.534962646484375,0.1420864683398133,0.0048164185136556625,-0.009134438114908003,-0.008825315162539482,0.19464129659619758,0.9234793340154276,0.46428160547000064,right,-0.0004112720489501953,-0.6610420100309108,1.0961815914537758,-7.662900772005319,-0.3304804983489888,-0.007505424320697784,-0.0027864202857017517,6.020691783627868,0.011980950832366943
1746576179260962600,7.574962646484375,0.1420864683398133,0.003411771496757865,-0.009134438114908003,0.00029027368873357773,0.19464129659619758,0.9234793340154276,0.46428160547000064,right,-0.0005722641944885254,-0.6610420100309108,1.0961815914537758,-7.662900772005319,-0.3304804983489888,0.003200732171535492,-0.002375073730945587,6.020691783627868,0.007668137550354004
1746576179300962600,7.614962646484375,0.1420864683398133,0.0022623869590461254,-0.009134438114908003,0.0052231536246836185,0.19464129659619758,0.9234793340154276,0.46428160547000064,right,0.0012558698654174805,-0.6610420100309108,1.0961815914537758,-7.662900772005319,-0.3304804983489888,0.003882763907313347,-0.0014556124806404114,6.020691783627868,0.005471587181091309
1746576179340962300,7.65496240234375,0.1420864683398133,0.009489503689110279,-0.009134438114908003,0.009329779073596,0.19464129659619758,0.9234793340154276,0.46428160547000064,right,-0.0025703907012939453,-0.6610420100309108,1.0961815914537758,-7.662900772005319,-0.3304804983489888,0.005953121930360794,-0.0009588077664375305,6.020691783627868,0.0009452104568481445
1746576179380962300,7.69496240234375,0.14269549179633073,-0.0002033580094575882,-0.008779754922158076,0.00450314162299037,0.19449138131904223,0.9235557839226485,0.46411638610151745,right,-0.0014867186546325684,-0.6606563498187312,1.1011783037625253,-7.664529249989986,-0.33036448281097613,0.004337741062045097,0.0007065236568450928,6.017705461293459,0.00219804048538208
1746576179420962300,7.73496240234375,0.14330446680898282,-0.00989621877670288,-0.008425061896583623,-0.0003234958276152611,0.19434146604188765,0.9236322338298696,0.4639510863725712,right,-0.0004035830497741699,-0.660270928837326,1.10617684270218,-7.666152467277645,-0.33024842628915657,0.0027223601937294006,0.00237167626619339,6.014720892524719,0.0034508705139160156
1746576179460962300,7.77496240234375,0.14391335030747432,-0.019589081406593323,-0.008070359038179566,-0.005150133278220892,0.19419149176778697,0.923708437834249,0.46378544874162597,right,0.0006790757179260254,-0.659885540092804,1.1111767698813229,-7.667771008390187,-0.33013232878352955,0.0011069789761677384,0.004036702215671539,6.0117351547122,0.004703700542449951
1746576179500962600,7.814962646484375,0.14391335030747432,-0.012793615460395813,-0.008070359038179566,-0.001028197817504406,0.19419149176778697,0.923708437834249,0.46378544874162597,right,0.0031423568725585938,-0.659885540092804,1.1111767698813229,-7.667771008390187,-0.33013232878352955,0.007864887826144695,0.004018828272819519,6.0117351547122,-0.0002353191375732422
1746576179540962600,7.854962646484375,0.1435620559525297,0.0035233981907367706,-0.00801258589537089,0.013451674021780491,0.19380175033570535,0.9238692126748169,0.46275309350034377,right,0.0004589557647705078,-0.6594702431144233,1.1088401436273008,-7.670631073996424,-0.32991279903578274,0.0092996284365654,0.004073098301887512,6.008517361709475,-0.00013118982315063477
1746576179580962300,7.89496240234375,0.14420167475648193,0.022376256063580513,-0.007747892524425839,0.003070242702960968,0.19395823372360108,0.9238878849619034,0.46325429746364527,right,-0.0010594725608825684,-0.6590362667015897,1.1141207874439656,-7.672499790477752,-0.32977469472570914,0.0065786452032625675,0.0020141974091529846,6.005153438234329,0.0012818574905395508
1746576179620962300,7.93496240234375,0.14465410479656646,0.015770571306347847,-0.007648973816148039,-0.0016253800131380558,0.1942912719548478,0.9238441304917753,0.46409957702395066,right,0.00019299983978271484,-0.6587918763172659,1.1178034945446997,-7.673447300460934,-0.3297037447281652,0.006310979835689068,0.002888597548007965,6.003258418267965,0.0025296807289123535
1746576179660962300,7.97496240234375,0.14465410479656646,0.009164884686470032,-0.007648973816148039,-0.00632100272923708,0.1942912719548478,0.9238441304917753,0.46409957702395066,right,0.0013488531112670898,-0.6587918763172659,1.1178034945446997,-7.673447300460934,-0.3297037447281652,0.006043314468115568,0.0041385218501091,6.003258418267965,0.00358426570892334
1746576179700962300,8.01496240234375,0.14465410479656646,0.003692330326884985,-0.007648973816148039,-0.0018504750914871693,0.1942912719548478,0.9238441304917753,0.46409957702395066,right,-0.0019878149032592773,-0.6587918763172659,1.1178034945446997,-7.673447300460934,-0.3297037447281652,0.007869645021855831,0.003231130540370941,6.003258418267965,-0.0008420348167419434
1746576179740962600,8.054962646484375,0.1449683098386919,0.005991015583276749,-0.007563786937497682,-0.005964651238173246,0.19474557834002623,0.9238747842323314,0.46506847920694655,right,-0.00225067138671875,-0.6579611685922385,1.120934486046806,-7.678027613988518,-0.3293513905060445,0.010858399793505669,0.002164892852306366,5.99681464895606,-0.0003470182418823242
1746576179780962600,8.094962646484374,0.14512389369861653,0.0004806448705494404,-0.007466123724405673,0.0017422623932361603,0.1949424751757198,0.923946824445444,0.4654398232618445,right,-0.0006499886512756348,-0.6572381054494402,1.1227558562550692,-7.682141479048132,-0.32903501354121484,0.01660733111202717,0.0009350553154945374,5.991202654293179,-0.001032710075378418
1746576179820962300,8.13496240234375,0.14514410653301085,-0.009921325370669365,-0.007355140124226152,0.0036058977711945772,0.19490891328186846,0.9240555188131295,0.4652789495399842,right,-0.0002982020378112793,-0.6566126543057329,1.1234528986085206,-7.685825135996938,-0.32875199905090563,0.01094653457403183,0.0009204298257827759,5.9863452773898835,-0.00008064508438110352
1746576179860962300,8.17496240234375,0.1447036634818526,-0.023597732186317444,-0.007367810063040483,-0.0010500100906938314,0.19458334323355297,0.924193269320535,0.46436594287623617,right,-0.0011241436004638672,-0.6562727874271068,1.120360923942551,-7.688332150381803,-0.3285572644839664,0.00923079065978527,0.0032888874411582947,5.983704992014169,0.0015045404434204102
1746576179900962300,8.21496240234375,0.1439275741033399,-0.02053280547261238,-0.0074877609534285605,-0.0034204619005322456,0.1941448616375381,0.924351781472589,0.46310189292552,right,-0.00043886899948120117,-0.6560130251630383,1.1146166081368922,-7.690736873435974,-0.32836788962387503,0.008788183331489563,0.0025325044989585876,5.981686637929082,-0.002144753932952881
1746576179940962300,8.25496240234375,0.14334814440919097,0.0007110051810741425,-0.007600202945248262,-0.0077473754063248634,0.19397127599688804,0.9244739158505791,0.46245780900161026,right,-0.0023971199989318848,-0.6555976592706658,1.1105150911021977,-7.693840684670209,-0.32812427393814864,0.013341768644750118,0.002073824405670166,5.978458323532343,0.0008671283721923828
1746576179980962600,8.294962646484375,0.14334814440919097,0.00975088682025671,-0.007600202945248262,-0.009782908484339714,0.19397127599688804,0.9244739158505791,0.46245780900161026,right,0.0006229281425476074,-0.6555976592706658,1.1105150911021977,-7.693840684670209,-0.32812427393814864,0.015413659624755383,0.001285754144191742,5.978458323532343,0.002176821231842041
1746576180020962600,8.334962646484374,0.14309201367638286,0.013198580592870712,-0.0076381370058138534,-0.004376895260065794,0.19429302805994933,0.9246172498315045,0.4628749780236883,right,0.00007200241088867188,-0.6543516269186167,1.1096058673027902,-7.701491491684317,-0.3275284183646191,0.02156907320022583,0.00039996951818466187,5.968767535123229,0.0027089715003967285
1746576180060962600,8.374962646484375,0.14319150932203706,0.013143583200871944,-0.00756855714981678,-0.002785496646538377,0.19463506386656448,0.9247119843621007,0.4634927831176985,right,0.0002874135971069336,-0.6533089977173494,1.1112595527939497,-7.707536617067456,-0.32705919474963496,0.01722695119678974,0.000713348388671875,5.9606514486849305,0.003569662570953369
1746576180100962300,8.41496240234375,0.14334576582539496,0.010577824898064137,-0.007515714459798281,-0.006983037106692791,0.19491546388031836,0.9247490805569207,0.464060208127078,right,0.0003044009208679199,-0.6526887201640588,1.1129765127796678,-7.711023290139436,-0.3267885402511248,0.008203485049307346,-0.0010927170515060425,5.955820375266671,0.0005999207496643066
1746576180140962300,8.45496240234375,0.14334576582539496,0.0038207308389246464,-0.007515714459798281,0.00497213751077652,0.19491546388031836,0.9247490805569207,0.464060208127078,right,0.0013040900230407715,-0.6526887201640588,1.1129765127796678,-7.711023290139436,-0.3267885402511248,0.0016516167670488358,-0.00008544325828552246,5.955820375266671,0.002596735954284668
1746576180180962300,8.49496240234375,0.14334576582539496,-0.0027604103088378906,-0.007515714459798281,0.004969313275068998,0.19491546388031836,0.9247490805569207,0.464060208127078,right,0.002749323844909668,-0.6526887201640588,1.1129765127796678,-7.711023290139436,-0.3267885402511248,-0.0013573742471635342,-0.00023258477449417114,5.955820375266671,0.003094911575317383
1746576180220962600,8.534962646484376,0.14334576582539496,-0.005459199659526348,-0.007515714459798281,0.014995936304330826,0.19491546388031836,0.9247490805569207,0.464060208127078,right,-0.002282440662384033,-0.6526887201640588,1.1129765127796678,-7.711023290139436,-0.3267885402511248,0.006135308183729649,0.0029793083667755127,5.955820375266671,0.0021247267723083496
1746576180260962600,8.574962646484375,0.1440614052538118,0.001546802930533886,-0.007144521284141749,0.008712150156497955,0.19478377696618668,0.9247941978390165,0.4639915901051224,right,-0.0030835866928100586,-0.6524459365688291,1.1187020508196204,-7.711655158302188,-0.32674755729752203,-0.0006238101050257683,0.0009582936763763428,5.953928277909755,-0.000899195671081543
1746576180300962600,8.614962646484376,0.1440614052538118,0.008195226080715656,-0.007144521284141749,0.006634407211095095,0.19478377696618668,0.9247941978390165,0.4639915901051224,right,0.0014839768409729004,-0.6524459365688291,1.1187020508196204,-7.711655158302188,-0.32674755729752203,-0.00023328309180215,0.001611270010471344,5.953928277909755,0.0005434751510620117
1746576180340962300,8.65496240234375,0.14517817920663925,0.005373581778258085,-0.006731890250244248,0.009430648759007454,0.19493152969883584,0.9247430589214116,0.4646922328448663,right,0.0005890130996704102,-0.6523565531573252,1.1273905303183942,-7.710928013071418,-0.32681306241008745,0.0038568617310374975,0.0010932162404060364,5.953232112339139,0.005015075206756592
1746576180380962300,8.69496240234375,0.14517817920663925,-0.008556220680475235,-0.006731890250244248,0.0012644259259104729,0.19493152969883584,0.9247430589214116,0.4646922328448663,right,-0.001916050910949707,-0.6523565531573252,1.1273905303183942,-7.710928013071418,-0.32681306241008745,0.0028506533708423376,-0.0006681531667709351,5.953232112339139,0.006121516227722168
1746576180420962300,8.73496240234375,0.14516172640333683,-0.009172924794256687,-0.006613230859664358,0.001810344634577632,0.19463184032686237,0.9248284399621277,0.4640179233909565,right,-0.00055694580078125,-0.6522224282412895,1.1273791321415454,-7.711736406844854,-0.32675241814111633,0.0051269978284835815,-0.00019419938325881958,5.952186987200379,0.0017792582511901855
1746576180460962300,8.77496240234375,0.14516172640333683,0.001373295672237873,-0.006613230859664358,0.00799680594354868,0.19463184032686237,0.9248284399621277,0.4640179233909565,right,0.002794981002807617,-0.6522224282412895,1.1273791321415454,-7.711736406844854,-0.32675241814111633,0.011518709361553192,0.0007471665740013123,5.952186987200379,0.004084289073944092
1746576180500962600,8.814962646484375,0.1457941485879004,0.0036166897043585777,-0.0062083008444288905,0.013107886537909508,0.19449622139598974,0.9249505673957552,0.46384199353566025,right,-0.0009674429893493652,-0.6515242070080819,1.1328594632487743,-7.7151318945020435,-0.32649534902927496,0.004736088216304779,0.0017851218581199646,5.946743334841728,0.002229630947113037
1746576180540962600,8.854962646484376,0.1457941485879004,0.002988249296322465,-0.0062083008444288905,0.00576888769865036,0.19449622139598974,0.9249505673957552,0.46384199353566025,right,-0.0008105635643005371,-0.6515242070080819,1.1328594632487743,-7.7151318945020435,-0.32649534902927496,0.0010554366745054722,0.002909064292907715,5.946743334841728,0.0031759142875671387
1746576180580962300,8.89496240234375,0.14648488272573265,-0.005743500776588917,-0.00587296565271693,0.010273469612002373,0.19433229491563114,0.924961030233374,0.46373369543595294,right,-0.0002372264862060547,-0.6515392619278791,1.1381753245092927,-7.714259203320741,-0.3265696803753655,-0.011079536750912666,0.0011567696928977966,5.946860823741555,-0.000003993511199951172
1746576180620962300,8.93496240234375,0.14703322960002577,0.0030916323885321617,-0.00567805524670829,0.014453165233135223,0.19419153515936852,0.9248873975860902,0.46370376230870597,right,0.0006729364395141602,-0.6520690759144965,1.1419434448711574,-7.710515925139188,-0.3268651989411818,-0.012155204080045223,0.0027107074856758118,5.95099163993597,-0.002305746078491211
1746576180660962300,8.97496240234375,0.14703322960002577,0.0006828412879258394,-0.00567805524670829,0.0065011875703930855,0.19419153515936852,0.9248873975860902,0.46370376230870597,right,-0.0022534728050231934,-0.6520690759144965,1.1419434448711574,-7.710515925139188,-0.3268651989411818,-0.002865726128220558,0.004585720598697662,5.95099163993597,0.003762185573577881
1746576180700962300,9.01496240234375,0.14703322960002577,-0.008773786015808582,-0.00567805524670829,0.0012428904883563519,0.19419153515936852,0.9248873975860902,0.46370376230870597,right,-0.0016794800758361816,-0.6520690759144965,1.1419434448711574,-7.710515925139188,-0.3268651989411818,0.01263180747628212,0.004284389317035675,5.95099163993597,0.0035118460655212402
1746576180740962600,9.054962646484375,0.14703322960002577,-0.008411350660026073,-0.00567805524670829,0.0003502329345792532,0.19419153515936852,0.9248873975860902,0.46370376230870597,right,-0.0011268854141235352,-0.6520690759144965,1.1419434448711574,-7.710515925139188,-0.3268651989411818,0.015988916158676147,0.003767922520637512,5.95099163993597,-0.0005683302879333496
1746576180780962600,9.094962646484374,0.14689060455445793,0.0008266111835837364,-0.005501277933855689,0.0005865904968231916,0.19389786393426536,0.9250999331280128,0.46288070698227135,right,-0.0010325312614440918,-0.6511655770502379,1.1416301411382854,-7.7159940642893305,-0.3264406891236311,0.01540217362344265,0.0024754852056503296,5.943946397599578,-0.00022155046463012695
1746576180820962300,9.13496240234375,0.14701271201330254,0.006855045445263386,-0.005358284386678998,-0.002847449854016304,0.19394883685298508,0.9252103207739669,0.46291662885902013,right,-0.001115262508392334,-0.6503946647138323,1.143243275423348,-7.720385577246546,-0.3260999500237995,0.014014068059623241,0.002745784819126129,5.937931667354703,0.00009578466415405273
1746576180860962300,9.17496240234375,0.14701271201330254,0.006381310988217592,-0.005358284386678998,-0.004363588988780975,0.19394883685298508,0.9252103207739669,0.46291662885902013,right,-0.000662684440612793,-0.6503946647138323,1.143243275423348,-7.720385577246546,-0.3260999500237995,0.008970532566308975,0.0009116008877754211,5.937931667354703,-0.0004317164421081543
1746576180900962300,9.21496240234375,0.14701271201330254,0.001864544115960598,-0.005358284386678998,-0.0012749892193824053,0.19394883685298508,0.9252103207739669,0.46291662885902013,right,-0.00025767087936401367,-0.6503946647138323,1.143243275423348,-7.720385577246546,-0.3260999500237995,0.0026210839860141277,0.0012834370136260986,5.937931667354703,-0.0009440779685974121
1746576180940962300,9.25496240234375,0.14711430243917992,0.00002195534761995077,-0.005258949421268567,-0.0003579051699489355,0.19409971821345645,0.9252999457854749,0.46316141260352783,right,0.0001850724220275879,-0.6496250842407287,1.1446970544282347,-7.724787611597776,-0.32575727492068524,-0.0022799214348196983,0.0022074729204177856,5.931923951372504,-0.001210629940032959
1746576180980962600,9.294962646484375,0.14711430243917992,0.0013279240811243653,-0.005258949421268567,-0.00269675487652421,0.19409971821345645,0.9252999457854749,0.46316141260352783,right,0.002016603946685791,-0.6496250842407287,1.1446970544282347,-7.724787611597776,-0.32575727492068524,-0.008431190624833107,0.0009181573987007141,5.931923951372504,-0.00021016597747802734
1746576181020962600,9.334962646484374,0.14711430243917992,-0.003842429257929325,-0.005258949421268567,0.007020032498985529,0.19409971821345645,0.9252999457854749,0.46316141260352783,right,0.0035802721977233887,-0.6496250842407287,1.1446970544282347,-7.724787611597776,-0.32575727492068524,-0.016122395172715187,0.0042623430490493774,5.931923951372504,0.0031374692916870117
1746576181060962600,9.374962646484375,0.1473330308726161,-0.004263804294168949,-0.005330028331883159,0.00029018428176641464,0.19403247509779323,0.9251020515149825,0.46328615269557605,right,-0.0027666687965393066,-0.6508921153192356,1.1452823800355196,-7.71709588805139,-0.3263574895338047,-0.022367220371961594,0.003162011504173279,5.941813477224112,0.0020768046379089355
1746576181100962300,9.41496240234375,0.1470966524377191,-0.004314451012760401,-0.0055581858645875944,-0.008242066018283367,0.1940321890594928,0.9249612123817554,0.46334167946017824,right,-0.0007226467132568359,-0.6518074371936331,1.1426605801645666,-7.711983075082301,-0.3267528118297066,-0.016091544181108475,0.005320221185684204,5.948951658540964,0.005162596702575684
1746576181140962300,9.45496240234375,0.1470966524377191,0.013494836166501045,-0.0055581858645875944,-0.004054841585457325,0.1940321890594928,0.9249612123817554,0.46334167946017824,right,0.0005907416343688965,-0.6518074371936331,1.1426605801645666,-7.711983075082301,-0.3267528118297066,0.0027695968747138977,0.003012619912624359,5.948951658540964,0.004278898239135742
1746576181180962300,9.49496240234375,0.14751313225363466,0.015724241733551025,-0.005540541771064292,-0.008438006043434143,0.1944534585519825,0.9248572375390233,0.46440193955393366,right,-0.0012179017066955566,-0.6518217533878954,1.1458598145972936,-7.711421934068203,-0.32679687712586186,0.003763251006603241,0.001471780240535736,5.9490633022218935,0.007615387439727783
1746576181220962600,9.534962646484376,0.14753838237885838,0.003983835689723492,-0.005599794020806697,-0.004894824232906103,0.19473059627627548,0.924829972046561,0.4649802634433539,right,0.000059664249420166016,-0.6516259910641881,1.1462257983654738,-7.71254538514018,-0.326708230759359,0.006209127604961395,0.0019560977816581726,5.947537115567922,0.008911371231079102
1746576181260962600,9.574962646484375,0.14753838237885838,-0.0009761261753737926,-0.005599794020806697,-0.012185266241431236,0.19473059627627548,0.924829972046561,0.4649802634433539,right,-0.000526130199432373,-0.6516259910641881,1.1462257983654738,-7.71254538514018,-0.326708230759359,0.006523179821670055,-0.00048119574785232544,5.947537115567922,0.0026682019233703613
1746576181300962600,9.614962646484376,0.14753838237885838,-0.0018157351296395063,-0.005599794020806697,0.004937533289194107,0.19473059627627548,0.924829972046561,0.4649802634433539,right,-0.00039774179458618164,-0.6516259910641881,1.1462257983654738,-7.71254538514018,-0.326708230759359,0.009097935631871223,-0.00045836716890335083,5.947537115567922,-0.0016678571701049805
1746576181340962300,9.65496240234375,0.14753838237885838,-0.002240337897092104,-0.005599794020806697,-0.00090748630464077,0.19473059627627548,0.924829972046561,0.4649802634433539,right,-0.0009733438491821289,-0.6516259910641881,1.1462257983654738,-7.71254538514018,-0.326708230759359,0.0017276378348469734,-0.0003291592001914978,5.947537115567922,-0.001413106918334961
1746576181380962300,9.69496240234375,0.14691413990293986,-0.0027992576360702515,-0.005759215763033204,0.0019085900858044624,0.19465216115777761,0.9249393334864504,0.4645212251887288,right,-0.00017887353897094727,-0.6511743617391379,1.1418041094657032,-7.715915738356113,-0.32644237795327347,0.0008892418118193746,-0.0007409676909446716,5.9440153711825605,-0.0006336569786071777
1746576181420962300,9.73496240234375,0.1471867695181201,-0.002714109141379595,-0.005602838266855952,0.0069689666852355,0.19456455538137002,0.9249660297645912,0.46441215648246276,right,-0.002177119255065918,-0.6510704293627403,1.1439982585091144,-7.716215013563633,-0.32642170816295535,0.0018320714589208364,0.001029685139656067,5.943204639321565,0.0019226670265197754
1746576181460962300,9.77496240234375,0.1471867695181201,-0.002628960646688938,-0.005602838266855952,0.012029342353343964,0.19456455538137002,0.9249660297645912,0.46441215648246276,right,-0.004205942153930664,-0.6510704293627403,1.1439982585091144,-7.716215013563633,-0.32642170816295535,0.0027749009896069765,0.003024078905582428,5.943204639321565,0.004396319389343262
1746576181500962600,9.814962646484375,0.14754202818040446,0.0005885742139071226,-0.005311669446303985,0.008760428987443447,0.1943327172813592,0.925076784472065,0.463967295286652,right,-0.0008871555328369141,-0.6506187627235234,1.147133999251574,-7.7184630847513676,-0.32625097972909683,0.02865091897547245,0.003611825406551361,5.939680556848645,-0.0044422149658203125
1746576181540962600,9.854962646484376,0.1481289798254392,0.01829896681010723,-0.004816367339175095,0.011624977923929691,0.19440070491759015,0.9253576318006482,0.46402460904859955,right,-0.0024641752243041992,-0.6486781171343053,1.153363175964728,-7.729174448379874,-0.3254206355775905,0.05402957648038864,0.004890777170658112,5.92452624233663,0.0014903545379638672
1746576181580962300,9.89496240234375,0.14890258415007357,0.01887771487236023,-0.004315886025484553,0.005244753789156675,0.19468888822245095,0.9255921079322478,0.4646157589683276,right,-0.0011696219444274902,-0.6466940009787697,1.1610836872141808,-7.7398887346178284,-0.32458722140639124,0.03680992126464844,0.004024416208267212,5.9090089397311205,0.0013006925582885742
1746576181620962300,9.93496240234375,0.14942985324699476,0.012400282546877861,-0.004006115821909851,-0.00002182507887482643,0.1949782835664382,0.9257324558980378,0.4652180928097306,right,-0.0023289918899536133,-0.6453372193127532,1.1663570245072246,-7.747196427282691,-0.32401676164878324,0.018498646095395088,0.003728121519088745,5.8983846698641775,0.002767503261566162
1746576181660962300,9.97496240234375,0.14942985324699476,0.011560870334506035,-0.004006115821909851,-0.007411999627947807,0.1949782835664382,0.9257324558980378,0.4652180928097306,right,-0.0004169940948486328,-0.6453372193127532,1.1663570245072246,-7.747196427282691,-0.32401676164878324,0.007856611162424088,0.003591291606426239,5.8983846698641775,0.0001131892204284668
1746576181700962300,10.01496240234375,0.14946252157426024,0.007269180379807949,-0.00405170121375135,-0.005696591921150684,0.19542676024453404,0.9257451340232262,0.46609518083665746,right,0.0005074739456176758,-0.6446631316586962,1.1672019508987665,-7.751088758546113,-0.32370982535222337,0.004156729206442833,0.002529352903366089,5.89310234554708,0.0025634169578552246
1746576181740962600,10.054962646484375,0.14946252157426024,-0.001657429151237011,-0.00405170121375135,-0.0037296030204743147,0.19542676024453404,0.9257451340232262,0.46609518083665746,right,0.0004457235336303711,-0.6446631316586962,1.1672019508987665,-7.751088758546113,-0.32370982535222337,0.0012668732088059187,0.0012439489364624023,5.89310234554708,0.0013780593872070312
1746576181780962600,10.094962646484374,0.14946252157426024,-0.009398406371474266,-0.00405170121375135,-0.0010386141948401928,0.19542676024453404,0.9257451340232262,0.46609518083665746,right,0.0022039413452148438,-0.6446631316586962,1.1672019508987665,-7.751088758546113,-0.32370982535222337,-0.005549740977585316,0.001855306327342987,5.89310234554708,0.002628028392791748
1746576181820962300,10.13496240234375,0.14946252157426024,-0.008849386125802994,-0.00405170121375135,-0.004683614708483219,0.19542676024453404,0.9257451340232262,0.46609518083665746,right,-0.0013104677200317383,-0.6446631316586962,1.1672019508987665,-7.751088758546113,-0.32370982535222337,-0.005613686982542276,0.0005500167608261108,5.89310234554708,0.0032378435134887695
1746576181860962300,10.17496240234375,0.14870053114152007,-0.007862653583288193,-0.004352983882898447,-0.0017021272797137499,0.19518717226838622,0.9257366913582655,0.4653905324594564,right,0.0015596747398376465,-0.6451826004158866,1.1608416951518505,-7.748947070342302,-0.3238745189683877,0.00045652082189917564,0.0032478421926498413,5.897173540508747,0.0014845728874206543
1746576181900962300,10.21496240234375,0.14853216528796356,-0.01116533949971199,-0.004321629992411854,0.0022425639908760786,0.19487627670545057,0.9257975849878795,0.4646694664155374,right,-0.00591963529586792,-0.6452447311925992,1.1594827548235653,-7.748779897081851,-0.32388808771334937,-0.0008205160265788436,0.004242643713951111,5.897659862720966,0.0005238652229309082
1746576181940962300,10.25496240234375,0.14853216528796356,-0.011821253225207329,-0.004321629992411854,-0.014788317494094372,0.19487627670545057,0.9257975849878795,0.4646694664155374,right,-0.0022934675216674805,-0.6452447311925992,1.1594827548235653,-7.748779897081851,-0.32388808771334937,-0.0038311202079057693,0.00391821563243866,5.897659862720966,0.0013680458068847656
1746576181980962600,10.294962646484375,0.14756276892267486,-0.005881964229047298,-0.0047264906140450196,-0.011295135132968426,0.19481382779072343,0.9258050260432032,0.46422996037436753,right,-0.0013486742973327637,-0.6454716745013939,1.1517737148161977,-7.7485758989423505,-0.32389849821509564,-0.004639824386686087,0.002304859459400177,5.899437978309392,0.0008045434951782227
1746576182020962600,10.334962646484374,0.14659311339835715,0.000057324767112731934,-0.005131354107011551,-0.00780195277184248,0.19475137887599697,0.9258124670985269,0.4637902663544674,right,-0.00040459632873535156,-0.6456984548064828,1.1440643094826488,-7.748366055583953,-0.3239088755207805,-0.005448528565466404,0.000691533088684082,5.90121434033215,0.00024127960205078125
1746576182060962600,10.374962646484375,0.14659311339835715,0.0011854288168251514,-0.005131354107011551,-0.005472429096698761,0.19475137887599697,0.9258124670985269,0.4637902663544674,right,-0.0012287497520446777,-0.6456984548064828,1.1440643094826488,-7.748366055583953,-0.3239088755207805,-0.0018518243450671434,0.0006768405437469482,5.90121434033215,0.001521289348602295
1746576182100962300,10.41496240234375,0.14659311339835715,0.003206561552360654,-0.005131354107011551,-0.009749465622007847,0.19475137887599697,0.9258124670985269,0.4637902663544674,right,-0.0012206435203552246,-0.6456984548064828,1.1440643094826488,-7.748366055583953,-0.3239088755207805,0.0026345334481447935,-0.0010953396558761597,5.90121434033215,0.00028634071350097656
1746576182140962300,10.45496240234375,0.14575867456329492,0.002952586393803358,-0.0055660522762983845,-0.0019970526918768883,0.19506599290818438,0.9257883896457635,0.46416299424914004,right,0.00476759672164917,-0.6455991169849367,1.1376835224043578,-7.749897502934933,-0.3237811126755895,0.006652962416410446,0.0012680888175964355,5.900436341696977,0.00010323524475097656
1746576182180962300,10.49496240234375,0.14575867456329492,0.00638981768861413,-0.0055660522762983845,0.00011137011460959911,0.19506599290818438,0.9257883896457635,0.46416299424914004,right,-0.0014098286628723145,-0.6455991169849367,1.1376835224043578,-7.749897502934933,-0.3237811126755895,0.004158547148108482,0.0022577419877052307,5.900436341696977,-0.00011515617370605469
1746576182220962600,10.534962646484376,0.14575867456329492,0.005045623052865267,-0.0055660522762983845,-0.008769407868385315,0.19506599290818438,0.9257883896457635,0.46416299424914004,right,0.0002181529998779297,-0.6455991169849367,1.1376835224043578,-7.749897502934933,-0.3237811126755895,-0.009864729829132557,0.001931607723236084,5.900436341696977,0.0012058019638061523
1746576182260962600,10.574962646484375,0.14565291823150991,-0.00376570550724864,-0.005721956032449684,-0.0037777218967676163,0.19533050164875695,0.9257131828482085,0.4647187984044891,right,0.00043404102325439453,-0.6457403590019206,1.1367429536186158,-7.74919315405786,-0.32383386151467,-0.00640351977199316,0.0011409446597099304,5.9015428416341535,0.0010579228401184082
1746576182300962600,10.614962646484376,0.14565291823150991,-0.005897145718336105,-0.005721956032449684,-0.0004595564678311348,0.19533050164875695,0.9257131828482085,0.4647187984044891,right,-0.00017338991165161133,-0.6457403590019206,1.1367429536186158,-7.74919315405786,-0.32383386151467,-0.0029650134965777397,0.0020780041813850403,5.9015428416341535,0.00102311372756958
1746576182340962300,10.65496240234375,0.1453279871044023,-0.008962885476648808,-0.005827101078902707,-0.0013720509596168995,0.19515964254043294,0.9257227517200972,0.4642704250597403,right,-0.0012199878692626953,-0.6459682136565642,1.1340301875285803,-7.748231615549326,-0.323907684490815,-0.004619286395609379,0.0011469125747680664,5.903327386963367,0.002517998218536377
1746576182380962300,10.69496240234375,0.1453279871044023,-0.008421172387897968,-0.005827101078902707,-0.004359341226518154,0.19515964254043294,0.9257227517200972,0.4642704250597403,right,-0.00004220008850097656,-0.6459682136565642,1.1340301875285803,-7.748231615549326,-0.323907684490815,-0.001048732316121459,0.0009025037288665771,5.903327386963367,0.0027317404747009277
1746576182420962300,10.73496240234375,0.1446308908986604,-0.006351237650960684,-0.006049563383267989,-0.0033348719589412212,0.1948989903121033,0.9257654362851765,0.4634952953100533,right,-0.0008130669593811035,-0.646179642017704,1.1284487341344356,-7.747785040825605,-0.3239387325113089,-0.00029066920978948474,0.0016570910811424255,5.904982752954959,0.002812027931213379
1746576182460962300,10.77496240234375,0.1446308908986604,-0.001055106520652771,-0.006049563383267989,-0.008199479430913925,0.1948989903121033,0.9257654362851765,0.4634952953100533,right,-0.0009996294975280762,-0.646179642017704,1.1284487341344356,-7.747785040825605,-0.3239387325113089,-0.0033643662463873625,0.0024442970752716064,5.904982752954959,0.00022524595260620117
1746576182500962600,10.814962646484375,0.1446308908986604,0.0045691244304180145,-0.006049563383267989,-0.00807492807507515,0.1948989903121033,0.9257654362851765,0.4634952953100533,right,-0.0005422830581665039,-0.646179642017704,1.1284487341344356,-7.747785040825605,-0.3239387325113089,-0.005594085901975632,0.002181693911552429,5.904982752954959,0.0009092092514038086
1746576182540962600,10.854962646484376,0.1440111114601819,0.005100171081721783,-0.0064158951374449396,-0.0067446427419781685,0.1950470683386442,0.9256833158220723,0.4636637963835848,right,0.00020384788513183594,-0.6466150719701126,1.1232774689763785,-7.7459373671323055,-0.32407705970171996,-0.0054422845132648945,0.0012180358171463013,5.908391100093722,0.0009685158729553223
1746576182580962300,10.89496240234375,0.1440111114601819,0.002494767541065812,-0.0064158951374449396,-0.0010785367339849472,0.1950470683386442,0.9256833158220723,0.4636637963835848,right,0.0008924603462219238,-0.6466150719701126,1.1232774689763785,-7.7459373671323055,-0.32407705970171996,-0.0018048277124762535,0.0013050660490989685,5.908391100093722,0.001839756965637207
1746576182620962300,10.93496240234375,0.1440111114601819,-0.001144220819696784,-0.0064158951374449396,0.0014059324748814106,0.1950470683386442,0.9256833158220723,0.4636637963835848,right,0.0007953047752380371,-0.6466150719701126,1.1232774689763785,-7.7459373671323055,-0.32407705970171996,-0.0014477571239694953,0.0008403733372688293,5.908391100093722,0.0014783740043640137
1746576182660962300,10.97496240234375,0.1440111114601819,-0.007129997946321964,-0.0064158951374449396,0.0059229228645563126,0.1950470683386442,0.9256833158220723,0.4636637963835848,right,-0.0014849305152893066,-0.6466150719701126,1.1232774689763785,-7.7459373671323055,-0.32407705970171996,0.0038424963131546974,0.001522652804851532,5.908391100093722,0.004594087600708008
1746576182700962300,11.01496240234375,0.14379753606965068,-0.011064499616622925,-0.006403633771378167,0.0039686886593699455,0.19474216112245876,0.925745503331108,0.46293837761758044,right,-0.00025790929794311523,-0.6466688787519925,1.1215776062559335,-7.745862548330426,-0.32408317630638933,0.007645548786967993,0.004764236509799957,5.908812540376186,0.003841996192932129
1746576182740962600,11.054962646484375,0.14379753606965068,-0.004010383505374193,-0.006403633771378167,-0.0011717341840267181,0.19474216112245876,0.925745503331108,0.46293837761758044,right,-0.0002410411834716797,-0.6466688787519925,1.1215776062559335,-7.745862548330426,-0.32408317630638933,0.007359528448432684,0.0013129860162734985,5.908812540376186,0.0009763240814208984
1746576182780962600,11.094962646484374,0.14374300201000825,0.0015004896558821201,-0.006280761966555691,0.0037859450094401836,0.19454656709599072,0.9258740015327233,0.4624168557452638,right,0.0009172558784484863,-0.6461364198505063,1.1216056633066385,-7.749036502191424,-0.3238358354355133,0.0085774390026927,0.0033174604177474976,5.904644314780831,0.000761568546295166
1746576182820962300,11.13496240234375,0.14374300201000825,0.0011822442756965756,-0.006280761966555691,-0.002939754631370306,0.19454656709599072,0.9258740015327233,0.4624168557452638,right,-0.005339622497558594,-0.6461364198505063,1.1216056633066385,-7.749036502191424,-0.3238358354355133,0.005545404739677906,0.004848837852478027,5.904644314780831,-0.0008677840232849121
1746576182860962300,11.17496240234375,0.14374300201000825,-0.003149455413222313,-0.006280761966555691,-0.007968740537762642,0.19454656709599072,0.9258740015327233,0.4624168557452638,right,-0.001356661319732666,-0.6461364198505063,1.1216056633066385,-7.749036502191424,-0.3238358354355133,0.007805974222719669,0.0036839693784713745,5.904644314780831,-0.0009320378303527832
1746576182900962300,11.21496240234375,0.14320475827580795,-0.0003121928311884403,-0.006372172040711288,-0.007344627287238836,0.19443994479624555,0.9260138341994465,0.4619045023201206,right,0.0013724565505981445,-0.6455093174005478,1.1179628498248755,-7.753302342942357,-0.3234980538352966,-0.00022924412041902542,0.003264591097831726,5.899733161863685,-0.0036236047744750977
1746576182940962300,11.25496240234375,0.14320475827580795,0.007199291605502367,-0.006372172040711288,-0.00044244108721613884,0.19443994479624555,0.9260138341994465,0.4619045023201206,right,-0.0007991790771484375,-0.6455093174005478,1.1179628498248755,-7.753302342942357,-0.3234980538352966,-0.003780305851250887,0.0018227919936180115,5.899733161863685,0.00011652708053588867
1746576182980962600,11.294962646484375,0.14320475827580795,-0.0016908464021980762,-0.006372172040711288,-0.006626992020756006,0.19443994479624555,0.9260138341994465,0.4619045023201206,right,-0.001162707805633545,-0.6455093174005478,1.1179628498248755,-7.753302342942357,-0.3234980538352966,-0.005447598174214363,0.0025370270013809204,5.899733161863685,0.004395782947540283
1746576183020962600,11.334962646484374,0.14320475827580795,-0.007600718177855015,-0.006372172040711288,-0.01334441639482975,0.19443994479624555,0.9260138341994465,0.4619045023201206,right,-0.0018197298049926758,-0.6455093174005478,1.1179628498248755,-7.753302342942357,-0.3234980538352966,0.003817024640738964,-0.000026591122150421143,5.899733161863685,0.0039253830909729
1746576183060962600,11.374962646484375,0.1418907903102396,-0.007194865494966507,-0.006901456111475602,-0.005776730366051197,0.19443544965019852,0.9260586889875885,0.461432384042333,right,0.0027628540992736816,-0.6454860723760031,1.1077936302490532,-7.75489984126687,-0.32336126180611974,0.008154412731528282,0.0006532073020935059,5.899550791034102,0.0009063482284545898
1746576183100962300,11.41496240234375,0.14151844020852528,-0.0012523680925369263,-0.007033389707161958,-0.0062671927735209465,0.19446006449332506,0.926096429694169,0.46132642605867075,right,-0.0022144317626953125,-0.6452900510403782,1.105069173721224,-7.7564570075809955,-0.32323565177000696,0.004151059780269861,0.00042632222175598145,5.898015252029896,0.0023800134658813477
1746576183140962300,11.45496240234375,0.14151844020852528,-0.002067816909402609,-0.007033389707161958,-0.007893170230090618,0.19446006449332506,0.926096429694169,0.46132642605867075,right,-0.00008249282836914062,-0.6452900510403782,1.105069173721224,-7.7564570075809955,-0.32323565177000696,0.0015270346775650978,-0.0019292458891868591,5.898015252029896,0.0016371607780456543
1746576183180962300,11.49496240234375,0.14151844020852528,-0.0007841658079996705,-0.007033389707161958,-0.0006215018220245838,0.19446006449332506,0.926096429694169,0.46132642605867075,right,-0.0001423954963684082,-0.6452900510403782,1.105069173721224,-7.7564570075809955,-0.32323565177000696,0.0004826509393751621,-0.0009868890047073364,5.898015252029896,0.0003120303153991699
1746576183220962600,11.534962646484376,0.14151844020852528,0.0004994854098185897,-0.007033389707161958,0.006650167051702738,0.19446006449332506,0.926096429694169,0.46132642605867075,right,-0.00020229816436767578,-0.6452900510403782,1.105069173721224,-7.7564570075809955,-0.32323565177000696,-0.0005617327988147736,-0.0000445246696472168,5.898015252029896,-0.0010131001472473145
1746576183260962600,11.574962646484375,0.14151844020852528,-0.0021703671663999557,-0.007033389707161958,0.004605517257004976,0.19446006449332506,0.926096429694169,0.46132642605867075,right,-0.002239227294921875,-0.6452900510403782,1.105069173721224,-7.7564570075809955,-0.32323565177000696,0.0014703196939080954,0.0026383548974990845,5.898015252029896,0.0017272233963012695
1746576183300962600,11.614962646484376,0.14151844020852528,-0.004018890205770731,-0.007033389707161958,-0.0014441260136663914,0.19446006449332506,0.926096429694169,0.46132642605867075,right,-0.0014745593070983887,-0.6452900510403782,1.105069173721224,-7.7564570075809955,-0.32323565177000696,-0.002062328392639756,0.0019003674387931824,5.898015252029896,-0.0009320378303527832
1746576183340962300,11.65496240234375,0.14151844020852528,-0.00028664455749094486,-0.007033389707161958,-0.0013039489276707172,0.19446006449332506,0.926096429694169,0.46132642605867075,right,-0.0009517669677734375,-0.6452900510403782,1.105069173721224,-7.7564570075809955,-0.32323565177000696,-0.00018341385293751955,0.002471141517162323,5.898015252029896,0.00012058019638061523
1746576183380962300,11.69496240234375,0.14151844020852528,0.003179003717377782,-0.007033389707161958,-0.0020134474616497755,0.19446006449332506,0.926096429694169,0.46132642605867075,right,-0.0003750324249267578,-0.6452900510403782,1.105069173721224,-7.7564570075809955,-0.32323565177000696,-0.0018541853642091155,0.0007033199071884155,5.898015252029896,-0.00006240606307983398
1746576183420962300,11.73496240234375,0.14151844020852528,0.010429426096379757,-0.007033389707161958,0.001670521218329668,0.19446006449332506,0.926096429694169,0.46132642605867075,right,-0.0009121894836425781,-0.6452900510403782,1.105069173721224,-7.7564570075809955,-0.32323565177000696,0.0002764657838270068,0.0014394894242286682,5.898015252029896,0.0006570816040039062
1746576183460962300,11.77496240234375,0.1420101645988654,0.01076062023639679,-0.006878628090118381,0.000890031224116683,0.1947156182957586,0.9260771165605394,0.46200424246390376,right,0.00008636713027954102,-0.6449828535590735,1.1091394919000566,-7.757706130859256,-0.32314046711810945,0.0012454995885491371,0.0006937608122825623,5.895608190888166,0.0017986893653869629
1746576183500962600,11.814962646484375,0.1420101645988654,0.0038219974376261234,-0.006878628090118381,0.003889665240421891,0.1947156182957586,0.9260771165605394,0.46200424246390376,right,-0.00014650821685791016,-0.6449828535590735,1.1091394919000566,-7.757706130859256,-0.32314046711810945,0.0021534860134124756,0.0009225234389305115,5.895608190888166,0.0015128850936889648
1746576183540962600,11.854962646484376,0.1420101645988654,-0.0009272312745451927,-0.006878628090118381,0.0033390044700354338,0.1947156182957586,0.9260771165605394,0.46200424246390376,right,-0.00128859281539917,-0.6449828535590735,1.1091394919000566,-7.757706130859256,-0.32314046711810945,0.0010332325473427773,0.0015810132026672363,5.895608190888166,0.001546323299407959
1746576183580962300,11.89496240234375,0.14248109815914556,0.0017584171146154404,-0.006661064723554175,-0.001871783984825015,0.19468819988298208,0.92608694550087,0.462092214100344,right,-0.0008249878883361816,-0.6448678545412906,1.1128889806266873,-7.757854014897346,-0.3231333609478424,-0.0019793848041445017,0.0013083592057228088,5.89470685813427,0.001038670539855957
1746576183620962300,11.93496240234375,0.14248109815914556,0.0044440655037760735,-0.006661064723554175,-0.007082571275532246,0.19468819988298208,0.92608694550087,0.462092214100344,right,-0.0003764629364013672,-0.6448678545412906,1.1128889806266873,-7.757854014897346,-0.3231333609478424,-0.004992001689970493,0.0014180392026901245,5.89470685813427,0.00043904781341552734
1746576183660962300,11.97496240234375,0.14248109815914556,0.006520700640976429,-0.006661064723554175,-0.00007089553400874138,0.19468819988298208,0.92608694550087,0.462092214100344,right,0.0004968643188476562,-0.6448678545412906,1.1128889806266873,-7.757854014897346,-0.3231333609478424,-0.004251782316714525,0.003912940621376038,5.89470685813427,0.00015980005264282227
1746576183700962300,12.01496240234375,0.1435151323117487,0.007666628807783127,-0.006269981048521781,-0.0015521484892815351,0.19476007662521463,0.9260351565713272,0.4626127702305011,right,-0.005250692367553711,-0.6448977980546761,1.120884947816655,-7.756523643076419,-0.32324608714715336,0.00016353977844119072,0.0018257349729537964,5.894941251412034,-0.00024050474166870117
1746576183740962600,12.054962646484375,0.14380534926763652,0.009086585603654385,-0.00623111570968425,-0.011368820443749428,0.19501678200929173,0.9259839701769625,0.46325764178816836,right,-0.0009955763816833496,-0.6448250430376845,1.1231975356079638,-7.756623011797666,-0.3232390064285651,-0.0023827627301216125,0.0016983076930046082,5.894371342569589,0.003324568271636963
1746576183780962600,12.094962646484374,0.14380534926763652,0.00657937116920948,-0.00623111570968425,0.0003037489950656891,0.19501678200929173,0.9259839701769625,0.46325764178816836,right,0.0011392831802368164,-0.6448250430376845,1.1231975356079638,-7.756623011797666,-0.3232390064285651,-0.0013650570763275027,0.00041513144969940186,5.894371342569589,0.0024710893630981445
1746576183820962300,12.13496240234375,0.14380534926763652,0.0074781090952456,-0.00623111570968425,0.006231565028429031,0.19501678200929173,0.9259839701769625,0.46325764178816836,right,0.00006729364395141602,-0.6448250430376845,1.1231975356079638,-7.756623011797666,-0.3232390064285651,-0.00010172964539378881,0.002087704837322235,5.894371342569589,0.0022806525230407715
1746576183860962300,12.17496240234375,0.14380534926763652,0.0028235907666385174,-0.00623111570968425,0.003721509827300906,0.19501678200929173,0.9259839701769625,0.46325764178816836,right,-0.001651465892791748,-0.6448250430376845,1.1231975356079638,-7.756623011797666,-0.3232390064285651,0.0023389291018247604,0.0020892471075057983,5.894371342569589,0.0035106539726257324
1746576183900962300,12.21496240234375,0.1444908172504971,0.003990646451711655,-0.006028295042576615,-0.0010162785183638334,0.1953163213424728,0.9259315657411429,0.46411398234462176,right,-0.0017738938331604004,-0.6446258561774898,1.128683200477436,-7.757012887898087,-0.32321209877871804,0.00629988219588995,0.0020945072174072266,5.892810084602236,0.002575993537902832
1746576183940962300,12.25496240234375,0.1444908172504971,-0.000048222485929727554,-0.006028295042576615,0.007644510827958584,0.1953163213424728,0.9259315657411429,0.46411398234462176,right,0.0007885098457336426,-0.6446258561774898,1.128683200477436,-7.757012887898087,-0.32321209877871804,0.007716613821685314,0.0036852657794952393,5.892810084602236,-0.0006253719329833984
1746576183980962600,12.294962646484375,0.14512146216094932,0.005281519610434771,-0.0057066104216394724,0.002511009108275175,0.19545752176048664,0.9260093836224678,0.4645194704647565,right,-0.002644658088684082,-0.6438322565787398,1.1342507714767007,-7.760924508383869,-0.3229093009430836,0.011882467195391655,0.0034837275743484497,5.886587264564633,0.00209963321685791
1746576184020962600,12.334962646484374,0.14517882872785076,-0.002909750211983919,-0.005616415234755616,0.0012956226710230112,0.1955383960775268,0.9260960836881235,0.4646149544115571,right,0.0008895397186279297,-0.6431740001232689,1.1352563683226704,-7.7646917519629,-0.32261330214006284,0.014251519925892353,0.005076684057712555,5.881423013669252,0.0024840831756591797
1746576184060962600,12.374962646484375,0.14519974389113255,-0.000016179634258151054,-0.00549624726770536,0.0016223022248595953,0.19554381937968357,0.9262202168742221,0.46451547113448355,right,0.0005296468734741211,-0.642387397232015,1.1360877776455134,-7.76924342391789,-0.3222555141788042,0.01711392030119896,0.0033602118492126465,5.875248708948493,-0.00014144182205200195
1746576184100962300,12.41496240234375,0.1454567416973848,0.001961241476237774,-0.005323598583836928,0.005040062125772238,0.19558420664407022,0.9262946123937975,0.4646064392756229,right,0.000674128532409668,-0.6418188191346342,1.1385684885453433,-7.772255465215444,-0.3220200615902392,0.009883372113108635,0.0040114447474479675,5.870783546233177,-0.0000584721565246582
1746576184140962300,12.45496240234375,0.1454567416973848,-0.0012718567159026861,-0.005323598583836928,0.0014703627675771713,0.19558420664407022,0.9262946123937975,0.4646064392756229,right,-0.0005846619606018066,-0.6418188191346342,1.1385684885453433,-7.772255465215444,-0.3220200615902392,0.002778629306703806,0.005211062729358673,5.870783546233177,0.0010112524032592773
1746576184180962300,12.49496240234375,0.1454567416973848,-0.00625676941126585,-0.005323598583836928,-0.004823331721127033,0.19558420664407022,0.9262946123937975,0.4646064392756229,right,0.00014543533325195312,-0.6418188191346342,1.1385684885453433,-7.772255465215444,-0.3220200615902392,0.003065910190343857,0.004629351198673248,5.870783546233177,0.00004935264587402344
1746576184220962600,12.534962646484376,0.1454567416973848,-0.004337958060204983,-0.005323598583836928,-0.005190145689994097,0.19558420664407022,0.9262946123937975,0.4646064392756229,right,0.0006050467491149902,-0.6418188191346342,1.1385684885453433,-7.772255465215444,-0.3220200615902392,-0.001097553875297308,0.002936534583568573,5.870783546233177,-0.0005969405174255371
1746576184260962600,12.574962646484375,0.1454567416973848,0.0023239431902766228,-0.005323598583836928,-0.005864225793629885,0.19558420664407022,0.9262946123937975,0.4646064392756229,right,-0.0009359121322631836,-0.6418188191346342,1.1385684885453433,-7.772255465215444,-0.3220200615902392,-0.0040460070595145226,0.003829285502433777,5.870783546233177,0.0002964138984680176
1746576184300962600,12.614962646484376,0.1454567416973848,0.004526261240243912,-0.005323598583836928,-0.007319379597902298,0.19558420664407022,0.9262946123937975,0.4646064392756229,right,-0.0010411739349365234,-0.6418188191346342,1.1385684885453433,-7.772255465215444,-0.3220200615902392,-0.011697802692651749,0.002764374017715454,5.870783546233177,0.0003802180290222168
1746576184340962300,12.65496240234375,0.14489438250851405,0.007086232304573059,-0.0056792235523330835,-0.009481735527515411,0.195753480319592,0.9262012953278946,0.4648471035810193,right,-0.0011143684387207031,-0.6422885987944451,1.1337991552516817,-7.770164630416035,-0.32217947580254047,-0.01319510955363512,0.002527683973312378,5.874473048400879,0.00117570161819458
1746576184380962300,12.69496240234375,0.14489438250851405,0.003573634196072817,-0.0056792235523330835,-0.008259126916527748,0.195753480319592,0.9262012953278946,0.4648471035810193,right,0.0009312629699707031,-0.6422885987944451,1.1337991552516817,-7.770164630416035,-0.32217947580254047,-0.004991348832845688,0.0022194460034370422,5.874473048400879,0.0027156472206115723
1746576184420962300,12.73496240234375,0.14489438250851405,0.001623073243536055,-0.0056792235523330835,-0.0043977717868983746,0.195753480319592,0.9262012953278946,0.4648471035810193,right,-0.0003775358200073242,-0.6422885987944451,1.1337991552516817,-7.770164630416035,-0.32217947580254047,0.0019984273239970207,0.0017761513590812683,5.874473048400879,0.0030171871185302734
1746576184460962300,12.77496240234375,0.1444783661191973,-0.0004324511392042041,-0.005956908571531733,-0.0041232965886592865,0.19598523804067178,0.9261344662587823,0.4652317032415458,right,-0.0023100972175598145,-0.6424805977664388,1.1304041059859096,-7.7695187337279314,-0.32222553438147405,0.0013824101770296693,0.0015525221824645996,5.87598053035438,0.003280162811279297
1746576184500962600,12.814962646484375,0.1444783661191973,-0.0012020750436931849,-0.005956908571531733,0.002605284098535776,0.19598523804067178,0.9261344662587823,0.4652317032415458,right,-0.0008662939071655273,-0.6424805977664388,1.1304041059859096,-7.7695187337279314,-0.32222553438147405,0.006113502662628889,0.003310777246952057,5.87598053035438,0.002492547035217285
1746576184540962600,12.854962646484376,0.1444783661191973,0.0031494221184402704,-0.005956908571531733,-0.0021755751222372055,0.19598523804067178,0.9261344662587823,0.4652317032415458,right,0.00027883052825927734,-0.6424805977664388,1.1304041059859096,-7.7695187337279314,-0.32222553438147405,0.004946960136294365,0.002230331301689148,5.87598053035438,0.0010591745376586914
1746576184580962300,12.89496240234375,0.1444783661191973,0.000011243624612689018,-0.005956908571531733,0.011229200288653374,0.19598523804067178,0.9261344662587823,0.4652317032415458,right,0.0006555318832397461,-0.6424805977664388,1.1304041059859096,-7.7695187337279314,-0.32222553438147405,0.010293345898389816,0.0041246116161346436,5.87598053035438,0.0006173253059387207
1746576184620962300,12.93496240234375,0.14448672435925056,0.0027970694936811924,-0.0058753349008872895,-0.006223954260349274,0.19607727987450535,0.926236821061466,0.465318683076527,right,-0.005474090576171875,-0.6417175326566996,1.1311143000818789,-7.773944148954748,-0.3218767234116136,0.006960246711969376,0.00379171222448349,5.869988011941313,0.0005347728729248047
1746576184660962300,12.97496240234375,0.14389571446241084,-0.0075536551885306835,-0.006099493770990095,-0.014056866988539696,0.1961728762059501,0.9262900390775259,0.46526806623967304,right,0.00019109249114990234,-0.6413729031534549,1.126809661690518,-7.776613075903057,-0.32166111173808937,0.004791069310158491,0.00420871376991272,5.867279922026396,0.0006729364395141602
1746576184700962300,13.01496240234375,0.14389571446241084,-0.002885752357542515,-0.006099493770990095,-0.007997162640094757,0.1961728762059501,0.9262900390775259,0.46526806623967304,right,0.0017839670181274414,-0.6413729031534549,1.126809661690518,-7.776613075903057,-0.32166111173808937,-0.0002467222511768341,0.0016863718628883362,5.867279922026396,-0.0015819072723388672
1746576184740962600,13.054962646484375,0.14389571446241084,0.0023215878754854202,-0.006099493770990095,-0.004110551439225674,0.1961728762059501,0.9262900390775259,0.46526806623967304,right,0.00010788440704345703,-0.6413729031534549,1.126809661690518,-7.776613075903057,-0.32166111173808937,-0.0018548640655353665,0.0015725791454315186,5.867279922026396,0.0009533166885375977
1746576184780962600,13.094962646484374,0.1432856533759052,0.0035276045091450214,-0.00638580035773715,-0.0056425342336297035,0.19631239393989228,0.9262911103005115,0.4653464503330051,right,-0.0017922520637512207,-0.6412992417824185,1.1221269107017666,-7.777726590102911,-0.3215672822583696,0.0013439067406579852,0.002337038516998291,5.866701245355606,0.002413451671600342
1746576184820962300,13.13496240234375,0.1432856533759052,0.00016425619833171368,-0.00638580035773715,-0.011695494875311852,0.19631239393989228,0.9262911103005115,0.4653464503330051,right,-0.0025857090950012207,-0.6412992417824185,1.1221269107017666,-7.777726590102911,-0.3215672822583696,0.003573228605091572,-0.0007311031222343445,5.866701245355606,0.0032051801681518555
1746576184860962300,13.17496240234375,0.1432856533759052,0.00022400316083803773,-0.00638580035773715,-0.0071909548714756966,0.19631239393989228,0.9262911103005115,0.4653464503330051,right,-0.0037547945976257324,-0.6412992417824185,1.1221269107017666,-7.777726590102911,-0.3215672822583696,0.0013779709115624428,-0.00021702051162719727,5.866701245355606,0.002141892910003662
1746576184900962300,13.21496240234375,0.1432856533759052,0.0002837501233443618,-0.00638580035773715,-0.002686413936316967,0.19631239393989228,0.9262911103005115,0.4653464503330051,right,-0.0049239397048950195,-0.6412992417824185,1.1221269107017666,-7.777726590102911,-0.3215672822583696,-0.0008172867819666862,0.00029705464839935303,5.866701245355606,0.0010786056518554688
1746576184940962300,13.25496240234375,0.1432856533759052,-0.0036423886194825172,-0.00638580035773715,-0.0010343350004404783,0.19631239393989228,0.9262911103005115,0.4653464503330051,right,-0.0021793246269226074,-0.6412992417824185,1.1221269107017666,-7.777726590102911,-0.3215672822583696,-0.0008310135453939438,0.0016527995467185974,5.866701245355606,0.0027683377265930176
