time,seconds_elapsed,roll,rotationRateZ,quaternionY,rotationRateY,quaternionZ,quaternionW,yaw,devicelocation,accelerationZ,pitch,gravityX,gravityZ,quaternionX,rotationRateX,accelerationX,gravityY,accelerationY
1746739374054359300,0.446359375,0.2874423127518897,0.0029583245050162077,0.1432221979962537,0.0005911632906645536,1.1238860754242503e-17,0.9896792738000237,0.0013492320866598632,right,0.11091601848602295,-0.00932305157339152,2.780069401718676,-9.403895128783583,-0.004710069596255919,0.003069307655096054,-0.02600795030593872,0.09142661226899362,0.45910608768463135
1746739374094359000,0.486359130859375,0.2854560926748392,0.00014545745216310024,0.13514645080742124,0.0009736997308209538,0.011053725812378656,0.9778516432744375,0.06808993965255267,right,0.06672942638397217,-0.3139503286920875,2.626526314952969,-8.94986541288197,-0.15943421623357135,0.0007542828097939491,-0.010055184364318848,3.028473084656894,0.158308207988739
1746739374134359300,0.526359375,0.2921763063462836,-0.0011844191467389464,0.13100711260898282,0.0036474731750786304,0.015703522638407984,0.9653889114671005,0.09905088521083631,right,0.01666182279586792,-0.44478822554151176,2.5498428882449864,-8.477305768555402,-0.22497734432330282,0.00026283133774995804,-0.0025743842124938965,4.219475305598974,0.03715738654136658
1746739374174359300,0.566359375,0.2954256526561522,0.00225107092410326,0.13003506466672554,-0.0014331964775919914,0.017015886206856068,0.9612448212085097,0.10819634040391495,right,0.00109022855758667,-0.4800146943783921,2.5325097683891653,-8.321552896785736,-0.2425071754722437,0.00097734946757555,-0.0011955797672271729,4.528634778273106,0.0034325718879699707
1746739374214359300,0.606359375,0.2958378743196863,0.002667867112904787,0.1299339761008575,-0.0025127376429736614,0.017261659598894297,0.9608046449027055,0.10938533778250983,right,-0.0004788041114807129,-0.48355335967876667,2.5312518772825596,-8.305127247163654,-0.24428161345362004,-0.000046502333134412766,-0.0007984638214111328,4.5593870594114065,0.002040088176727295
1746739374254359300,0.646359375,0.29573562308766543,-0.0031987554393708706,0.1298248132233568,-0.004984517581760883,0.01733820508075095,0.9607306457030511,0.10962999674288151,right,-0.0005428194999694824,-0.48423984286128885,2.5294898360460993,-8.30238993115425,-0.244625063962277,0.001483270083554089,-0.0011078417301177979,4.565346260076761,0.0004970729351043701
1746739374294359300,0.686359375,0.29563349816904433,-0.009065378457307816,0.1297156237538027,-0.0074562979862093925,0.017414747318481832,0.9606564652519827,0.10987466271782172,right,-0.0006073713302612305,-0.4849263549157692,2.5277280870705843,-8.29964793896973,-0.24496849439395174,0.003013042500242591,-0.0014172494411468506,4.571303707176447,-0.0010457932949066162
1746739374334359300,0.726359375,0.2952833755149734,0.003122232388705015,0.12959009795120088,-0.0006576152518391609,0.017200041568593522,0.9606418978930118,0.10939691023479026,right,-0.0009211301803588867,-0.485287705464303,2.5243413672417403,-8.298951773399114,-0.24510734808841855,-0.006060461513698101,0.0007683932781219482,4.574438498070836,0.0012378394603729248
1746739374374359000,0.766359130859375,0.29535768691303727,0.0003540683537721634,0.12960585900412633,-0.0005821586237289011,0.017276902566103678,0.9606391868780887,0.1095708044286274,right,-0.0008394718170166016,-0.48525630314621,2.524999831150472,-8.298901504516602,-0.245104234313255,-0.0008468865416944027,-0.00022795796394348145,4.574165818609297,0.0016202032566070557
1746739374414359300,0.806359375,0.29536107097066844,-0.0008294860599562526,0.12960515101427128,0.0010760724544525146,0.01728926826764785,0.9606404135763642,0.10959506078047224,right,0.0001271367073059082,-0.4852417793762469,2.5250471774235366,-8.29895644957423,-0.245098890163134,0.0004945324035361409,-0.00026428699493408203,4.57403985414207,0.0010029077529907227
1746739374454359300,0.846359375,0.29565664948321035,0.002278787549585104,0.12972508190961468,0.003982214257121086,0.017291569217753485,0.9605984041541811,0.10970625961160747,right,-0.003917813301086426,-0.48543291250793624,2.527245271989703,-8.29737356429696,-0.24520007582245334,0.0022700573317706585,-0.00021630525588989258,4.5756978504821655,0.0025648772716522217
1746739374494359300,0.886359375,0.29552866000359607,-0.0009993899147957563,0.12966038316496523,-0.004438442178070545,0.017290079930509798,0.9605932242852631,0.10968979372024318,right,0.0014595985412597656,-0.4855520281574943,2.5260244980230926,-8.297175411376356,-0.24525486893739917,0.007677250541746616,0.0002911984920501709,4.576730992922187,-0.0016649067401885986
1746739374534359300,0.926359375,0.29558367796694757,0.0007772704120725393,0.12970990568216564,0.004943909123539925,0.017252609782309736,0.9606179821555296,0.10958708291642137,right,-0.004027187824249268,-0.48531307977013455,2.526799574048817,-8.29808258934915,-0.2451343759689539,-0.0014314427971839905,-0.0001857280731201172,4.574658570562303,0.0001150667667388916
1746739374574359300,0.966359375,0.29564568834280663,-0.0003871235530823469,0.12973214070439867,0.0010942136868834496,0.0172520246572691,0.9606033604644805,0.10961631532353451,right,-0.0037239789962768555,-0.48540327844411124,2.527193834063411,-8.297530800685285,-0.24517995430406186,-0.004909706301987171,-0.00022962689399719238,4.575440953111649,0.00030410289764404297
1746739374614359000,1.006359130859375,0.2958438524141088,0.0019327932968735695,0.129807107479895,0.0066718147136271,0.01727843863284279,0.9605763454599833,0.10974035642364638,right,-0.0005792379379272461,-0.48551705140565815,2.5286864107087252,-8.296531852775813,-0.24524414433268488,-0.003620919305831194,-0.000035762786865234375,4.576427626061439,0.000047266483306884766
1746739374654359300,1.046359375,0.2959656717974474,0.0032329908572137356,0.12986506046583313,0.004453428089618683,0.017290752108214742,0.9605795822005472,0.10978083824567557,right,-0.0006911754608154297,-0.48541691110892393,2.5298306123077867,-8.296662201157211,-0.24519992283825326,-0.0035367398522794247,0.0009484291076660156,4.575559026533365,0.0009033381938934326
1746739374694359300,1.086359375,0.29626095947226655,0.0017257017316296697,0.12998938309805497,0.002792918821796775,0.01729280399410316,0.9605455597536854,0.10988016070042765,right,-0.0007271766662597656,-0.48553789674737363,2.532118723244965,-8.295385020828247,-0.24526682405668945,-0.00484255887567997,0.0006954669952392578,4.576608535586297,0.0009705126285552979
1746739374734359300,1.126359375,0.29632336353431565,0.0015553546836599708,0.13000325749268768,0.0003696940839290619,0.017334987951460237,0.9605344774353107,0.1099924891138126,right,-0.000743865966796875,-0.48559054869572044,2.53256617475152,-8.294996313771605,-0.24529985265281068,-0.0015585750807076693,0.0011889338493347168,4.577065047182143,0.0012249946594238281
1746739374774359300,1.166359375,0.29640965463244623,0.0023681798484176397,0.13002501030879482,0.0013380078598856926,0.017394323966938022,0.9605242813337025,0.11014272646212703,right,-0.0007401704788208008,-0.48561915291589947,2.5332436356216665,-8.29465261490047,-0.24532404989248704,0.0020888405852019787,0.0007792115211486816,4.5773131767243145,0.0010587573051452637
1746739374814359300,1.206359375,0.29663763409385563,0.002565417205914855,0.13011882468501468,0.003185918089002371,0.017442077231586597,0.9605147139709423,0.1102910921514917,right,-0.001929938793182373,-0.4855620336203765,2.535210844041407,-8.294324698120356,-0.24530836497251757,0.0008298810571432114,-0.00013837218284606934,4.576817794422805,0.0005926787853240967
1746739374854359000,1.246359130859375,0.296642602289586,0.0011719507165253162,0.13011872999802326,-0.0016495143063366413,0.01744501762222456,0.9605114418740981,0.11030248642484775,right,-0.0022351741790771484,-0.48558660689799343,2.5352193196088075,-8.294204871132969,-0.24532091038379109,0.0020748486276715994,0.00014719367027282715,4.577030852651596,-0.00020506978034973145
1746739374894359300,1.286359375,0.2966476138907936,-0.00022151588927954435,0.13011862988626535,-0.006484946236014366,0.01744797971190691,0.9605082869950213,0.11031394181931317,right,-0.002540409564971924,-0.48561130282553927,2.535227795176208,-8.294084459623694,-0.2453334850995073,0.0033198161981999874,0.00043272972106933594,4.5772450799241655,-0.0010029971599578857
1746739374934359300,1.326359375,0.29619871873665526,-0.002531930338591337,0.12991437912711187,-0.0051812282763421535,0.017518724748035255,0.9605649613856659,0.11030770161207323,right,0.0004532933235168457,-0.4853720144868102,2.5318241242125628,-8.296268817925453,-0.245214705154233,0.002260220469906926,-0.000002115964889526367,4.575169734954834,0.000022917985916137695
1746739374974359300,1.366359375,0.2961924856389074,-0.006732493173331022,0.12992918569535752,0.0019303346052765846,0.017436526516895947,0.9605607801650503,0.11014352734216439,right,-0.002605259418487549,-0.4854247217838244,2.531701959137618,-8.296053713870048,-0.24522919070929228,-0.005709458142518997,-0.0005824863910675049,4.575626831072569,0.0025339126586914062
1746739375014359300,1.406359375,0.29609877414721064,-0.0030639218166470528,0.12989444036637826,-0.0043318611569702625,0.01732606506756466,0.9605312192081619,0.10994257477151985,right,-0.002249598503112793,-0.4857508007221721,2.5304890762165186,-8.294863627302647,-0.2453712863261853,-0.006685730069875717,0.0005513131618499756,4.578455040235817,0.0006892681121826172
1746739375054359300,1.446359375,0.2959295441482126,0.0037048556841909885,0.12979933923857384,-0.004659712780267,0.017359828808195508,0.9605227867249436,0.10999632102830785,right,-0.0010814070701599121,-0.4859150227368976,2.5288658589288593,-8.294571950879693,-0.2454518815131455,0.00012898771092295647,-0.00008293986320495605,4.579878935559094,0.0006172060966491699
1746739375094359000,1.486359130859375,0.29585654000127815,0.0026244050823152065,0.12974818859835247,0.0037621292285621166,0.017493793106146696,0.9605540586240955,0.11021641365163164,right,0.0004839301109313965,-0.48566749551756594,2.5285908413797618,-8.295840947902201,-0.24534712222123733,0.002306524431332946,0.00003916025161743164,4.577732571180165,0.002228856086730957
1746739375134359300,1.526359375,0.2960981740774735,0.002554801758378744,0.1298473556842844,0.004197124391794205,0.017523584721799983,0.960534237995196,0.11034446990146236,right,-0.0018255114555358887,-0.48569400755756276,2.5305598033651706,-8.295113802671432,-0.245370223078439,-0.002125938655808568,-0.0003711879253387451,4.577962288282811,0.0014551281929016113
1746739375174359300,1.566359375,0.2961076969746654,-0.0007452033460140228,0.1298492102841639,0.0015596882440149784,0.017517674482320663,0.960526542571853,0.11034456837104062,right,0.0007445216178894043,-0.4857553512863741,2.5305568807557224,-8.2948209572047,-0.24539966270994673,0.002672569127753377,0.00010502338409423828,4.578494495463371,-0.0008003711700439453
1746739375214359300,1.606359375,0.2961172200238337,-0.0040452079847455025,0.1298510621716627,-0.0010777481365948915,0.017511764242840736,0.96051884714851,0.11034467231783185,right,0.0033145546913146973,-0.48581672796462677,2.530553958146274,-8.294528111737966,-0.24542911699367542,0.007471077144145966,0.0005812346935272217,4.57902670264393,-0.003055870532989502
1746739375254359300,1.646359375,0.296376009232169,0.007087902165949345,0.12995037229184248,-0.0017420839285477996,0.01760287547168299,0.9605114978004011,0.11058422434859749,right,-0.004000067710876465,-0.4857166282773793,2.532834178037941,-8.294311254116892,-0.24539905263426123,-0.007839922793209553,0.0007107555866241455,4.578158687637746,-0.00044995546340942383
1746739375294359300,1.686359375,0.29659621844872597,0.0002084244042634964,0.13000860687957266,0.0012505677295848727,0.017732965362103264,0.9604809904673138,0.1109300360282865,right,-0.0002601146697998047,-0.4858313067971271,2.5345070796862244,-8.29325151593089,-0.24547831529002553,-0.0005560494028031826,-0.00008830428123474121,4.579152959372103,0.00044539570808410645
1746739375334359300,1.726359375,0.2965657544418421,-0.002179760253056884,0.13001903496100783,-0.0006633590674027801,0.017698426346015227,0.960511267464314,0.11081166109118568,right,-0.0012372732162475586,-0.4855937556797294,2.534572253876924,-8.294368537262082,-0.2453567379202262,0.0037798709236085415,-0.0004731714725494385,4.5770928119719025,0.001059114933013916
1746739375374359000,1.766359130859375,0.2966564917691815,0.00263439049012959,0.13004720704519185,-0.0010635510552674532,0.01773875707707825,0.9605004069763624,0.11092451700871529,right,-0.0013665556907653809,-0.4856287952152644,2.535278064058721,-8.293985090902448,-0.24538162338426192,-0.0007947306148707867,-0.0005241334438323975,4.57739676335454,0.0011403560638427734
1746739375414359300,1.806359375,0.29673421258365407,0.004908908158540726,0.13005547129286812,-0.0025345783215016127,0.017829361833899274,0.9604872108833648,0.11114183601925642,right,-0.0014137625694274902,-0.4856828077229422,2.535850310988724,-8.293551960182189,-0.24542228172340103,-0.0007140915840864182,-0.0012132823467254639,4.577865257649123,0.0008811652660369873
1746739375454359300,1.846359375,0.2967367399040309,0.001550530083477497,0.13003288270238672,0.0032152102794498205,0.017929475369386858,0.9604883787560008,0.11134628944166569,right,-0.00021457672119140625,-0.485654138489855,2.5359096399605274,-8.293670618125796,-0.24542191907822228,-0.0015946365892887115,0.00017696619033813477,4.577616543585061,0.0015798211097717285
1746739375494359300,1.886359375,0.2968935852271542,-0.0015512262471020222,0.13010819727254835,0.004272471182048321,0.01790343955259207,0.9604751950975218,0.11133655291043258,right,-0.0015049576759338379,-0.48568115249713323,2.5371742530688643,-8.293154485297203,-0.2454356034890769,0.00239548459649086,-0.00012934207916259766,4.577850936862826,0.0008589029312133789
1746739375534359300,1.926359375,0.296835636648507,0.0023196819238364697,0.13011290688490687,-0.003487546928226948,0.0177980178124708,0.9604879213542777,0.11109264061345739,right,-0.0030646920204162598,-0.4856223522633228,2.5367723942697045,-8.293558974444865,-0.24539108809803906,0.0022589084692299366,0.0007067322731018066,4.577340941514074,-0.001614302396774292
1746739375574359300,1.966359375,0.2967351530984534,0.0027014724910259247,0.1300558327347328,-0.0032892210874706507,0.01785239908113318,0.9604971307415241,0.11117533733697395,right,0.0006192326545715332,-0.4855924624303,2.5359791980654,-8.293944758892058,-0.24538128039996937,0.00040368596091866493,0.00025141239166259766,4.577081706055998,-0.0005047023296356201
1746739375614359000,2.006359130859375,0.296657531329146,-0.00535467267036438,0.13001158273929686,-0.006978517398238182,0.017916191911812433,0.9605136298664221,0.11127090099714369,right,-0.0014483928680419922,-0.485485421753726,2.5354785550668835,-8.294609944802522,-0.24533559714791417,0.007650392595678568,-0.0008297860622406006,4.576153193034231,-0.00002092123031616211
1746739375654359300,2.046359375,0.29657835849829234,-0.006518417038023472,0.13001076042478063,-0.00007701339200139046,0.017802498499748184,0.9605312819231216,0.11099957770459663,right,-0.0028967857360839844,-0.48539714170769666,2.5349399181455374,-8.295196804779767,-0.24527503975996115,-0.002674603369086981,0.0005560815334320068,4.5753877616196865,0.002718687057495117
1746739375694359300,2.086359375,0.2966041433572885,-0.0011437451466917992,0.1300253939102186,-0.0033031324855983257,0.017726737442988475,0.9605015409067607,0.11088965084530539,right,-0.001116335391998291,-0.4856504421784018,2.534814830461144,-8.294023084825277,-0.2453892693816692,-0.0024907684419304132,0.00105246901512146,4.577584687142074,0.0003281235694885254
1746739375734359300,2.126359375,0.29658875249920236,0.00031738949473947287,0.13001104573665886,-0.0005476225633174181,0.01773969245378152,0.9604948994959799,0.11092314033441861,right,-0.0008729100227355957,-0.48571461677520705,2.5346014799714087,-8.293781092762947,-0.24542199864593436,-0.001347305136732757,-0.00026929378509521484,4.578141151981056,0.00025075674057006836
1746739375774359300,2.166359375,0.29657127203235734,0.0039239199832081795,0.1299847459998692,0.0005834363400936127,0.017829652237761454,0.9605026145380113,0.11109451877437725,right,-0.0002636909484863281,-0.48564415583052944,2.534550626567006,-8.294134143984317,-0.24539927831112515,0.0008199330186471343,-0.0000813901424407959,4.577530034345388,0.00007575750350952148
1746739375814359300,2.206359375,0.29694258415211844,0.00393650634214282,0.13013220443818196,0.0035026301629841328,0.017950254715510768,0.960496170668052,0.11141122895268457,right,-0.0025568604469299316,-0.4854644609844794,2.537870710900426,-8.293978661161661,-0.24533727097030297,-0.0013441004557535052,0.0013304650783538818,4.575971406726539,0.003071695566177368
1746739375854359000,2.246359130859375,0.29700267698674726,-0.002129592467099428,0.1301655927376218,0.0025214282795786858,0.017937128002301447,0.9604978732445351,0.11139150990361621,right,0.00046694278717041016,-0.48541702414432975,2.5384327286973596,-8.29403360621929,-0.24531384016379795,0.007073742337524891,0.00044417381286621094,4.575560195577144,-0.0002790391445159912
1746739375894359300,2.286359375,0.2971514385713871,-0.006029434502124786,0.13028554933047773,0.0057312361896038055,0.01777695413754887,0.9605129760595569,0.11106490266431528,right,-0.004057347774505615,-0.4852265172008231,2.539921798211336,-8.294488948771358,-0.24520277903082888,0.0009429212659597397,-0.0012298822402954102,4.5739074599340555,-0.000882565975189209
1746739375934359300,2.326359375,0.2972571308546681,-0.0009107990190386772,0.13033270497080576,0.0016422071494162083,0.017743499567391813,0.9604904970915364,0.11104462110588906,right,-0.0033031105995178223,-0.4853637672081929,2.540614456650615,-8.293620349243282,-0.24526804916203288,-0.005445491522550583,-0.0005081295967102051,4.575098131023347,-0.00045108795166015625
1746739375974359300,2.366359375,0.2974400865296647,0.0032491213642060757,0.13039245155706394,0.004675748758018017,0.017795238960986063,0.9604607942828476,0.1112222749888487,right,-0.0015072226524353027,-0.4855059157457099,2.5419413213402033,-8.292533723050356,-0.2453492132248989,-0.0020820708014070988,0.00002944469451904297,4.576331179949641,-0.0005962550640106201
1746739376014359300,2.406359375,0.29765825030115206,0.003648033831268549,0.13048216010633618,0.005250065587460995,0.01785547370672734,0.9604578271269308,0.11138530375292506,right,-0.00013840198516845703,-0.48539493885935786,2.5438991774097084,-8.292464164945482,-0.24530871832426085,0.0004326223861426115,0.0003981292247772217,4.575368472397328,0.0004604160785675049
1746739376054359300,2.446359375,0.29792731858174243,-0.0024452852085232735,0.1306194356267347,0.004576710052788258,0.017822198042304636,0.9604546519698213,0.11136448935363485,right,-0.001144111156463623,-0.4852711485191108,2.5462965939402578,-8.29232095708251,-0.2452505542783999,0.00019382133905310184,0.0003514885902404785,4.574294705685973,0.001316666603088379
1746739376094359000,2.486359130859375,0.2979177408639758,-0.0000925576314330101,0.13062400228038232,-0.0006910320371389389,0.017783862890308675,0.9604543531598649,0.11128455303466585,right,-0.0012328624725341797,-0.48528543774191946,2.5461981020018456,-8.29228296315968,-0.2452520815885234,0.000020214472897350788,-0.00004029273986816406,4.5744186243265865,-0.0004488825798034668
1746739376134359300,2.526359375,0.29794537189695786,0.005468372255563736,0.1306220857004926,0.00004654005169868469,0.01782969984886562,0.9604469590538197,0.11139367501479526,right,0.0000667572021484375,-0.48532591618618004,2.546372874046862,-8.292035710400343,-0.24527880758550635,-0.000019121991499559954,0.000170975923538208,4.574769921982288,-0.0005460083484649658
1746739376174359300,2.566359375,0.29824050534402496,0.0063974191434681416,0.13072571990158546,0.004567197058349848,0.017971377589963023,0.9604374624267477,0.11174553442371284,right,-0.0016095638275146484,-0.4852126256792969,2.548972242890298,-8.29177910529077,-0.24525027109861092,0.0014716681325808167,0.0002663731575012207,4.57378704842478,-0.0006964802742004395
1746739376214359300,2.606359375,0.29829221122388994,0.0008883131667971611,0.13073154811696988,-0.0019878027960658073,0.018036500352573346,0.9604313475691736,0.11189626688282232,right,-0.0027952194213867188,-0.4852243087152354,2.549385207605362,-8.291596149939298,-0.24526618609417256,0.0008523465367034078,-0.001522839069366455,4.573888462972641,0.0003097057342529297
1746739376254359300,2.646359375,0.29814651763902456,0.0022339755669236183,0.13065820040318868,-0.00474088080227375,0.01807361157255552,0.9604432083859579,0.11193248049714966,right,-0.0019501447677612305,-0.48520070169504453,2.5482088573023676,-8.292070197191833,-0.2452559572663545,-0.000485518597997725,-0.0020225048065185547,4.573683588050305,0.00036257505416870117
1746739376294359300,2.686359375,0.29813858758603734,-0.00019775819964706898,0.13064122167424522,-0.0018834949005395174,0.018127713416579334,0.9604433769033462,0.11204212961982427,right,-0.0005709528923034668,-0.48519464381939764,2.5481512818962333,-8.292116958943009,-0.24526016406086665,0.0014429509174078703,-0.003679215908050537,4.573630981080234,-0.0012323558330535889
1746739376334359300,2.726359375,0.29818072116665406,-0.00717436708509922,0.13069270998670854,0.00933990627527237,0.01802838588427404,0.9604554599570576,0.11182777144680758,right,-0.004204154014587402,-0.4850830655725988,2.548650463590026,-8.292497482693195,-0.24519315091835123,-0.0041605690494179726,0.0005537569522857666,4.572663012830913,0.004342257976531982
1746739376374359000,2.766359130859375,0.2982690143205285,-0.006096056196838617,0.13074176279564254,0.001354612410068512,0.017916677406274752,0.9604172797219561,0.11166606081057764,right,-0.003831624984741211,-0.48537843418590676,2.548985686893761,-8.290981232911347,-0.24532463296210152,-0.003147406503558159,0.00026983022689819336,4.575225264534354,0.0030449628829956055
1746739376414359300,2.806359375,0.298134817927299,-0.002786993747577071,0.1306995228105972,0.0005857565556652844,0.017790966500160908,0.9604033319588624,0.11140574194127323,right,-0.0006383657455444336,-0.4855968292344495,2.5475796194881197,-8.290368069449066,-0.24541086137185975,0.001959687564522028,0.0002752542495727539,4.577119699978828,0.0004928112030029297
1746739376454359300,2.846359375,0.2981530674131471,0.006623352877795696,0.13070506051607542,0.0011206441558897495,0.017836526919510275,0.9604174475768645,0.11148251190213954,right,-0.00009381771087646484,-0.4854577314148174,2.5479177654013037,-8.290929794985056,-0.24534951127812282,0.0017767500830814242,0.000040411949157714844,4.575913246798515,0.00007236003875732422
1746739376494359300,2.886359375,0.2983524899986412,0.006669505033642054,0.13078078010422156,0.003001198871061206,0.01792054290782311,0.9604161398310096,0.11168900804308864,right,-0.00266343355178833,-0.4853392267226196,2.5497306600421665,-8.290939731857181,-0.2453081240636685,-0.00040785863529890776,-0.00032386183738708496,4.5748853650555015,0.0006837844848632812
1746739376534359300,2.926359375,0.2984407007227503,-0.0010552308522164822,0.13080190963623337,-0.005232642404735088,0.017979413510446657,0.9604029384020324,0.11184280567793015,right,-0.0001392960548400879,-0.48539216162681526,2.550390585255623,-8.290483804783225,-0.245344283923411,-0.0006544005591422319,-0.0005395114421844482,4.57534450699985,-0.0005595684051513672
1746739376574359300,2.966359375,0.2985274412740403,-0.0028482703492045403,0.1308591793437935,0.003994405269622803,0.017923994429110388,0.9604055596575132,0.11173898951267675,right,-0.0024956464767456055,-0.4853276688917855,2.5511966409415003,-8.290544010537863,-0.24530743733257757,-0.002092871116474271,-0.0016611814498901367,4.57478511955142,-0.0009001493453979492
1746739376614359000,3.006359130859375,0.29867476977067936,0.004584875423461199,0.13089674161361867,0.00012627523392438889,0.018006084417101862,0.9603804221351006,0.11196680397474758,right,-0.0036314725875854492,-0.48544494263048116,2.552260178519785,-8.289655537265538,-0.24537975138910295,-0.008590816520154476,-0.0009173750877380371,4.575802187639475,0.00039651989936828613
1746739376654359300,3.046359375,0.29898323693094864,0.005822773091495037,0.13099345416323524,0.004205142147839069,0.018132132613369045,0.9603401155778688,0.11233220908143793,right,-0.002264559268951416,-0.48559164127135557,2.5546193088665605,-8.288226381245256,-0.24547660862587012,-0.0049952357076108456,-0.0006909370422363281,4.577074691793323,0.0008927285671234131
1746739376694359300,3.086359375,0.2991596512589478,0.00047658104449510574,0.13106739152218744,0.001273967558518052,0.01815766202421766,0.9603299340847924,0.11242722247972942,right,-0.0022168755531311035,-0.48557184227494293,2.556108086119592,-8.28786163958609,-0.2454749746894623,0.001786231528967619,0.0005286037921905518,4.576902842357755,0.0021449625492095947
1746739376734359300,3.126359375,0.2992180200133206,-0.0012849591439589858,0.13111834977392176,0.0019140052609145641,0.018067492213395396,0.9603307443484121,0.1122500150791303,right,-0.00021845102310180664,-0.4855454469489127,2.5566274338185786,-8.28782832183838,-0.2454512654242646,0.001283867284655571,0.000052034854888916016,4.576674002037942,0.00021129846572875977
1746739376774359300,3.166359375,0.2990986512243301,0.004181439056992531,0.13108041893992542,-0.004187231883406639,0.018064303944729295,0.9603653408674342,0.11217538430177595,right,-0.00233536958694458,-0.48531718625306475,2.555945881295204,-8.28913122113049,-0.2453361630879746,0.005578615702688694,-0.0007486343383789062,4.574693934136628,-0.00045689940452575684
1746739376814359300,3.206359375,0.29913109003303073,0.0018316602800041437,0.13109379260786502,-0.00013171974569559097,0.01810088824541253,0.960377056760904,0.11223921391322621,right,-0.002128899097442627,-0.48519150706168956,2.556384272712469,-8.289597669598459,-0.24528053708764397,0.002919652033597231,-0.00036534667015075684,4.573603800812363,-0.0015028715133666992
1746739376854359000,3.246359130859375,0.29913516914429744,-0.0013621544931083918,0.13110158168431343,-0.0008554321830160916,0.01810228001589985,0.9603880133246682,0.1122271885065808,right,-0.0024164319038391113,-0.48509429158625855,2.556548815624416,-8.290012095618248,-0.24523330327397153,0.0016544832615181804,-0.0008220076560974121,4.57276062798649,-0.00187644362449646
1746739376894359300,3.286359375,0.29911521287181886,0.0009029901120811701,0.1310993333916747,-0.001176272053271532,0.018087753414412475,0.960395006280748,0.11218424851965911,right,-0.002886652946472168,-0.48504806184322213,2.556445939771831,-8.290265193596483,-0.24520820067216573,-0.0011799634667113423,-0.001843869686126709,4.572359353709221,-0.0028376877307891846
1746739376934359300,3.326359375,0.2991605915498124,0.00044831077684648335,0.13110832489159863,-0.0013991410378366709,0.018126876412076835,0.9603886731941091,0.11228083244241464,right,-0.0024358034133911133,-0.48506949938832106,2.5567931457743045,-8.290055350238084,-0.24522520133841974,-0.00247369147837162,-0.0024416744709014893,4.572545523931086,-0.001661151647567749
1746739376974359300,3.366359375,0.2990544172597489,-0.003677820321172476,0.13106817698871226,0.0017235844861716032,0.018090912922039622,0.9603935727570282,0.11218305409441504,right,-0.0038924217224121094,-0.4850952305569816,2.5558780767560005,-8.29021434019208,-0.24523013519551234,-0.004571681842207909,-0.00023761391639709473,4.572768811292946,0.0023571252822875977
1746739377014359300,3.406359375,0.2989797762029608,-0.00307594146579504,0.1310240429251625,-0.0018697327468544245,0.01804150964004427,0.960358043195878,0.11211990746888863,right,-0.00217360258102417,-0.4854534101474103,2.554776837515831,-8.288839544707535,-0.2453965885529469,-0.007890752516686916,-0.0002593398094177246,4.57587554513663,0.001401662826538086
1746739377054359300,3.446359375,0.29879898030972485,-0.0005677267909049988,0.1309276825697791,-0.0024374411441385746,0.018046046645455123,0.9603451404660223,0.11211867654605476,right,-0.0009942054748535156,-0.48566993017185983,2.552986446967721,-8.288354391539096,-0.24549839401032447,-0.0017303596250712872,-0.00011864304542541504,4.577753613968193,0.0006411075592041016
1746739377094359000,3.486359130859375,0.29863122585137636,0.001327467616647482,0.13084335028554694,-0.002837339648976922,0.018067913151108287,0.9603498821033097,0.11213007201140754,right,-0.0004457831382751465,-0.48572321047586753,2.55152426546067,-8.288549037328362,-0.24552310831155827,-0.0011567053152248263,-0.0005385279655456543,4.578215678521991,0.0000775754451751709
1746739377134359300,3.526359375,0.29862482604973994,0.004423136822879314,0.13081311594550618,-0.002653316128998995,0.01816088901152024,0.9603421269561252,0.11233113914715485,right,-0.0013368725776672363,-0.4857785277372095,2.551396839688718,-8.288323411878944,-0.24556265616217837,-0.0021792638581246138,-0.0008779168128967285,4.578695278732479,0.00010511279106140137
1746739377174359300,3.566359375,0.298591298041404,0.0036597088910639286,0.13075986870059833,-0.004230780526995659,0.01828491606385423,0.960330442212156,0.11259723188912056,right,-0.0005843639373779297,-0.48587830829574585,2.5509844594955444,-8.28797211422324,-0.24562746455991383,-0.0042702313512563705,-0.0018553733825683594,4.5795606633901595,-0.0005992650985717773
1746739377214359300,3.606359375,0.2985370898821112,0.0007937380578368902,0.130733001320213,0.0005192793905735016,0.018316923950999785,0.9603435508333225,0.11263579612710141,right,-0.004035830497741699,-0.4857915190815858,2.5506521588012574,-8.288490585139394,-0.2455879996878572,-0.0018906346522271633,-0.002104520797729492,4.578808091457188,-0.0002097785472869873
1746739377254359300,3.646359375,0.2984961242401753,-0.000997766270302236,0.1307040253027786,-0.0029382905922830105,0.018325952035912956,0.960331332162754,0.11266502037595216,right,-0.005235254764556885,-0.48591894271857455,2.5501409944087263,-8.288036996152996,-0.24565046650385458,-0.0041269175708293915,-0.0010963082313537598,4.579913130089641,0.0000762641429901123
1746739377294359300,3.686359375,0.2983650810520359,-0.0012416464742273092,0.13063539724316459,-0.0006905959453433752,0.018328828658789636,0.9603239498894308,0.11266039150236516,right,-0.0019739866256713867,-0.4860586665811025,2.54886673668921,-8.287759348255396,-0.24571576159285138,-0.0021823327988386154,-0.0013196766376495361,4.581124551706016,-0.0007214546203613281
1746739377334359300,3.726359375,0.29837846841571053,-0.0006171845598146319,0.13064777313556833,0.0009830102790147066,0.018322472969952985,0.9603316124917836,0.11263863005715681,right,-0.0020799636840820312,-0.4859857531167868,2.549075703264773,-8.288044594937562,-0.24567960605075173,0.001922430470585823,-0.0010544657707214355,4.58049239128232,0.0006440579891204834
1746739377374359000,3.766359130859375,0.2984289706919027,-0.001874132314696908,0.1306743823350733,0.002177291549742222,0.018334352486653237,0.9603404457403513,0.11265867473173526,right,-0.0013850927352905273,-0.4858783114629001,2.5496388901054856,-8.28838595572114,-0.24563000659804365,0.0012417766265571117,-0.00045096874237060547,4.5795606633901595,0.0015204250812530518
1746739377414359300,3.806359375,0.2983990001537354,-0.006078369915485382,0.13069329708921548,0.0003937440924346447,0.01823426495111799,0.9603566096081863,0.11242545625797866,right,-0.001373291015625,-0.48577399574391456,2.5495310458168388,-8.288919624206423,-0.24556458615172,0.005400829017162323,-0.0006880462169647217,4.578656115765869,0.00043657422065734863
1746739377454359300,3.846359375,0.29822963065577834,-0.0035125012509524822,0.13066230121960826,0.0003196752513758838,0.018109472141722732,0.9603939559951288,0.11208913577757987,right,-0.0020929574966430664,-0.48557175888686765,2.5483994114384054,-8.290235967501998,-0.24544435731111303,0.004710994195193052,0.000001043081283569336,4.576902257835865,-0.0005655288696289062
1746739377494359300,3.886359375,0.29815781033085836,0.0023349039256572723,0.13065740627312977,-0.002670441521331668,0.01805861826396404,0.9604254952535816,0.11192861225574569,right,-0.0038917064666748047,-0.485350251706132,2.54810159753561,-8.29138806014657,-0.24532729323181804,0.004628847353160381,-0.0016270279884338379,4.574980934384465,-0.001964092254638672
1746739377534359300,3.926359375,0.2979650716606435,0.0003767551388591528,0.130572529644605,-0.002805391326546669,0.01809096040490437,0.9604556360802573,0.11192170723592089,right,-0.001765608787536621,-0.485197300479673,2.546708974133432,-8.292547751575707,-0.24525196396128338,0.0004609045572578907,-0.0007381737232208252,4.573654069694876,-0.0008910894393920898
1746739377574359300,3.966359375,0.29774681122535424,0.001890353625640273,0.13045397287934943,-0.006044657900929451,0.018142450907024283,0.9604561061457153,0.11199196051013159,right,-0.0007293820381164551,-0.4853120734502012,2.5447449805840847,-8.292601527589559,-0.2453094560427404,-0.006986684165894985,-0.001978278160095215,4.5746498027339575,-0.0019606947898864746
1746739377614359000,4.006359130859375,0.2973746702426954,0.0002488786121830344,0.13026180478963398,-0.0053538247011601925,0.018220060219550763,0.9604702900620564,0.11207186909390347,right,-0.000689387321472168,-0.48539381223935724,2.5415491071522234,-8.293190725654362,-0.24535036629581627,0.0003263670951128006,-0.0007408857345581055,4.575358827786148,-0.00125199556350708
1746739377654359300,4.046359375,0.29726909661677176,-0.0016735625686123967,0.1302000780919795,0.0022226227447390556,0.01823579130827479,0.9604585884497452,0.11210369870088298,right,-0.0012123584747314453,-0.48555328585775326,2.5404598506107923,-8.292761102065443,-0.2454277439844867,-0.007801842875778675,-0.001561671495437622,4.576741806577146,0.0021530091762542725
1746739377694359300,4.086359375,0.29724013233614716,-0.003705526702105999,0.13018571556369607,-0.0005272016860544682,0.01819275519442413,0.9604390349182218,0.1120379120499531,right,-0.000980675220489502,-0.48574448482188615,2.5399632992655037,-8.291997716477512,-0.24551466247217582,-0.0029001827351748943,-0.0011661648750305176,4.5784000951781865,0.001989811658859253
1746739377734359300,4.126359375,0.29719595634186025,-0.004823134746402502,0.1301919269347034,0.0022941390052437782,0.01808265477391905,0.9604403219640291,0.11180266030171944,right,-0.0008133053779602051,-0.48577702914524395,2.5395532571598887,-8.29196732133925,-0.24551450902776903,0.0010202350094914436,-0.002145707607269287,4.578682419250905,0.0005731880664825439
1746739377774359300,4.166359375,0.2972306381519708,-0.0031868882942944765,0.13024807133122177,0.006192573346197605,0.017922164441750304,0.9604402077949047,0.11147844696125943,right,-0.0010697245597839355,-0.4857839203613582,2.539831489579379,-8.291849247917533,-0.24549700320314036,0.002837243489921093,-0.0016360580921173096,4.578742040483653,-0.0009052753448486328
1746739377814359300,4.206359375,0.2974888659018577,0.0028625468257814646,0.13038129480626195,0.007168955635279417,0.01786179778466801,0.9604273176423163,0.11141396406346121,right,-0.001185297966003418,-0.48575464661215606,2.5420120484888553,-8.291320840129256,-0.24548111219423865,-0.0005782674998044968,-0.001406341791152954,4.578488357983529,-0.0015714168548583984
1746739377854359000,4.246359130859375,0.2976977215094498,0.007228873670101166,0.13045764603513388,0.006158363074064255,0.017961196263420014,0.9604257688749301,0.11165407002942832,right,0.0003631114959716797,-0.4856306493473712,2.5439099910646674,-8.291332530567049,-0.24543934181524035,0.005566401872783899,0.000588834285736084,4.577412837706506,-0.0034306347370147705
1746739377894359300,4.286359375,0.29794309319171847,0.004060421139001846,0.1305520961524254,0.0017774454317986965,0.01806016546699831,0.9604246026612875,0.11189857895032809,right,-0.004005908966064453,-0.48548216990210247,2.5461440337270496,-8.291357665008306,-0.24538649493303938,-0.001697569154202938,0.00013235211372375488,4.576125135983527,-0.0014183521270751953
1746739377934359300,4.326359375,0.2979979336348593,0.00032333191484212875,0.13055692873866545,0.00036866392474621534,0.01810627071757964,0.9604056415991317,0.1120288346332748,right,-0.001775979995727539,-0.48560578213954986,2.54643249527961,-8.29067728152871,-0.24545461413743622,-0.0052841538563370705,0.0003675222396850586,4.577197149129212,-0.0013315677642822266
1746739377974359300,4.366359375,0.2981576345106473,0.004589769057929516,0.13061150734738045,0.002211539074778557,0.01815961998908635,0.9603875823859775,0.11218951498186927,right,-0.001487433910369873,-0.4856592819148707,2.547684541167319,-8.290036061015725,-0.24549214692538296,-0.002048690104857087,-0.0014774203300476074,4.577661259509623,-0.002200394868850708
1746739378014359300,4.406359375,0.29835669958254496,0.007346972823143005,0.13067328591416516,0.0015227075200527906,0.018282066624472515,0.9603784936682056,0.1124859612595694,right,-0.0010319352149963379,-0.48560171239559957,2.5494123878732324,-8.28978120947182,-0.245485792033711,-0.0022365599870681763,-0.0005119740962982178,4.577162077815831,-0.00135880708694458
1746739378054359300,4.446359375,0.29851572675652205,0.007223472464829683,0.13069268457165714,-0.0019882642664015293,0.018480905705999775,0.9603618706668358,0.1129435888217223,right,-0.0008711814880371094,-0.4856193078356045,2.550706811597943,-8.28929839439094,-0.2455255716102748,-0.005611773580312729,0.00010576844215393066,4.577314638029039,-0.00006976723670959473
1746739378094359000,4.486359130859375,0.29858535322585184,0.006287395488470793,0.1306751931610842,-0.0007443170761689544,0.018646383891158167,0.9603425125993852,0.11332219562453755,right,-0.0008072257041931152,-0.48571795104527465,2.551151048234105,-8.288689322581886,-0.2455981204564182,-0.0025474533904343843,0.000874251127243042,4.578170085814595,0.0007304549217224121
1746739378134359300,4.526359375,0.2987325039189951,0.007524485234171152,0.13069680349907462,-0.00287185562774539,0.018819823176177475,0.9603290761089145,0.11372119435911071,right,-0.0015456676483154297,-0.48571893646634434,2.552369484113157,-8.28830938335359,-0.2456260344452868,0.00006257416680455208,-0.0005522966384887695,4.578178561381995,0.0010914206504821777
1746739378174359300,4.566359375,0.29875570800408857,0.007181193213909864,0.13067004589680062,-0.0009232328739017248,0.01899279655882455,0.9603366994557343,0.11406958695755852,right,-0.002202928066253662,-0.48561073141413214,2.5527076300263403,-8.288723809373378,-0.24559727370361348,0.002278275787830353,-0.0007317662239074707,4.577240111488104,0.00019749999046325684
1746739378214359300,4.606359375,0.2987402602162486,0.008667100220918655,0.13062736696962532,-0.0026600798591971397,0.01915911940152965,0.9603464631921583,0.11439498392312415,right,-0.0009665489196777344,-0.48550703777560533,2.552719320464134,-8.289216561326384,-0.2455688086743331,0.0009473691461607814,-0.0018000304698944092,4.576340824560821,-0.0005651712417602539
1746739378254359300,4.646359375,0.29853440675475135,0.0008189380168914795,0.13053008200997318,-0.00004262011498212814,0.01922107482036257,0.9603785780162379,0.11444392173466739,right,-0.0007961392402648926,-0.48533988668947053,2.5512378497347235,-8.29047328338921,-0.24549010644996883,0.0033828411251306534,-0.0006545484066009521,4.574890918013454,-0.0006199777126312256
1746739378294359300,4.686359375,0.29854501477860923,0.0025105446111410856,0.13052366463458154,0.0018897631671279669,0.01923842369150905,0.9603655464324135,0.11449968320723929,right,-0.0014777183532714844,-0.4854429128325923,2.551186996330321,-8.289995144483447,-0.24554311036617454,-0.007517664693295956,-0.0001348257064819336,4.575784651982784,-0.0006830990314483643
1746739378334359300,4.726359375,0.2986095823880484,0.004199465736746788,0.13051226125718793,0.00013038702309131622,0.01934648278439836,0.9603364502175185,0.11477318182780309,right,0.0001391768455505371,-0.4856374053690157,2.551460552574694,-8.288979829961061,-0.24565456595460705,-0.005359466187655926,-0.0002459585666656494,4.577471582156419,-0.0011804401874542236
1746739378374359000,4.766359130859375,0.2986609465845476,0.0011656617280095816,0.1305130722661135,-0.0006732074543833733,0.019410542506745277,0.9603213183142133,0.11493439069679796,right,-0.0007609724998474121,-0.48572659418957004,2.551766257523,-8.288459020957351,-0.24570822602752485,-0.002097045537084341,-0.0012163519859313965,4.578244904616475,0.0005991458892822266
1746739378414359300,4.806359375,0.2987145247450473,-0.0011970216874033213,0.1305347323222011,0.0033458308316767216,0.019388671936026277,0.9603040296411535,0.11492252837180762,right,-0.001047372817993164,-0.4858481422157011,2.552046535769105,-8.287790327915548,-0.2457660790128878,-0.0037735402584075928,-0.0012161731719970703,4.5792990898445245,-0.0009001195430755615
1746739378454359300,4.846359375,0.298927017098927,0.0009263232350349426,0.13062438408201346,0.0025304036680608988,0.019376210968848503,0.9602742092070394,0.11497319623109463,right,-0.0015919208526611328,-0.4859833527054497,2.553625329393148,-8.286655770927666,-0.2458360789688595,-0.0033037597313523293,-0.00038614869117736816,4.580471640755236,-0.0008090734481811523
1746739378494359300,4.886359375,0.29901616193822056,0.0017928604502230883,0.13066632931024597,0.004351610783487558,0.019376798841330898,0.9602717363080829,0.11499202023267992,right,-0.0010762810707092285,-0.4859515392481985,2.5544068351596594,-8.286567508122324,-0.24582299140173744,0.0018240204080939293,-0.00001677870750427246,4.580195746423303,-0.0007295608520507812
1746739378534359300,4.926359375,0.2991713862285133,0.0008011588361114264,0.13073963775544886,0.0015907036140561104,0.019350241129859506,0.9602562245684635,0.11498428982646118,right,-0.003933727741241455,-0.48599921497614207,2.555628485909104,-8.28596194344461,-0.2458467760858317,-0.0037363413721323013,-0.0019317269325256348,4.580609003399312,-0.00011512637138366699
1746739378574359300,4.966359375,0.2993095794657726,-0.001291557215154171,0.1307887555566496,0.002978309988975525,0.01935661017815433,0.9602268584951466,0.11506111554664174,right,-0.0017637014389038086,-0.4861703216703375,2.556542678144574,-8.28486011968255,-0.24593492878281828,-0.003891867818310857,-0.0008661150932312012,4.582092812216282,-0.00005161762237548828
1746739378614359000,5.006359130859375,0.2995076547690309,0.00011072680354118347,0.1308728852537615,0.0029447246342897415,0.01937619323588085,0.9602135345634216,0.11515191632639779,right,-0.0019505023956298828,-0.4861659587636217,2.558189276307821,-8.284372628426551,-0.24594069780107208,-0.00008819415234029293,-0.0005377829074859619,4.582054818293452,0.00026670098304748535
1746739378654359300,5.046359375,0.29969248362589307,0.0014993755612522364,0.13095143842339363,0.002787207253277302,0.019408688618832985,0.9602073372549381,0.11525701466145295,right,-0.0024334192276000977,-0.48610578105059393,2.559801972201466,-8.284162785068155,-0.24592059656130683,-0.0006670188740827143,-0.0005438625812530518,4.581533132506907,0.0007379353046417236
1746739378694359300,5.086359375,0.29980867848943266,0.0006711133755743504,0.13099088335134698,0.0012475406983867288,0.019454452531391105,0.9601966833376022,0.1153845375992662,right,-0.001896500587463379,-0.4861205007433489,2.560744513748586,-8.283800966018438,-0.2459371426459699,-0.00029855448519811034,-0.000057309865951538086,4.581660850539803,0.0012070536613464355
1746739378734359300,5.126359375,0.2998206911231467,0.0018247647676616907,0.1309872519518312,0.0006352454656735063,0.019481946585363,0.9601919574140878,0.11544979597851529,right,-0.0012303590774536133,-0.48615035914793314,2.5608038427203894,-8.283639637976885,-0.24595577702809615,-0.00014073692727833986,-0.0011652112007141113,4.58191950147599,0.00043001770973205566
1746739378774359300,5.166359375,0.29990442175548593,0.0024321044329553843,0.1310111603055921,-0.0014709833776578307,0.019540482337493545,0.9601874256314125,0.11558981541235154,right,-0.002494215965270996,-0.48613003084868683,2.5615248504713177,-8.283513965770602,-0.24595605059597847,-0.00043542098137550056,-0.0019644498825073242,4.581743268126249,0.0007017552852630615
1746739378814359300,5.206359375,0.2998262218991777,0.0011250550160184503,0.13096717076207814,-0.0011728752870112658,0.0195935745555472,0.9601999045109721,0.1156686428886261,right,-0.0014600157737731934,-0.48605896031982787,2.5609730618074535,-8.284025422424078,-0.24592647914716156,0.0024009111803025007,-0.0017075836658477783,4.581127182054519,-0.0004933476448059082
1746739378854359000,5.246359130859375,0.29976715818635447,0.0019546737894415855,0.13093382151421915,0.0009457375854253769,0.019645958999019848,0.9602144541666626,0.11574619760129039,right,-0.0006177425384521484,-0.48595943023222604,2.5606185492813585,-8.284612282401323,-0.2458833896769292,0.0004453221336007118,-0.002736330032348633,4.580264135484397,-0.0010984241962432861
1746739378894359300,5.286359375,0.2995823170514361,-0.0037353886291384697,0.13086945427304564,0.0014317501336336136,0.019605073656560845,0.96024196584965,0.11559351064353489,right,-0.0018017292022705078,-0.48583686779278434,2.559252813886106,-8.285621167182923,-0.24581302393059007,0.006762728560715914,-0.0012157857418060303,4.579201182428002,-0.000568091869354248
1746739378934359300,5.326359375,0.2995611845338417,-0.005744786933064461,0.13089287282517295,0.004963349550962448,0.01946887906978711,0.9602426884384461,0.11530935663662702,right,-0.002367854118347168,-0.48586671226316225,2.5590374175697566,-8.285545179337262,-0.24580849382273123,-0.003707264084368944,-0.0008467137813568115,4.5794601256251335,0.0003661215305328369
1746739378974359300,5.366359375,0.299517366670171,-0.005571812856942415,0.13089727339178295,0.0012962182518094778,0.01933357643859783,0.9602297282473833,0.11504282904178223,right,-0.0015021562576293945,-0.4860274963599135,2.5584569873332974,-8.284953643184899,-0.24586748591010832,-0.00021250569261610508,-0.0005472302436828613,4.580854210332036,0.00048658251762390137
1746739379014359300,5.406359375,0.29938659477172624,-0.00019868649542331696,0.13084734083469998,-0.004336760379374027,0.019295050829784624,0.9602374055607442,0.11493192443115896,right,-0.0024924278259277344,-0.48604462961085404,2.557350487396121,-8.285213170903921,-0.2458671532704027,0.0010199688840657473,-0.0010420382022857666,4.581002971152961,-0.000611037015914917
1746739379054359300,5.446359375,0.2992173374873704,0.0035730276722460985,0.13075532091287684,-0.0025324507150799036,0.019380679852547475,0.960257500207116,0.1150523011591135,right,-0.0011713504791259766,-0.4859557595736163,2.5560680463701484,-8.286034424158931,-0.24583090309754324,0.0007615399081259966,-0.000963062047958374,4.580232279041409,-0.0004982352256774902
1746739379094359000,5.486359130859375,0.29926676164108734,0.0031074145808815956,0.1307531906134737,-0.0006335254292935133,0.019467744487494967,0.960248838960244,0.1152513323509115,right,-0.0016716718673706055,-0.48598637668213296,2.556436295160651,-8.28577431191802,-0.2458590291944336,-0.0021186021622270346,-0.002304583787918091,4.580497651979327,0.00007739663124084473
1746739379134359300,5.526359375,0.29926715798163556,0.003478516824543476,0.130739119315017,0.0034767205361276865,0.0195362994812685,0.9602532423230856,0.11538595476988699,right,-0.00030606985092163086,-0.4859361955582329,2.556507314570248,-8.285992923104763,-0.2458438462618631,0.0018612330313771963,-0.0022322237491607666,4.5800627676934,-0.0024420619010925293
1746739379174359300,5.566359375,0.2994290390889926,0.005918238777667284,0.13078690064202944,0.0032659040298312902,0.019629792402121347,0.9602387841747279,0.11562439163819307,right,-0.003037095069885254,-0.4859499527448751,2.5578300876066087,-8.285518875852226,-0.2458675881258955,-0.0031480316538363695,-0.0019823014736175537,4.580182010158897,-0.0017202496528625488
1746739379214359300,5.606359375,0.29958461442693335,0.004907502327114344,0.1308159422001409,0.0028098903130739927,0.019769631864710854,0.9602166557348784,0.11596784880499297,right,-0.002578914165496826,-0.4860248825967534,2.559017836086452,-8.284792899665236,-0.2459273985813765,-0.004269077908247709,-0.0013759136199951172,4.580831706239283,0.00012883543968200684
1746739379254359300,5.646359375,0.2997712944003743,0.003723176196217537,0.13087439799343364,0.002657561795786023,0.019873178680702666,0.9602040340928376,0.11622825393651591,right,-0.002727031707763672,-0.48600622132571913,2.560589615447819,-8.284397178345918,-0.24593735597209826,0.0008015809580683708,-0.0021774470806121826,4.58066979367584,0.0008979439735412598
1746739379294359300,5.686359375,0.29998338717922635,0.004446121398359537,0.13096297258721282,0.006158072501420975,0.019944032958547415,0.9602084967615897,0.11640124727561156,right,-0.0016606450080871582,-0.48583121785596084,2.56258341961354,-8.284619296664,-0.2458671305227196,0.003888123668730259,-0.0016454458236694336,4.579152374850214,0.0005284249782562256
1746739379334359300,5.726359375,0.30011748671125826,-0.0022727581672370434,0.13103416664905354,0.0026845321990549564,0.01993454292003827,0.9602146179830707,0.1163943434437189,right,-0.0011402368545532227,-0.4857012557667888,2.563870244553685,-8.284843753069639,-0.24580590202118413,0.0018552474211901426,-0.0023365318775177,4.578025124385952,-0.00006529688835144043
1746739379374359000,5.766359130859375,0.300043383200938,-0.007598628289997578,0.13101582373411988,-0.00007792888209223747,0.01982985930547489,0.960200960299064,0.11618704841407411,right,-0.0005209445953369141,-0.4858811378292372,2.563012750941515,-8.284246956220269,-0.2458775658195939,-0.0031617030035704374,-0.002044767141342163,4.579585213309526,-0.00045031309127807617
1746739379414359300,5.806359375,0.2999734998487135,-0.00802672654390335,0.13100161150882217,0.0010737295961007476,0.019702667836779143,0.9601812248830826,0.11594279753247,right,-0.00168687105178833,-0.4861146995219777,2.5621178479284046,-8.28340407565534,-0.24597251361345124,-0.002063792198896408,-0.0019002854824066162,4.58161058165729,-0.0007058084011077881
1746739379454359300,5.846359375,0.29962812889443574,-0.012967437505722046,0.13088249214183922,-0.0058966935612261295,0.019508342492943944,0.9601839189672481,0.11548454490617412,right,-0.003668665885925293,-0.48632670482993373,2.5589699052914976,-8.283360236513614,-0.24604049441343734,-0.0016789000947028399,-0.0010564327239990234,4.58344861073941,-0.001356363296508789
1746739379494359300,5.886359375,0.29893488680987423,-0.019570469856262207,0.13061523161430963,-0.01157713495194912,0.019264586613541253,0.9602026738703329,0.11484614426515342,right,-0.0010249614715576172,-0.48661196249721617,2.5528417778000234,-8.283882214561105,-0.24612840898884908,-0.0027701768558472395,-0.0012701749801635742,4.585921430593729,-0.0001455545425415039
1746739379534359300,5.926359375,0.2978287461570981,-0.03107251226902008,0.1301826711801539,-0.021784627810120583,0.018907597229240406,0.9602349343251517,0.11388897975839447,right,-0.0023345351219177246,-0.4870383302932558,2.543103058595955,-8.284830893588065,-0.24625928279100737,-0.0012145021464675665,-0.0024518072605133057,4.589616777980328,0.00020867586135864258
1746739379574359300,5.966359375,0.2965857646986133,-0.03340596705675125,0.129722030153362,-0.01625591516494751,0.01838443176023507,0.9602620714064825,0.11257417343954293,right,-0.004480540752410889,-0.48761177463142646,2.5320336753100157,-8.285467437925934,-0.2464364073298432,-0.011817289516329765,-0.0014098286628723145,4.594585798564553,0.0018088817596435547
1746739379614359000,6.006359130859375,0.2953393453272287,-0.02814808487892151,0.12923096385138896,-0.022772474214434624,0.017915835129919958,0.9602598911552824,0.11140994015885718,right,-0.003480851650238037,-0.488421975423456,2.5206203008919954,-8.285053011906147,-0.2467371205936205,-0.00924098864197731,-0.0010065436363220215,4.60160356837213,-0.000978708267211914
1746739379654359300,6.046359375,0.29380516739519025,-0.027400223538279533,0.1286126034530661,-0.020993143320083618,0.017464634578666795,0.9602861934402231,0.11019267069353215,right,-0.0013233423233032227,-0.48914405126397864,2.5069436577171085,-8.285728134688734,-0.2469903408224223,-0.01134828757494688,-0.0009218156337738037,4.607855614504218,0.0005588531494140625
1746739379694359300,6.086359375,0.2929220133686918,-0.01667744666337967,0.1282532092930703,-0.007900664582848549,0.017125403631033112,0.9602579437525862,0.10938678450258604,right,-0.0012921690940856934,-0.48993806225041536,2.4985677512988445,-8.28443341870308,-0.24731064012495854,-0.013074630871415138,-0.001550823450088501,4.614727838361263,-0.0010737776756286621
1746739379734359300,6.126359375,0.2927469623268306,-0.002910217270255089,0.1281693637026587,-0.00003834813833236694,0.01700227251497418,0.9602033291400507,0.10917882783890481,right,-0.0020527243614196777,-0.49052005562203066,2.496342184203863,-8.282297575718164,-0.24757414036314299,-0.011089234612882137,-0.0016677677631378174,4.619762909919023,-0.0009993910789489746
1746739379774359300,6.166359375,0.292757138390704,-0.0015042942250147462,0.12816026752202916,0.0030032512731850147,0.01698255476315448,0.960168608474283,0.10918759726178337,right,-0.0004845857620239258,-0.4908137832918944,2.496034725689888,-8.280972464594244,-0.24771521028735094,-0.0020165638998150826,-0.001459568738937378,4.622303534312546,-0.0027534067630767822
1746739379814359300,6.206359375,0.29279670169521715,-0.007941458374261856,0.12818386294694886,-0.001067575067281723,0.01690312517325973,0.9601403345927639,0.1090692634723794,right,-0.0032004714012145996,-0.49104325245527236,2.4960560607388613,-8.279857781350612,-0.24781770249212676,-0.0056463079527020454,-0.0026877522468566895,4.624287986128032,-0.0007350444793701172
1746739379854359000,6.246359130859375,0.2920513973315593,-0.03126088157296181,0.12788221138538713,-0.023507360368967056,0.016626157167688598,0.9601219568692193,0.10839883841775146,right,-0.003778398036956787,-0.4916595773923052,2.4890631331115958,-8.27898509016931,-0.248063235690236,-0.016740523278713226,-0.0035662949085235596,4.629617072196305,0.0009183287620544434
1746739379894359300,6.286359375,0.2902911432664221,-0.04466233402490616,0.1271687692752164,-0.028694305568933487,0.016060124764256514,0.960114900315693,0.10694454298024701,right,-0.002119123935699463,-0.49278562113219054,2.4729925805374977,-8.278353222006558,-0.24849452734268584,-0.018689634278416634,-0.001521766185760498,4.639349069398642,0.00007620453834533691
1746739379934359300,6.326359375,0.2882677992835006,-0.04236029088497162,0.12637219832680044,-0.025970058515667915,0.015367188680905504,0.9601269107708054,0.10515385095109679,right,-0.00172501802444458,-0.4938998379741925,2.4547666034951803,-8.278378940969706,-0.24889794322956024,-0.012661369517445564,-0.0007110238075256348,4.6489726377904415,-0.0000028014183044433594
1746739379974359300,6.366359375,0.2867979513968959,-0.025074975565075874,0.12580823040042155,-0.010847202502191067,0.01482533554545299,0.9601426560157731,0.10376144247592453,right,-0.0007727742195129395,-0.4946452731881063,2.441614860977232,-8.278651912692188,-0.24915556472677053,-0.007754145655781031,-0.00003528594970703125,4.6554079315349455,-0.0006714761257171631
1746739380014359300,6.406359375,0.28628907145863836,-0.0010714512318372726,0.12561347469487807,0.0015001725405454636,0.014611154053400532,0.9601357506214193,0.10324036339298594,right,-0.001034379005432129,-0.4950092458802144,2.4369230498991907,-8.278267297288775,-0.24929313520822358,-0.006371937692165375,-0.0011369585990905762,4.658549152170122,-0.0016542673110961914
1746739380054359300,6.446359375,0.2872282717928699,0.03294799476861954,0.12595952193440607,0.022917719557881355,0.014927701216120701,0.9600848506554623,0.10412392100002839,right,-0.0011653900146484375,-0.49488385629734094,2.444862464596331,-8.276534774407743,-0.24929568315434633,0.0013671242631971836,-0.0011789947748184204,4.657467202152311,-0.0019040703773498535
1746739380094359000,6.486359130859375,0.28886943383942865,0.028086690232157707,0.1265919138329311,0.022393787279725075,0.01546181464308065,0.9600385928403125,0.10557060740783243,right,-0.002424895763397217,-0.4943016179791793,2.4592142305538056,-8.275109710040688,-0.24912105936728415,0.0036351527087390423,-0.003662988543510437,4.652441482944786,-0.0003654360771179199
1746739380134359300,6.526359375,0.29028505267085775,0.023923464119434357,0.12714582814755634,0.015655094757676125,0.01588153241999674,0.9599937503981703,0.10673887081847289,right,-0.004769682884216309,-0.49383981733104576,2.471540920424461,-8.273677631410957,-0.24898544825786217,0.003002684563398361,-0.0035956650972366333,4.648454459135234,-0.0012021064758300781
1746739380174359300,6.566359375,0.2909773387659119,0.01477464847266674,0.12739598157154702,0.009446601383388042,0.016220250681034144,0.9599949990455958,0.10755330850315341,right,-0.0026071667671203613,-0.4933965116729546,2.4778590175300836,-8.273937743651867,-0.24883088537716982,0.003937190864235163,-0.002304583787918091,4.644626133018732,-0.0004570484161376953
1746739380214359300,6.606359375,0.2912562423140686,0.006137910299003124,0.12748508558918223,0.005050314590334892,0.016406872544575377,0.9599969437260897,0.10798264256320435,right,-0.0001450181007385254,-0.4931979397434592,2.480431498366594,-8.274130051353573,-0.24876557701520402,0.0015451246872544289,-0.0029564499855041504,4.642910853533446,0.0002141892910003662
1746739380254359300,6.646359375,0.29115828018092327,-0.011106175370514393,0.12746186123595782,0.002251105150207877,0.0163451467789775,0.960012977153446,0.1078169846222268,right,-0.0012227892875671387,-0.4931248197680985,2.4797183816611765,-8.274697622108459,-0.24871928513350963,0.003938253037631512,-0.0018253028392791748,4.64227927763164,0.0010509788990020752
1746739380294359300,6.686359375,0.29086021693312386,-0.02067791484296322,0.12740263657309867,0.0010153306648135185,0.01600340423519878,0.9600116821890005,0.10706389847658525,right,-0.003205239772796631,-0.49335079511572344,2.4769509627744553,-8.274431664648652,-0.24877692525532374,-0.0018378938548266888,-0.0008142590522766113,4.644231288482248,0.001579195261001587
1746739380334359300,6.726359375,0.29013982718360104,-0.021014364436268806,0.12715784240097094,-0.008107180707156658,0.015617971129933714,0.9600238094224522,0.10613018393981145,right,-0.0028707385063171387,-0.4937019135513197,2.4705226832926273,-8.274650275835395,-0.24887969769415816,-0.0006615214515477419,-0.0012011826038360596,4.647263495784998,-0.0013153254985809326
1746739380374359000,6.766359130859375,0.2889882771031118,-0.02214977890253067,0.12671348892434306,-0.022198714315891266,0.015264271816519195,0.9600663113278769,0.10514656964190575,right,-0.003099799156188965,-0.49402807423849654,2.460560384465754,-8.27603676175773,-0.24896433476281074,-0.00031616250635124743,-0.0015299469232559204,4.650080014510452,-0.0023501813411712646
1746739380414359300,6.806359375,0.28762908958644207,-0.018865784630179405,0.12616679655942797,-0.01695340871810913,0.014919680145132144,0.960108157740157,0.10414591320033928,right,-0.002093672752380371,-0.4944692843129297,2.448727177200466,-8.277405127501487,-0.2491017828767324,-0.0030670445412397385,-0.0010629743337631226,4.653889051404595,-0.002902001142501831
1746739380454359300,6.846359375,0.28675796522250957,-0.011812690645456314,0.12582105767478954,-0.006709853187203407,0.01466194793560504,0.9601254991581324,0.10344033694176007,right,-0.0009591579437255859,-0.4948337664077188,2.441035745915025,-8.277907816326618,-0.24922519418647077,-0.0020159438718110323,-0.0014480650424957275,4.657034948214888,-0.0017772018909454346
1746739380494359300,6.886359375,0.2866383186266038,0.006900917738676071,0.12577513600147452,0.014037013053894043,0.01457729669872357,0.960106920785164,0.10326938939883303,right,0.001140594482421875,-0.49506570020220225,2.4397397147551176,-8.277163135439157,-0.24932451633925648,-0.0037899650633335114,-0.00025841593742370605,4.659036351165176,-0.002983689308166504
1746739380534359300,6.926359375,0.2876846688195169,0.025307098403573036,0.12617418093672958,0.021826978772878647,0.014820981366770604,0.9600236822415267,0.1040641904083628,right,-0.003862917423248291,-0.4951633435506137,2.448270081082731,-8.274169798842072,-0.2494289679384139,-0.008174060843884945,-0.0015290528535842896,4.659878939469158,-0.002250105142593384
1746739380574359300,6.966359375,0.2890578795158086,0.03174746781587601,0.12667348741314538,0.024174632504582405,0.0152638495105517,0.9599269090475868,0.10534424299210735,right,-0.0025625228881835938,-0.49516667732097236,2.4596254417032,-8.270785417100786,-0.2495217922747155,-0.007399907335639,-0.001485571265220642,4.659907581041753,-0.0006246566772460938
1746739380614359000,7.006359130859375,0.29074452485348873,0.028998102992773056,0.12731260579811557,0.022977009415626526,0.015805488179251273,0.9598548293995404,0.10684778757744184,right,-0.003151118755340576,-0.49476832120588005,2.474103756649792,-8.268402321356534,-0.2494399306747877,0.0030201682820916176,-0.0022109150886535645,4.656470007808506,0.0017599165439605713
1746739380654359300,7.046359375,0.29197690998376147,0.016019415110349655,0.1278024163504754,0.01927507296204567,0.016157514264338962,0.9598234271229459,0.107826425979173,right,-0.00338137149810791,-0.4942992471874389,2.4849203342184425,-8.267438444760442,-0.24928795200626266,0.002203737385571003,-0.0027253031730651855,4.652421024678647,0.00198480486869812
1746739380694359300,7.086359375,0.29281174070144167,0.006643048487603664,0.12815831243437095,0.010450434871017933,0.016289791941310344,0.9597968792534822,0.1082769471718517,right,-0.004208028316497803,-0.4940382897283887,2.492171620520949,-8.266523083481193,-0.24919882092215753,0.002636725315824151,-0.0017061233520507812,4.650168277315795,0.0018031299114227295
1746739380734359300,7.126359375,0.29318871634581767,0.00687132403254509,0.1283271769824156,0.0037979893386363983,0.01636333698866767,0.9598062993765998,0.10847956396404784,right,-0.002984464168548584,-0.49373698273536754,2.495692780384421,-8.266924065497516,-0.249070869299081,0.0074853552505373955,-0.00176924467086792,4.6475665703848,-0.0008664429187774658
1746739380774359300,7.166359375,0.2934828325500172,0.0054435767233371735,0.12844523823342485,0.0012024729512631893,0.016526792086767345,0.9598370826442209,0.10882388490602528,right,-0.0014933347702026367,-0.4932864478237575,2.498729371601343,-8.268192477998136,-0.24888007894019593,0.0037685190327465534,-0.001724332571029663,4.643675408165157,0.0016207695007324219
1746739380814359300,7.206359375,0.29375918230053094,-0.0005685216747224331,0.12856625739860367,0.0031078364700078964,0.016570213903417935,0.9598338332852013,0.10896441023131392,right,-0.002189457416534424,-0.4931525338222048,2.5011943004101513,-8.268097200930118,-0.24882737683415457,0.0005609083455055952,-0.0020503103733062744,4.642518639345467,0.0009275972843170166
1746739380854359000,7.246359130859375,0.29377974606775,-0.009693017229437828,0.12861012308023592,-0.002418776974081993,0.016456998514013183,0.9598442440098504,0.10872043194653616,right,-0.003647744655609131,-0.4930694723388476,2.50147603996098,-8.268414596316218,-0.2487721520308279,0.0018105506896972656,-0.0018690526485443115,4.641801138725876,0.0010995566844940186
1746739380894359300,7.286359375,0.2932381584458816,-0.016095563769340515,0.1284271480608158,-0.006198345683515072,0.01621949303796657,0.9598803907586931,0.10809040908168698,right,-0.0030928850173950195,-0.4931017713539825,2.496954178622365,-8.26962455662787,-0.24874269007511082,0.0017460902454331517,-0.002950012683868408,4.6420802479282015,-0.0013038218021392822
1746739380934359300,7.326359375,0.2924416459441236,-0.01327253133058548,0.12811826718109967,-0.00664625596255064,0.015980872742719872,0.9599109246113112,0.10742247396406326,right,-0.0006656646728515625,-0.49332370137341297,2.4900693875446915,-8.270624089059233,-0.2487995320239005,-0.003259595949202776,-0.0029834210872650146,4.643997187465429,-0.002081364393234253
1746739380974359300,7.366359375,0.29160965468666433,-0.012231864035129547,0.12780052634931705,-0.0007757851853966713,0.0156761733106624,0.9599256250408532,0.10663329198633599,right,-0.0010069012641906738,-0.4937066239330059,2.4826760624229904,-8.270989415240287,-0.24892551971297383,-0.002697982359677553,-0.0011097490787506104,4.6473044123172755,-0.0016850531101226807
1746739381014359300,7.406359375,0.2914090821146542,-0.004599820356816053,0.12773996834862084,0.004683684557676315,0.015460247792834931,0.9598921890292086,0.10619919714984173,right,-0.0026517510414123535,-0.4941307696649905,2.480450495328009,-8.269598253142833,-0.2490989951820182,-0.008015153929591179,-0.0009846091270446777,4.650966734217107,-0.001115560531616211
1746739381054359300,7.446359375,0.2915791804141352,0.013725481927394867,0.12779772709180562,0.006375802680850029,0.015526316439293107,0.9598775945015913,0.10638412820636761,right,-0.0019276142120361328,-0.49415032563153805,2.4818308437705037,-8.269089134576916,-0.24912147740037172,0.0036837225779891014,-0.0011068880558013916,4.651135368782281,-0.0016480684280395508
1746739381094359000,7.486359130859375,0.2923367997951152,0.026573114097118378,0.12807352117103568,0.010898072272539139,0.015915058676122657,0.9598912838435807,0.1072957569215492,right,-0.001283884048461914,-0.4935579790038957,2.4888886533275247,-8.269843167814612,-0.24890257246336708,0.009882435202598572,-0.0033230185508728027,4.646020509986579,-0.0008460283279418945
1746739381134359300,7.526359375,0.29324129444203706,0.020980138331651688,0.12840736897473673,0.011674432083964348,0.016355671925608918,0.9599039786217841,0.10833935630655007,right,-0.0013356208801269531,-0.49288061861603916,2.4972768347054717,-8.270599539139866,-0.24865298234421795,0.0075510344468057156,-0.003746598958969116,4.640169738131761,-0.0006093978881835938
1746739381174359300,7.566359375,0.29399435429602216,0.012610971927642822,0.1287009829720759,0.00957264844328165,0.016639934562972806,0.9599044574533071,0.10905088433904916,right,-0.0014035701751708984,-0.49241076710716236,2.504135906819999,-8.270802368235588,-0.24848033870398809,0.00518616009503603,-0.003771483898162842,4.636109941346943,0.00037866830825805664
1746739381214359300,7.606359375,0.2942783241967042,0.004358237609267235,0.12881485403648935,0.007027224637567997,0.016750681275954277,0.9599119009019218,0.10931636837514552,right,0.0005636811256408691,-0.49217086102959345,2.506806879594922,-8.271154834935068,-0.24838512389496442,0.004686685744673014,-0.0033981800079345703,4.634036642204225,-0.0024829208850860596
1746739381254359300,7.646359375,0.2944139931309217,-0.003063711803406477,0.12887428077907823,0.0025283638387918472,0.016733626474011085,0.9598926296363529,0.10933041258202399,right,-0.003777623176574707,-0.4922603739930007,2.5078087501138446,-8.270417752832174,-0.2484299492808438,-0.004328509327024221,-0.0034431815147399902,4.634810256925225,-0.0010018646717071533
1746739381294359300,7.686359375,0.29423459379903977,-0.007337824907153845,0.1288125261332112,0.0018077145796269178,0.016587350528860324,0.9598716383181508,0.10902784166267247,right,-0.0036391019821166992,-0.4925613528403308,2.505920159888267,-8.269532202169298,-0.24855283024102884,-0.0035486631095409393,-0.003002375364303589,4.637411087073385,0.000016510486602783203
1746739381334359300,7.726359375,0.29406556681867224,-0.01017963420599699,0.12878593104715383,0.004128424450755119,0.016386130158716816,0.9598808825027508,0.10857239442290045,right,-0.0020690560340881348,-0.4926083677039055,2.5044594396859408,-8.269747306224703,-0.24854455791293523,0.00468068290501833,-0.002976745367050171,4.637817329786718,-0.0003078579902648926
1746739381374359000,7.766359130859375,0.29349277894318415,-0.022620972245931625,0.128625502169136,-0.007591011002659798,0.01602860451859961,0.9599313668194224,0.10767036356754829,right,-0.0032625794410705566,-0.4925535476642189,2.4997955395281313,-8.271423715004325,-0.2484556820669817,0.002724345773458481,-0.002754777669906616,4.637343867056072,0.0015368461608886719
1746739381414359300,7.806359375,0.2924895335018692,-0.027685046195983887,0.12829574222359236,-0.013806149363517761,0.015537919898856029,0.9599920136301736,0.10640734937704505,right,-0.003701150417327881,-0.49267130963379085,2.491338676828146,-8.273404075166583,-0.24842294603801318,0.0055321697145700455,-0.0027028918266296387,4.638361227405071,-0.00002065300941467285
1746739381454359300,7.846359375,0.2914490918073434,-0.014357559382915497,0.12791894059902317,-0.008388601243495941,0.015194200862719246,0.9600667349500942,0.1054214235898141,right,-0.002060830593109131,-0.4926670982261156,2.4827348068729043,-8.276010458272696,-0.2483497837710692,0.0056893290020525455,-0.0025382041931152344,4.638324987047911,-0.000994265079498291
1746739381494359300,7.886359375,0.2912827419888648,0.007248591631650925,0.12787123392848476,0.009604843333363533,0.015130788010835708,0.9600982956327658,0.10521981329303398,right,-0.0012987852096557617,-0.4925012135329988,2.481578914836049,-8.277160797351598,-0.24825630034875243,0.0025661687832325697,-0.0019874274730682373,4.636891447113454,-0.001240760087966919
1746739381534359300,7.926359375,0.292227147896718,0.024078913033008575,0.12826310717912356,0.01749933324754238,0.015382434332623799,0.9600954772484074,0.10590199795635989,right,-0.0031369924545288086,-0.4919625672210694,2.4901141034692524,-8.277204051971434,-0.24804960922762015,0.011679169721901417,-0.0017185807228088379,4.63223631478399,-0.0014679431915283203
1746739381574359300,7.966359375,0.2934925009326655,0.034996144473552704,0.1287622480964027,0.019593721255660057,0.015848663018776764,0.9601019753560699,0.10706626584843705,right,-0.003171384334564209,-0.49113003234533137,2.50170049636662,-8.27773479784727,-0.24773622141704332,0.015592187643051147,-0.0024206340312957764,4.625038512234389,-0.003508269786834717
1746739381614359000,8.006359130859375,0.2948013842987638,0.0351397879421711,0.129248565451653,0.016347168013453484,0.016450939318283845,0.9601063838843967,0.10851866891857882,right,-0.0014440417289733887,-0.4902639392185673,2.513695762325823,-8.278283079379797,-0.2474263699367816,0.006727918982505798,-0.0035047531127929688,4.617547279696166,-0.002699732780456543
1746739381654359300,8.046359375,0.2959402118557683,0.02516012080013752,0.1296575776444125,0.010636363178491592,0.017007880351412756,0.9600974837541553,0.10986574606666065,right,-0.002475738525390625,-0.4896072439561146,2.524005559416115,-8.27831405903995,-0.24720912172205986,0.008800203911960125,-0.0046277642250061035,4.611864850145578,-0.0022892355918884277
1746739381694359300,8.086359375,0.2968551518525844,0.01672043651342392,0.1299959863475128,0.008664009161293507,0.01739082580244938,0.9600780580161073,0.11083109880635474,right,-0.004993855953216553,-0.4891900454374285,2.5321412273377177,-8.277840596309304,-0.24708020118739102,-0.0008388590067625046,-0.004117906093597412,4.60825396617204,0.0018799901008605957
1746739381734359300,8.126359375,0.2973699814289703,0.009314710274338722,0.13017748192697873,0.0040567778050899506,0.017629872280046664,0.9600612053955822,0.1114306777837337,right,-0.0034742355346679688,-0.48900084068210015,2.536658120240271,-8.277369471666216,-0.24703325392051795,0.0030447726603597403,-0.0033197999000549316,4.606615843576193,0.0014072060585021973
1746739381774359300,8.166359375,0.29756077858053814,0.007334041874855757,0.13025417209629428,0.0018997953739017248,0.01774506951132791,0.9600837673294907,0.11166730323537423,right,-0.0019411444664001465,-0.4886800383649171,2.538670336845517,-8.278297692427039,-0.24689698326839307,0.008302507922053337,-0.0033009350299835205,4.603838487817347,-0.0005401670932769775
1746739381814359300,8.206359375,0.29769679801930393,0.010896455496549606,0.13030308912568453,-0.000999754760414362,0.017877079350626022,0.960111521529059,0.1119221399913956,right,-0.002647995948791504,-0.48834293643814763,2.5402514685571194,-8.27943517202437,-0.2467536467263372,0.005994424689561129,-0.0034610629081726074,4.600919093239307,-0.002407938241958618
1746739381854359000,8.246359130859375,0.29791362336257166,0.014873439446091652,0.13036027944005749,-0.0042581274174153805,0.018134159604916746,0.9601387938992363,0.11244783515955427,right,-0.0048583149909973145,-0.48794252944325317,2.5425872180283067,-8.28064454781413,-0.24659844529099167,0.005801455583423376,-0.0022516250610351562,4.5974511248677965,-0.0024052858352661133
1746739381894359300,8.286359375,0.29793336577092033,0.007708367425948381,0.13034160140995552,-0.0015018598642200232,0.01836468337814364,0.9601897737014792,0.11285345235057381,right,-0.0010112524032592773,-0.48745626642126216,2.5434067177176476,-8.282730706438421,-0.24639260159934823,0.012759171426296234,-0.00411146879196167,4.593238475608826,-0.004438072443008423
1746739381934359300,8.326359375,0.2980912991317972,0.006466580089181662,0.13040766135022147,0.00044109602458775043,0.018466918765257526,0.9602155837400302,0.11305294412333276,right,-0.004832446575164795,-0.48712688130047294,2.5451588220819827,-8.283774662533402,-0.2462495743383602,0.0009428905323147774,-0.0047522783279418945,4.590384255221486,-0.003565281629562378
1746739381974359300,8.366359375,0.2982803219111761,0.005886443424969912,0.1304640863631263,0.0013488034019246697,0.01855625277343419,0.9601913480653167,0.11330118447161666,right,-0.0036842823028564453,-0.4872103527022468,2.5466119434997436,-8.282927105793357,-0.2463074223359541,-0.004577422980219126,-0.004589825868606567,4.591107601059973,-0.002796947956085205
1746739382014359300,8.406359375,0.2986049465566916,0.006177198141813278,0.13057765478937475,0.005520071368664503,0.018640546027888873,0.9601491329203798,0.11358618634124286,right,-0.0016764998435974121,-0.48736953643343284,2.5490856401368975,-8.281401503661275,-0.24640515704576507,-0.004250632133334875,-0.004520833492279053,4.592487072719633,-0.0023636221885681152
1746739382054359300,8.446359375,0.2989655837494211,0.004894729238003492,0.13072282490280068,0.006471442990005016,0.018698031672654467,0.9601204273736149,0.11380300243820765,right,-0.002324819564819336,-0.487397028295834,2.552034845331311,-8.280361054697632,-0.24643581914111237,-0.0025394551921635866,-0.0027009248733520508,4.592725265389681,0.0001678764820098877
1746739382094359000,8.486359130859375,0.29925539382626776,0.0022190299350768328,0.13085030148730373,0.00436836201697588,0.018698635590785852,0.9600966748287965,0.11388447966242825,right,-0.0030025839805603027,-0.4874324863933111,2.554386669154465,-8.279465567162632,-0.2464607963159355,-0.0017858874052762985,-0.002477109432220459,4.593032431642711,0.001450657844543457
1746739382134359300,8.526359375,0.2994232610412872,0.004832090809941292,0.13091404025877978,-0.00020614499226212502,0.018729017548620983,0.9600780784967021,0.11400023417578888,right,-0.0025331974029541016,-0.4874894073007891,2.5556992130577565,-8.278786937248706,-0.24649714548553234,-0.0009051176020875573,-0.0030265450477600098,4.5935257681176065,0.0009947121143341064
1746739382174359300,8.566359375,0.29957578529758805,0.005021572578698397,0.13096099736856476,0.0035815138835459948,0.01883029329352811,0.9600738181378503,0.11423891474504841,right,-0.0019102692604064941,-0.48741986192521236,2.557056180624664,-8.278702181574701,-0.2464809698117336,0.0002667047083377838,-0.0018864870071411133,4.59292312604934,0.00021645426750183105
1746739382214359300,8.606359375,0.29977228850435245,0.003116785315796733,0.13103546431011476,0.0010397832375019789,0.018915215485362864,0.9600733125150437,0.11444579423330659,right,-0.004218161106109619,-0.4872957009604514,2.558851539608836,-8.27874426715076,-0.2464370169438878,0.00042041405686177313,-0.0032157599925994873,4.591847313511371,0.00009465217590332031
1746739382254359300,8.646359375,0.2998022315618209,0.0030505452305078506,0.1310365460255585,-0.0017021293751895428,0.018989275590645244,0.9600816674070523,0.11459103393212398,right,-0.004053771495819092,-0.48719431638213767,2.5592367395341395,-8.279112515941263,-0.24639834633562496,0.0023374760057777166,-0.003745347261428833,4.590968777111172,-0.0026790499687194824
1746739382294359300,8.686359375,0.29981897471715996,0.0042744288221001625,0.1310205139028211,0.0007706254255026579,0.01910306727685583,0.9600881228509119,0.11481823005396138,right,-0.0015094280242919922,-0.48710845865748004,2.559491591078043,-8.279445693418383,-0.24637238939782902,-0.00297279073856771,-0.003802478313446045,4.590224680745601,-0.001742929220199585
1746739382334359300,8.726359375,0.29977729461150576,-0.0015751025639474392,0.13098510154549511,-0.0018415083177387714,0.019163226975829315,0.9600875336571196,0.11493605740772399,right,-0.0025269389152526855,-0.4871278979570567,2.559120419678092,-8.279467320728301,-0.24638898977360965,-0.00047201220877468586,-0.0038188397884368896,4.590393023049831,-0.0014173686504364014
1746739382374359000,8.766359130859374,0.2998320159447749,-0.0023879404179751873,0.13099910809536425,0.0019011988770216703,0.019144956229140475,0.9600572732776311,0.11495016254399353,right,-0.0038778185844421387,-0.4873589594605369,2.5592601204097267,-8.27831347451806,-0.24650087565465817,-0.008319328539073467,-0.002818673849105835,4.592395302782952,0.0015598833560943604
1746739382414359300,8.806359375,0.2999130821403259,-0.0002719396725296974,0.1310139362525206,-0.0010921559296548367,0.019154358369917693,0.9600177681879296,0.11503840976909822,right,-0.002940535545349121,-0.4876488263004005,2.559537768307328,-8.276834049615264,-0.24664598037817662,-0.002985632512718439,-0.0031870603561401367,4.594906701081991,0.0010448098182678223
1746739382454359300,8.846359375,0.29985650506649136,-0.00014378379273694009,0.1309829450144964,-0.0000857252161949873,0.01916301950710363,0.9600154374516033,0.1150504274142765,right,-0.0021343231201171875,-0.48770039596591475,2.558999423646927,-8.276752216550708,-0.24667087026230017,-0.00044031254947185516,-0.0022587180137634277,4.595353568066656,0.0009105205535888672
1746739382494359300,8.886359375,0.2997294853077484,0.00004085137334186584,0.13092317920235694,-0.0018825213192030787,0.019192771295947382,0.9600319945802708,0.11506770302878647,right,-0.0020832419395446777,-0.4876272317270847,2.558047237488627,-8.2773986977607,-0.24663581726930403,0.002898923587054014,-0.0031025707721710205,4.594719654077291,-0.00014263391494750977
1746739382534359300,8.926359375,0.299608329270048,0.001545925042591989,0.1308705355430026,-0.0017243626061826944,0.019225633074764683,0.960057492915401,0.11507971297631896,right,-0.0023913979530334473,-0.4874736869426909,2.557252579979598,-8.278382448101043,-0.2465620449715035,0.002896697260439396,-0.0020917654037475586,4.5933895745173094,-0.001237630844116211
1746739382574359300,8.966359375,0.2993241469148123,-0.0005541840801015496,0.13074953776983325,-0.004141264129430056,0.01925621877773079,0.9601014765500729,0.11503471382827861,right,-0.00026410818099975586,-0.4872568284153038,2.5551936016231775,-8.280060610446334,-0.2464527057928686,0.008521588519215584,-0.0027604103088378906,4.591510336641967,-0.002945244312286377
1746739382614359000,9.006359130859375,0.29914245016520546,-0.0010135076008737087,0.13069227599011943,-0.0017170784994959831,0.019231050181047572,0.9601457794197584,0.11489119437419831,right,-0.00415116548538208,-0.4869868510136767,2.554054368460178,-8.28170896217525,-0.24631252096778966,0.0027189780957996845,-0.003799736499786377,4.589170787778497,-0.002300739288330078
1746739382654359300,9.046359375,0.2990591366231062,-0.0011765493545681238,0.1306549798650084,-0.0018604632932692766,0.019207571928168205,0.9601413361392193,0.11483582840613088,right,-0.003066122531890869,-0.4870774501408191,2.5532418830335137,-8.281524253258109,-0.2463514131904443,-0.00284495297819376,-0.003644496202468872,4.5899558006763455,-0.0007536113262176514
1746739382694359300,9.086359375,0.2990761766145042,0.0023507801815867424,0.13066401796324753,0.0005565325263887644,0.019183643022820388,0.9601322481334422,0.11480223435232521,right,-0.0017354488372802734,-0.4871496171247488,2.5532854299142955,-8.281164187774062,-0.24638387989647056,0.001523418352007866,-0.003928869962692261,4.59058123909831,-0.0017671287059783936
1746739382734359300,9.126359375,0.29913688049705595,0.0017787727992981672,0.13068875095401747,0.0013945004902780056,0.019229447824704173,0.9601435907334612,0.11489004288557479,right,-0.0015635490417480469,-0.48700877971232437,2.5539786728754637,-8.281627129110694,-0.24632288562000837,0.0013590124435722828,-0.0030789971351623535,4.589360757392645,-0.0006103217601776123
1746739382774359300,9.166359375,0.299169702744134,0.0016006160294637084,0.13070019579741055,0.000012010801583528519,0.01927200698717375,0.9601540187241138,0.11496798908112596,right,-0.002608001232147217,-0.48689260560963044,2.554407419681549,-8.282052661046386,-0.24627276728660627,0.0009290898451581597,-0.0028284788131713867,4.58835391843766,0.00020900368690490723
1746739382814359300,9.206359375,0.2991011382569608,0.0023252677638083696,0.13066587397088797,-0.0021174633875489235,0.019311332606448725,0.9601694097447592,0.11501601053573625,right,-0.002267777919769287,-0.48679354606578945,2.5539737044394015,-8.282662317377328,-0.24622789141564827,-0.0008831447921693325,-0.003068894147872925,4.58749525578171,-0.001145482063293457
1746739382854359000,9.246359130859375,0.29904577183647124,0.0010976867051795125,0.13062758641221017,-0.0014090135227888823,0.019372896256296034,0.9601760772028762,0.11512420324108934,right,-0.0021620988845825195,-0.4867580602877145,2.5535630778118965,-8.282959254497289,-0.24621745461904568,-0.001365445088595152,-0.002526402473449707,4.587187797267735,-0.0006761550903320312
1746739382894359300,9.286359375,0.2989892544509159,-0.006100724916905165,0.13061315985049263,-0.001665594638325274,0.019328491626302607,0.9601799934412524,0.11501837590041658,right,-0.003598451614379883,-0.48676510108154936,2.5530852311670778,-8.283072651743888,-0.2462133595028889,-0.0003023080062121153,-0.0017895996570587158,4.587248879805207,-0.00032022595405578613
1746739382934359300,9.326359375,0.2987521087109294,-0.010835287161171436,0.13053808584065904,-0.0036342907696962357,0.01916725067647656,0.9601814730340683,0.11464688939412818,right,-0.0038177967071533203,-0.48691822079553837,2.550914316868782,-8.283006600770355,-0.2462600186938871,-0.00015512084064539522,-0.0024310648441314697,4.58857603675574,-0.0017860829830169678
1746739382974359300,9.366359375,0.29829738981536247,-0.010711382143199444,0.13038514935005371,-0.006461591925472021,0.018947224159675816,0.9602069281946995,0.11408556322469209,right,-0.0028204917907714844,-0.487000927951165,2.5470360141307116,-8.283802719584108,-0.24625862157221842,0.000805664632935077,-0.0033626556396484375,4.589292660592496,-0.002286165952682495
1746739383014359300,9.406359375,0.29777384720779554,-0.012060921639204025,0.1301910922143367,-0.009199768304824829,0.018745723075445354,0.9602267717503122,0.1135589751541192,right,-0.004187405109405518,-0.48716799169170644,2.542473528520763,-8.284401854521036,-0.24629925788966378,0.0018609019462019205,-0.0036360621452331543,4.59074052131325,-0.0029495060443878174
1746739383054359300,9.446359375,0.2974454144494857,-0.010177361778914928,0.13008536888998234,-0.0021428121253848076,0.018549260206740994,0.9602370749892608,0.11308762372217315,right,-0.005042612552642822,-0.4873030436766279,2.539571085077524,-8.284643846583366,-0.24633007480321462,-0.004748214036226273,-0.002877563238143921,4.591910734136403,0.0011832714080810547
1746739383094359000,9.486359130859375,0.2972180429510513,-0.007536085322499275,0.13000997085303886,-0.003845830913633108,0.01838592362154849,0.9602279707855748,0.11272762873662993,right,-0.0038364529609680176,-0.4875387660370402,2.537370067901909,-8.284185581421852,-0.24641728761477458,-0.0009834025986492634,-0.00258558988571167,4.593953345879912,0.0007237792015075684
1746739383134359300,9.526359375,0.2968807239746931,-0.004829577170312405,0.1298855861481805,-0.004561433102935553,0.01826126787391725,0.960243954498801,0.11239421158766452,right,-0.0020957589149475098,-0.4876170717509657,2.5344702548071742,-8.284697038075327,-0.24642996544011814,0.000757241970859468,-0.0029606223106384277,4.594631683532893,-0.0008735954761505127
1746739383174359300,9.566359375,0.2965699699909432,-0.003789088921621442,0.1297617206397119,-0.0008348862174898386,0.01817217686828309,0.9602532939428354,0.11214741005701899,right,-0.0009094476699829102,-0.48773056400418746,2.5317431679308413,-8.284985207366942,-0.24646537994789963,-0.00024545472115278244,-0.002506434917449951,4.595614849351346,-0.0017202794551849365
1746739383214359300,9.606359375,0.29635107725061755,-0.004737211391329765,0.12968702290923956,-0.00046228995779529214,0.018043098897138926,0.9602530022044148,0.11184669618327557,right,-0.004107415676116943,-0.4878797868794951,2.529729490020871,-8.284883500558138,-0.24651524574238756,-0.00357747171074152,-0.0021011829376220703,4.596907519510388,-0.0014102160930633545
1746739383254359300,9.646359375,0.2959811433359154,-0.01085241511464119,0.12954814906989592,-0.0051512084901332855,0.01787094951646555,0.9602500756984313,0.11143638535164567,right,-0.0028905868530273438,-0.4881454241952478,2.5263079911395905,-8.284650276324152,-0.24661233330814217,-0.0007617061492055655,-0.004348397254943848,4.599208489929139,-0.003430008888244629
1746739383294359300,9.686359375,0.2957520961708909,-0.01037343218922615,0.12948146640438934,-0.0000396273098886013,0.017681527617693038,0.9602461034266914,0.11101482485431989,right,-0.00465625524520874,-0.4883410558841349,2.5241481827571985,-8.284367952251435,-0.24667653369943837,-0.007234817370772362,-0.004064589738845825,4.60090301888734,-0.002270430326461792
1746739383334359300,9.726359375,0.2956258629254236,-0.0070092035457491875,0.12943249587610842,-0.0010862755589187145,0.017539626365702624,0.9602047835001106,0.11075954670770871,right,-0.005834698677062988,-0.48878873141249113,2.522502169115841,-8.28271550886929,-0.2468729611088999,-0.010954772122204304,-0.0033009350299835205,4.604779568059742,-0.001877814531326294
1746739383374359000,9.766359130859374,0.2954139481113332,-0.005586438346654177,0.12935102924858116,0.0021969471126794815,0.017399666192628515,0.9601807438848552,0.11047013618452083,right,-0.0022916197776794434,-0.48913754168065715,2.5202789401084185,-8.281712469306587,-0.247019152591651,-0.0005591139197349548,-0.0023361146450042725,4.607799208141863,-0.001614987850189209
1746739383414359300,9.806359375,0.2951469450728487,-0.012947725132107735,0.1292851572753749,0.00041522434912621975,0.017204535499701197,0.9602088038609907,0.10998581075355603,right,-0.002244114875793457,-0.4890808081354504,2.5181436816453933,-8.282635429370403,-0.24695838890960198,0.0032738696318119764,-0.0027894675731658936,4.607308209754526,0.00046437978744506836
1746739383454359300,9.846359375,0.29446341589028097,-0.02684980258345604,0.12905815617813515,-0.01440829411149025,0.01684296253075708,0.9602360329465189,0.10909115123956437,right,-0.0029027462005615234,-0.489292422761323,2.5121988017663357,-8.283421611312031,-0.24699598789503988,-0.005016756244003773,-0.004133284091949463,4.609140101356804,0.00006940960884094238
1746739383494359300,9.886359375,0.2930802964867486,-0.034458860754966736,0.12851999412545986,-0.027538541704416275,0.01637567328485292,0.9602655560015179,0.10785901721902375,right,-0.0023928284645080566,-0.4898944135137052,2.4999372860863804,-8.284230005085467,-0.24719304104126869,-0.01182837039232254,-0.004153311252593994,4.614349944959581,-0.0014322102069854736
1746739383534359300,9.926359375,0.29097663641152066,-0.045778222382068634,0.12763457577152476,-0.042463269084692,0.015808366217701014,0.9602491578657264,0.10636022550878313,right,-0.0029243826866149902,-0.4912987360882857,2.480643095290661,-8.28325502257347,-0.24775173859963232,-0.028437979519367218,-0.002718716859817505,4.626497478871047,-0.0015231072902679443
1746739383574359300,9.966359375,0.2886205150719336,-0.04069036990404129,0.12663742478464865,-0.03134502097964287,0.015159650176838669,0.9602086105343796,0.10467721700210642,right,-0.0030089616775512695,-0.4930418348092459,2.4588205550611018,-8.281333114600182,-0.2484601629405956,-0.024363011121749878,-0.0018073320388793945,4.641562361533939,-0.0047071874141693115
1746739383614359000,10.006359130859375,0.2870637932042545,-0.02367204613983631,0.12598337350964153,-0.02110936865210533,0.014695508497485224,0.9601703263062702,0.1035030037808996,right,-0.0038553476333618164,-0.4942829816647058,2.4442929941453038,-8.27961929641962,-0.2489679913491028,-0.01642880216240883,-0.0024684369564056396,4.652280739425122,-0.0050698816776275635
1746739383654359300,10.046359375,0.2856915082549205,-0.028354231268167496,0.1254003875974218,-0.0197695791721344,0.014334795821217005,0.9601451439898407,0.10255357461272371,right,-0.0028482675552368164,-0.4952903555114011,2.4316066771820184,-8.278465450209378,-0.2493801671080078,-0.02070312574505806,-0.0024242550134658813,4.660974918012321,-0.0033759772777557373
1746739383694359300,10.086359375,0.28420973894226553,-0.03212398663163185,0.12479106711660604,-0.016584647819399834,0.013797525245057065,0.9600820870471228,0.10126741715493034,right,-0.002711653709411621,-0.4966894033092511,2.4175064017675814,-8.275791847085952,-0.24995842386684447,-0.02038784883916378,-0.0036937445402145386,4.673041495642066,-0.0035954415798187256
1746739383734359300,10.126359375,0.28313539349710254,-0.019456055015325546,0.12438014453185978,0.009304182603955269,0.013242102890156636,0.9600118429096166,0.10002151352974724,right,-0.000469207763671875,-0.4979203086153201,2.4070051737584173,-8.272854624590277,-0.25046228082279165,-0.023933954536914825,-0.0014030784368515015,4.683650567939877,-0.002299100160598755
1746739383774359300,10.166359375,0.2838905675261698,0.024455439299345016,0.12469715526655516,0.03641410171985626,0.013131634289214841,0.9598677165571542,0.10011499233589728,right,-0.0031473636627197266,-0.4987352071771884,2.4121821380048987,-8.26736830213368,-0.25086277092058623,-0.014344299212098122,-0.000810667872428894,4.690670091313123,-0.0021035373210906982
1746739383814359300,10.206359375,0.28695866653443686,0.07113407552242279,0.12589037570790407,0.058474328368902206,0.013937007047324725,0.95972074972302,0.10251387573266292,right,-0.004168689250946045,-0.498216191113388,2.43822463401705,-8.262262503427266,-0.2507856620521759,0.004745574668049812,-0.0019041597843170166,4.686199667900801,0.0010623633861541748
1746739383854359000,10.246359130859375,0.2908303426685242,0.08127505332231522,0.12739448371553064,0.05722507834434509,0.015155439367969875,0.9596234630430178,0.10583314299792321,right,-0.0035300254821777344,-0.49675889201389345,2.4721505767554044,-8.259294301271439,-0.2503274163547146,0.014950730837881565,-0.0030475109815597534,4.673640630578994,0.0027008354663848877
1746739383894359300,10.286359375,0.29425557026076987,0.07019061595201492,0.12870959137227186,0.042158257216215134,0.01632692867916428,0.9595432315115218,0.10894389260101275,right,-0.003458082675933838,-0.49536626701752184,2.502311321741342,-8.256998883810638,-0.24988805704845352,0.007343468256294727,-0.003955215215682983,4.661629874789715,0.0004127025604248047
1746739383934359300,10.326359375,0.2967396462908497,0.03671329468488693,0.1296110353325089,0.018269799649715424,0.017267104816971406,0.9594256839519145,0.11146172421795071,right,-0.0027993321418762207,-0.49481979727299347,2.5235592769533395,-8.253192477265,-0.2498104300733047,-0.01799079403281212,-0.0070348381996154785,4.656914244444668,0.0014782845973968506
1746739383974359300,10.366359375,0.29785419218610565,0.01675534062087536,0.12998308661999905,0.011400572024285793,0.01772557948614149,0.9593299618388488,0.11272505312174705,right,-0.00200498104095459,-0.49492528973035926,2.5326120597198605,-8.249905126157403,-0.24995255928102372,-0.0015209522098302841,-0.0059507787227630615,4.657824637287855,-0.0075235068798065186
1746739384014359300,10.406359375,0.29808061945169845,0.00651515182107687,0.13006496474874238,-0.000359879806637764,0.01787480454487047,0.9593470732731781,0.11304642199147467,right,-0.005803883075714111,-0.49462828896915145,2.534886142131686,-8.250653314176201,-0.24983361568792248,0.005237836856395006,-0.00413137674331665,4.655261508801579,-0.003109872341156006
1746739384054359300,10.446359375,0.297894711930617,-0.0014680484309792519,0.1299842266664381,-0.001175531535409391,0.01787980995677136,0.9593660897791364,0.11299923980334152,right,-0.003083944320678711,-0.4945721288526502,2.5334289290606975,-8.251374029666184,-0.24980207567515583,-0.0030041891150176525,-0.002833813428878784,4.654776647894084,-0.0006400644779205322
1746739384094359000,10.486359130859375,0.2979002482204019,0.006409572437405586,0.12998553241901267,0.007081588264554739,0.01785632575168724,0.9593531005600584,0.11296989369035478,right,-0.0021002888679504395,-0.49468296973169124,2.533323130598664,-8.250867249187827,-0.24985314501357822,-0.003487805835902691,-0.002441316843032837,4.655733510227501,-0.0016572177410125732
1746739384134359300,10.526359375,0.2985481452772623,0.022574812173843384,0.13023298391918461,0.014774875715374947,0.01806151313654179,0.9593256642340665,0.11353848247272243,right,-0.002821624279022217,-0.4945129786403072,2.5389009307309984,-8.249980529481173,-0.24981477029306184,0.0017184051685035229,-0.002711743116378784,4.654266068023443,-0.001158595085144043
1746739384174359300,10.566359375,0.29944174526330936,0.016751930117607117,0.13057263405334732,0.013255488127470016,0.01833563573976931,0.9592806174196462,0.11431406586012975,right,-0.0028076767921447754,-0.4943391984540776,2.546510821212828,-8.248481230834125,-0.24979047774173035,-0.0019795349799096584,-0.004742175340652466,4.652765892593562,-0.0005325675010681152
1746739384214359300,10.606359375,0.30033301770969323,0.018322303891181946,0.1309278606085107,0.018813423812389374,0.01857210013987547,0.9592481792047043,0.11499359891000949,right,-0.0012137889862060547,-0.49406357308185683,2.5542405386820435,-8.247432598564028,-0.24971151251060222,0.0098499096930027,-0.003800719976425171,4.650386596241593,-0.001788705587387085
1746739384254359300,10.646359375,0.30153995893442,0.013118418864905834,0.13144933064735248,0.018974851816892624,0.018800824308592614,0.9592347528718447,0.11568172403324929,right,-0.0032834410667419434,-0.4934435160552475,2.565048932944238,-8.247095329433678,-0.24947184688031368,0.006935844197869301,-0.0037612617015838623,4.645032083471119,0.0010114610195159912
1746739384294359300,10.686359375,0.30250580401689064,0.013559821993112564,0.13185102400087562,0.008039848878979683,0.019001776409570622,0.9592036755133214,0.11629701479939683,right,-0.0050675272941589355,-0.49311398016425934,2.5734689707651732,-8.246075338736176,-0.24936412803661423,0.008229711093008518,-0.004661500453948975,4.64218575412929,-0.0035035908222198486
1746739384334359300,10.726359375,0.30301049964903864,0.008478489704430103,0.13204627668925628,0.0031025754287838936,0.019210364877532676,0.9592066456534393,0.11680400936887961,right,-0.00308305025100708,-0.4927597788332075,2.578120888224244,-8.246344218805431,-0.24923328715149,0.004054385237395763,-0.0034003853797912598,4.639125782036781,-0.0013855695724487305
1746739384374359000,10.766359130859374,0.3031067058360857,-0.0064039453864097595,0.13208359976258122,-0.0032217400148510933,0.01927348950738966,0.9592175704495922,0.11693401294024369,right,-0.0051566362380981445,-0.4926005131901214,2.5791347414419055,-8.246801314923166,-0.24916674326735458,0.0037322496064007282,-0.003779292106628418,4.637749525247514,-0.0010005533695220947
1746739384414359300,10.806359375,0.3026443421289954,-0.0204722061753273,0.1319307525732619,-0.011743650771677494,0.019064190910921784,0.9592526782112507,0.11637856520400162,right,-0.006639599800109863,-0.49260667776863976,2.5753128450661897,-8.247965098005533,-0.249128598273423,-0.004497441928833723,-0.003079712390899658,4.6378027167394755,0.0024163126945495605
1746739384454359300,10.846359375,0.30163429596753394,-0.019086435437202454,0.1315366707596536,-0.020811330527067184,0.018757160940700523,0.9592888442705311,0.11553103699934258,right,-0.003797769546508789,-0.4929368777195396,2.566525727498531,-8.249099654993415,-0.24922090483483061,-0.0023251844104379416,-0.002677321434020996,4.640655768083036,0.0013175606727600098
1746739384494359300,10.886359375,0.3003357609640292,-0.013468833640217781,0.1310146054562671,-0.019097767770290375,0.018489374781115172,0.9593632086028208,0.11466237995034048,right,-0.002768099308013916,-0.4930995479864633,2.5555881538987157,-8.251703700011968,-0.24922949313006806,0.001966535346582532,-0.002698540687561035,4.642060958705843,-0.0013482868671417236
1746739384534359300,10.926359375,0.2992380754560469,-0.010480862110853195,0.13056331717375375,-0.012107295915484428,0.018284710924597665,0.9594177045647131,0.11398406032251251,right,-0.0011993646621704102,-0.4933026522263782,2.5462510012328625,-8.25360339615345,-0.2492720206877847,0.0011694234563037753,-0.002380877733230591,4.643815401157736,-0.0019485950469970703
1746739384574359300,10.966359375,0.29838162908642835,-0.017400382086634636,0.13022668596036668,-0.00944109819829464,0.01801035995964349,0.9594363038839161,0.11325157333269256,right,-0.0031217336654663086,-0.49367950926888154,2.538666829714179,-8.254107838544249,-0.24939649665750369,-0.004929469432681799,-0.0028622448444366455,4.647070019039512,-0.0022283196449279785
1746739384614359000,11.006359130859375,0.29714340153783436,-0.02989019826054573,0.12974087315404972,-0.01749008148908615,0.01752243913102427,0.9594224859305025,0.11205968195024568,right,-0.0023071765899658203,-0.4945784552175018,2.5272201375484467,-8.25324742232263,-0.24973743214779587,-0.010739976540207863,-0.0042945146560668945,4.65483130069077,-0.006105870008468628
1746739384654359300,11.046359375,0.29614938488324266,-0.028392229229211807,0.12935239140576385,-0.01477697491645813,0.01708314363024053,0.9593908770768182,0.11103127225222237,right,-0.004388988018035889,-0.4954748630872141,2.5177961833819746,-8.251760983157157,-0.2500904296586348,-0.01842726767063141,-0.005494594573974609,4.662566863378882,-0.004121452569961548
1746739384694359300,11.086359375,0.29505709633151317,-0.03186199441552162,0.12889388622671885,-0.02099449932575226,0.01667299568568498,0.9593297468070332,0.11008476080893066,right,-0.005371272563934326,-0.49666555207862617,2.5071654837742448,-8.249188502320647,-0.25058887282574943,-0.023346859961748123,-0.004096090793609619,4.6728360361978405,-0.0023526549339294434
1746739384734359300,11.126359375,0.29324404061790693,-0.06433413177728653,0.12814684718050467,-0.040160007774829865,0.016015481629591707,0.9592603376406347,0.10851276601578622,right,-0.004064023494720459,-0.49835439130956344,2.489920334462821,-8.246154249191283,-0.2512797520412386,-0.03635460138320923,-0.004541113972663879,4.687390046729147,0.0009511709213256836
1746739384774359300,11.166359375,0.2907489169930581,-0.05364234000444412,0.1271461043262783,-0.02865123748779297,0.01509155439562656,0.9591985414557085,0.10625537525276903,right,-0.0008662939071655273,-0.5003719552766808,2.466621291939914,-8.243264372968673,-0.25208002863630957,-0.023994343355298042,-0.0007172226905822754,4.704759406942129,-0.003872394561767578
1746739384814359300,11.206359375,0.2887414254400147,-0.03912218660116196,0.12636074225853236,-0.02042725682258606,0.014320177421475826,0.9591663345000695,0.10435093929907642,right,-0.003036022186279297,-0.5018312868836313,2.448110506606847,-8.24160900697708,-0.2526417151549774,-0.018366379663348198,-0.0009545087814331055,4.717311137740314,-0.0017670392990112305
1746739384854359000,11.246359130859375,0.287368378859717,-0.021457359194755554,0.12582414712991513,-0.011020127683877945,0.013808294151730415,0.9591500420342226,0.10306999599496441,right,-0.002409636974334717,-0.5027698540664135,2.4355361255854366,-8.240712934920191,-0.25299967910502863,-0.009962920099496841,-0.002403765916824341,4.725378416600823,-0.0029755830764770508
1746739384894359300,11.286359375,0.2864657389254275,-0.011119907721877098,0.12546652962832427,-0.0077544949017465115,0.01350519578117922,0.9591452303870384,0.1022878707348478,right,-0.0024840235710144043,-0.5033296448507802,2.427348873607069,-8.240369236049055,-0.2532118174528378,-0.00682417955249548,-0.00290660560131073,4.730188154970109,-0.0038872063159942627
1746739384934359300,11.326359375,0.28586740134724664,-0.007039855699986219,0.12521387429419173,-0.009600996971130371,0.013358217796112619,0.9591381291515553,0.1018854197799323,right,-0.005587577819824219,-0.5037249942603093,2.4218903159402307,-8.24002553717792,-0.2533714636794388,-0.010937980376183987,-0.004709333181381226,4.733583934888244,-0.0035104453563690186
1746739384974359300,11.366359375,0.2855147806546775,-0.008290902711451054,0.1250459713044589,-0.008421923033893108,0.013293380696596678,0.9591076388761256,0.10172717109096469,right,-0.0028589367866516113,-0.5041727634219153,2.4183874223858117,-8.238844218438864,-0.2535731372662565,-0.007914277724921703,-0.006188064813613892,4.7374292121395465,-0.0030021965503692627
1746739385014359300,11.406359375,0.28505982660397955,-0.014374760910868645,0.12487434618252484,-0.00376586290076375,0.01309647462479012,0.9590989297006937,0.1012488088304855,right,-0.005525827407836914,-0.5045087538268459,2.4141909936092794,-8.238415763893723,-0.25370077486009046,-0.009643837809562683,-0.004040583968162537,4.74031382766515,-0.00006532669067382812
1746739385054359300,11.446359375,0.2846303498378516,-0.010288567282259464,0.12470601206093687,-0.002434768481180072,0.012867550090259111,0.9590562615024736,0.1007523732289771,right,-0.003958225250244141,-0.5051147347942562,2.409845657881349,-8.236693177884817,-0.25395651504998173,-0.01112865749746561,-0.002491995692253113,4.745515195700526,-0.0012295842170715332
1746739385094359000,11.486359130859375,0.28423626567340454,-0.007476735860109329,0.12455029727533169,-0.004957602359354496,0.012722985469665618,0.9590473799347381,0.10039283515357465,right,-0.002557098865509033,-0.5054117854507707,2.4062039403781292,-8.236288688737153,-0.2540735196463369,-0.0022033918648958206,-0.0028967708349227905,4.748064295661449,-0.0005570948123931885
1746739385134359300,11.526359375,0.2839041966128848,-0.0018005301244556904,0.12441389071946883,-0.0035465520340949297,0.012675160986506702,0.9590672048064977,0.10020771182526399,right,-0.0022732019424438477,-0.5054283328160076,2.403446750624478,-8.237011742314696,-0.2540678023516467,-0.0003891340456902981,-0.0034129470586776733,4.748206334480643,-0.0008337795734405518
1746739385174359300,11.566359375,0.28383863469429604,0.004308949690312147,0.12436820829428595,0.0016788074281066656,0.012736912084933738,0.9590703823770055,0.10031935022130099,right,-0.002872467041015625,-0.505429826106954,2.402904752702266,-8.237162548962235,-0.2540750456292538,-0.002716425573453307,-0.002846822142601013,4.748219193962216,-0.0014699101448059082
1746739385214359300,11.606359375,0.2839105821460478,0.002111053094267845,0.12436947526851584,-0.002437175950035453,0.01284188878025971,0.9590585265312165,0.10056490319751252,right,-0.0020020604133605957,-0.5054785562237094,2.403432575968653,-8.236767412164808,-0.254114044948203,-0.0009745201095938683,-0.004216209053993225,4.748637127113342,-0.002007722854614258
1746739385254359300,11.646359375,0.28408642838230913,0.0006801368435844779,0.12443950850935556,0.003988106735050678,0.012883911801888337,0.9590521415411304,0.10069214523606874,right,-0.00467759370803833,-0.5054336790490178,2.404940642444044,-8.236549385499954,-0.2541016561261249,-0.0038815969601273537,-0.004640251398086548,4.748252219448983,-0.0014958381652832031
1746739385294359300,11.686359375,0.2844041885352474,0.003863309510052204,0.12456063683777442,0.005954733118414879,0.012924829433465694,0.9590121973327931,0.10088620665153687,right,-0.00620800256729126,-0.5055910549192696,2.4073481419771907,-8.235067037987708,-0.254190970297646,-0.005880570039153099,-0.004368573427200317,4.749602465014159,-0.0023185014724731445
1746739385334359300,11.726359375,0.28483889161864345,0.006675858050584793,0.12473554463267078,0.010399376042187214,0.012986010445064295,0.958978322029036,0.10113576533962602,right,-0.0038520097732543945,-0.5056342234670802,2.4108701786234974,-8.233823175406455,-0.2542299560600454,0.001023699063807726,-0.0034636855125427246,4.749972759631276,-0.0030106306076049805
1746739385374359000,11.766359130859374,0.28536118157225043,0.008920958265662193,0.12495010321371067,0.00812847912311554,0.013099284556251572,0.9589662637783071,0.10148077025726629,right,-0.003254532814025879,-0.5054443467379239,2.415424042535573,-8.233428038609027,-0.25416420045142346,0.0037285180296748877,-0.0038217157125473022,4.748343697124719,-0.0016175806522369385
1746739385414359300,11.806359375,0.2859164940758368,0.012921834364533424,0.1251656319195672,0.007764988113194704,0.01327406022768791,0.9589560350957348,0.10195637867372917,right,-0.0030103325843811035,-0.5052141349329871,2.420304069662094,-8.233134024098515,-0.254087637543356,0.002366770524531603,-0.002517133951187134,4.746368305398524,-0.0003349184989929199
1746739385454359300,11.846359375,0.28644136048084046,0.009457449428737164,0.1253697638244567,0.007077266462147236,0.01344596922080626,0.9589504590624113,0.1024143697288895,right,-0.0021352171897888184,-0.5049620112282636,2.424963147514313,-8.23301068997979,-0.2539993721985533,0.003061918541789055,-0.0024198293685913086,4.744204405362904,0.00006568431854248047
1746739385494359300,11.886359375,0.28695810810494793,0.005008826032280922,0.1255763273321817,0.0034903082996606827,0.013594521219968911,0.9589450242196408,0.10282193790058398,right,-0.0024873018264770508,-0.504713341506935,2.4295509136959907,-8.232887355861067,-0.25390967784778873,0.00009295227937400341,-0.002861395478248596,4.742070023682714,-0.00000908970832824707
1746739385534359300,11.926359375,0.2872083456642089,0.005214792676270008,0.12566798348279046,0.003111139638349414,0.01369907023366654,0.9589424007647551,0.10308666332122335,right,-0.0033403635025024414,-0.5045890598620012,2.431777942095697,-8.232844685763121,-0.2538686493784646,-0.0005885837017558515,-0.004217296838760376,4.741003271234035,-0.0014254450798034668
1746739385574359300,11.966359375,0.28732620911020107,0.003073723753914237,0.125692423502131,0.002133637201040983,0.013827792640439786,0.9589444556069309,0.10337130499394274,right,-0.0006792545318603516,-0.5044937405470394,2.4328764048568905,-8.232991400757431,-0.25384181934803585,-0.0005774302990175784,-0.0035565942525863647,4.740184940588474,-0.002167612314224243
1746739385614359000,12.006359130859375,0.28722074673233366,-0.004165205173194408,0.12566369113100712,0.005895093083381653,0.013806161456994313,0.9589758589425039,0.10326661864137024,right,-0.0018206238746643066,-0.5042929130991161,2.432277708311379,-8.234160444536805,-0.253738588361518,0.002140203258022666,-0.0015971958637237549,4.738460893274843,-0.0010544359683990479
1746739385654359300,12.046359375,0.28719081436751803,-0.005742567125707865,0.12567187721987613,0.0033100300934165716,0.01370226326378131,0.9589677538927499,0.1030570352766215,right,-0.004968225955963135,-0.5043882318030664,2.4319033220410344,-8.233799794530867,-0.2537707457990536,-0.006437723524868488,-0.0005463659763336182,4.739279223920405,-0.0010322630405426025
1746739385694359300,12.086359375,0.2871138851454506,0.0013647535815835,0.12563905913012818,-0.0013405208010226488,0.013662885308399155,0.9589560095965514,0.10297707979751218,right,-0.004034876823425293,-0.504531238876486,2.431077977132797,-8.233336853194237,-0.25383350156437573,-0.00039658229798078537,-0.0022246092557907104,4.740506719888747,-0.002689361572265625
1746739385734359300,12.126359375,0.28706711482693503,0.00676828483119607,0.1256014024438148,-0.0021178140304982662,0.01373318056460662,0.958961545621154,0.10310675182668103,right,-0.003317713737487793,-0.5045023388102763,2.430731647913158,-8.233582352387904,-0.25382751569189355,-0.0005702661583200097,-0.0042449235916137695,4.740258882607519,-0.0019047558307647705
1746739385774359300,12.166359375,0.28715340758115687,0.0074508278630673885,0.12559886443605242,0.0020465715788304806,0.013907865892937169,0.9589635177339666,0.10348076941861717,right,-0.0030207037925720215,-0.5044189091592735,2.4315542163424193,-8.233751863735915,-0.2538117551513916,-0.001513345050625503,-0.00368441641330719,4.739542551031708,-0.0008965730667114258
1746739385814359300,12.206359375,0.28748320115453097,0.008553219959139824,0.12570124460247947,0.003268239786848426,0.014089223522643135,0.9589459482618966,0.10393792235855023,right,-0.002119779586791992,-0.5043657934770714,2.434340778321028,-8.233190722721815,-0.25381741715977807,-0.0016328886849805713,-0.003925949335098267,4.7390866239577525,-0.0006223022937774658
1746739385854359000,12.246359130859375,0.287786463933785,0.009503409266471863,0.12581703060012295,0.010379290208220482,0.014209139495455039,0.9589482391339345,0.10423734637213486,right,-0.0020020604133605957,-0.5041699652561309,2.437100890684128,-8.233342113891243,-0.25374484885761817,0.003635191824287176,-0.003260388970375061,4.737405246742069,-0.0022507309913635254
1746739385894359300,12.286359375,0.2882662338584567,0.008625994436442852,0.12600930349920564,0.00862116552889347,0.014314682237196669,0.9589274890005172,0.10456868886662886,right,-0.005012869834899902,-0.5040704590791614,2.441184652866423,-8.232623151966928,-0.2537216279629643,-0.0012234114110469818,-0.0037466436624526978,4.736550675739347,-0.0026623308658599854
1746739385934359300,12.326359375,0.288658472338741,0.006841486785560846,0.12614333920749518,0.0054161748848855495,0.014463723724777769,0.9588971104401509,0.10498688626018664,right,-0.004894077777862549,-0.5040928987731502,2.444383448907733,-8.231563413780927,-0.2537615188660641,-0.0011827287962660193,-0.00379064679145813,4.736743275702,-0.001858532428741455
1746739385974359300,12.366359375,0.2890523034601982,0.006727018393576145,0.12629119572408468,0.0055815731175243855,0.014593444672824899,0.9588821288256102,0.10534513547486254,right,-0.0036830902099609375,-0.503988713142676,2.4477657848224044,-8.23107299991548,-0.25373722857192305,0.0004877140745520592,-0.0036611557006835938,4.735848664949834,-0.001786351203918457
1746739386014359300,12.406359375,0.2895667625090836,0.010312296450138092,0.1264919999356579,0.009242268279194832,0.014753547648501642,0.9588723734725209,0.10578064092552547,right,-0.00243300199508667,-0.5037713474971706,2.452293783640861,-8.230798859149218,-0.2536647290432003,0.0032408779952675104,-0.0029331445693969727,4.73398199429512,-0.0005841255187988281
1746739386054359300,12.446359375,0.29016391489255283,0.010657618753612041,0.12673196046784396,0.005769462324678898,0.014948665806616112,0.9588783827590175,0.10628214624824253,right,-0.0026592612266540527,-0.5033733974730221,2.457747372871637,-8.231137881845235,-0.25351087066532174,0.004375948570668697,-0.0034036636352539062,4.730564002545178,0.0003930032253265381
1746739386094359000,12.486359130859375,0.2907573813094797,0.013690031133592129,0.12695884912838099,0.007579424884170294,0.015182474786594105,0.9588812910617728,0.10686648636505608,right,-0.001556694507598877,-0.5029963746139813,2.463142802174389,-8.231385719126463,-0.2533723684873199,0.004616264719516039,-0.003647640347480774,4.72732487449348,-0.00037094950675964355
1746739386134359300,12.526359375,0.29138373670790685,0.01421904843300581,0.1272010959582354,0.009923705831170082,0.01540478778727905,0.9588773561073862,0.10744151709527004,right,-0.003705441951751709,-0.5026580772715213,2.4687574271857735,-8.231372859644889,-0.25325216678915485,0.006385707296431065,-0.0035897046327590942,4.724418047136068,-0.001196056604385376
1746739386174359300,12.566359375,0.2919666729534366,0.018642941489815712,0.1274247325648701,0.003599603660404682,0.015663439719079027,0.9588946993864657,0.10805508337749206,right,-0.005792558193206787,-0.5021604325557445,2.4742317669436336,-8.232182422462106,-0.25305812815523604,0.0069980379194021225,-0.0034034699201583862,4.720140808208287,-0.001971602439880371
1746739386214359300,12.606359375,0.2925507489183254,0.0219295434653759,0.12761183775716928,0.0050113992765545845,0.016074038063341737,0.9589144658714708,0.1089784699525389,right,-0.0021811723709106445,-0.5016187445292984,2.4797765415892004,-8.233183123937248,-0.2528629946476416,0.00540561368688941,-0.004636034369468689,4.7154836300522085,-0.001831144094467163
1746739386254359300,12.646359375,0.29313123104052646,0.010356266982853413,0.12781664708168963,0.00779945170506835,0.016410688065702197,0.95893458567017,0.10974743289472766,right,-0.0017224550247192383,-0.5010839322491297,2.4852836145728827,-8.234155183839798,-0.252661454862648,0.012941798195242882,-0.005338236689567566,4.710884611824155,-0.0014782249927520752
1746739386294359300,12.686359375,0.2937765013297976,0.006448958069086075,0.12811555820964385,0.013014489784836769,0.0164982094681116,0.9589533601452268,0.11001507195214304,right,-0.005088388919830322,-0.5005587160845982,2.4913126656040547,-8.234916815862059,-0.2524330994572996,0.006313545163720846,-0.003456592559814453,4.706366549877822,0.0015608370304107666
1746739386334359300,12.726359375,0.29435698470081906,0.0035326669458299875,0.1283867527745316,0.008765101432800293,0.01652024271850658,0.9589477053698999,0.1101690160439445,right,-0.004122912883758545,-0.5002821113181929,2.4964699022367594,-8.234715155810116,-0.25231566508884606,0.00743673462420702,-0.0038459599018096924,4.703986376743019,-0.0008350908756256104
1746739386374359000,12.766359130859374,0.29468520693661343,0.009118099696934223,0.128556246004807,0.006431601941585541,0.016556591991750694,0.9589851665221962,0.11024991821462522,right,-0.002892613410949707,-0.49978091785872625,2.4998572065874933,-8.236150157049298,-0.25208428030906477,0.01178640779107809,-0.0037149786949157715,4.699673189719021,-0.0025672614574432373
1746739386414359300,12.806359375,0.29500706547908384,0.010918092913925648,0.12869271047482092,0.0038518893998116255,0.016714704531311807,0.959024091634926,0.110578552435535,right,-0.002376556396484375,-0.4992528904889204,2.5032290211081505,-8.237718429279328,-0.2518559648609357,0.00851852260529995,-0.003965705633163452,4.695127655243874,-0.002651125192642212
1746739386454359300,12.846359375,0.2954532915775812,0.009207024239003658,0.12887471220133057,0.0070013562217354774,0.016872410756461956,0.9590359354060347,0.11096425275875266,right,-0.0025973916053771973,-0.4988815434115689,2.5074121520116925,-8.238267879855632,-0.25170722872833395,0.003910971339792013,-0.003557533025741577,4.6919303205072875,-0.0012288689613342285
1746739386494359300,12.886359375,0.2958472392220958,0.008263658732175827,0.12904741774366052,0.012791864573955536,0.016974582807987387,0.9590510885256271,0.11122176383270582,right,-0.00023227930068969727,-0.4985194891692367,2.511152507583797,-8.238903839671611,-0.2515542712437091,0.01167889405041933,-0.0018365681171417236,4.688812188486755,-0.003947854042053223
1746739386534359300,12.926359375,0.29628768121803545,0.00504638534039259,0.12926788004327208,0.00946950912475586,0.016978080379414087,0.9590666258992154,0.1112829252402752,right,-0.005356490612030029,-0.4981413184515987,2.5152985213473436,-8.239492453214526,-0.25138139144256255,0.005960201844573021,-0.002456754446029663,4.685554647995532,-0.00361064076423645
1746739386574359300,12.966359375,0.29656560917839664,0.0007382361218333244,0.12939997681449814,0.003807738423347473,0.01698169958803996,0.9590643192592884,0.11134100677187958,right,-0.0046492815017700195,-0.49800463845697496,2.5177757251158357,-8.239405359452963,-0.25132222325885156,-0.0018763253465294838,-0.003059208393096924,4.684377128648758,-0.002610445022583008
1746739386614359000,13.006359130859375,0.296877606419403,0.007975591346621513,0.12951449699624012,0.0012162094935774803,0.01708482840736867,0.9590455920316042,0.11163232345913834,right,-0.005093038082122803,-0.4979708994153018,2.5203923373550174,-8.238770568680764,-0.2513276321272259,-0.0028457208536565304,-0.003325819969177246,4.684086329008639,-0.002200305461883545
1746739386654359300,13.046359375,0.29714612654802236,0.008217678405344486,0.1295955598275929,-0.0002525064628571272,0.017274146493400998,0.9590437642587727,0.1120706600881319,right,-0.003461599349975586,-0.4978068091618762,2.5228295013740656,-8.238828436347841,-0.2512799751205333,0.0038816328160464764,-0.002934753894805908,4.682672662818431,-0.00043913722038269043
1746739386694359300,13.086359375,0.2971963310748379,0.0014375369064509869,0.12960804490803635,-0.0005622686585411429,0.01738480278212637,0.9590729860598386,0.11226706370243413,right,-0.0031205415725708008,-0.49751646183463977,2.5236414022788405,-8.240001571780443,-0.25115448986794603,0.006619458086788654,-0.003405153751373291,4.680170616869628,0.0004597008228302002
1746739386734359300,13.126359375,0.2970994026992922,-0.0001894162269309163,0.12958559455416932,0.0012818245450034738,0.017363201247751744,0.9591074147731756,0.11215876375288895,right,-0.0021065473556518555,-0.49728492414109887,2.5231597562417387,-8.241282259240746,-0.2510360702701893,0.004628406371921301,-0.004476815462112427,4.678175059138238,-0.001147627830505371
1746739386774359300,13.166359375,0.29721680218128715,0.004955293610692024,0.12965136274997743,0.006591116078197956,0.017341627595333007,0.9591138331270957,0.11212535103071453,right,-0.001969277858734131,-0.4971678443509629,2.524287591227889,-8.241509638255835,-0.250979020126825,0.0018463130109012127,-0.004982471466064453,4.677165882095694,-0.0031498074531555176
1746739386814359300,13.206359375,0.2975371960679695,0.006660234648734331,0.12977874060093336,0.005526971071958542,0.01741963982331343,0.9590993310963788,0.11236023434688136,right,-0.0034492015838623047,-0.49709677241248207,2.527025491759181,-8.241018055346608,-0.2509631078003862,-0.00142188323661685,-0.0042161643505096436,4.676553303155303,-0.0036851465702056885
1746739386854359000,13.246359130859375,0.29791677867105043,0.006031455006450415,0.12991331962450584,0.0028056567534804344,0.017559519097917992,0.9590742250428426,0.11274720738800431,right,-0.004194021224975586,-0.49707209610122893,2.5301871706604957,-8.240168745040894,-0.25097976161238605,-0.004127647262066603,-0.004783004522323608,4.676340537187457,-0.001903146505355835
1746739386894359300,13.286359375,0.29812381569359653,-0.0030149859376251698,0.12998797485673738,-0.0003378763794898987,0.017591406729805425,0.9590425597301883,0.11289152664568315,right,-0.0056223273277282715,-0.49721607618455144,2.5316955293968317,-8.239000870305299,-0.2510597150894182,-0.0012944331392645836,-0.005370110273361206,4.677581769420207,-0.0016721785068511963
1746739386934359300,13.326359375,0.29826747856889296,-0.003215908771380782,0.13007478500050992,0.006076469551771879,0.017477164475439913,0.9590218820099845,0.11270899998031449,right,-0.006716489791870117,-0.4973263593635755,2.5327275027930733,-8.23814396121502,-0.25110175967166404,-0.004551137797534466,-0.00340840220451355,4.678532202012836,-0.00018599629402160645
1746739386974359300,13.366359375,0.2985788498092833,0.002784443786367774,0.13020998613730714,0.0057461680844426155,0.01744514006262493,0.9589793770525973,0.11275430070907229,right,-0.005698978900909424,-0.4975122467635067,2.5350366565182805,-8.236523666536808,-0.251196179425797,-0.0033404179848730564,-0.0031551122665405273,4.680134376512467,-0.0005170106887817383
1746739387014359300,13.406359375,0.2988372245161981,0.0058823381550610065,0.13031246909395228,0.00012980913743376732,0.017538105551555203,0.9589808982815856,0.11298732570608201,right,-0.0045318603515625,-0.4973387944519332,2.537403677910566,-8.236644078046083,-0.2511308018064716,0.0030883518047630787,-0.002864062786102295,4.6786394617795946,0.00025200843811035156
1746739387054359300,13.446359375,0.29897587884781446,0.00793839804828167,0.13035266544668223,-0.0000013949465937912464,0.017709034397328068,0.9590098130864158,0.1133227389901933,right,-0.00241696834564209,-0.4969903062996718,2.5390257261544464,-8.237849362182617,-0.250987502739263,0.006130272522568703,-0.0035659372806549072,4.6756356037884945,-0.0012997090816497803
