time,seconds_elapsed,roll,rotationRateZ,quaternionY,rotationRateY,quaternionZ,quaternionW,yaw,devicelocation,accelerationZ,pitch,gravityX,gravityZ,quaternionX,rotationRateX,accelerationX,gravityY,accelerationY
1746576252080641800,0.499641845703125,0.27036894878272094,0.003987426403909922,0.13403743476777086,-0.006226040422916412,1.088915756860745e-19,0.9891188293504521,-0.016376669329242467,right,0.1760249137878418,0.12026180424393705,2.6003099236786364,-9.382140393093227,0.060645961404047925,-0.002027217298746109,-0.053739115595817566,-1.1765242713216693,0.7131810188293457
1746576252120641800,0.539641845703125,0.25725307685958493,0.0021094377152621746,0.10695419640003791,-0.007576846517622471,0.030040609847950595,0.9585139767703422,0.13143677045269736,right,0.057311058044433594,-0.5199132359243055,2.1653649936057624,-8.230751512876152,-0.2625057073823247,-0.0009568023961037397,-0.010077789425849915,4.871991411842406,0.09661099314689636
1746576252160594200,0.57959423828125,0.2663956673168873,0.011470305733382702,0.10066967353687634,-0.007139120250940323,0.03535237662115903,0.9420664368167678,0.16281593419177626,right,0,-0.6335928798447674,2.08057264085263,-7.624455013754964,-0.31800406844355666,0.009794790297746658,0,5.80596942101717,0
1746576252200594200,0.61959423828125,0.2653293269481665,0.00873294472694397,0.10022371953636838,-0.002304917201399803,0.035344541536231296,0.942120328901287,0.16244606239645976,right,-0.0006271004676818848,-0.6336347815947961,2.0723774978287515,-7.626434789395332,-0.317986231517917,0.0028410605154931545,0.0007962584495544434,5.8063008449286215,0.000321805477142334
1746576252240594200,0.65959423828125,0.26426292029173704,0.005995583720505238,0.09977775222709952,0.0025292858481407166,0.035336693073793474,0.9421739810844914,0.16207609615223095,right,-0.0012547969818115234,-0.6336762595207974,2.064180455108732,-7.628407550773024,-0.3179683012935075,-0.004112669732421637,0.0015926957130432129,5.806628761708736,0.0006439685821533203
1746576252280594200,0.69959423828125,0.2644879148772085,0.006938429549336433,0.09981019594789765,-0.004792011808604002,0.03546413699954952,0.9421233376943444,0.16245753878790584,right,-0.0008564591407775879,-0.6338960462325135,2.0655631416387856,-7.626711268249154,-0.3180941030184198,-0.0016978976782411337,-0.00041624903678894043,5.808365376242995,0.0003197789192199707
1746576252320594400,0.739594482421875,0.26470528958449024,0.01061544194817543,0.09983657617957047,-0.0030341013334691525,0.03568111604448062,0.9421191612392599,0.1629746530338761,right,-0.0020025968551635742,-0.6337900129231696,2.06738217375949,-7.6268568141996855,-0.31807415643182857,-0.0008476032526232302,-0.000005930662155151367,5.8075271718531845,0.0019269585609436035
1746576252360594200,0.77959423828125,0.26502810024728757,0.003406057134270668,0.09989127444542427,-0.006399552803486586,0.03589924766065843,0.9420812113846343,0.16355880317280216,right,-0.0013068914413452148,-0.6338656478065843,2.069728883016109,-7.625764927309751,-0.3181445155825792,-0.007105785422027111,0.0008417665958404541,5.808125137746334,0.0003064870834350586
1746576252400594200,0.81959423828125,0.26516385414340654,0.0072682760655879974,0.09990137577175283,-0.006942788604646921,0.03605875443205014,0.9420806506815597,0.16392944491278783,right,-0.00034880638122558594,-0.6337790443422555,2.0708958809688687,-7.625968925449252,-0.3181249681446797,0.0005460870452225208,0.00022464990615844727,5.80744066261351,0.00008183717727661133
1746576252440594200,0.85959423828125,0.2653087981982924,0.006889066193252802,0.09991124549418928,0.0004567238502204418,0.03626089019852803,0.9420964426390526,0.1643741827076993,right,-0.0006150603294372559,-0.6335705453816739,2.072318753378838,-7.626837524977326,-0.31805227657352003,-0.000440597184933722,0.00027607381343841553,5.805792895406484,-0.0005643367767333984
1746576252480594200,0.89959423828125,0.26573456732631207,0.007703890558332205,0.10002419495657805,0.0018720042426139116,0.03645784425343994,0.9420680426678626,0.16493275432893162,right,0.00010162591934204102,-0.6335498919311003,2.0755973366580904,-7.626070047736167,-0.31807828948139755,-0.011385769583284855,0.000865057110786438,5.8056298137992615,0.00026929378509521484
1746576252520594200,0.93959423828125,0.26622358889508474,0.009001070633530617,0.10016126051631305,0.0036914171651005745,0.03655199254418449,0.941974023492779,0.16536425403100757,right,-0.0015087127685546875,-0.6339641982963636,2.0786932568468153,-7.622732427746057,-0.31830256143169094,-0.015929874032735825,0.0005138516426086426,5.8089037209033965,0.001078963279724121
1746576252560594200,0.97959423828125,0.26671306037516346,0.010298250243067741,0.10029832607604998,0.005510830320417881,0.036646151509432574,0.9418800629587109,0.16579620246348462,right,-0.0031194090843200684,-0.634378505816747,2.08178976155743,-7.619392469668388,-0.31852683338198284,-0.02047397755086422,0.00016260147094726562,5.8121764589637515,0.0018888115882873535
1746576252600594200,1.01959423828125,0.2668947352117408,0.004733589943498373,0.10030724035818846,-0.003739704377949238,0.03675892620157432,0.94181439927112,0.16615125179460363,right,-0.0005759000778198242,-0.6347147980617541,2.082658361085504,-7.617128031867742,-0.31870517990716013,-0.010960427112877369,0.0010822862386703491,5.814832526430488,0.0013050436973571777
1746576252640594200,1.05959423828125,0.26680938562634854,-0.002524761948734522,0.10018601753046365,-0.00218547903932631,0.03690735898285937,0.9417504235531613,0.16650426694204667,right,0.00372999906539917,-0.6351289176884763,2.0813731435805556,-7.6149822520107024,-0.31891490835239716,-0.0026112261693924665,0.0018052458763122559,5.818102341881394,0.0008973479270935059
1746576252680594200,1.09959423828125,0.2665944136724961,-0.01272340677678585,0.10009710927314666,-0.015133989043533802,0.03689410950263271,0.9417563492556303,0.16641044202779662,right,-0.0008344054222106934,-0.6351731092849184,2.079668385489285,-7.615181573975086,-0.3189268958731301,0.006030986085534096,0.0008202940225601196,5.818451301449537,0.00292813777923584
1746576252720594200,1.13959423828125,0.26632510164916556,-0.002377159195020795,0.10002598726530366,0.0020178360864520073,0.03670618236232845,0.9417388190628146,0.16596250758428577,right,-0.002205491065979004,-0.6354366972563311,2.077213685813546,-7.614261536520719,-0.31902272821346667,-0.0007703162264078856,0.000363081693649292,5.820531614854931,0.0037100911140441895
1746576252760594200,1.17959423828125,0.2663964119256089,0.005696755833923817,0.10002318968501173,-0.0012271064333617687,0.03686731990345259,0.9417677688888031,0.16628733819129832,right,-0.0004927515983581543,-0.6351783537780537,2.0781524279683827,-7.615563851290941,-0.3189195288939116,0.007007301785051823,0.0003438591957092285,5.818492802503704,0.0027400851249694824
1746576252800594200,1.21959423828125,0.26646756257425847,0.01377066969871521,0.10002037345871523,-0.004472048487514257,0.03702847210482788,0.941796716046165,0.16661208648286946,right,0.0012199878692626953,-0.6349198931610848,2.0790902933403848,-7.616866166061162,-0.3188162655960889,0.01478492096066475,0.0003247261047363281,5.816452236586809,0.0017702579498291016
1746576252840594200,1.25959423828125,0.26625403600089076,0.007747403811663389,0.09991573751455429,-0.008991318754851818,0.03729006921887056,0.9419278202862674,0.16695817657542392,right,-0.00022667646408081055,-0.6340669838980538,2.0787682217791676,-7.62209354532063,-0.31843089674124464,0.019546769559383392,0.0033948272466659546,5.809715621808171,0.001971304416656494
1746576252880594200,1.29959423828125,0.266152173864403,0.008464035578072071,0.09987960029036158,-0.003935860935598612,0.03741459332458147,0.9420145678912683,0.1670970402922261,right,-0.0007837414741516113,-0.6335002504405578,2.0788575074978173,-7.6254802651494735,-0.31817095587970334,0.018819084390997887,0.002802431583404541,5.805237599611282,0.0032805204391479492
1746576252920594200,1.33959423828125,0.26556591399109375,-0.0017582258442416787,0.09964779543097614,-0.01799400895833969,0.03752926422598199,0.9421345522469378,0.16704556513223426,right,0.001350700855255127,-0.6328960884443566,2.075306829278916,-7.630081036943197,-0.3178748824077811,0.020524391904473305,0.0014047622680664062,5.800461471250653,-0.001013636589050293
1746576252960594200,1.37959423828125,0.2652361643431268,-0.001806322019547224,0.0995158848213448,-0.017346922308206558,0.0376118426410903,0.9422093666203649,0.16704646819951435,right,0.0005075335502624512,-0.6325019665737139,2.0733897436112163,-7.632970328643918,-0.31768444598632933,0.017267033457756042,0.0009505748748779297,5.797344216012954,-0.0033625364303588867
1746576253000594200,1.41959423828125,0.26445623993741846,0.0004765710327774286,0.099179637874404,-0.015241599641740322,0.037752765017320424,0.9423130614090592,0.16701328937611226,right,-0.00023514032363891602,-0.632067993753967,2.0680933907687664,-7.6370122975111006,-0.317465144256789,0.002139863558113575,-0.000818103551864624,5.793911318954825,-0.00685882568359375
1746576253040594200,1.45959423828125,0.26429214853141,0.010848858393728733,0.09899545781373076,-0.006433506496250629,0.038082922550633586,0.9423011873445494,0.167667002075032,right,0.0003864169120788574,-0.6321196997735875,2.0667619960345327,-7.637063150915503,-0.3175185861896763,-0.01331103965640068,-0.00016543269157409668,5.7943204842776055,-0.007649064064025879
1746576253080594200,1.49959423828125,0.26482758593413497,0.012017215602099895,0.0990972764285888,-0.001413517165929079,0.03833609703100173,0.9421963956513115,0.16845315007020586,right,-0.0007209181785583496,-0.6325462772547583,2.0702038070514797,-7.633568879058957,-0.3177672491056709,-0.02163873240351677,-0.001017257571220398,5.7976949291467665,-0.004322409629821777
1746576253120594200,1.53959423828125,0.2653636365947582,0.013185572810471058,0.09919909639494365,0.0036064726300537586,0.038589279482867236,0.9420914813387893,0.1692398505633122,right,-0.0018283724784851074,-0.6329724203885858,2.0736472255036236,-7.630073438158631,-0.31801582139151846,-0.02996642328798771,-0.0018692463636398315,5.801064697840809,-0.0009952783584594727
1746576253160594200,1.57959423828125,0.2660267053722556,0.009613288566470146,0.09929357631784032,-0.0005868413718417287,0.03894073589447867,0.941928026150919,0.17032866160438928,right,-0.0016773343086242676,-0.6337096327084953,2.0775812039516866,-7.624568411001563,-0.3184273616634001,-0.020460689440369606,-0.0004224628210067749,5.806892381080985,0.005778670310974121
1746576253200594200,1.61959423828125,0.2664883127688598,0.009095649234950542,0.09940973949618094,0.010054120793938637,0.039080097691307936,0.9418449212785899,0.17083528286716745,right,-0.0016886591911315918,-0.6340479586945885,2.080583016116172,-7.621712437048554,-0.3186196874040809,-0.01600765623152256,0.0002171546220779419,5.809565399682522,0.006063342094421387
1746576253240594200,1.65959423828125,0.2669606740098497,0.003589005209505558,0.09953257723699697,-0.0009820880368351936,0.03921570930356887,0.9417633472346042,0.17133578145222322,right,-0.00042569637298583984,-0.6343737504037535,2.0836836124800144,-7.61890322484672,-0.31880604890748904,-0.0008142124861478806,-0.0019700229167938232,5.812139049562812,0.005154669284820557
1746576253280594200,1.69959423828125,0.26710277756421613,0.004295013379305601,0.09955536780412431,0.0072502559050917625,0.03928026000609928,0.941727060419862,0.17154821490724798,right,0.0035604238510131836,-0.6345419107657393,2.0845082267358896,-7.6176640384405845,-0.3188980141713099,0.005595386028289795,-0.0016465038061141968,5.813467083296179,-0.0009621381759643555
1746576253320594400,1.739594482421875,0.2676589514692888,0.01865335926413536,0.09975760800707961,0.018562937155365944,0.03942466548030076,0.9417232507918603,0.1720072675964509,right,0.003937721252441406,-0.6343202062874873,2.089085471523553,-7.617746456027031,-0.31882823048373976,0.0023582468274980783,-0.002660810947418213,5.811716440236568,0.0013324618339538574
1746576253360007000,1.7790068359375,0.2684484352153219,-0.008706011809408665,0.10003727829645903,0.007934408262372017,0.03955755637953841,0.9416652545405209,0.17256510294543473,right,-0.0007892713765613735,-0.6343711167890987,2.095020414530486,-7.615809350484609,-0.3188954666603852,-0.0015473583480343223,-0.000839392829220742,5.812118591296673,0.001854950562119484
1746576253400006700,1.819006591796875,0.2690053326050521,-0.007043574936687946,0.10033793865299133,0.012939922511577606,0.039252055470889904,0.9415857627148859,0.17217005130837545,right,-0.00043648481369018555,-0.6347711706534666,2.0986432812027633,-7.612399834302067,-0.3190735455324606,-0.0047399671748280525,0.00038145482540130615,5.815277932110429,0.0013611316680908203
1746576253440006700,1.859006591796875,0.26956218835307355,-0.005381138529628515,0.10063858036351131,0.017945436760783195,0.03894652652447839,0.9415060336565627,0.1717751183622596,right,-0.00008416175842285156,-0.6351713994800467,2.102262056221813,-7.608985641944408,-0.3192515604262744,-0.007932576350867748,0.0016027241945266724,5.8184378574460744,0.0008672475814819336
1746576253480006700,1.899006591796875,0.27029686315457013,-0.008754994720220566,0.10100765229409664,0.014216871932148933,0.0386778655062011,0.9414263183125231,0.1715061562304088,right,-0.0007503628730773926,-0.635493042390879,2.1073516344457865,-7.6056351624727245,-0.31940253092500004,-0.00006750234751962125,0.0038237720727920532,5.820976436012983,0.0008725523948669434
1746576253520007000,1.9390068359375,0.27087183640711204,-0.0006682546809315681,0.10128290000724025,0.015010924078524113,0.038564360094788724,0.9413933629107716,0.17146525048384842,right,-0.0003178715705871582,-0.6355244882848076,2.111675342863798,-7.60424575394094,-0.31942625026417387,-0.007996689528226852,0.002596348524093628,5.8212248578161,0.0008251667022705078
1746576253560007000,1.9790068359375,0.2712414366525102,0.0010591469472274184,0.1014259901023516,0.006571529433131218,0.038559451934682444,0.9413507569563246,0.17160367539504467,right,0.0009531974792480469,-0.63566733055666,2.1142630212694407,-7.602664037707448,-0.31950709547677997,-0.0035772230476140976,0.002285778522491455,5.822351816019416,-0.0016643404960632324
1746576253600007000,2.0190068359375,0.2716110608195941,0.002786548575386405,0.10156906553720711,-0.0018678652122616768,0.03855453310007225,0.9413080923608627,0.17174214937915147,right,0.0022242069244384766,-0.6358101255228668,2.116849969022721,-7.601081152430177,-0.31958793802076174,0.0008422434329986572,0.0019752681255340576,5.823478774222731,-0.004153847694396973
1746576253640006700,2.059006591796875,0.27196552186535183,0.009240171872079372,0.10165005766563336,-0.000721799093298614,0.038779371232707235,0.9412953363787411,0.17232198791732353,right,-0.001974821090698242,-0.6356993254551716,2.1197173411525783,-7.600951388570666,-0.3195725102339107,-0.004994889721274376,0.0005589425563812256,5.82260432947576,0.0010671615600585938
1746576253680006700,2.099006591796875,0.2722247096640377,0.007163625210523605,0.10167150976968796,-0.0011373894521966577,0.03899376640795826,0.941248009713329,0.17289111854065212,right,-0.0013042092323303223,-0.6358545911633827,2.1214443110756576,-7.599531000378727,-0.3196789840815558,-0.0004790467210114002,0.00026872754096984863,5.8238294873565435,0.0017462968826293945
1746576253720006700,2.139006591796875,0.2724093914018779,0.005247085355222225,0.10169841541217114,-0.0006555417785421014,0.03916648477134494,0.9412452258379792,0.17330460673893247,right,0.0002974271774291992,-0.635756191214601,2.1230020619116723,-7.599691159376501,-0.3196576488269437,0.005543663632124662,-0.00042457878589630127,5.823053242287039,0.0033684968948364258
1746576253760006700,2.179006591796875,0.27258970135266264,0.00797937624156475,0.10173801138620193,0.0025411248207092285,0.039307157514456334,0.9412500322085042,0.173641775563393,right,0.0010204315185546875,-0.6356169703356699,2.1245903540164233,-7.600088634261488,-0.3196133600376567,0.0008210660889744759,-0.00131148099899292,5.821954341134429,0.0007116198539733887
1746576253800007000,2.2190068359375,0.272824665589129,0.004674512427300215,0.10179574369481617,-0.0006554857827723026,0.03944730413790889,0.94124354453678,0.1740053453599504,right,0.00025075674057006836,-0.6355322378454578,2.126509047119319,-7.600064084342121,-0.31959690919472916,0.0010090847499668598,-0.000030472874641418457,5.821285648092627,0.0024018287658691406
1746576253840007000,2.2590068359375,0.2730669417899394,0.0031704106368124485,0.10186867845160018,0.004773920867592096,0.03950964806020671,0.9412153536044893,0.17423273236825423,right,0.00002396106719970703,-0.6356086675982777,2.128230317953974,-7.599120081490278,-0.3196489594363414,-0.0018455807585269213,0.0007837414741516113,5.8218888746827835,0.002175629138946533
1746576253880007000,2.2990068359375,0.2732788751912145,0.004979764111340046,0.10195192100080656,-0.00315356208011508,0.039533164986759926,0.9412072559846476,0.17434908620859244,right,-0.0022984743118286133,-0.635574866743703,2.129893867252022,-7.598858800205588,-0.3196433015481396,0.005739931017160416,-0.00026319921016693115,5.821622332701087,0.001876235008239746
1746576253920006700,2.339006591796875,0.27302049820783525,0.0002772258594632149,0.10185994339091727,-0.006380925420671701,0.03960012226012558,0.9412850350621274,0.17433202066325654,right,0.00011712312698364258,-0.635142133092366,2.128609526529908,-7.6018340166240925,-0.3194352644081293,0.016848161816596985,0.0014302432537078857,5.818206971299648,0.00039768218994140625
1746576253960006700,2.379006591796875,0.27282481806358544,0.002792327431961894,0.10179433250787545,-0.0018772375769913197,0.03971257506653204,0.9413840975687648,0.17440363445299195,right,0.0009389519691467285,-0.6345317676693514,2.1280783422626555,-7.605668480220436,-0.3191500262444582,0.008556199260056019,0.0004948824644088745,5.813387003797293,0.00018411874771118164
1746576254000006700,2.419006591796875,0.2726167571732866,-0.009353588335216045,0.10171617863866074,-0.009923450648784637,0.03975729965252104,0.9414348440456936,0.17438387080521917,right,-0.00008982419967651367,-0.6342639886074323,2.1269149975717068,-7.6076102619379755,-0.31901981150864517,0.005530853755772114,-0.0002234429121017456,5.8112722036004065,-0.0006273984909057617
1746576254040007000,2.4590068359375,0.27232840397781755,-0.008980460464954376,0.10164691230784548,0.0018939971923828125,0.0395857146180534,0.9414462669007798,0.17393520442990704,right,-0.00196915864944458,-0.6343461771940266,2.124592838234454,-7.607763406673073,-0.3190296492826043,-0.00752236507833004,-0.0005862712860107422,5.8119216074198485,0.002412140369415283
1746576254080007000,2.4990068359375,0.2725382814015229,0.0003326684236526489,0.10169530490295106,0.002236840780824423,0.039539419644041375,0.9413421287677309,0.17401029244638186,right,-0.0006748437881469727,-0.6349658335733581,2.1252195918306707,-7.603847110012174,-0.31932702037159677,-0.017197949811816216,-0.0007857680320739746,5.816814640158414,0.0005806088447570801
1746576254120007000,2.5390068359375,0.27294495674698527,0.00621807249262929,0.1017970776863238,0.004688016138970852,0.039621008678011334,0.941246760726126,0.17439619445692514,right,0.0006115436553955078,-0.6354167450424651,2.1276042950101197,-7.600455129486322,-0.3195652847754198,-0.009004955179989338,-0.00006192922592163086,5.820374378466606,0.0013281702995300293
1746576254160006700,2.579006591796875,0.2732880996732515,0.0020448178984224796,0.1018805319144936,0.002935172291472554,0.03970011545586176,0.9411679599056818,0.17474157372344157,right,0.0004693269729614258,-0.6357836824848485,2.129635654707253,-7.597668129116296,-0.3197609864163487,-0.013479131273925304,0.0010221302509307861,5.823270099908113,0.004398345947265625
1746576254200006700,2.619006591796875,0.2736617584929246,0.002399676712229848,0.10198036599352844,0.0028453695122152567,0.03973704202577844,0.9410710283757227,0.17502755395872202,right,0.0005500912666320801,-0.636269192967745,2.1317101228937507,-7.594148722818494,-0.32000965159620287,-0.009648289531469345,0.0024993568658828735,5.827100471851229,0.002997159957885742
1746576254240006700,2.659006591796875,0.2738573427424903,0.0014511144254356623,0.1020265440894035,0.0017206304473802447,0.03981138316680825,0.9410396842289904,0.17527057200789536,right,0.000040650367736816406,-0.6363807081227499,2.1330195980571207,-7.5931059357672925,-0.32007797514056613,-0.005834441166371107,0.0017542541027069092,5.827979592773318,0.0022044777870178223
1746576254280007000,2.6990068359375,0.27405288766624875,0.0005025522550567985,0.10207269820202064,0.0005958914989605546,0.039885713633332785,0.9410082814412429,0.17551357517964403,right,-0.00046879053115844727,-0.6364920820303988,2.1343287809595464,-7.592063733237981,-0.3201462640271714,-0.002020592801272869,0.0010091960430145264,5.828858129173517,0.0014119148254394531
1746576254320007000,2.7390068359375,0.2739967881497904,0.0030973227694630623,0.10202154733513745,-0.0037768869660794735,0.03996200380843515,0.9410051176267844,0.17566009484539696,right,-0.0005914568901062012,-0.6365128969764594,2.1338699312761427,-7.59206665584743,-0.32016233770509783,0.0011251952964812517,0.0005350261926651001,5.829022379824519,0.00005358457565307617
1746576254360007000,2.7790068359375,0.2739621314414161,0.006572764366865158,0.10196697559164335,-0.0026802062056958675,0.040093660082267654,0.9410095660057683,0.17591945601594708,right,0.00027889013290405273,-0.6364608328741655,2.133689167881757,-7.592433151072263,-0.3201505258247703,0.0010985929984599352,-0.00021719932556152344,5.828611460936069,-0.0006306171417236328
1746576254400006700,2.819006591796875,0.27405881550822203,0.009667670354247093,0.10196004065207488,-0.0038592531345784664,0.04027250931774549,0.9410196610492076,0.17630697762146832,right,0.0010428428649902344,-0.6363075568394256,2.1346650271765886,-7.593087231066822,-0.3201006749860681,0.0018164572538807988,0.00028850138187408447,5.8274026696681975,-0.0009968876838684082
1746576254440006700,2.859006591796875,0.27420203697089474,0.008859976194798946,0.10195757854838372,-0.0036569717340171337,0.04046094196144884,0.9410066860067308,0.17675238567880597,right,0.0003597140312194824,-0.6362846612324267,2.1357884782485663,-7.592909536412358,-0.3201156151639944,-0.0052425796166062355,0.00009953975677490234,5.827222052404284,-0.0003438591957092285
1746576254480006700,2.899006591796875,0.27450371827751896,0.016714829951524734,0.10198190742817319,-0.003390211146324873,0.04071912415448363,0.9409554478664627,0.1774285803570738,right,-0.0007051825523376465,-0.6364334737404757,2.137843949473649,-7.5914301115095615,-0.320225672171226,-0.010424080304801464,-0.0013472288846969604,5.828395772358775,-0.0017702579498291016
1746576254520007000,2.9390068359375,0.27510237625924217,0.029335856437683105,0.1020644910899665,-0.0011086673475801945,0.04118220859599839,0.940885692164465,0.17863302274754905,right,0.0003495216369628906,-0.636531306303458,2.142233270473778,-7.589599973472953,-0.3203450308107482,-0.001792939379811287,-0.0012999773025512695,5.829167341253161,-0.003432929515838623
1746576254560007000,2.9790068359375,0.27597306468015564,0.04637417569756508,0.10229563458876459,0.002899336162954569,0.04188093472317782,0.9409835114647415,0.18021662529915697,right,0.0010253190994262695,-0.6353509599646929,2.1507139524407686,-7.594346875739097,-0.3198932244863253,0.03363607078790665,-0.0004517883062362671,5.819855323028564,-0.0011354684829711914
1746576254600007000,3.0190068359375,0.2770651259204551,0.0460062138736248,0.10266017212680835,0.0015675441827625036,0.04270213316287889,0.9411974110558695,0.18198306504842268,right,0.001958012580871582,-0.6332738570679669,2.162308090253174,-7.603604533427953,-0.31903752185651335,0.042713358998298645,0.00011718273162841797,5.803447793585062,0.003790140151977539
1746576254640006700,3.059006591796875,0.27807068247174704,0.02019435353577137,0.10302714229295755,0.0036801989190280437,0.04332177189268819,0.9413710590183557,0.18334808056672697,right,0.0010170340538024902,-0.6315454204381525,2.1727032275393605,-7.611060694652795,-0.318322635431452,0.018958797678351402,0.003376707434654236,5.789775826585292,0.012748539447784424
1746576254680006700,3.099006591796875,0.2784075083162649,-0.015007833018898964,0.10316859267801,0.0026108419988304377,0.043370441829790975,0.9413778302574989,0.1835329899542425,right,-0.00034248828887939453,-0.6313542657903953,2.1755708919301626,-7.611392703086137,-0.31825023757712406,-0.005727885290980339,0.001843765377998352,5.788262499412894,0.009117424488067627
1746576254720006700,3.139006591796875,0.27802602628989004,-0.01812281273305416,0.10308252383148053,0.005312432534992695,0.0429261313105882,0.9412929505908519,0.18260321080661204,right,-0.0022854208946228027,-0.632200413755005,2.171322002314031,-7.60750913965106,-0.31858901769968906,-0.008375921286642551,0.0021519064903259277,5.794958782181143,0.0011987090110778809
1746576254760006700,3.179006591796875,0.27800073898905486,-0.0024290531873703003,0.10311094317694544,-0.0007871789857745171,0.04269754404834238,0.9412412611145632,0.18218017276481535,right,-0.0016461014747619629,-0.6326215597118923,2.170459686396271,-7.605216644799709,-0.3187632205869667,-0.00023699086159467697,0.0011108219623565674,5.798289972430467,-0.0004633665084838867
1746576254800007000,3.2190068359375,0.27810926908819805,0.0047481125220656395,0.10315405729783003,-0.0018330186139792204,0.042759490493969536,0.9412633061757917,0.18231356869572074,right,0.00038737058639526367,-0.6324147412879336,2.171614263258874,-7.606134344166517,-0.3186758910696985,0.009150897152721882,0.0007454007863998413,5.796654480183125,-0.0009413957595825195
1746576254840007000,3.2590068359375,0.2780290052193417,0.002652233000844717,0.10313969273939284,0.002895999001339078,0.042788354838739474,0.9413144557627989,0.1822942427106631,right,-0.0003592967987060547,-0.6320984882759615,2.171506711231172,-7.608070865187049,-0.31852557220763295,0.0037340112030506134,0.0012914985418319702,5.794152726495265,0.00037741661071777344
1746576254880007000,3.2990068359375,0.27794878239344933,0.0005563532467931509,0.10312533351820742,0.007625017315149307,0.04281721918350843,0.9413656053498053,0.18227495283555734,right,-0.0011060237884521484,-0.6317822034627542,2.1713991592034696,-7.6100068016856905,-0.31837522402505963,-0.001682874746620655,0.0018375962972640991,5.791649803763628,0.0016963481903076172
1746576254920006700,3.339006591796875,0.278151203869135,-0.005215945653617382,0.10322758643432603,0.001712283119559288,0.0427787074756696,0.9413634674836705,0.18225259727304033,right,-0.0013089179992675781,-0.6317290205802433,2.1730241300567985,-7.609863593822717,-0.3183535791223651,0.0025420943275094032,-0.0009140074253082275,5.791228948003053,0.0008398890495300293
1746576254960006700,3.379006591796875,0.27819413944817295,-0.005631434265524149,0.10328613718653312,0.004767523612827063,0.04270083568815465,0.9413880630535659,0.18207512041001112,right,-0.000533759593963623,-0.6315719700611505,2.1736004686400294,-7.610644515067339,-0.31827205847401824,0.0017547260504215956,-0.001052066683769226,5.78998625446558,0.0019470453262329102
1746576255000006700,3.419006591796875,0.2782608276017105,-0.002804785268381238,0.10334116431840816,0.0012705486733466387,0.04263935557659875,0.94139761858786,0.18195509193964737,right,-0.0020446181297302246,-0.631501286822792,2.1742205002345143,-7.610892936870456,-0.3182342742765752,0.00214887922629714,-0.0007202029228210449,5.78942628249526,0.0014019608497619629
1746576255040007000,3.4590068359375,0.2782210243478412,-0.0010592644102871418,0.10336729101122366,0.003050966188311577,0.04256161481481893,0.9414306720830362,0.18174595022670445,right,-0.0016390681266784668,-0.6313207221540791,2.1742045720130205,-7.6119842392385,-0.318138339365085,0.006616604048758745,-0.0011999160051345825,5.787997126474976,0.0010002851486206055
1746576255080007000,3.4990068359375,0.2781450122843992,0.0013557660859078169,0.10338355506630588,0.003749283030629158,0.042478353917504416,0.9414717581725197,0.18150655564619775,right,-0.00008016824722290039,-0.6311028043149846,2.17397222456187,-7.613362541854381,-0.31802261566363516,0.008129095658659935,-0.00022467970848083496,5.786272202378511,-0.0000527501106262207
1746576255120007000,3.5390068359375,0.2781039949475625,0.003370312275364995,0.10340376138337933,-0.001699852291494608,0.04246405137344788,0.9415286450412468,0.1814019581512721,right,-0.000027239322662353516,-0.6307455358367321,2.174227368366718,-7.615438763606548,-0.3178495397055291,0.006959361024200916,-0.00007633864879608154,5.783443116432428,-0.00001800060272216797
1746576255160006700,3.579006591796875,0.2782071922324292,0.004552893806248903,0.1034605346070283,0.003834056667983532,0.04250869235120804,0.9415681986724179,0.1814781043727852,right,0.00023221969604492188,-0.6304288087974722,2.175516239133477,-7.616975471654534,-0.3177078080942541,0.008029461838304996,0.0005510151386260986,5.780934348481893,0.0005695819854736328
1746576255200006700,3.619006591796875,0.2783103511714059,0.005735475569963455,0.10351731316792905,0.009367965161800385,0.04255333332896726,0.9416077523035883,0.18155419296426237,right,0.0004916191101074219,-0.6301120457449724,2.176804817639291,-7.61851101065874,-0.3175660471624714,0.009099562652409077,0.0011783838272094727,5.778424411487579,0.0011572837829589844
1746576255240006700,3.659006591796875,0.2787025813715342,0.0015278090722858906,0.10371488713590189,0.01141346525400877,0.04252842345122014,0.9416279173730701,0.1815861114439509,right,-0.0003325939178466797,-0.6298315948323286,2.1802387376107273,-7.619214775013924,-0.3174450989755941,0.0036493316292762756,0.0013954341411590576,5.776202059262991,0.0013104677200317383
1746576255280007000,3.6990068359375,0.2792511548411621,0.005753920413553715,0.10394350562390268,0.009049035608768463,0.042563481022486103,0.9416129934278897,0.18182407318224755,right,-0.0015034079551696777,-0.6297051078361685,2.1846194369129837,-7.6187196849733585,-0.3174100455171677,0.0032637836411595345,0.00029268860816955566,5.775199604222178,0.0007909536361694336
1746576255320007000,3.7390068359375,0.2799030043013239,0.010987935587763786,0.10418074102294313,0.005188741255551577,0.04274272975168623,0.9416084755555133,0.18237683561594706,right,-0.0011290311813354492,-0.629424252958889,2.1900332786552608,-7.618852955964207,-0.317321580522042,0.00031628389842808247,-0.0006100088357925415,5.772973744866252,0.003426194190979004
1746576255360007000,3.7790068359375,0.28042118243026787,0.004529997240751982,0.10432141340741982,0.0028158125933259726,0.04293723774337637,0.9415524098184127,0.18298325805206,right,-0.0014373064041137695,-0.6295336562301751,2.1938060751922426,-7.617109911689162,-0.317415374717528,-0.008848587982356548,-0.0007269829511642456,5.773840590828657,0.003876984119415283
1746576255400006700,3.819006591796875,0.2803809617355927,-0.003051621373742819,0.10426216803630933,-0.00036775413900613785,0.042898278026667014,0.9414653540111003,0.1829903076026476,right,-0.0033254027366638184,-0.6301406976058087,2.192529479385167,-7.6138284058004615,-0.3176982413861387,-0.01664840243756771,-0.00038567185401916504,5.778651790502667,0.0031017661094665527
1746576255440006700,3.859006591796875,0.2802729055449481,-0.0006688639987260103,0.10415335758721943,-0.0014869051519781351,0.04295769090492631,0.9413973476141904,0.18316122337391094,right,-0.0006900429725646973,-0.6306173541476935,2.190944548281282,-7.6114178375273935,-0.31792731399550395,-0.010277682915329933,-0.0007983893156051636,5.782427801910043,0.003190457820892334
1746576255480006700,3.899006591796875,0.28016491679934125,0.0017138933762907982,0.10404452714062157,-0.0026060561649501324,0.043017107768936524,0.9413292799076403,0.18333216936631672,right,0.0019449591636657715,-0.6310941463979783,2.1893599094383416,-7.609003762122988,-0.31815641325675204,-0.003906963858753443,-0.0012111365795135498,5.786203228795528,0.003279268741607666
1746576255520007000,3.9390068359375,0.28001115783435737,-0.0020375594031065702,0.1039585120533075,-0.0035239967983216047,0.043034992957681706,0.9413115446451108,0.18334764359011987,right,0.0019170045852661133,-0.6312671246318347,2.1879133638918398,-7.608378323701023,-0.3182346308918252,-0.00018256367184221745,-0.0013458877801895142,5.787572763583063,0.003262817859649658
1746576255560007000,3.9790068359375,0.28002951215625943,0.000031845178455114365,0.10397161643469593,0.0025181330274790525,0.04297189449139313,0.9412871647530029,0.18324926657360946,right,0.0005894899368286133,-0.6314402730843931,2.187775855117291,-7.6073746996164315,-0.3183107471645035,-0.00311546609736979,-0.00023280084133148193,5.788943467414379,0.00219649076461792
1746576255600007000,4.0190068359375,0.2802289604805436,-0.0035241437144577503,0.10404614823712673,-0.002069152193143964,0.04292983220751123,0.941239811036532,0.18326970529216366,right,-0.0002611875534057617,-0.6316889976935041,2.188894922275096,-7.605554498451948,-0.3184321540076427,-0.0026527326554059982,-0.0014479607343673706,5.790912137138843,0.0006051063537597656
1746576255640006700,4.059006591796875,0.28040297890303245,-0.0007505596149712801,0.10412972759599357,0.008564314804971218,0.042838432762738875,0.9412010747248231,0.18317124234797447,right,-0.0010696053504943848,-0.6319054050966377,2.18987151222229,-7.603969275087118,-0.3185317314485995,-0.00500112771987915,0.0003313124179840088,5.792624786275625,0.0015215873718261719
1746576255680006700,4.099006591796875,0.28075368833119807,-0.0004107786517124623,0.10426775272382853,0.0052564265206456184,0.0427630959175446,0.9411285166205953,0.1831922671968753,right,-0.002629220485687256,-0.6322712611628876,2.1919508027143775,-7.601164154538512,-0.31871104291360836,-0.009849406778812408,0.0003085285425186157,5.795519338673353,-0.000025272369384765625
1746576255720006700,4.139006591796875,0.2811515160512652,0.006128941662609577,0.10439584030342731,0.0046910191886126995,0.04277341660035275,0.9410484238477075,0.18341233997774356,right,-0.0021900534629821777,-0.6326423758391774,2.194377737600356,-7.598224593955278,-0.3189041761309349,-0.0087566077709198,0.0006703883409500122,5.798454807603359,-0.0013355612754821777
1746576255760006700,4.179006591796875,0.2815211788711215,0.009461598470807076,0.10448828382284181,0.0007911848369985819,0.042934077271878424,0.9410076070016018,0.18389217735730418,right,-0.0007639527320861816,-0.6327189529369366,2.1970630311615764,-7.596986576592922,-0.3189728637438549,-0.0010265023447573185,0.002005666494369507,5.799060372281074,0.00034612417221069336
1746576255800007000,4.2190068359375,0.2818199581630009,0.003135017119348049,0.10456403825205936,0.0003562910424079746,0.043080896555925584,0.9409849404217075,0.1843034592921116,right,0.0005980134010314941,-0.6327069980241479,2.199352018881589,-7.596396209484339,-0.3189951957805269,-0.004656105302274227,0.0014796704053878784,5.798965679734945,0.0015299320220947266
1746576255840007000,4.2590068359375,0.28184846725805857,0.00393769983202219,0.10454417462943898,-0.0022656084038317204,0.04313938822082926,0.9409609646029289,0.18445954737357034,right,0.0006813406944274902,-0.6328358597271316,2.199360640579462,-7.595615288239717,-0.31906412944856627,-0.00043475814163684845,0.000677064061164856,5.799985085910558,0.00011104345321655273
1746576255880007000,4.2990068359375,0.282066540713286,0.007691932842135429,0.10458963357468092,0.0009467662312090397,0.04327099144369171,0.9409408254879609,0.1848145353568565,right,0.0006434917449951172,-0.6328435673430817,2.2010046083942054,-7.595092725670337,-0.3190909734278295,0.0006420800928026438,0.0012269318103790283,5.8000458761870854,0.0010113716125488281
1746576255920006700,4.339006591796875,0.28237221878933133,0.009158875793218613,0.10464504696994396,-0.002417301293462515,0.043499461379095834,0.9409212288261248,0.18539340385716252,right,0.0005864500999450684,-0.6327828884291653,2.203424236756563,-7.594757794627546,-0.31909957608555867,0.00011623953469097614,0.0010339468717575073,5.799565983715653,0.002152681350708008
1746576255960006700,4.379006591796875,0.2823186611107192,0.007850101217627525,0.10460006909180428,-0.0038111803587526083,0.043641503114187366,0.9409593495949362,0.18562995350211622,right,-0.0008174777030944824,-0.6325081871332998,2.2034612077660856,-7.596405561834573,-0.31898264021861206,0.008615300059318542,-0.000405043363571167,5.797393315851688,0.002351522445678711
1746576256000006700,4.419006591796875,0.2822184092540871,0.003495574463158846,0.10453317069243281,-0.0009014254901558161,0.043758635932195235,0.9409835264162587,0.1858179954575382,right,0.00014775991439819336,-0.6323513813462094,2.202952819852531,-7.597499202290177,-0.31891714859113607,0.001273843925446272,0.0008701831102371216,5.796152960401773,0.0017538666725158691
1746576256040007000,4.4590068359375,0.28196380383902553,0.002171786967664957,0.10443170347747947,-0.002187873236835003,0.04373471433670435,0.9409940604794154,0.18568742156871892,right,-0.0017102956771850586,-0.6323895836459505,2.200956677599251,-7.59784757733643,-0.3189225788082748,-0.0002183051547035575,0.001417011022567749,5.796455158218741,0.0037845969200134277
1746576256080007000,4.4990068359375,0.2817092629791734,0.0008479994721710682,0.10433024957127622,-0.003474320750683546,0.043710796726967455,0.941004533232932,0.18555690106602415,right,-0.0035684704780578613,-0.6324279419963929,2.1989608276069164,-7.598193614295124,-0.3189281023241895,-0.001710454118438065,0.0019638538360595703,5.796759109601378,0.00581514835357666
1746576256120007000,4.5390068359375,0.2814312361718923,-0.0001555813942104578,0.1041949317422896,-0.010484427213668823,0.043797545251622806,0.9410330292687835,0.1856288024615157,right,-0.00043761730194091797,-0.6323214339484999,2.1970196304112672,-7.599397144865989,-0.3188761165071307,0.0035843257792294025,0.0025035738945007324,5.79591622903645,0.005827963352203369
1746576256160006700,4.579006591796875,0.2809295751974899,-0.0014525374863296747,0.10399892959141563,-0.011556969955563545,0.04384208392626536,0.9411064680476312,0.1855016439568049,right,0.0011559724807739258,-0.6320184735000837,2.1936937008589505,-7.602185314279795,-0.3187171795950734,0.01049935631453991,0.0014490783214569092,5.793519689288735,0.0037886500358581543
1746576256200006700,4.619006591796875,0.28030012323684833,-0.0037954894360154867,0.10377831533385032,-0.010405034758150578,0.04383462652770665,0.9412080316470508,0.18520035782448818,right,0.0007548332214355469,-0.631595062699851,2.189586557801068,-7.605921578198671,-0.3184901794856027,0.016378384083509445,0.0011061429977416992,5.790168625295162,0.0030702948570251465
1746576256240006700,4.659006591796875,0.2798038919197134,0.0009250331204384565,0.10362590876344542,-0.008585486561059952,0.043830208246031926,0.9413241274712816,0.18492525020004344,right,0.000699460506439209,-0.6310210101041333,2.186729560934752,-7.610200278431177,-0.31819716918326124,0.016332430765032768,-0.0004270225763320923,5.785624552124738,0.0011878013610839844
1746576256280007000,4.6990068359375,0.27915565747511856,0.0010214035864919424,0.10337205742428521,-0.01592307537794113,0.04394176475956224,0.9414458904262017,0.1848431350139762,right,0.0027139782905578613,-0.6304327692162822,2.1827333309054375,-7.614886974942683,-0.31790414060958677,0.016948191449046135,0.0005708187818527222,5.780965328142047,-0.0027238130569458008
1746576256320007000,4.7390068359375,0.2786460270262596,0.004204193130135536,0.10314349984718969,-0.014681276865303516,0.04411526895581021,0.9415375353033185,0.18496098798796126,right,0.0011862516403198242,-0.6299694412145255,2.1795887492693957,-7.618572385457157,-0.3176827526099597,0.009052344597876072,-0.0011315643787384033,5.777294530674815,-0.0041345953941345215
1746576256360007000,4.7790068359375,0.2781364268000719,0.007386982906609774,0.10291488362907406,-0.013439478352665901,0.044288781123557296,0.9416290575611544,0.185079111191453,right,-0.00034183263778686523,-0.6295062487181196,2.176440514371544,-7.622254288840294,-0.3174613539358312,0.0011564968153834343,-0.0028335899114608765,5.773623733207583,-0.005545377731323242
1746576256400006700,4.819006591796875,0.2781312374304092,0.010697557590901852,0.10283503778812715,-0.0034677619114518166,0.044541073008596915,0.9416295399577551,0.18559960940626266,right,-0.0004553794860839844,-0.6294259332383906,2.1765283387854693,-7.622711384958028,-0.3174505151114958,-0.009961898438632488,-0.003359481692314148,5.772987188869714,-0.004443824291229248
1746576256440006700,4.859006591796875,0.27870948006408264,0.016044508665800095,0.10295609242805756,0.007131323218345642,0.04482978467761498,0.9415444517147191,0.18644999365818407,right,-0.00011646747589111328,-0.6296741445816603,2.180541519949585,-7.620074022191763,-0.3176230417731711,-0.01822638139128685,-0.0028991997241973877,5.77495410502851,-0.002252340316772461
1746576256480006700,4.899006591796875,0.2794979912052939,0.016181858256459236,0.10315263786850294,0.006379247177392244,0.045156711048265685,0.9414463487844679,0.187451182856055,right,-0.0020317435264587402,-0.6299126936261714,2.186169150573015,-7.617027494102716,-0.3178037060965266,-0.01187305711209774,-0.0020721405744552612,5.776845033341646,0.0017194747924804688
1746576256520007000,4.9390068359375,0.28021482679384063,0.014340745285153389,0.10332616158195196,0.006133025977760553,0.04547463730544063,0.9413593352783313,0.18840190500820206,right,-0.0004621148109436035,-0.6301073010044329,2.1913179116383192,-7.614378440898657,-0.31795982348281626,-0.014160468243062496,0.0012285560369491577,5.778387002086639,0.006013453006744385
1746576256560007000,4.9790068359375,0.2809845088444318,0.008913340047001839,0.1035444910143415,0.009882096201181412,0.0456922056943135,0.941256178276382,0.18917765759933935,right,0.00007069110870361328,-0.630419034074374,2.1966782696276903,-7.6109584033221,-0.31816293133300116,-0.008037902414798737,0.0010994523763656616,5.7808566070705645,0.00687640905380249
1746576256600007000,5.0190068359375,0.28153709356438655,-0.00019222311675548553,0.10373969778163558,0.008486943319439888,0.04575132431593974,0.9411960407803232,0.18951791774577262,right,-0.0002549290657043457,-0.6305809769712133,2.2006235001221297,-7.608844187647104,-0.31826874265249805,-0.006457205396145582,0.0014723539352416992,5.782139632618427,0.00782698392868042
1746576256640006700,5.059006591796875,0.28151116484592814,-0.006281599402427673,0.10373722736934192,0.0018753190524876118,0.045726119582488636,0.9411985689723973,0.18945592620489182,right,-0.0014377236366271973,-0.6305829572274935,2.2004231552444398,-7.608890364876389,-0.31826583930431923,-0.0034687707666307688,0.0010831058025360107,5.7821554147094485,0.006831347942352295
1746576256680006700,5.099006591796875,0.2814851931956305,-0.012370975688099861,0.10373476229429592,-0.004736305680125952,0.04570090083015642,0.9412009785481268,0.1893938769783874,right,-0.0026204586029052734,-0.6305847783237618,2.2002223719753324,-7.608937126627564,-0.3182629066356355,-0.00048033613711595535,0.0006938576698303223,5.7821694432348005,0.005835890769958496
1746576256720006700,5.139006591796875,0.28145929616408083,-0.01846035197377205,0.10373230654225628,-0.011347930878400803,0.04567568876657876,0.9412035080745134,0.18933188161652018,right,-0.003803253173828125,-0.6305867653928653,2.2000223193585873,-7.608983303856849,-0.3182600059560828,0.002508098492398858,0.0003045797348022461,5.782185225325822,0.004840254783630371
1746576256760006700,5.179006591796875,0.2809690756721073,-0.012455333024263382,0.10358997737526911,-0.004850453231483698,0.04544931071141235,0.9412201188356927,0.1887118595382658,right,-0.0027074813842773438,-0.6307427058841556,2.196041871420294,-7.609193731737136,-0.3182894714682821,0.0012214656453579664,0.00013843178749084473,5.78342032007873,0.0030409693717956543
1746576256800007000,5.2190068359375,0.28062007524975485,-0.001903126947581768,0.10346965547239478,-0.006052923388779163,0.04536315963579107,0.9412385879057366,0.18841812143473627,right,-0.0018529295921325684,-0.6307855369564133,2.193317414892465,-7.609722139525413,-0.31828631989353373,0.0038765650242567062,-0.0003314167261123657,5.783759342774749,0.0017874836921691895
1746576256840007000,5.2590068359375,0.28035452464982,0.0024196039885282516,0.10337612118627247,-0.005633784458041191,0.04537522635248834,0.9412880696306511,0.1883149223994761,right,-0.0005972981452941895,-0.6305574190100801,2.1916616105094553,-7.611571566784382,-0.318168542344311,0.00873761996626854,-0.00010682642459869385,5.781953170135617,0.0005760788917541504
1746576256880007000,5.2990068359375,0.2800323660877577,0.0076409513130784035,0.10323852574076257,-0.007462428882718086,0.04549004307857815,0.9413590148966581,0.18838470020304504,right,0.0002313852310180664,-0.6301756152942708,2.189819197513163,-7.614398314642906,-0.31798670397697243,0.005448468960821629,0.0009827613830566406,5.778928269356489,0.001174628734588623
1746576256920006700,5.339006591796875,0.2800877089770953,0.02426018938422203,0.10318251427635014,-0.007737915497273207,0.04581188169702809,0.9413879742141985,0.18903274171051604,right,-0.0022485852241516113,-0.6298575049848796,2.190748733448237,-7.616043159240483,-0.31787296987909414,-0.0012732096947729588,0.0011225640773773193,5.77640781096816,0.00010323524475097656
1746576256960006700,5.379006591796875,0.28028456877384494,0.028435882180929184,0.10308056908860284,-0.020503591746091843,0.04645736127504674,0.941399339094019,0.19040835026628505,right,-0.0017046928405761719,-0.6294944795618196,2.192828023940325,-7.617627213561534,-0.317779015712047,0.005071990191936493,-0.000014334917068481445,5.773530209705234,0.0008394718170166016
1746576257000006700,5.419006591796875,0.2800574095695824,0.011664329096674919,0.10285653710621133,-0.01802246831357479,0.0470293079035032,0.941486551493031,0.19143010703544483,right,0.00009608268737792969,-0.628813961630364,2.1921830040350554,-7.621898899531364,-0.3175088028215023,0.012555683963000774,0.001715153455734253,5.768134488141536,0.006202340126037598
1746576257040007000,5.4590068359375,0.27925081837992405,-0.009616659954190254,0.10254051456965854,-0.01789914257824421,0.04717452252707716,0.9416385380824923,0.19133957536098245,right,-0.00200730562210083,-0.6280712076911491,2.1872148602336643,-7.62778094330728,-0.31713854162709826,0.02223609760403633,0.001232743263244629,5.762241922971606,0.005272030830383301
1746576257080007000,5.4990068359375,0.27778882538993854,-0.011176897212862968,0.10206553089732144,-0.028830401599407196,0.04702413351272603,0.9418688703690685,0.19037300640737057,right,-0.0010794997215270996,-0.627160552421959,2.1774987912528214,-7.636013349601626,-0.31662959641444244,0.03468059003353119,-0.000016391277313232422,5.755013725283741,0.0009737610816955566
1746576257120007000,5.5390068359375,0.27616443590081746,-0.0006042560562491417,0.10144542908411246,-0.029339762404561043,0.04716345855942801,0.9421278300744584,0.1899304019598333,right,0.003935515880584717,-0.6260227175190295,2.166876274951547,-7.64583565543592,-0.3160374678286365,0.030284788459539413,0.0005466490983963013,5.745975263303518,-0.0007574558258056641
1746576257160006700,5.579006591796875,0.27503084285022505,-0.00047555577475577593,0.10100178173931118,-0.02175562083721161,0.04732732152871561,0.9423241017763824,0.18974235174314208,right,0.0017085075378417969,-0.6250986762426394,2.159648661785573,-7.653394107991456,-0.315569547336682,0.016653548926115036,-0.000017911195755004883,5.738628992193937,0.0002085566520690918
1746576257200006700,5.619006591796875,0.27438385684817723,-0.0018759334925562143,0.10070980006342913,-0.010841834358870983,0.04743149312246276,0.9423786278125993,0.18972203788642597,right,0.0015624165534973145,-0.6249514459569478,2.1549254326559604,-7.6556030162125825,-0.3154844091015229,-0.0031435545533895493,-0.0014472901821136475,5.7374581948488945,-0.0015512704849243164
1746576257240006700,5.659006591796875,0.27459950067497507,0.002655853284522891,0.10075212989578143,-0.003969365265220404,0.04745813190445995,0.9423015624642078,0.18992189091966302,right,-0.0005000829696655273,-0.6253742401855263,2.1559183892160654,-7.652802571839094,-0.3156971007949833,-0.006370853632688522,-0.0015571266412734985,5.740820364758372,-0.0003895759582519531
1746576257280007000,5.6990068359375,0.27481518520831133,0.00718764029443264,0.1007944264218693,0.0029031033627688885,0.04748476065332422,0.942224317189831,0.19012183703293595,right,-0.002562582492828369,-0.6257967882445695,2.1569103228628634,-7.650001542943715,-0.3159097258415544,-0.009598152711987495,-0.0016668587923049927,5.7441796120584,0.0007724165916442871
1746576257320007000,5.7390068359375,0.27504539318638294,0.0022697108797729015,0.10083149954571935,0.0010211259359493852,0.047554853207107124,0.9421495806068649,0.19041288769326944,right,-0.0013555288314819336,-0.6261828551784064,2.158068845248222,-7.647370025396347,-0.31611019200331575,-0.00747313629835844,-0.0011036098003387451,5.747247767457366,0.0015091896057128906
1746576257360007000,5.7790068359375,0.27514755419236525,0.002598737832158804,0.10083805488069511,-0.000025698449462652206,0.04756237300162769,0.942088839345245,0.19052443961461482,right,-0.0028721094131469727,-0.6265463795699082,2.1582823418684303,-7.645138320821523,-0.31628801825333114,-0.00801814068108797,-0.0025124698877334595,5.750135890114307,0.0019669532775878906
1746576257400006700,5.819006591796875,0.27522049095081436,0.0016320849535986781,0.10084461796210996,0.002614735858514905,0.04754946331971679,0.9420395110700582,0.1905730274881633,right,0.00003552436828613281,-0.6268516514355986,2.1583628597587348,-7.643291231650114,-0.31643476626548406,-0.0037075993604958057,-0.0014128834009170532,5.752560486912727,0.0004037618637084961
1746576257440006700,5.859006591796875,0.27496240563999746,-0.011108472011983395,0.10073503797280554,0.006144141778349876,0.04743341444314124,0.9419945383490389,0.19031416514305802,right,0.0008738040924072266,-0.627291865067978,2.1557025545082986,-7.641410240209102,-0.31662113846245815,-0.011038266122341156,0.0009873658418655396,5.7560565123349425,0.0018467307090759277
1746576257480006700,5.899006591796875,0.2748924267854113,-0.009365354664623737,0.10072333537277717,0.004210665822029114,0.04719116190003322,0.9419069260613182,0.18989284423035374,right,-0.00021511316299438477,-0.6279834144557762,2.15408664374426,-7.637727752304077,-0.31692123206442163,-0.016283812001347542,0.00012448430061340332,5.761545757400989,0.0009929537773132324
1746576257520007000,5.9390068359375,0.27500129665761386,0.0006961449980735779,0.10072350574126018,0.0027999412268400192,0.047149651757800365,0.9418064001647641,0.18994939277518474,right,0.0008730292320251465,-0.6286243388189959,2.1539149404391646,-7.633937712371349,-0.3172259102770294,-0.011592969298362732,0.00003509223461151123,5.766630513319373,0.0003629922866821289
1746576257560007000,5.9790068359375,0.27542799034911286,0.005802292842417955,0.10084187666899169,0.0023526514414697886,0.04726454911801106,0.9417416223466569,0.19037549057124367,right,0.00016456842422485352,-0.6288515062312952,2.1568157764472065,-7.6317568612009286,-0.3173635063577239,-0.005689527839422226,0.0004622340202331543,5.768432009783387,0.002377629280090332
1746576257600007000,6.0190068359375,0.27566073000081487,-0.0020210356451570988,0.10091069844172766,0.002276072045788169,0.04730402643416765,0.9417017208180471,0.19056512724404923,right,-0.001104116439819336,-0.6290133496057178,2.158337725317478,-7.630356346753239,-0.3174541269956058,-0.002552625723183155,0.00044420361518859863,5.769715619853138,0.004961848258972168
1746576257640006700,6.059006591796875,0.27596996063556256,-0.001115370774641633,0.10105337969955897,0.009874268434941769,0.047211756720620286,0.9416599925466858,0.19050526401013623,right,-0.00033849477767944336,-0.629201616577016,2.1604012337185443,-7.628643113094568,-0.3175462876025196,-0.003428002819418907,-0.00046916306018829346,5.771208488759398,0.0012992024421691895
1746576257680006700,6.099006591796875,0.2761130679254422,0.0033332419116050005,0.10111560478059152,0.005484370980411768,0.04720132026954024,0.9416505024935776,0.19053320053086856,right,-0.00009614229202270508,-0.6292125030362765,2.1614757310822603,-7.628273695260286,-0.3175561605003374,0.0037788664922118187,-0.0007583647966384888,5.771294997999072,0.00013941526412963867
1746576257720006700,6.139006591796875,0.2762094613699468,0.0018026508623734117,0.10118419966216588,0.006892472505569458,0.047168820914767505,0.9416746542076756,0.19046493350046598,right,-0.0008741021156311035,-0.6290250158386164,2.1625060970433054,-7.629106054431199,-0.3174674714566797,0.015001445077359676,-0.0029025375843048096,5.769807974311709,-0.0022235512733459473
1746576257760006700,6.179006591796875,0.2760587862526568,-0.006532927509397268,0.1012291379873867,0.012224456295371056,0.04703602095716812,0.9417923092350535,0.19001702687979555,right,0.0010398030281066895,-0.6283448981090833,2.1624257252834735,-7.633205890965462,-0.3171237488404047,0.011842623353004456,0.0003329962491989136,5.7644140063136815,0.0014790892601013184
1746576257800007000,6.2190068359375,0.2766272270829045,-0.0008588558994233608,0.10150227952715025,0.012574590742588043,0.0469290998782371,0.9417640319367646,0.1899817150580342,right,0.0001270771026611328,-0.6283468802685165,2.1667612702697516,-7.631964366471767,-0.3171362402339861,0.004902911372482777,0.00041618943214416504,5.764429788404703,0.0013180971145629883
1746576257840007000,6.2590068359375,0.2771957585323397,0.004815215710550547,0.10177543572716787,0.01292472518980503,0.04682217146917953,0.9417357559727881,0.18994644100852562,right,-0.0007859468460083008,-0.6283490124894308,2.1710966691255567,-7.630719919368624,-0.3171487342961937,-0.0020368010737001896,0.0004993975162506104,5.764446155017614,0.0011570453643798828
1746576257880007000,6.2990068359375,0.27776418853852125,0.010489287786185741,0.10204855862092083,0.013274860568344593,0.04671524035711596,0.9417072987485134,0.1899111201815348,right,-0.0016992688179016113,-0.62835099462895,2.175430606676638,-7.629473134177923,-0.3171611617115118,-0.008976513519883156,0.0005827397108078003,5.764461937108636,0.0009959936141967773
1746576257920006700,6.339006591796875,0.27836583188697656,0.007767144124954939,0.10224796059656908,0.00837431475520134,0.04679530261787808,0.9416278393225719,0.19032914599744186,right,-0.0011532306671142578,-0.6286170902159087,2.179598832271993,-7.626687887373566,-0.3173208083704826,-0.014877032488584518,0.0010577589273452759,5.766573230174184,0.0032663941383361816
1746576257960006700,6.379006591796875,0.2789044906584024,-0.0007782052271068096,0.10242851694315742,0.009718384593725204,0.04678611343520205,0.9415202788927768,0.1905777891706213,right,-0.0009927153587341309,-0.6291245925002826,2.18290065029636,-7.622697940954565,-0.3175829861457983,-0.009356608614325523,0.0018180012702941895,5.770597663384676,0.004250526428222656
1746576258000006700,6.419006591796875,0.27919678069085474,-0.004026872105896473,0.10255565221230512,0.002864740788936615,0.04670309901482458,0.9414704439534207,0.1905417810125535,right,0.00003594160079956055,-0.6293689083311959,2.184740140683204,-7.620704136788844,-0.31770197281697576,-0.0029245978221297264,0.00021824240684509277,5.772534768927097,0.0037919282913208008
1746576258040007000,6.4590068359375,0.27926105069406254,0.00011268723756074905,0.10256628452930758,-0.007373514585196972,0.04670541817564495,0.941441789600011,0.1905965631316006,right,0.000022113323211669922,-0.6295337285211413,2.1849676658287644,-7.61964965929985,-0.3177831825404184,0.0013205925934016705,-0.0005432963371276855,5.7738411753505465,0.000919044017791748
1746576258080007000,6.4990068359375,0.2792563598226038,0.004003266803920269,0.10253358708333028,-0.00558049138635397,0.046851191907570054,0.9414645090902907,0.19087088841556205,right,0.001762986183166504,-0.6293361697507943,2.1852463366396724,-7.620756159237026,-0.31770495373157426,0.0019384484039619565,-0.0013358145952224731,5.772275241208076,0.0029776692390441895
1746576258120007000,6.5390068359375,0.27940094260893067,-0.001539706252515316,0.10256222712747898,-0.002758353715762496,0.04697366577761027,0.941465358133912,0.19116219218146127,right,0.0004615187644958496,-0.6292328856393361,2.1865124110527336,-7.621012764346599,-0.31767508891398255,0.0010067851981148124,-0.001190096139907837,5.771456326040625,0.0026633739471435547
1746576258160006700,6.579006591796875,0.27904440514192086,-0.0043149907141923904,0.10245210633614749,0.00003466871567070484,0.046856030019711135,0.9414905883324016,0.1907939767180647,right,-0.0022682547569274902,-0.6292444742741398,2.1837767024785277,-7.621727634617685,-0.3176532562490359,0.002783938543871045,0.0006708204746246338,5.771548095977306,0.001692056655883789
1746576258200006700,6.619006591796875,0.27885371634945616,-0.0003568711690604687,0.10239320427635991,-0.0008068514289334416,0.04678101290362829,0.9414981248068057,0.19057880875638414,right,-0.002707362174987793,-0.6292944325363345,2.1822440860837697,-7.621867335349321,-0.3176610729671258,0.0012526375940069556,0.00005982816219329834,5.771944401818513,0.002437591552734375
1746576258240006700,6.659006591796875,0.2786082232642172,-0.0007837832090444863,0.10229945514020027,-0.005271290894597769,0.04677160889955809,0.9415218892484799,0.19046597103322113,right,0.00013655424118041992,-0.6292355774204191,2.180466262756288,-7.622728920614719,-0.3176221065287652,0.0055521451868116856,0.001013636589050293,5.771477953350543,0.00021666288375854492
1746576258280007000,6.6990068359375,0.27831491314770196,0.0020177881233394146,0.10217791195385907,-0.00848179217427969,0.04681834015330279,0.941563606923692,0.1904359616843841,right,0.0010478496551513672,-0.6290575801065895,2.1785124983400106,-7.624355645033717,-0.3175306433414584,0.004815560765564442,0.0000848621129989624,5.770066332986951,-0.0010237693786621094
1746576258320007000,6.7390068359375,0.278107613206737,0.005602935329079628,0.10206948930416412,-0.00674015237018466,0.04694060694600389,0.9416008441306519,0.1905904810218065,right,-0.000576317310333252,-0.6288504195277235,2.1772600140608844,-7.625956650489568,-0.31743699440055256,0.003412501187995076,0.00041744112968444824,5.768423826476932,-0.001234292984008789
1746576258360007000,6.7790068359375,0.2779930708833342,0.008865350857377052,0.10195746633642751,-0.011660182848572731,0.047145757180302596,0.9416053639787602,0.1909785877377367,right,-0.0010505318641662598,-0.6287974565923389,2.1764704711183906,-7.626499671325087,-0.31742935565607544,-0.004858211614191532,-0.0013210475444793701,5.768003555238247,-0.002119600772857666
1746576258400006700,6.819006591796875,0.2777580033476081,0.01085625123232603,0.1017635585788733,-0.013467053882777691,0.04740311079207005,0.9415917176521633,0.19146248467845564,right,0.0006447434425354004,-0.6288944637061991,2.1745241593562064,-7.626472783318161,-0.3174937192165716,-0.0058258045464754105,-0.001644521951675415,5.768772786045074,-0.0011585354804992676
1746576258440006700,6.859006591796875,0.277620770982544,0.0069751618430018425,0.10163969979464212,-0.007753345184028149,0.04762958143368159,0.9416039886664987,0.19187945801800846,right,0.00004553794860839844,-0.6287899328141915,2.173642700346559,-7.627350735196471,-0.3174629032953585,-0.004408559761941433,-0.0022732913494110107,5.7679439340054985,0.0002612471580505371
1746576258480006700,6.899006591796875,0.2774835067737494,0.0030940722208470106,0.10151583168740863,-0.002039635553956032,0.04785605940541873,0.9416162583465209,0.19229644158155038,right,-0.0005537271499633789,-0.6286854704552837,2.1727608029454943,-7.62822868707478,-0.31743205538501146,-0.002991315210238099,-0.002901986241340637,5.767115666487813,0.0016810894012451172
1746576258520007000,6.9390068359375,0.2775010110392517,0.0025659785605967045,0.10149178604818118,0.005223691929131746,0.04793786971612505,0.9416050619369858,0.19248296496730916,right,0.0007444620132446289,-0.6287257549845281,2.172830653311312,-7.62796740579009,-0.31746072695419386,-0.002031394513323903,-0.0019078254699707031,5.767434815439581,0.0011650323867797852
1746576258560007000,6.9790068359375,0.2777149871870153,-0.0013864808715879917,0.10155735544501505,0.0062864962965250015,0.04796893465774958,0.941569660345514,0.19264519507598243,right,-0.00045120716094970703,-0.6288671897320492,2.174239204934984,-7.62671769798994,-0.3175400927545143,-0.008645477704703808,-0.00233343243598938,5.7685565129458904,0.00424879789352417
1746576258600007000,7.0190068359375,0.27800201045049633,-0.0016546103870496154,0.10165770623826058,0.007343220990151167,0.047921582908786134,0.9414984905774505,0.19270579981007013,right,0.0017753243446350098,-0.629244638567389,2.175830565779656,-7.623999086681008,-0.31772617773306844,-0.0021491870284080505,-0.001347556710243225,5.771549849542975,0.001138448715209961
1746576258640006700,7.059006591796875,0.2781320311797218,-0.007360801100730896,0.10174770867585607,0.00564136728644371,0.04779494099205494,0.9414861016707289,0.19249334779031715,right,0.0003548860549926758,-0.629319030684226,2.1767038414828477,-7.623303505632281,-0.3177531935145874,0.0006667759735137224,-0.0013526380062103271,5.772139632129669,0.004106462001800537
1746576258680006700,7.099006591796875,0.27804580706456067,-0.018902035430073738,0.10181740921256568,0.010212285444140434,0.0474637938910474,0.9414981558725414,0.19177189805729095,right,0.0024341344833374023,-0.6293841240634437,2.1759433785043654,-7.623129902631044,-0.3177447979382026,0.009436015971004963,-0.0016278773546218872,5.772655180436373,0.002421438694000244
1746576258720006700,7.139006591796875,0.2778646529175825,-0.024785241112113,0.10196010274809558,0.020046668127179146,0.046904868544436526,0.9415845700209651,0.19046930891897196,right,0.0005571246147155762,-0.6290657441821258,2.1750663034088906,-7.625290295535326,-0.31752561905179383,0.017226725816726685,-0.001439109444618225,5.770131214916706,0.004505455493927002
1746576258760007000,7.1790068359375,0.2776074012069872,-0.02263386733829975,0.10208274314926671,0.019435368478298187,0.046214837736973956,0.9416295398082825,0.18892181910625253,right,0.0011935234069824219,-0.6290945597777141,2.173059055239707,-7.625690108507871,-0.31745412897788744,0.010979000478982925,-0.0012938082218170166,5.770359762975573,0.000017881393432617188
1746576258800007000,7.2190068359375,0.27773729555043025,-0.009405083023011684,0.10229977553957013,0.016710475087165833,0.04575195551807511,0.9416555169632492,0.18797000859919835,right,0.0009359121322631836,-0.6290211636794333,2.174165701307356,-7.625814611670374,-0.3173742244123179,0.008923918008804321,-0.0010523498058319092,5.769777579173446,-0.0018270015716552734
1746576258840007000,7.2590068359375,0.2777969076620549,-0.021535724401474,0.10247979431657132,0.01427251286804676,0.04531812158436105,0.9416874750648487,0.18705225877914056,right,-0.0012347698211669922,-0.6289243069491657,2.174773457942158,-7.626222607949376,-0.31728340190384435,0.004273127298802137,0.00033451616764068604,5.769009517410397,0.0012225508689880371
1746576258880007000,7.2990068359375,0.27784542082314545,-0.017892993986606598,0.1026523567070833,0.017685258761048317,0.04476801259464911,0.9416569928065085,0.18596112542653873,right,-0.0062923431396484375,-0.6292834743749047,2.1745750127606094,-7.624123589843511,-0.31739620844026434,-0.012204986065626144,0.0014337897300720215,5.77185730805695,0.0038027167320251465
1746576258920006700,7.339006591796875,0.27822832456974655,-0.0009256340563297272,0.10284147516537848,0.009488444775342941,0.04447332037018572,0.9415339121860135,0.18559344862303837,right,-0.002796173095703125,-0.6300451048694959,2.1762862005926666,-7.619061630278825,-0.31774140013387675,-0.006953524891287088,0.0012231767177581787,5.777894250133634,-0.0006262660026550293
1746576258960006700,7.379006591796875,0.27854161798459254,0.004546467214822769,0.10297862232328571,0.002734370529651642,0.04445849912932,0.9415185560474052,0.1856650041738416,right,-0.001426994800567627,-0.6300292719817054,2.1786982301704585,-7.618467171517014,-0.3177446458144868,0.0039593554101884365,0.0010302215814590454,5.77776857792735,0.0016440153121948242
1746576259000006700,7.419006591796875,0.2785882926509507,-0.0002652062103152275,0.10299662237653576,-0.00395060982555151,0.04452530297500563,0.9415471081714228,0.18578377993788042,right,-0.001587212085723877,-0.6298003428957433,2.1794176304861903,-7.619637384340167,-0.31764492939894257,0.0047973934561014175,0.002244889736175537,5.775954806503653,0.004452884197235107
1746576259040007000,7.4590068359375,0.27825648035127587,-0.0007594502530992031,0.10287990975216299,-0.006274307146668434,0.04454546238073723,0.9416123832441914,0.18566204978408174,right,-0.00005340576171875,-0.6294902101529809,2.177381156222522,-7.622082439404726,-0.31748649132265105,0.006676623597741127,0.0017283111810684204,5.773496307435631,0.002376377582550049
1746576259080007000,7.4990068359375,0.2777570319115184,0.0006930249510332942,0.10267520475110077,-0.018948517739772797,0.0446434467064611,0.9416972370922808,0.185634023048867,right,0.0014531612396240234,-0.629090168463775,2.1742070562310514,-7.625389079734682,-0.3172871660945729,0.01557029876857996,0.00009837746620178223,5.770324691662192,0.00008791685104370117
1746576259120007000,7.5390068359375,0.27743155305132366,0.009243050590157509,0.10252017967327051,-0.013230808079242706,0.044888566289998856,0.9418083793854812,0.18592810892418724,right,-0.0020639896392822266,-0.6283997101266542,2.172815748003125,-7.62992613864243,-0.3169725958634345,0.008231738582253456,-0.0009335130453109741,5.764848890599608,0.0020918846130371094
1746576259160006700,7.579006591796875,0.27699102288836674,0.0072754258289933205,0.10227626402855343,-0.016001760959625244,0.04517110571348459,0.9418781771586082,0.1863151769574532,right,-0.0016345977783203125,-0.628017210497454,2.1700572430752216,-7.6330036463916295,-0.3168038769634363,0.0034616817720234394,-0.0006709545850753784,5.761813468426466,0.0014657378196716309
1746576259200006700,7.619006591796875,0.2766579326088125,0.005370596423745155,0.10208340220039862,-0.010219051502645016,0.045348387079017,0.9418987963249041,0.18656875811785623,right,-0.0004659295082092285,-0.6279531126400476,2.167615402881056,-7.6340809202343225,-0.3167793722762052,0.0005155508406460285,-0.0020641088485717773,5.761304934382438,-0.00037974119186401367
1746576259240006700,7.659006591796875,0.2765429082671088,0.005586860701441765,0.10199500054710045,-0.005225650500506163,0.045486388631116384,0.9419088145013529,0.18681196622902604,right,0.00038236379623413086,-0.6278871939967307,2.1668410575076935,-7.634695837262273,-0.3167583730856858,-0.0003200208302587271,-0.0016766637563705444,5.760781787291169,-0.0010811686515808105
1746576259280007000,7.6990068359375,0.2767070905892674,0.009278262965381145,0.10200239661641934,0.00009243562817573547,0.04567360584812527,0.9418930314988974,0.1872614379400461,right,-0.00036400556564331055,-0.6278678119212324,2.1681249598383903,-7.634447415459156,-0.3167759862299157,-0.006658549420535564,-0.00194452702999115,5.7606280580341815,-0.00046771764755249023
1746576259320007000,7.7390068359375,0.27712704463548415,0.01923963986337185,0.1020406704771266,-0.0025915822479873896,0.04598714296171335,0.9418016673111551,0.18812656204473496,right,0.0005175471305847168,-0.6282108471494615,2.1707902335248885,-7.6316346961259836,-0.31698990858381126,-0.016928603872656822,-0.0014788955450057983,5.763350176474452,-0.0031375885009765625
1746576259360007000,7.7790068359375,0.2778823676299686,0.023982681334018707,0.10210754467423658,-0.005190218333154917,0.04664856465178437,0.9416829035990161,0.18983275682864942,right,-0.0009688138961791992,-0.6284888191994096,2.1761142050266264,-7.62845197443664,-0.3172242739885431,-0.016901129856705666,0.00004234910011291504,5.765555577564239,0.0009755492210388184
1746576259400006700,7.819006591796875,0.2786385444968933,0.028725720942020416,0.10217440691408285,-0.007788854651153088,0.047309966275588734,0.9415637800349036,0.19153959660056663,right,-0.0024552345275878906,-0.6287657866881419,2.1814428527034817,-7.625268668225407,-0.31745845546435847,-0.01687365397810936,0.0015631318092346191,5.767752210825681,0.00508958101272583
1746576259440006700,7.859006591796875,0.27908537025641805,0.010903788730502129,0.10213911065540927,-0.008901894092559814,0.04782246575975556,0.9414332904250503,0.19286803944194228,right,0.0005472302436828613,-0.6292865086858107,2.1840222016721964,-7.621404978534579,-0.31777991162731306,-0.020043019205331802,0.0013535916805267334,5.771881857976317,0.0046405792236328125
1746576259480006700,7.899006591796875,0.2792356434324101,0.004463743884116411,0.10204812263521244,-0.007857227697968483,0.04808862166434119,0.9413088692434529,0.1936003424774367,right,0.0009420514106750488,-0.6299641244436875,2.1840888371676206,-7.6173150788724415,-0.31813706203047976,-0.020148752257227898,-0.0011600255966186523,5.777252445098758,0.004967212677001953
1746576259520007000,7.9390068359375,0.2794068767473096,0.003586054313927889,0.101973933274536,-0.008995180018246174,0.04833296924997432,0.9411858733263805,0.19429184520889203,right,0.0020565390586853027,-0.6306310586610203,2.184330098577589,-7.613235700604319,-0.3184875465674722,-0.016599809750914574,-0.002135947346687317,5.782535938459635,0.003981351852416992
1746576259560007000,7.9790068359375,0.2791704099466416,-0.0008394862525165081,0.10179702213276218,-0.00167771615087986,0.04837387745114093,0.9410948812777452,0.1944159195431686,right,0.0014258027076721191,-0.6313140257988192,2.1814409530073404,-7.609953610193729,-0.3188066704463314,-0.01166526135057211,-0.000005841255187988281,5.787943934983015,0.00470423698425293
1746576259600007000,8.0190068359375,0.2792113389200446,0.0026011080481112003,0.10175686967968972,-0.0016971114091575146,0.048375383013628134,0.9410019741230118,0.19453586786753083,right,-0.00007593631744384766,-0.6319134821019834,2.180795786971599,-7.606527727398276,-0.3190933155440606,-0.008969693444669247,-0.001184314489364624,5.792688499161601,0.0024873018264770508
1746576259640006700,8.059006591796875,0.2792895366565008,0.0031828482169657946,0.10175491992447468,-0.00035539211239665747,0.048437856037164155,0.9409729115158297,0.19471933599250052,right,0.00018799304962158203,-0.6320542416793093,2.1811657893277703,-7.605573787674308,-0.31917017507412687,-0.008193310350179672,-0.0006847083568572998,5.793802597883343,0.00242006778717041
1746576259680006700,8.099006591796876,0.2793677453637002,0.003764588385820389,0.10175295550900575,0.0009863271843641996,0.048500329060699794,0.9409438489086481,0.19490282892923724,right,0.0004519224166870117,-0.6321950008327226,2.1815357916839417,-7.604619263428449,-0.31924703193556725,-0.0074169267900288105,-0.00018508732318878174,5.794916112083197,0.002352893352508545
1746576259720006700,8.139006591796875,0.2795684474275597,0.007681929972022772,0.10178565883082846,0.0031361619476228952,0.048581580953810884,0.9408907693613671,0.1951858309901122,right,0.00014287233352661133,-0.632440433027186,2.182669471888989,-7.602813675311207,-0.3193807265598182,0.0008998732082545757,-0.0000585019588470459,5.796857893800735,0.0007439255714416504
1746576259760007000,8.1790068359375,0.2799555782676795,0.0014376402832567692,0.10191250296664467,0.0018048384226858616,0.04870425828152234,0.9408732243813731,0.19556468958495268,right,-0.0019327998161315918,-0.6323630331453838,2.185736604374647,-7.602399833813309,-0.3193733423589898,-0.00009559805039316416,-0.0007781982421875,5.796245314860344,0.0018633008003234863
1746576259800007000,8.2190068359375,0.28025574868423636,0.0029853382147848606,0.10200526272952222,0.005756933242082596,0.04872237799005984,0.9408132193001489,0.19575226758133063,right,-0.0016103386878967285,-0.6326366351941493,2.187579748023301,-7.600218982642889,-0.31951775709651065,-0.009609546512365341,-0.000015079975128173828,5.798409214895964,0.0016741752624511719
1746576259840007000,8.2590068359375,0.28044031319177576,0.0008859822992235422,0.10202125953148526,0.0015554465353488922,0.04874497439002452,0.9407167758700696,0.19595925983699589,right,-0.001519322395324707,-0.6331945743335171,2.188086674632132,-7.596704837042092,-0.31979290371528285,-0.017554407939314842,0.0008367002010345459,5.802821186119318,0.0018862485885620117
1746576259880007000,8.2990068359375,0.2805995501241081,0.0012615631567314267,0.10200057817606618,-0.0012235559988766909,0.04878907614560019,0.9405910330525993,0.19623739871158236,right,-0.0018729567527770996,-0.6339487398324605,2.1880837520226835,-7.592149073433876,-0.3201624583466211,-0.016466042026877403,0.0004626065492630005,5.8087815558284515,0.00009071826934814453
1746576259920006700,8.339006591796876,0.2806064063298557,0.002556772902607918,0.10192283218296372,-0.005919633433222771,0.04887990452827173,0.9405071905021894,0.1965227414110896,right,-0.0006001591682434082,-0.634468910148367,2.1872987391248344,-7.589229971116781,-0.32041957148897515,-0.008541001006960869,0.0007570236921310425,5.8128907447129485,0.00030052661895751953
1746576259960006700,8.379006591796875,0.2804137404702306,0.003386908210813999,0.10177253648210978,-0.007280985824763775,0.04904258460192597,0.9404867864196415,0.1968297567337025,right,-0.00008887052536010742,-0.6346235771369161,2.1855876974232493,-7.588787488046288,-0.3205025366179137,-0.00683482876047492,0.000333443284034729,5.814112395462393,0.0004488229751586914
1746576260000006700,8.419006591796874,0.28022119262758327,0.004217043519020081,0.10162226476450757,-0.008642338216304779,0.04920525798682872,0.9404662623864364,0.1971368055566414,right,0.00042241811752319336,-0.6347783589922477,2.183877532504499,-7.5883432514101266,-0.32058553640461435,-0.005128656513988972,-0.00009022653102874756,5.815334630733728,0.0005970001220703125
1746576260040007000,8.4590068359375,0.28014323462681207,0.008355236612260342,0.1015138291048875,-0.010607641190290451,0.04938733160696511,0.9404392382794139,0.1975226334354124,right,0.0001652240753173828,-0.6349242560212647,2.1830514569438995,-7.587697939243912,-0.32067118376819076,-0.0038394362200051546,-0.0018650293350219727,5.816486723378301,-0.0006299614906311035
1746576260080007000,8.4990068359375,0.2801196091011176,0.007486551534384489,0.10140622121872746,-0.006130333058536053,0.04962282613923493,0.9404006117845549,0.19804691510017472,right,0.001854538917541504,-0.6351066130444323,2.1825788709960876,-7.5867299709945915,-0.32078215450865627,-0.005739971529692411,-0.0013648569583892822,5.817926400792598,0.0016283392906188965
1746576260120007000,8.5390068359375,0.28032663557828486,0.006200653966516256,0.1014035502629754,-0.0033665115479379892,0.04983234261054656,0.9403501140619311,0.19859413189328118,right,0.0005800724029541016,-0.6352857485327725,2.1838610197611152,-7.585276265054941,-0.3208985047611257,-0.005492059979587793,-0.0032623261213302612,5.81934035924375,0.0002860426902770996
1746576260160006700,8.579006591796874,0.2801766908553835,0.00646093999966979,0.10127871716443422,-0.014701208099722862,0.050023060924079606,0.9403528989169003,0.19894401803378609,right,-0.00023788213729858398,-0.6352593135970123,2.182766210261732,-7.585751481351256,-0.32090016632077817,0.00442965654656291,-0.005500137805938721,5.819131684929132,-0.0014091134071350098
1746576260200006700,8.619006591796875,0.27963633623923145,0.009316643700003624,0.1010090509430218,-0.016702812165021896,0.05024611659549064,0.9404217106979444,0.19917843721475414,right,0.0038360953330993652,-0.6349375919236234,2.1791835294693707,-7.58872903585732,-0.3207486005819748,0.008368248119950294,-0.005643665790557861,5.816591937318444,-0.0030230283737182617
1746576260240006700,8.659006591796874,0.2791335063176037,0.008422625251114368,0.10076035915080055,-0.011887244880199432,0.0504741693520297,0.9404990033882803,0.19942367674826283,right,0.004381299018859863,-0.6345419480607606,2.1760011000409722,-7.5920350916653865,-0.32056401770779847,0.0015415716916322708,-0.003414839506149292,5.8134676678180695,-0.004486441612243652
1746576260280007000,8.6990068359375,0.2786307780921168,0.007528606802225113,0.10051165803557681,-0.007071678061038256,0.05070223676882129,0.9405762934099898,0.19966917619473956,right,0.004926145076751709,-0.634146550851284,2.1728163325250147,-7.595337640342116,-0.320379402844488,-0.0052851042710244656,-0.0011857300996780396,5.810344567361474,-0.005949974060058594
1746576260320007000,8.7390068359375,0.2790270537385317,0.02519502118229866,0.10053754488934147,-0.0036917226389050484,0.051102689900969625,0.9405274502760277,0.20066004734235537,right,0.0011445879936218262,-0.6341717406232396,2.1757855575941503,-7.594335185301303,-0.32045103020089377,-0.012344710528850555,-0.00040227174758911133,5.810543304803967,-0.0034554600715637207
1746576260360007000,8.7790068359375,0.2803010908856049,0.027986083179712296,0.10080889024023151,0.011513951234519482,0.05171284133969466,0.9403404111092142,0.20248164234110386,right,-0.001574099063873291,-0.6346893886962216,2.184626889567077,-7.588665322971344,-0.3208166120168101,-0.038541797548532486,0.0033465325832366943,5.814632035422325,0.009217619895935059
1746576260400006700,8.819006591796875,0.2817262417716103,0.009068690240383148,0.10115108943517309,0.013104790821671486,0.05207697195510734,0.9400409396880277,0.20396682174482347,right,-0.0018579363822937012,-0.635974324207364,2.193360815642774,-7.578361371099948,-0.3215269106345466,-0.03978672996163368,0.0038671940565109253,5.824774074730277,0.011353075504302979
1746576260440006700,8.859006591796875,0.2828294727593531,0.004120942670851946,0.10142575372108831,0.014326242730021477,0.05220651147516219,0.9397532733087789,0.2048677954762875,right,0.0010151267051696777,-0.6373882298063216,2.199419531159848,-7.568020594349503,-0.3222594184392254,-0.031650610268116,0.0035613328218460083,5.8359232452541585,0.009882748126983643
1746576260480006700,8.899006591796875,0.28383378492307815,0.0008735198061913252,0.10173685151860909,0.01249502319842577,0.05225594732110097,0.9395542826683254,0.20547511215111847,right,-0.002421140670776367,-0.6382838040948968,2.205554526783526,-7.5607877204865215,-0.322733199884761,-0.01049281470477581,0.002291545271873474,5.842979008984566,0.010236203670501709
1746576260520007000,8.9390068359375,0.2842159147580374,-0.00968774314969778,0.10189681680826682,0.012085732072591782,0.05208961602019978,0.9394550313553275,0.20535140782730057,right,0.0014403462409973145,-0.6388460179319447,2.207522173594683,-7.556789590761065,-0.3229984148673478,-0.007089518941938877,0.0005762726068496704,5.847406177777051,0.006889402866363525
1746576260560007000,8.9790068359375,0.28449750390079576,-0.016798794269561768,0.10208282829160044,0.012313004583120346,0.05172840495438634,0.939373442540252,0.20477721311317668,right,-0.001068711280822754,-0.639401571839028,2.208737832994759,-7.553048650667071,-0.3232348680671384,-0.004782794043421745,0.0008346289396286011,5.851778986033797,0.003918707370758057
1746576260600007000,9.0190068359375,0.28461817786198496,-0.01928871124982834,0.10222551544797875,0.017143530771136284,0.05127702773655175,0.9392940901123498,0.20396974334938286,right,-0.000876009464263916,-0.6400369298279699,2.208604854264855,-7.549212433505057,-0.3234922426280986,-0.012084569782018661,-0.0003196895122528076,5.856777232712507,0.0024958252906799316
1746576260640006700,9.059006591796875,0.2850370985380431,-0.01238187775015831,0.10245666329820972,0.01783900521695614,0.05088077426592841,0.9391684741359151,0.20341136488214392,right,-0.0012688636779785156,-0.6408363788020547,2.2104497514791785,-7.543790408456325,-0.3238461755063075,-0.012383272871375084,-0.00048235058784484863,5.863063765636086,0.0015951991081237793
1746576260680006700,9.099006591796876,0.2854766346099999,-0.008195159025490284,0.1026843385591719,0.015769418329000473,0.05060792751518223,0.9390819477192064,0.20306844589794917,right,-0.0014017820358276367,-0.6413263232755428,2.212956035211682,-7.540061158800125,-0.32406758465221447,-0.00847226195037365,0.00008280575275421143,5.8669145958453415,0.0015895366668701172
1746576260720006700,9.139006591796875,0.2859570255404768,-0.004809150472283363,0.10291820551267226,0.011745193973183632,0.05039278146279959,0.9390040019595924,0.20284615703701395,right,-0.0013861656188964844,-0.6417227962223628,2.2159217531494795,-7.536764455342293,-0.3242526496062552,-0.005717219784855843,0.00003007054328918457,5.870029512995481,0.00044411420822143555
1746576260760007000,9.1790068359375,0.28618711609071873,-0.001466214656829834,0.1030345797480298,0.0030862633138895035,0.05028158013823725,0.9389694760504207,0.20271959174017312,right,-0.0009279847145080566,-0.6418969590972066,2.217367129652202,-7.535273924523591,-0.3243329028777378,-0.0030012649949640036,-0.0001823902130126953,5.871397878739238,0.0005484819412231445
1746576260800007000,9.2190068359375,0.28624300383752166,0.0025429660454392433,0.1030508759898227,-0.0015123453922569752,0.05027537179570804,0.9389525520993243,0.20274175227460947,right,-0.0007972121238708496,-0.641987772496748,2.2176376171566545,-7.5346379647076125,-0.324377672341144,0.00022293091751635075,0.0003681480884552002,5.872110995444655,0.0008549094200134277
1746576260840007000,9.2590068359375,0.28625668218446154,0.003704420290887356,0.10304244712477427,0.000250029843300581,0.05033950385581091,0.9389608102250775,0.20286859235394947,right,0.0001055598258972168,-0.6419059583168311,2.2178763943485915,-7.535068757340311,-0.32434651239137563,-0.00033808022271841764,-0.0005143433809280396,5.871468605887889,0.00020951032638549805
1746576260880007000,9.2990068359375,0.2862703492255986,0.004865874070674181,0.10303401292247427,0.002012405078858137,0.05040362858578782,0.9389690696851445,0.20299542159787415,right,0.0010082125663757324,-0.6418242229337419,2.2181148792795837,-7.535498965451121,-0.3243153817621152,-0.0008990913047455251,-0.001396775245666504,5.870826216331124,-0.00043588876724243164
1746576260920006700,9.339006591796876,0.28628302534241845,0.010394904762506485,0.10296393653302657,-0.002582922577857971,0.050615347393056676,0.9389535521885551,0.20345468381072487,right,0.0003261566162109375,-0.6418463603667965,2.2181737698599693,-7.535346405237913,-0.32434963892455804,-0.005714638624340296,-0.0023985356092453003,5.871000403854251,-0.0006636977195739746
1746576260960006700,9.379006591796875,0.28629565553973074,0.015923935920000076,0.1028938361603208,-0.007178249303251505,0.05082706285594719,0.9389379747166375,0.20391392540854364,right,-0.0003558993339538574,-0.6418684436738102,2.2182323681794105,-7.535193845024705,-0.3243838614292426,-0.010530184954404831,-0.003400281071662903,5.871174006855488,-0.0008913874626159668
1746576261000006700,9.419006591796874,0.28662649916052196,0.010462973266839981,0.10289316765097457,0.0005669835954904556,0.05116362499727664,0.9388671375683746,0.20478302029838522,right,0.0012539029121398926,-0.6420816850302135,2.220371133773774,-7.533258493047952,-0.32453613905853573,-0.011776713654398918,-0.0016362965106964111,5.87284866206944,0.0011066794395446777
1746576261040007000,9.4590068359375,0.2864981022172143,-0.012466773390769958,0.1027936611703691,0.006023230031132698,0.05113755966063251,0.9387907601638341,0.20478232460964052,right,0.00024962425231933594,-0.6426404859639852,2.21847611380741,-7.530394335788488,-0.32479256265544987,-0.01686745509505272,0.0011904537677764893,5.877236083373427,0.0031851530075073242
1746576261080007000,9.4990068359375,0.28639967988205933,-0.009798893705010414,0.10277160306660155,0.005242983344942331,0.050854691249951796,0.9386897003052453,0.20428750816337668,right,-0.0009250640869140625,-0.6434399498645645,2.2164070524483916,-7.526103360596299,-0.3251361487309741,-0.01568470150232315,-0.000019252300262451172,5.883510341337323,0.0018026232719421387
1746576261120007000,9.5390068359375,0.2864755263574417,-0.0030285855755209923,0.10278365086109113,0.0021589724346995354,0.05076373147493036,0.9386114437102666,0.20421089263455067,right,0.0006262660026550293,-0.643952077555835,2.216126043549925,-7.5230433885037895,-0.32537216618422066,-0.003575698472559452,-0.0003997981548309326,5.887527760285138,0.001474916934967041
1746576261160006700,9.579006591796874,0.2864319708002586,-0.006393990013748407,0.10279785323702553,0.002460090909153223,0.05066741589654237,0.9386174651840716,0.20399270735492195,right,0.0011769533157348633,-0.6439641743400667,2.2157782530255616,-7.523072030076384,-0.3253654518041386,-0.004472758155316114,-0.0005853623151779175,5.887622452831268,0.0016880035400390625
1746576261200006700,9.619006591796875,0.28638844961631377,-0.009759394451975822,0.102812070273214,0.0027612096164375544,0.05057109298802784,0.9386234879921891,0.20377452043514294,right,0.0017275810241699219,-0.6439762852545647,2.2154307547621426,-7.523100087127089,-0.3253587400926828,-0.005369817838072777,-0.0007709711790084839,5.887717729899287,0.0019010305404663086
1746576261240006700,9.659006591796874,0.28650925983011205,0.001476340927183628,0.10288468799829817,0.007768250070512295,0.05042531449186623,0.9385808977809511,0.20355559307275273,right,0.00002384185791015625,-0.6442569881596907,2.215872361049801,-7.521246568214893,-0.32548101019923004,-0.0031522836070507765,-0.00042794644832611084,5.8899190393358465,0.0009930133819580078
1746576261280007000,9.6990068359375,0.28671599639386375,0.001366602024063468,0.10297594010703057,0.0037454436533153057,0.050402202739530944,0.9385663843520387,0.2035818301368299,right,0.00040668249130249023,-0.6442783285754049,2.217391679571569,-7.520667307022213,-0.32549749977721903,0.004391568712890148,-0.00009812414646148682,5.890086212596297,0.0019173622131347656
1746576261320007000,9.7390068359375,0.2868680952770209,-0.001596876885741949,0.10304815406823668,0.0027952517848461866,0.05037783519883697,0.9385601572027702,0.20358089838905738,right,-0.000882565975189209,-0.6442685110870878,2.2185519555225968,-7.520386151993274,-0.3254966803461359,0.0005622359458357096,-0.0004163086414337158,5.890009055706859,0.001411139965057373
1746576261360007000,9.7790068359375,0.2868405485449988,-0.007364644668996334,0.10308784554685549,0.004149752669036388,0.05025486343039623,0.9385814514037847,0.2032942092129817,right,-0.0012636184692382812,-0.6441835145124402,2.2184864890709517,-7.520927419263124,-0.32544171585458637,0.006023051217198372,-0.001134246587753296,5.889342700752616,0.0009807944297790527
1746576261400006700,9.819006591796875,0.2867707252830477,-0.007450912147760391,0.1031472404326273,0.00937163457274437,0.050017823615450124,0.9386076365284514,0.2027540741361661,right,0.0006921291351318359,-0.6441224681272442,2.2180630029618738,-7.521427185478806,-0.3253837646286838,0.004082262981683016,-0.0008088946342468262,5.888863977324962,-0.0019622445106506348
1746576261440006700,9.859006591796875,0.2870986288768235,-0.0012260833755135536,0.10328515655521721,0.009621848352253437,0.04994597723915988,0.9385570409206924,0.20275483382609033,right,0.0007048249244689941,-0.6443486951232577,2.220151938065141,-7.5194216908752916,-0.3254971104470977,-0.005511276889592409,-0.00036257505416870117,5.890638001260161,-0.0014006495475769043
1746576261480006700,9.899006591796875,0.28742658938584353,0.004998744931071997,0.10342307801505697,0.009872062131762505,0.0498741201883651,0.9385063866719172,0.20275566131171766,right,0.0007174015045166016,-0.644574866937492,2.2222401425160467,-7.517415027227997,-0.32561042694500547,-0.015104817226529121,0.00008380413055419922,5.892410856151581,-0.000838935375213623
1746576261520007000,9.9390068359375,0.2880470683012566,0.004959560930728912,0.10361119746385818,0.009850433096289635,0.04988829848841469,0.9383705207374553,0.2031144264184929,right,0.001225590705871582,-0.6452105034168654,2.2258396283127366,-7.512442499512433,-0.32593980607734974,-0.018001262098550797,0.0004126429557800293,5.8973927362173795,-0.0010840296745300293
1746576261560007000,9.9790068359375,0.2887106675810117,0.002124242717400193,0.10379706020854848,0.007806668523699045,0.04990937251388647,0.9382046826989778,0.20353456975981396,right,-0.0011653304100036621,-0.6460206079934517,2.2294633717678485,-7.506381007516383,-0.3263544706426726,-0.02548244781792164,0.0007885843515396118,5.903737721329927,0.0014723539352416992
1746576261600007000,10.0190068359375,0.28949176592994497,0.001170676201581955,0.10399123335204886,0.008490744046866894,0.04995657789264235,0.9379829549498429,0.2041069895168335,right,0.0010347962379455566,-0.647137227409591,2.2334426506623624,-7.498314605438709,-0.32692225969656374,-0.03429576754570007,-0.0009802281856536865,5.91247807714641,0.0015595555305480957
1746576261640006700,10.059006591796875,0.2905088449863435,0.006182114128023386,0.10426446124405042,0.018804378807544708,0.050025071656011166,0.9377300286125984,0.204826286483366,right,0.0016769766807556152,-0.6483532560770884,2.239006714530289,-7.489145210555195,-0.3275496652315879,-0.033890724182128906,-0.0002677440643310547,5.9219876637697215,0.002140522003173828
1746576261680006700,10.099006591796876,0.2915526531208137,0.0031717894598841667,0.10454404142002093,0.015602706000208855,0.05008080499683092,0.9374632491158238,0.2055439754805394,right,-0.0000928044319152832,-0.6496500984917088,2.2446134484961626,-7.479442147186398,-0.3282150622210259,-0.03552389517426491,-0.0010600090026855469,5.932119766205549,0.0028212666511535645
1746576261720006700,10.139006591796875,0.29235415644197427,0.0043878136202692986,0.10474425211092926,0.012128920294344425,0.05010730409523456,0.937229114602295,0.2060964114767707,right,0.0014423131942749023,-0.6508384914805049,2.248574168820679,-7.470884746721387,-0.3288153328677496,-0.022901203483343124,-0.00012923777103424072,5.941395544072985,0.00048094987869262695
1746576261760007000,10.1790068359375,0.2927244877700275,-0.00515311025083065,0.10482353585274569,0.002312527969479561,0.05014874066275624,0.9371150649876537,0.2064192732117924,right,0.00011134147644042969,-0.6514144709662205,2.2503528689309955,-7.466773804271221,-0.32910866394589844,-0.014985163696110249,0.0006067454814910889,5.945888179317117,0.0036649703979492188
1746576261800007000,10.2190068359375,0.2930952586965406,-0.014694033190608025,0.10490282493180945,-0.007503865286707878,0.05019017787165068,0.9370008940880421,0.2067425737210443,right,-0.00121992826461792,-0.651990348130771,2.252131422910839,-7.462659354689717,-0.3294019657035419,-0.007069122977554798,0.0013427585363388062,5.950378476473689,0.006849169731140137
1746576261840007000,10.2590068359375,0.2927112361631871,-0.01396995410323143,0.10476756588415649,-0.004502584226429462,0.049997373631058745,0.9369653494422733,0.2062772400414097,right,-0.003953516483306885,-0.652437728390468,2.2484970119312404,-7.4609741780817505,-0.3295753937780138,-0.0012865783646702766,0.0015403926372528076,5.95386514954567,0.006081521511077881
1746576261880007000,10.2990068359375,0.29210035562588127,-0.007463287096470594,0.10456135122731319,-0.012232786975800991,0.04985325792605344,0.9370009129788099,0.2057657201450464,right,-0.0007925033569335938,-0.6524981617276714,2.2438351576000453,-7.46200118304193,-0.3295614234670151,0.008893007412552834,0.0011186003684997559,5.954336274188757,0.003725409507751465
1746576261920006700,10.339006591796876,0.2914831511819121,-0.00596631458029151,0.10437813888165233,-0.009275771677494049,0.049805852801800624,0.9371233191548112,0.20535166514756278,right,-0.00016754865646362305,-0.6519680241233587,2.2401360108211636,-7.466407309046387,-0.32927855741744944,0.010533629916608334,0.0007718652486801147,5.950204288950562,0.0019441843032836914
1746576261960006700,10.379006591796875,0.290866479933686,-0.004469342064112425,0.10419492255023709,-0.00631875591352582,0.049758433658665335,0.9372456067144673,0.2049381689646525,right,0.0004569888114929199,-0.6514376446105322,2.2364359872594473,-7.470809927919507,-0.3289956300582452,0.012174253351986408,0.0004252195358276367,5.94606879658103,0.0001633167266845703
1746576262000006700,10.419006591796874,0.290450587665166,-0.0013334087561815977,0.10406580111547394,-0.0018851733766496181,0.0496829060902647,0.9372984318526976,0.20460369676983198,right,0.0001830458641052246,-0.6512858589822782,2.2335873198300598,-7.472603825598955,-0.3288974559941948,0.0036321356892585754,0.0005209892988204956,5.9448851397544145,-0.0008352994918823242
1746576262040007000,10.4590068359375,0.29036515355035586,-0.00013439089525491,0.10400617485616803,-0.0029085008427500725,0.049732063983276086,0.9372897864982411,0.2046916284134104,right,-0.00048238039016723633,-0.6513581757223077,2.2328256878077983,-7.472382876324653,-0.328933463952918,-0.0005817417986690998,-0.0002910345792770386,5.945449203377962,-0.0001634359359741211
1746576262080007000,10.4990068359375,0.2902797603548138,0.0010646270820870996,0.1039465685943678,-0.003931828308850527,0.04978122187628688,0.9372811411437834,0.2047795612946074,right,-0.0011477470397949219,-0.65143044429712,2.2320646403074265,-7.472161342528462,-0.3289694452597594,-0.004795619286596775,-0.001103132963180542,5.94601268247962,0.0005083680152893066
1746576262120007000,10.5390068359375,0.2902726947110221,0.0013020242331549525,0.10388325504214047,-0.00236892094835639,0.049893615125924905,0.9372432944136218,0.20505441595217933,right,-0.002372920513153076,-0.6516388024455712,2.2316570824198423,-7.47098996066153,-0.3290802092309433,-0.011390551924705505,-0.001108318567276001,5.947637653332948,0.0018236637115478516
1746576262160006700,10.579006591796874,0.2902818293402163,0.0035027051344513893,0.10381862600121948,-0.004887722432613373,0.04999704967758581,0.937187933870081,0.20533567219958965,right,-0.00273740291595459,-0.6519572108469415,2.2311833274282513,-7.469155146449804,-0.3292427149089114,-0.005974901840090752,-0.0011098533868789673,5.9501201177984475,0.002214968204498291
1746576262200006700,10.619006591796875,0.2902608904838101,0.01286708377301693,0.10373965324451073,-0.004405322019010782,0.0501975349276603,0.937178641536665,0.20575604275244316,right,-0.0009055733680725098,-0.6519565775784643,2.2310281368665397,-7.469205415332317,-0.32926369021263036,-0.000247021671384573,-0.0011194795370101929,5.95011485710144,0.002429366111755371
1746576262240006700,10.659006591796874,0.29044601603392384,0.024705663323402405,0.10373390658658364,0.008523331955075264,0.050495604051983244,0.9371866034891067,0.20641623608239315,right,0.0005596280097961426,-0.6517294418465085,2.2327977768875655,-7.470086874341964,-0.3291972435840846,0.00042932614451274276,-0.0015215873718261719,5.948344340297579,0.0034270286560058594
1746576262280007000,10.6990068359375,0.2902843093616852,0.003583241254091263,0.10367125942505016,0.00046822335571050644,0.05061349792036089,0.9372593513959178,0.20653038411093,right,0.003351271152496338,-0.6512820581075418,2.232351202163845,-7.472997208830714,-0.3289915768824184,0.005487313028424978,0.0006580054759979248,5.9448559136599295,0.005405247211456299
1746576262320007000,10.7390068359375,0.2902290457661609,0.0001405926886945963,0.1036524508265115,-0.0007959824288263917,0.05062069834978313,0.9372721567893754,0.20651488363531315,right,0.002368330955505371,-0.6512184149880214,2.232046520128846,-7.4734829465210435,-0.32895986034787117,0.002028530463576317,0.00022324919700622559,5.944359070053697,0.003286123275756836
1746576262360007000,10.7790068359375,0.2902392436905315,-0.0028483702335506678,0.1036824472593423,0.0009498335421085358,0.05050142815807725,0.9372533369352334,0.2062926224956385,right,0.0016612410545349121,-0.65137750952631,2.2318520204700527,-7.472553556716441,-0.32902239087508833,0.0005079490365460515,0.000013649463653564453,5.945600010025501,0.00220334529876709
1746576262400006700,10.819006591796875,0.2902494806467463,-0.0058373333886265755,0.10371247301268101,0.0026956493966281414,0.050382150636245175,0.9372345184154035,0.20607035620700256,right,0.0009540319442749023,-0.6515366473239836,2.2316578130722045,-7.47162416691184,-0.32908492673955747,-0.0010126323904842138,-0.00019595026969909668,5.946840949997306,0.0011206865310668945
1746576262440006700,10.859006591796875,0.29013525318874867,-0.007621153257787228,0.10370872197656862,0.002179637085646391,0.05020341130693328,0.9372209500721393,0.20568381455379434,right,-0.00013500452041625977,-0.6517309476547857,2.230473717854172,-7.470771933996677,-0.32915212843468256,0.00349618517793715,-0.002370297908782959,5.948356030735373,-0.0012541413307189941
1746576262480006700,10.899006591796875,0.2901713194424495,-0.001399921253323555,0.10376527503293868,0.0027966408524662256,0.050084375083878016,0.9372250490031955,0.20544258069521987,right,-0.000017642974853515625,-0.651731620922783,2.230742013401538,-7.4706877628445625,-0.3291408246328854,-0.0014144678134471178,-0.001957535743713379,5.948361291432381,-0.0009300112724304199
1746576262520007000,10.9390068359375,0.2904056350221021,0.003398672677576542,0.10382349336155004,0.001777005847543478,0.05013235704224115,0.9371756628456291,0.20566514006044495,right,-0.0009546875953674316,-0.6519418196315694,2.2321343445427715,-7.468966930401325,-0.32925574803097374,-0.008305330760776997,-0.0018308460712432861,5.950000290811062,-0.0008834004402160645
1746576262560007000,10.9790068359375,0.2903034060497553,0.006165585480630398,0.1037278424290151,-0.005348986014723778,0.05023068785521958,0.937147221924977,0.20587321254184549,right,-0.0038241147994995117,-0.6521313215607916,2.231048010610789,-7.468114697486162,-0.32935187118133097,-0.004266911186277866,-0.0002565234899520874,5.9514773776263,0.0023469924926757812
1746576262600007000,11.0190068359375,0.2902667418543533,0.006750229746103287,0.10363677704283833,-0.0027790269814431667,0.050422234152726446,0.9371256830014887,0.20628463857301413,right,0.0020794272422790527,-0.6522173815991729,2.2306274471111593,-7.467704947641492,-0.3294122362393168,-0.0021428705658763647,0.0004091709852218628,5.95214782423377,0.004813671112060547
1746576262640006700,11.059006591796875,0.2900885866511816,-0.0024423282593488693,0.10361893263981378,0.0006023980677127838,0.05030454983352503,0.937164250539098,0.20594594798428492,right,0.002882719039916992,-0.6520790455159676,2.229532491481304,-7.4688909425556655,-0.32932604835499163,0.0002907705493271351,-0.0006021708250045776,5.951069965869188,0.003786802291870117
1746576262680006700,11.099006591796876,0.2899104852451692,-0.0116348871961236,0.10360108425103873,0.003983823582530022,0.05018687284444821,0.9372028167423935,0.20560731356435577,right,0.0036859512329101562,-0.6519405496661571,2.2284378281123933,-7.47007752199173,-0.32923979916102486,0.0027244118973612785,-0.001613512635231018,5.9499903539389365,0.0027602314949035645
1746576262720006700,11.139006591796875,0.289867271320653,-0.008568501099944115,0.10365545922354612,0.006493504159152508,0.04992592041429808,0.9371893706523512,0.20507018415413353,right,0.001674354076385498,-0.6521348113741198,2.2277847710311414,-7.469066883644461,-0.3293009512768739,0.0013600582024082541,-0.0017713159322738647,5.951504265633225,-0.0013393163681030273
1746576262760007000,11.1790068359375,0.2901864954004388,0.002286382019519806,0.10381141768441543,0.0036039133556187153,0.04983654903288329,0.9371645630153633,0.2050033761095266,right,0.0005589723587036133,-0.6522000319903328,2.2300576843991875,-7.467982595539093,-0.3293357322341318,0.001239917939528823,-0.004301145672798157,5.952012799677252,-0.0020756125450134277
1746576262800007000,11.2190068359375,0.2904331309101225,0.00412663072347641,0.10394016701891737,0.010060273110866547,0.04978323395050087,0.9371658468356296,0.20496067322672776,right,-0.0013573169708251953,-0.6521134317588749,2.2320471046507357,-7.467926481437683,-0.3292994933036022,0.0009520782041363418,-0.002480641007423401,5.951337676894664,0.00037217140197753906
1746576262840007000,11.2590068359375,0.29066834929449287,-0.0010002776980400085,0.10405782936859545,0.007632296532392502,0.04970482981321911,0.9371457070695974,0.204887633187811,right,-0.0018369555473327637,-0.6521779735817991,2.2336935566835106,-7.467033331990241,-0.3293314834709136,-0.0033561147283762693,-0.000521436333656311,5.951840950241684,-0.00041031837463378906
1746576262880007000,11.2990068359375,0.2909644545283967,0.0012109780218452215,0.1041869481959484,0.01068243570625782,0.04963081330685414,0.9371032006752282,0.20486685391086426,right,-0.0005601048469543457,-0.6523616685912118,2.235590914737433,-7.465324189984798,-0.3294229322288214,-0.006226740777492523,0.001109287142753601,5.953272444349527,0.00044143199920654297
1746576262920006700,11.339006591796876,0.29145945912863913,0.0020016715861856937,0.10438993102113928,0.009132967330515385,0.049607747231253475,0.9370613554955759,0.20500668139420875,right,0.0007541775703430176,-0.6524449047505848,2.2391434926524756,-7.463741889229416,-0.329481116200025,-0.0029520178213715553,0.0005534440279006958,5.9539212636470795,0.0013509392738342285
1746576262960006700,11.379006591796875,0.2919331419335947,0.0033014421351253986,0.10457953980311474,0.006713175214827061,0.04961681368363214,0.9370294130565404,0.20519562612226536,right,0.0010802745819091797,-0.6524616822722559,2.2426500394687054,-7.462585120409726,-0.32951051158691974,-0.004127627704292536,0.0006248056888580322,5.954051612028479,0.0027899742126464844
1746576263000006700,11.419006591796874,0.2923629807609817,0.005706561729311943,0.1047245722420337,0.004882718436419964,0.04966514052513697,0.9369785100973159,0.20547581819278876,right,0.0016873478889465332,-0.6526045518425488,2.245612396405637,-7.460805835777521,-0.3296020702482362,-0.0024207793176174164,0.0008422434329986572,5.955165126228332,0.0027887821197509766
1746576263040007000,11.4590068359375,0.2926112271677349,0.002503254683688283,0.10480956723781162,0.004615212790668011,0.04970998660948836,0.9369591992253103,0.20566091087855687,right,0.0017949938774108887,-0.6526157806671663,2.2474451647907494,-7.460183904486894,-0.32962314603172593,0.0039488510228693485,0.0017719268798828125,5.955252219989895,0.004243791103363037
1746576263080007000,11.4990068359375,0.2928430392527545,-0.0002960634883493185,0.10490437885298559,0.0021872296929359436,0.04968867330383931,0.9369341802928626,0.20571101803318229,right,-0.00005942583084106445,-0.6526932221753677,2.249041347941011,-7.45922178145647,-0.3296674252329099,0.0007559973746538162,0.0011856108903884888,5.955856031101941,0.003113090991973877
1746576263120007000,11.5390068359375,0.2929504084500074,-0.001039685565046966,0.10494949617205127,0.000256106024608016,0.04967385004644129,0.9369219748985791,0.20572463143519895,right,-0.0015552043914794922,-0.6527343895242235,2.2497714157812294,-7.458744811594486,-0.32968990555833644,0.0018881743308156729,-0.00024586915969848633,5.95617634909749,0.0021712779998779297
1746576263160006700,11.579006591796874,0.29281987555949224,0.004830455407500267,0.10491574209506806,-0.003682113951072097,0.049682708642071326,0.9369646493388996,0.20565649989297943,right,-0.0018981695175170898,-0.6525078415524357,2.2491871861524877,-7.460330619481206,-0.3295780419849081,0.008378848433494568,-0.0027955174446105957,5.954411677512526,-0.00012308359146118164
1746576263200006700,11.619006591796875,0.2927166063856259,0.0024280687794089317,0.10487124014907609,-0.0019133557798340917,0.049758711842597725,0.9370046736454868,0.20573828463520696,right,0.0003809332847595215,-0.6522646226762033,2.248834719453007,-7.461949160593748,-0.3294669785371577,0.0028259200043976307,-0.001214742660522461,5.952516073024273,0.0009080171585083008
1746576263240006700,11.659006591796874,0.2923542346884965,-0.016019240021705627,0.10475746106919755,-0.0004047503462061286,0.049622996143229944,0.9370145350558392,0.20534397665919854,right,-0.00040286779403686523,-0.6523903563732876,2.2459147403530775,-7.462046775749325,-0.3294956129386703,-0.004099622834473848,-0.0005493760108947754,5.953495731711388,0.0006857514381408691
1746576263280007000,11.6990068359375,0.2921766452168001,-0.005719934590160847,0.10471602359579114,0.00092453439719975,0.04942304819060425,0.9369762316506413,0.2049243820841269,right,-0.00114363431930542,-0.6527749884816327,2.2439298501461744,-7.460252293547987,-0.3296476182800194,-0.010782800614833832,-0.0005535781383514404,5.95649257543981,0.0010439157485961914
1746576263320007000,11.7390068359375,0.29234323967417136,0.00730584841221571,0.10472576522348417,-0.0019714797381311655,0.04950616931156105,0.9369165716832578,0.20521310163500728,right,0.0011153221130371094,-0.6530658274249098,2.2446732158593834,-7.458219326415658,-0.32980170001259773,-0.0019655348733067513,-0.00036676228046417236,5.958758182284235,0.0008241534233093262
1746576263360007000,11.7790068359375,0.292521311726758,0.00529003469273448,0.10475162636967608,-0.004899068735539913,0.04967458168323879,0.9369151774743293,0.2056136977985652,right,0.0006249547004699707,-0.6529466589032512,2.246205978384614,-7.458498727878927,-0.32977187460397084,0.001414311584085226,-0.0002377033233642578,5.957829961523413,0.00396198034286499
1746576263400006700,11.819006591796875,0.2924816209849498,0.001550833461806178,0.10471374473016487,-0.0019798162393271923,0.049741004132971,0.9369168390998647,0.2057383136601033,right,0.0010556578636169434,-0.6529290008393717,2.245940313185751,-7.458688697493076,-0.32976921984322016,-0.0008602023590356112,-0.0002378523349761963,5.957692598879337,0.003268420696258545
1746576263440006700,11.859006591796875,0.2926469855655032,0.005211944691836834,0.10475017142192138,0.0023658513091504574,0.04980333211179962,0.9368888934075987,0.20594658034085955,right,0.0011913776397705078,-0.6530227788886083,2.247012472461909,-7.457782104042172,-0.32982771063997446,-0.001470273593440652,-0.0008725225925445557,5.958423251241445,0.00278550386428833
1746576263480006700,11.899006591796875,0.2926755699229096,0.000640141312032938,0.10473028191853706,-0.0014926560688763857,0.04987903175371384,0.9368755377894299,0.2061271336554267,right,0.0027625560760498047,-0.6530717901568655,2.2471415056690573,-7.457438405171036,-0.3298605920507168,0.002050006063655019,0.00017188489437103271,5.9588049440354105,0.0016580820083618164
1746576263520007000,11.9390068359375,0.2928472423147467,0.00011241249740123749,0.10478499728284482,0.0007989646401256323,0.049923124071698015,0.9368623619542112,0.20628207874329108,right,-0.0007483959197998047,-0.6530738400069855,2.248418101476133,-7.457040930286049,-0.3298739446716958,-0.0014798801857978106,-0.000543549656867981,5.958820726126432,0.001748502254486084
1746576263560007000,11.9790068359375,0.2927755385717977,0.0001228859619004652,0.10473457619182369,-0.0020319584291428328,0.049926269383037354,0.9368360411662525,0.2062991516374712,right,-0.002216160297393799,-0.6532698884371176,2.247546140947193,-7.4560828989088535,-0.329963972932545,-0.005509285256266594,-0.0011827200651168823,5.960347497302293,0.0010183453559875488
1746576263600007000,12.0190068359375,0.2928294927077501,0.003917396068572998,0.10471179460037783,0.0002791709266602993,0.0499885425229114,0.9367942316987071,0.20649222124764294,right,-0.0011406540870666504,-0.653496273153263,2.247558708167821,-7.454669524979591,-0.33008038834613157,-0.0049453978426754475,-0.001173451542854309,5.962110415321588,0.00043386220932006836
1746576263640006700,12.059006591796875,0.29298959767777066,0.005921694450080395,0.10473530750937199,0.0024575500283390284,0.05008657449669031,0.9367676021102957,0.20677155905822542,right,0.00009310245513916016,-0.6535712794240299,2.24862312252894,-7.453881589472293,-0.33013377185129017,-0.003916426561772823,-0.0009399354457855225,5.962694352689385,0.0014967918395996094
1746576263680006700,12.099006591796876,0.29325649120630615,0.006569492164999247,0.10479725910055655,0.0018523670732975006,0.0502062322696566,0.9367366724423186,0.2071306713671225,right,0.000494837760925293,-0.6536239031177565,2.250521795757115,-7.4529808412402865,-0.3301836713502791,-0.0015471077058464289,-0.0004722326993942261,5.963104102534055,0.0009034276008605957
1746576263720006700,12.139006591796875,0.2933902338904722,0.006053571589291096,0.10480968752974157,-0.003998436965048313,0.0503098054986818,0.9367139414847436,0.20740952584598257,right,0.00008302927017211914,-0.6536819932518351,2.2514184523358938,-7.452348388555645,-0.33022855463251527,-0.0014046187279745936,0.00010037422180175781,5.963556522476673,0.0014409422874450684
1746576263760007000,12.1790068359375,0.2935870949717904,0.00559855904430151,0.10483026373314364,0.00028674816712737083,0.05044063750023725,0.9366734653295339,0.20778335184778013,right,0.000843346118927002,-0.6538195860466491,2.2526479941308497,-7.451119723543524,-0.3303168755607466,-0.00249604694545269,0.0000947415828704834,5.964627366578578,0.0037267208099365234
1746576263800007000,12.2190068359375,0.29378439979638543,0.003665468655526638,0.10485615698679913,-0.001617622678168118,0.05058706311010936,0.9366483864643044,0.20817161375546228,right,-0.00038129091262817383,-0.6538526478065858,2.254061075799167,-7.450486686336994,-0.3303575153177451,0.00007929629646241665,-0.0003364384174346924,5.96488455621004,0.003573179244995117
1746576263840007000,12.2590068359375,0.29357032730726323,0.003932163119316101,0.10476502935780833,-0.002100597834214568,0.050633342187051365,0.9366786754687066,0.20817177161508055,right,0.0012563467025756836,-0.6537255841481366,2.252685257401317,-7.451693724039196,-0.3302932475351502,0.0014841998927295208,0.00014825165271759033,5.963895545172691,0.0013689994812011719
1746576263880007000,12.2990068359375,0.2933563698297867,0.004198858048766851,0.10467391105182368,-0.00258357310667634,0.05067963528287489,0.9367090830894532,0.20817204652164234,right,0.0028939247131347656,-0.6535987135764904,2.251309731264412,-7.45290017721951,-0.3302290117416862,0.0028891032561659813,0.0006329119205474854,5.962907703179121,-0.0008353590965270996
1746576263920006700,12.339006591796876,0.2931817982419473,-0.00537521718069911,0.10459513315318918,-0.007392066530883312,0.050747184281138474,0.9367414375432592,0.20822504685520132,right,0.0013280510902404785,-0.6534357279732201,2.2502894483059643,-7.45422353477776,-0.33015181567698487,0.0036676034796983004,-0.0019366443157196045,5.961638706156611,-0.0006141066551208496
1746576263960006700,12.379006591796875,0.29274944112551693,-0.009735440835356712,0.10445322294392434,0.0030030617490410805,0.05058782736424321,0.9367448184266736,0.20776942926187478,right,0.0003191828727722168,-0.6536390898444923,2.2467162659943103,-7.454034149685501,-0.3302113465851133,-0.005962945520877838,-0.0003149062395095825,5.963222175955772,0.0010104775428771973
1746576264000006700,12.419006591796874,0.2926070414076826,-0.0017374977469444275,0.1043888339204335,-0.000467096921056509,0.05047888861938282,0.9366916448487621,0.20756585772432593,right,0.00011348724365234375,-0.6540749826947344,2.2449048326581713,-7.451864404430985,-0.33039915953454013,-0.007209801580756903,-0.0013664811849594116,5.966615325525403,-0.000280916690826416
1746576264040007000,12.4590068359375,0.2926279001020433,0.0004009546246379614,0.10437529035496369,0.0019561268854886293,0.0504885798260774,0.9366613456322921,0.20762723625902396,right,0.0020072460174560547,-0.6542583499562881,2.2447446736603975,-7.4507701794534915,-0.33048787326669804,0.00010020798072218895,-0.00039742887020111084,5.968042143458128,0.000020205974578857422
1746576264080007000,12.4990068359375,0.29270394726549,0.0010086081456393003,0.10440997926973435,0.002644699765369296,0.05051009484867713,0.93667245408046,0.20768020773538184,right,0.0014033317565917969,-0.654149432439865,2.2454988530285656,-7.45122143035233,-0.33044208540143993,0.002177388872951269,-0.0006855428218841553,5.967194586718082,0.0030474066734313965
1746576264120007000,12.5390068359375,0.29293446945275575,-0.0011535885278135538,0.10450850946259554,0.009393678978085518,0.05050109789734938,0.9366600968752166,0.20774084054205713,right,0.00022089481353759766,-0.6541412740592726,2.247230499126762,-7.450750305709242,-0.3304472983235852,-0.0017225313931703568,0.000515863299369812,5.967131458353996,0.004425466060638428
1746576264160006700,12.579006591796874,0.29338092012187755,-0.003390170866623521,0.10469281573352378,0.004080924671143293,0.0504124759300727,0.9365918957689635,0.2077627035495178,right,-0.0019873976707458496,-0.6544354799216553,2.2500489175483582,-7.448066181191802,-0.33059601824142043,-0.0042399391531944275,-0.0019290745258331299,5.969420446074008,0.0023902058601379395
1746576264200006700,12.619006591796875,0.2936352702463971,-0.00023473030887544155,0.10478485986994487,0.005821223836392164,0.05035392910675964,0.9365293675229502,0.20778619580384786,right,-0.0006097555160522461,-0.6547576298579492,2.2513865958929062,-7.445652690309286,-0.33075293450198506,-0.0078627560287714,-0.0009485483169555664,5.971926875936985,0.0015794634819030762
1746576264240006700,12.659006591796874,0.29393041784172647,0.0018175472505390644,0.1048865227628226,0.0035527634900063276,0.050343293139085026,0.9364765961511095,0.20790891901654973,right,-0.0026813745498657227,-0.6549832840097302,2.2531934991843996,-7.443696880066394,-0.3308714041191262,-0.003036930225789547,0.00018221139907836914,5.973681610649824,0.0010578036308288574
1746576264280007000,12.6990068359375,0.2940543301218016,-0.0005019071977585554,0.10493300327691359,0.0012870936188846827,0.0503315784053278,0.9364567971518041,0.20794274321169257,right,-0.0023723840713500977,-0.6550657867912899,2.253972959124297,-7.4429463539600365,-0.3309145191418393,-0.0025363287422806025,-0.00030928850173950195,5.9743234156847,0.0027691125869750977
1746576264320007000,12.7390068359375,0.2942207066973458,0.003652213839814067,0.10497602034543037,0.003612132975831628,0.0503520929115234,0.9364182270062549,0.20807732732829115,right,-0.00014984607696533203,-0.6552408075249869,2.2549079018868503,-7.441570389431715,-0.3310068644306606,-0.003628453705459833,0.000112190842628479,5.9756841826438905,0.0003534555435180664
1746576264360007000,12.7790068359375,0.2944946240577634,0.0019717197865247726,0.10505390366921435,0.001972537487745285,0.05042116593610969,0.9363825710032266,0.20833940355128844,right,0.00042933225631713867,-0.6553376753695591,2.2567782258033753,-7.440397838521004,-0.3310724169614462,-0.0014301291666924953,-0.00017251074314117432,5.976437631359696,0.000577092170715332
1746576264400006700,12.819006591796875,0.29476892373743296,0.0005521973362192512,0.10512063634979282,0.00008586561307311058,0.05047631959916628,0.9363230340908335,0.2086008459212818,right,0.0006038546562194824,-0.6555924839591969,2.2583764547802505,-7.438321032246947,-0.3312111246068959,-0.006333315744996071,-0.00089302659034729,5.978418576043844,0.00035512447357177734
1746576264440006700,12.859006591796875,0.29516551639395217,0.003049955703318119,0.10522378399982306,0.0028872631955891848,0.050568381047677684,0.9362532043408427,0.20898546097494836,right,0.0005637407302856445,-0.6558524894639767,2.2608741168148816,-7.435937936502695,-0.3313617923193151,-0.007580878213047981,-0.0007351934909820557,5.98043985273838,0.0017039179801940918
1746576264480006700,12.899006591796875,0.29556233594708214,0.005547713954001665,0.10532692631259938,0.005688660778105259,0.05066043915181345,0.9361833146155243,0.2093703056098666,right,0.0005235075950622559,-0.6561124666201745,2.2633717788495122,-7.433552502670883,-0.33151248935224337,-0.008828440681099892,-0.0005774050951004028,5.982459960389137,0.003052651882171631
1746576264520007000,12.9390068359375,0.2959826120455587,0.0014424431137740612,0.10545725595816072,0.003981836140155792,0.05073225121621864,0.9361289242035008,0.20970161125749295,right,-0.0005859732627868652,-0.6562704748022214,2.2662200078874823,-7.431696645671129,-0.33161376109392326,-0.002008892595767975,-0.0006945878267288208,5.983687456357479,0.005478799343109131
1746576264560007000,12.9790068359375,0.29601264537729793,-0.00034744187723845243,0.10545823812173874,-0.0034599811770021915,0.050741437881191974,0.9361144081121253,0.20974624545243217,right,-0.0007799267768859863,-0.656348590737469,2.266306809388101,-7.431181681886315,-0.3316530469214514,0.001459385035559535,-0.001202598214149475,5.984294774600863,0.003779172897338867
1746576264600007000,13.0190068359375,0.2960394205945215,0.0009193572914227843,0.10546909498354781,-0.0012564861681312323,0.05077203497681359,0.936127316633307,0.20980195325297019,right,-0.000870823860168457,-0.6562445039153613,2.2666874792687595,-7.431716519415378,-0.3316084643209837,0.002092368435114622,-0.0023910999298095703,5.983485796305537,0.0039220452308654785
1746576264640006700,13.059006591796875,0.296102654897948,-0.0048203240148723125,0.10551047531785153,0.002016365760937333,0.05074251321120973,0.936132629934233,0.2097522922568282,right,0.0016448497772216797,-0.6561956527725106,2.2672427750639614,-7.431852713015675,-0.3315848263156754,0.004057290498167276,-0.0014884620904922485,5.98310644159913,0.00301361083984375
1746576264680006700,13.099006591796876,0.2955850175259425,-0.02142384648323059,0.10538157358727628,0.003286832245066762,0.05041622172237792,0.9361328345476239,0.208929997490339,right,0.0004380941390991211,-0.6565122223406509,2.262843517191708,-7.431213246068358,-0.331674987667649,-0.0050479271449148655,0.0008669495582580566,5.985565525189042,0.0014157891273498535
1746576264720006700,13.139006591796875,0.2953560294027554,-0.009147964417934418,0.10534660950267935,0.0035904296673834324,0.05007601307187164,0.9360713533650922,0.2082323699090089,right,-0.0008704662322998047,-0.6571138085820054,2.2600933417007325,-7.428284791401028,-0.3319110807282653,-0.007275733165442944,0.00024731457233428955,5.990237608653307,0.00034612417221069336
1746576264760007000,13.1790068359375,0.29532849672277767,-0.002627425827085972,0.10534440635766112,0.002719719661399722,0.05000095275434239,0.9360503625875576,0.20809358757711469,right,0.0006906986236572266,-0.6572847751358238,2.2595906528756022,-7.4273670920342205,-0.3319822598155677,0.0018204161897301674,0.00030243396759033203,5.9915650578647845,0.0013404488563537598
1746576264800007000,13.2190068359375,0.2952810970614482,-0.0036679438780993223,0.10535979264694664,-0.00029880995862185955,0.04993811510304385,0.9360756747693256,0.20792018941624307,right,0.0010567307472229004,-0.6571630103669301,2.259450952143967,-7.4281719786763185,-0.3319155403380712,0.0009275077609345317,0.0011987239122390747,5.990619885969162,0.003098607063293457
1746576264840007000,13.2590068359375,0.29513509872590277,-0.001970310229808092,0.10532047146285953,-0.0010419320315122604,0.04986070854898827,0.936078072457859,0.20771559380701832,right,-0.00022608041763305664,-0.6572315286653652,2.258246983181685,-7.428109434834123,-0.33193285863248617,0.0006685457192361355,0.00013452768325805664,5.991151800888776,0.0012938976287841797
1746576264880007000,13.2990068359375,0.2952085193092267,0.0034289536997675896,0.10534252689580106,-0.00008920917753130198,0.04987084006749039,0.9360662924097088,0.20777113290426605,right,-0.00005155801773071289,-0.6572743811510695,2.2587176694333553,-7.427697346901893,-0.331957472010155,0.00016771280206739902,-0.0006058216094970703,5.991484393844008,0.00007462501525878906
1746576264920006700,13.339006591796876,0.29516228258563215,0.004038296639919281,0.10531344693712452,-0.0014551570639014244,0.049948295595409066,0.9360913304089613,0.20788931084250567,right,0.00045925378799438477,-0.6571056754810234,2.2586681312032044,-7.428768775525689,-0.33188441521580925,0.00382298044860363,-0.0003737211227416992,5.9901744802892205,0.0005005002021789551
1746576264960006700,13.379006591796875,0.2952116932079418,0.0011925781145691872,0.10531014642979965,-0.0021237917244434357,0.050010886175699175,0.9360829661667704,0.20804292509936878,right,-0.0014258623123168945,-0.657118613522139,2.2590127068571744,-7.428583482086658,-0.3318997177469607,-0.0027992897666990757,-0.0013489872217178345,5.990275018054247,0.0011411309242248535
1746576265000006700,13.419006591796874,0.29520984409717377,0.0013712062500417233,0.10527495122054809,-0.0019230429315939546,0.050021844119805994,0.9360360786568144,0.20812024068936902,right,-0.0019507408142089844,-0.6574162508240243,2.25848020741567,-7.4268819388657805,-0.33204156043288396,-0.006341342814266682,-0.0016205161809921265,5.992585633084178,0.0013193488121032715
