time,seconds_elapsed,roll,rotationRateZ,quaternionY,rotationRateY,quaternionZ,quaternionW,yaw,devicelocation,accelerationZ,pitch,gravityX,gravityZ,quaternionX,rotationRateX,accelerationX,gravityY,accelerationY
1746739309249775600,0.462775634765625,0.27794455188294,-0.0006066819187253714,0.13833546086137866,0.0031375112012028694,1.3406618269582843e-17,0.9899180456620857,0.00843219592290362,right,0.10538482666015625,-0.060266368845969205,2.685860547453165,-9.413164476910232,-0.030421656691080576,0.0014341056812554598,-0.02724333107471466,0.5906535243093967,0.3969513475894928
1746739309289775600,0.502775634765625,0.27795261589924064,0.01106588076800108,0.12623871333626213,-0.0024154498241841793,0.012693187399082635,0.968416600888273,0.08658653053251744,right,0.018931925296783447,-0.4252228005614488,2.451195320879668,-8.590468037354945,-0.21464341604563442,0.0016042612260207534,-0.003607228398323059,4.045476290781796,0.04558694362640381
1746739309329775600,0.542775634765625,0.28012516220034517,0.012011445127427578,0.12519081827619144,-0.001768016256392002,0.013938985387139852,0.9647959601774589,0.09456783004656232,right,0.006810247898101807,-0.4578242193613817,2.4320829163916406,-8.453836045640706,-0.2308713595204831,-0.0002825522096827626,-0.0012593865394592285,4.334514474186301,0.015647917985916138
1746739309369775600,0.582775634765625,0.2809320585863831,0.005801607854664326,0.12464782049089554,-0.0017188171623274684,0.014631606797762133,0.9632863122121139,0.09817707618774349,right,0.0014047622680664062,-0.47079713184641087,2.4231084595583376,-8.39713391520977,-0.23733568560653562,-0.006192516535520554,0.0004505366086959839,4.448265648789704,0.00351598858833313
1746739309409775600,0.622775634765625,0.28138571906371856,0.00817019585520029,0.12467298998094882,-0.00114620930980891,0.014838882730744801,0.9630036398275371,0.09905778353851602,right,-0.0002263188362121582,-0.47300611276439025,2.4241831030525267,-8.386573942750692,-0.23845413797803913,-0.00213865889236331,-0.000017315149307250977,4.467560716368258,0.0003472566604614258
1746739309449775600,0.662775634765625,0.28185067660281593,0.006289945915341377,0.1247291615874381,-0.001738799037411809,0.015096189230443941,0.9627951909366895,0.09994308890390077,right,0.0004366636276245117,-0.4745404421062868,2.426172961695492,-8.378851824066043,-0.23924900736853855,-0.009178124368190765,-0.0015032589435577393,4.480950067034364,0.0000018775463104248047
1746739309489775600,0.702775634765625,0.2817437255371108,0.0004879143089056015,0.12465314016837373,0.0018426869064569473,0.015167647222727796,0.9627816296171904,0.10009092521744918,right,-0.0007646083831787109,-0.4747094556036,2.4250661694973705,-8.378383622032404,-0.2393385085442545,-0.001875437330454588,0.00021147727966308594,4.482424231240153,0.0012458264827728271
1746739309529775600,0.742775634765625,0.2815728846873839,0.001735977246426046,0.12456053318417658,0.0014055834617465734,0.015139262556023492,0.9627495345852992,0.10004813261301151,right,-0.0019792914390563965,-0.4750913203405715,2.4231590207017955,-8.377152618932724,-0.2395177294044225,-0.0034796269610524178,-0.00003229081630706787,4.4857545447066425,0.002113908529281616
1746739309569775600,0.782775634765625,0.2813760852458462,-0.0027875094674527645,0.12445875826558284,-0.002307439688593149,0.01514906362264161,0.9627417237597845,0.10004679592264884,right,0.00054168701171875,-0.4752689441553275,2.4212889890462157,-8.376863865119219,-0.2396013679603942,-0.0027997104916721582,0.000013887882232666016,4.487303527714312,0.0022918283939361572
1746739309609775600,0.822775634765625,0.2811184078071411,-0.004806826822459698,0.12433724355635219,-0.0025783551391214132,0.015090653112635894,0.9627209930478066,0.099912613583982,right,-0.00042760372161865234,-0.4756034216073359,2.4187138778612014,-8.376044949951767,-0.23975151995435215,-0.004736762028187513,-0.00020958483219146729,4.490219999682903,0.000991135835647583
1746739309649775600,0.862775634765625,0.2810897838935372,-0.0011755621526390314,0.12432012978442925,-0.00025940663181245327,0.015042919042098346,0.9626923504501197,0.09984819637273985,right,-0.00013446807861328125,-0.4758765245413309,2.41813388601616,-8.374936111927031,-0.23987831282130434,-0.0022632821928709745,0.0002481043338775635,4.492600757339597,-0.0003445744514465332
1746739309689775600,0.902775634765625,0.28115407831584416,0.0020582706201821566,0.12433490468961836,-0.00881178304553032,0.01505117821695348,0.962664458531695,0.0999131140847327,right,-0.00036537647247314453,-0.47608346882703995,2.418414310392737,-8.373886895135044,-0.23998209813389224,-0.0012765051797032356,-0.0014599263668060303,4.494404591891169,-0.0034841299057006836
1746739309729775600,0.942775634765625,0.281148689214483,0.009664051234722137,0.12432127518015032,-0.0015702280215919018,0.01517439163195324,0.962700738899516,0.10011697140831004,right,-0.004731118679046631,-0.47575243462667133,2.4187818285308778,-8.3753289106369,-0.23983592879202756,-0.0017490859609097242,-0.0029394030570983887,4.491519099582732,-0.0007197558879852295
1746739309769775600,0.982775634765625,0.28112783135478414,0.008832674473524094,0.1242712996230805,-0.002241197507828474,0.015328602581291328,0.962695472199062,0.10043771041275182,right,-0.004771530628204346,-0.47578868820073333,2.4185620483003554,-8.375223112174869,-0.23987309778099408,-0.0093688340857625,-0.0008633434772491455,4.491835033664107,-0.0008187294006347656
1746739309809775600,1.022775634765625,0.2811287207853909,0.00539986789226532,0.12424379167770254,0.0008808143902570009,0.015428223301452838,0.9626878622157526,0.10065290653405247,right,-0.0026432275772094727,-0.47584090793155864,2.418504326763749,-8.37499573315978,-0.23991152207757718,-0.008041806519031525,-0.0008761733770370483,4.4922903762161726,-0.0006312429904937744
1746739309849775600,1.062775634765625,0.28112955512659654,0.0019670615438371897,0.12421625171930904,0.004002826288342476,0.015527829368275882,0.9626802549387817,0.10086806605741283,right,-0.0005150437355041504,-0.4758931667742347,2.4184463129661977,-8.374767769622803,-0.2399499556148212,-0.006714778486639261,-0.0008889436721801758,4.492745718768239,-0.0004437267780303955
1746739309889775900,1.10277587890625,0.2813936999314156,0.010731609538197517,0.12429296171965352,-0.0012475789990276098,0.015771434611606017,0.9626943000279937,0.10139291665511481,right,-0.0012210607528686523,-0.4755866166428275,2.4210405672430992,-8.375451075711846,-0.23983760940202112,-0.00017492566257715225,-0.0003163963556289673,4.490073284688592,0.0006622672080993652
1746739309929775600,1.142775634765625,0.2813893890598179,0.0077530574053525925,0.1242447649745588,-0.005379197187721729,0.015979730907886805,0.9627020164671358,0.10180996647693279,right,-0.00141066312789917,-0.4754915614549716,2.421122984829545,-8.375871931472421,-0.23981788853420982,-0.0031035959254950285,-0.00025989115238189697,4.489244724909961,0.0020118355751037598
1746739309969775600,1.182775634765625,0.28135934432112725,0.00593941705301404,0.1241798021183542,0.0018937145359814167,0.01618419535685614,0.9626996515533798,0.10222844369420477,right,0.0011689066886901855,-0.4754993060193708,2.420861703544855,-8.37591109443903,-0.23984734957016038,-0.0038038925267755985,0.00013005733489990234,4.48931223718822,0.0001488029956817627
1746739310009775600,1.222775634765625,0.2815360572822114,0.001931353472173214,0.12420452457207043,-0.000856814906001091,0.016365149432524533,0.962666230976765,0.10267411334883061,right,0.001238107681274414,-0.4756663976067205,2.422133330915868,-8.374762508925794,-0.23995659371399414,0.00008415826596319675,-0.0009938925504684448,4.490768865737318,0.002325773239135742
1746739310049775600,1.262775634765625,0.2816381747398546,0.0051142144948244095,0.12423746561790622,0.00247282930649817,0.01640908553338038,0.962654782679077,0.10279651598236098,right,-0.0009927153587341309,-0.47570325292919136,2.422942601472139,-8.374356266212462,-0.2399826949702381,-0.0011192589299753308,-0.0005111992359161377,4.491090352776646,0.001123189926147461
1746739310089775600,1.302775634765625,0.2816552669152559,-0.000536465086042881,0.12422850747420333,-0.002587255323305726,0.0164413271593576,0.962636462952681,0.1028900657606734,right,-0.001598358154296875,-0.47584801459323683,2.4229048998102543,-8.37368991125822,-0.2400581095285627,-0.0015872041694819927,-0.0028110742568969727,4.49235233553648,-0.0012922286987304688
1746739310129775900,1.34277587890625,0.28142341869659854,-0.0011499675456434488,0.12413811317132299,0.0014638996217399836,0.016377282438677494,0.9626491400093027,0.10270360330506811,right,-0.002326369285583496,-0.4758766928924358,2.420927608387917,-8.374127718153595,-0.2400583860759582,-0.0006201836513355374,0.000010415911674499512,4.492602218644321,0.000766366720199585
1746739310169775600,1.382775634765625,0.2814472909199976,0.00034279783722013235,0.12413647112037124,0.0020570051856338978,0.016377873965961492,0.9626241189405627,0.10274241137547416,right,-0.0022464990615844727,-0.4760822575031049,2.42087105589509,-8.373182546257972,-0.2401595787676669,-0.007663287688046694,0.0006065517663955688,4.494394070497155,0.0019147992134094238
1746739310209775600,1.422775634765625,0.2815108719140268,-0.0019177471986040473,0.1241521483156712,-0.0008984091691672802,0.016390419077287995,0.9626008905913929,0.10280982610182192,right,-0.000009298324584960938,-0.47624786451620876,2.4211966345876452,-8.372313946729898,-0.24024371037266118,0.00031110411509871483,0.0003587454557418823,4.495837255042791,0.00002384185791015625
1746739310249775600,1.462775634765625,0.2814295640491622,0.0008811716688796878,0.12411903337419479,-0.0031491199042648077,0.016390379150175636,0.9626128992797507,0.10278026111193948,right,0.0005895495414733887,-0.47618811270244094,2.4205904853880402,-8.372768704760075,-0.2402125612987982,0.001405987422913313,-0.0004203319549560547,4.495316738300025,-0.0007893741130828857
1746739310289775600,1.502775634765625,0.28150251855516684,0.003622836899012327,0.12414201539498884,-0.00003298069350421429,0.016440912627669887,0.9626124762714655,0.10289658838986591,right,-0.0006199479103088379,-0.47614347919198263,2.4212569864727556,-8.372784486851096,-0.2401989705832417,-0.0012176691088825464,0.0009163469076156616,4.4949277389824385,0.00012552738189697266
1746739310329775600,1.542775634765625,0.2817246005643105,0.0031192959286272526,0.12420746099660168,-0.002293628640472889,0.01654870740152078,0.9625813542053203,0.10319626365101735,right,0.0014212727546691895,-0.476275219163625,2.4229518076919017,-8.37167798691392,-0.24028258077689998,-0.0008261691546067595,-0.0010698884725570679,4.496075739973783,-0.002106577157974243
1746739310369775600,1.582775634765625,0.2820732985968147,0.0026545673608779907,0.12435393501135336,0.00292641157284379,0.016617223777770276,0.962569669655564,0.10340967545716187,right,-0.0018330812454223633,-0.47617154225909064,2.4260005277380348,-8.371280512028932,-0.24024900534764737,-0.0033412971533834934,-0.0009207874536514282,4.495172069132328,-0.0008795559406280518
1746739310409775600,1.622775634765625,0.2821920888485132,0.00021143699996173382,0.12438640805357315,0.0032107573933899403,0.01664205637267794,0.9625331404085622,0.10352934824420654,right,-0.001977086067199707,-0.47642052431977655,2.4266832493051886,-8.369916822460294,-0.24037683434810522,-0.009959178045392036,-0.000883057713508606,4.497342106647789,0.0002644956111907959
1746739310449775600,1.662775634765625,0.28231094003208124,-0.0022316935937851667,0.12441888109579292,0.0034951032139360905,0.0166668889675856,0.9624966111615603,0.10364907420255107,right,-0.002121150493621826,-0.47666951372529687,2.4273659708723425,-8.368552548369765,-0.24050466334856305,-0.016577059403061867,-0.0008453279733657837,4.499511851902306,0.0014085769653320312
1746739310489775600,1.702775634765625,0.28271651948684556,-0.0011812879238277674,0.12459781993655114,0.008617235347628593,0.01653373639517954,0.9624016749934737,0.10356976067693859,right,-0.0010637640953063965,-0.4772905324823308,2.429979952763021,-8.364882335424422,-0.24080087691302093,-0.006019284017384052,-0.0013177990913391113,4.5049221865132445,0.0004871487617492676
1746739310529775600,1.742775634765625,0.28306138025342453,0.0015048973727971315,0.1247443971773567,0.004413496237248182,0.0165646636669631,0.9623765669437749,0.10372351194410186,right,-0.0013332962989807129,-0.4773111268932377,2.432838557064533,-8.36395469918549,-0.24082319030340985,-0.002574067795649171,-0.0007797926664352417,4.5051016347333785,0.000983119010925293
1746739310569775600,1.782775634765625,0.2831729249861126,0.003951139748096466,0.12478428531338055,-0.0036721420474350452,0.01660953074841103,0.9623701593944884,0.1038425957626345,right,-0.0020389556884765625,-0.4772977667827693,2.4337884051352736,-8.363741348695754,-0.24082513244402162,-0.002006887923926115,-0.0008246898651123047,4.504985314877331,0.0016606152057647705
1746739310609775600,1.822775634765625,0.28316296026565546,-0.00066391471773386,0.12476792385447288,0.006173328962177038,0.016648726864187717,0.9623661933130463,0.10392685329593201,right,0.0016617178916931152,-0.47733192810477015,2.433662002276629,-8.36361801457703,-0.24084668908029086,0.0016458595637232065,0.0010704845190048218,4.505282836519181,0.0034156441688537598
1746739310649775600,1.862775634765625,0.2832469200983759,-0.0010832655243575573,0.12482335966265931,0.0020402800291776657,0.016596828403494402,0.9623703839580552,0.10382824016331459,right,-0.0011022686958312988,-0.47725597330542713,2.434459874656051,-8.363741933217645,-0.24080481580365676,0.0020811602007597685,0.00007295608520507812,4.504621157740056,0.0020015835762023926
1746739310689775600,1.902775634765625,0.28319320279956617,0.0030117486603558064,0.12480204499196043,-0.00340088177472353,0.016591216339132065,0.9623767543728435,0.10379926949612668,right,-0.0011973977088928223,-0.47723097570965084,2.4340419415049253,-8.363981002670526,-0.24079059017168675,0.003929650876671076,0.00019529461860656738,4.504403423336148,-0.0016978979110717773
1746739310729775600,1.942775634765625,0.2830216235333507,0.0020991191267967224,0.12472701544657999,-0.0004976354539394379,0.01663531708082258,0.9624125535718995,0.10381354567298653,right,0.0018029212951660156,-0.47700851781978004,2.43288663398996,-8.365360474330187,-0.24068338933951663,0.005957684479653835,0.000026181340217590332,4.502465441010892,-0.0031350255012512207
1746739310769775600,1.982775634765625,0.28268834964916967,-0.0028499066829681396,0.12460980625148735,0.0032182110007852316,0.016583053023381443,0.9624731815483062,0.1035699699275015,right,0.0017036795616149902,-0.47667466090941085,2.4305177129015325,-8.367613806214928,-0.2405053459486631,0.0060090115293860435,0.0014175623655319214,4.4995565678268665,-0.004287987947463989
1746739310809775600,2.022775634765625,0.28300679449387395,-0.0000676112249493599,0.12476244123327566,0.009168095886707306,0.01649950475495919,0.9624314543816493,0.10350660125205671,right,-0.000762939453125,-0.4768728620865874,2.432933249610662,-8.365982990142703,-0.24059905857244235,-0.014002506621181965,0.0012713074684143066,4.501283537749946,0.0005752444267272949
1746739310849775600,2.062775634765625,0.2831343964036917,-0.0016661618137732148,0.1248145759786016,0.0032619615085422993,0.0164574307840574,0.9623935837007974,0.10349212470651313,right,-0.00032013654708862305,-0.4771380337428469,2.433667116843164,-8.364525777071714,-0.24072635178794202,-0.010590991005301476,0.0010464638471603394,4.503593860518932,0.00046947598457336426
1746739310889775900,2.10277587890625,0.2832249669787361,-0.0004910364514216781,0.1248455796448827,0.0004893892910331488,0.01642074883018231,0.9623521714299172,0.10348751212056616,right,-0.0001405477523803711,-0.47745417953246455,2.4340267439357937,-8.362938215619325,-0.2408783817848248,-0.008941606618463993,-0.00009173154830932617,4.506347543141246,0.0010288059711456299
1746739310929775600,2.142775634765625,0.28336085884450724,0.004386342130601406,0.12489593965757528,0.004591302014887333,0.016411408893585517,0.9623182561650172,0.10353627155535375,right,-0.000021219253540039062,-0.4776745532740386,2.434885406591743,-8.361653436505794,-0.2409882089828988,-0.0032776761800050735,-0.000013843178749084473,4.508266820766032,0.00015494227409362793
1746739310969775600,2.182775634765625,0.28369771196461285,0.0040345508605241776,0.1250333408017657,0.0053116874769330025,0.016460560308134246,0.9622914794369559,0.10372845229993755,right,-0.0023670196533203125,-0.4777110727947511,2.437655894218385,-8.360674946862458,-0.24102049557597063,-0.004133343230932951,-0.0012549757957458496,4.508585092934966,0.002770364284515381
1746739311009775600,2.222775634765625,0.2838076798686136,0.0007797146681696177,0.1250941382799897,0.007561556063592434,0.016441436260947424,0.9622968904688384,0.10369974327715771,right,-0.000978708267211914,-0.4776047354071904,2.438709494924545,-8.360866670042276,-0.24096862649966433,0.005241963546723127,-0.000566333532333374,4.507658918000757,0.001258164644241333
1746739311049775600,2.262775634765625,0.28391764835156535,-0.0024751215241849422,0.12515493305187494,0.00981142558157444,0.016422312213760587,0.9623023015007208,0.10367102854167891,right,0.00040966272354125977,-0.4774984396979394,2.4397630956307053,-8.361058393222093,-0.24091677207669643,0.014617269858717918,0.00012230873107910156,4.5067330353274935,-0.00025406479835510254
1746739311089775600,2.302775634765625,0.2839802445676226,-0.0006002235459163785,0.12523652006886435,-0.000675397168379277,0.01627948246112557,0.9623340753910525,0.10334451501139626,right,-0.0034856796264648438,-0.4772064056834093,2.440655076034367,-8.362168400290608,-0.24075685159788635,0.00011519389227032661,0.0004723966121673584,4.504189488324522,-0.001201242208480835
1746739311129775900,2.34277587890625,0.2840412449856893,0.0024787625297904015,0.125255950703693,0.0018185253720730543,0.01631674804073578,0.9623317993415879,0.10343404574471074,right,-0.0015508532524108887,-0.47718590045619685,2.4411909364767372,-8.36210819453597,-0.24075313642987223,0.0020341749768704176,0.0007219463586807251,4.504010624626279,-0.001684635877609253
1746739311169775600,2.382775634765625,0.28412784788728873,0.003480074927210808,0.12528367264518683,0.001113957492634654,0.01638690344907706,0.9623367836326917,0.10358551904315591,right,-0.0013222694396972656,-0.4770829210729617,2.4420450690880418,-8.362342003291845,-0.2407139636918501,-0.0006777604576200247,0.001319795846939087,4.503113675786555,-0.003019005060195923
1746739311209775600,2.422775634765625,0.2842618727145767,0.0041861142963171005,0.12530793742215077,-0.00412424560636282,0.016532517334842848,0.9623260736590978,0.10392106162212937,right,-0.0007794499397277832,-0.47707899463531017,2.443170858247578,-8.362031622168422,-0.24073420447814498,-0.0029085548594594,0.0009684860706329346,4.503079481256008,-0.0022077560424804688
1746739311249775600,2.462775634765625,0.2842743321763138,0.005375279113650322,0.12525547791081737,-0.0044053359888494015,0.016742727539688158,0.9623112523690877,0.1043751646392531,right,0.0007665157318115234,-0.47716969803811465,2.443160482984036,-8.361609012842179,-0.2408062367534967,-0.009021809324622154,0.001420050859451294,4.503869754850864,0.002471834421157837
1746739311289775600,2.502775634765625,0.28440916480132755,0.005338853225111961,0.12527577381286267,0.0005139196291565895,0.016849431463315367,0.9622746341793258,0.1046661148521776,right,-0.00013393163681030273,-0.47739747439831953,2.4440000025480986,-8.360295007634162,-0.24093477161588614,-0.007099008187651634,0.0003936588764190674,4.5058536221444605,0.0013370811939239502
1746739311329775600,2.542775634765625,0.28451431931402027,0.006156419403851032,0.12529207531647826,-0.003129468532279134,0.01695261895501653,0.9622560612870583,0.10492045494717579,right,-0.001276254653930664,-0.4774844620245899,2.4447690872244534,-8.359661385905742,-0.2409932884347212,-0.0052362652495503426,0.0001415461301803589,4.506611454774439,0.0019301176071166992
1746739311369775600,2.582775634765625,0.28461945325631643,0.006973985582590103,0.1253083502197558,-0.006772857159376144,0.017055821100056094,0.9622374856884521,0.10517482957380181,right,-0.0024183988571166992,-0.477571393031194,2.445538025770336,-8.359028348699212,-0.24105178518754045,-0.0033735225442796946,-0.00011056661605834961,4.507368410621583,0.0025232434272766113
1746739311409775600,2.622775634765625,0.2841407683063307,-0.00601937435567379,0.12503005872980583,-0.010674821212887764,0.01733999954065656,0.962279798767183,0.10562320143123594,right,-0.0017566084861755371,-0.47742765074010873,2.4417178829602895,-8.3608199082911,-0.24100684252628052,0.00732815358787775,-0.0042982399463653564,4.506116656994819,-0.0006359517574310303
1746739311449775600,2.662775634765625,0.28390072603273797,-0.002971339737996459,0.12496333201587553,-0.0004417719319462776,0.01723876468651681,0.9623276506343517,0.10531129243539998,right,-0.003510117530822754,-0.47716141370417425,2.440046881008148,-8.36255710734725,-0.240857640080664,0.006007280666381121,-0.0027182698249816895,4.503797566397488,0.0012824535369873047
1746739311489775600,2.702775634765625,0.28391561958367534,-0.001998509280383587,0.12498850720052522,0.0005987953627482057,0.017171285611203155,0.962330839664807,0.10517076452023692,right,-0.002193748950958252,-0.4771355794016567,2.4402039712660013,-8.36263251067102,-0.24083660507778062,0.0018226318061351776,-0.0013389885425567627,4.503572525469958,0.0012235641479492188
1746739311529775600,2.742775634765625,0.2838341058049692,-0.004617825150489807,0.12498757190205438,0.00043296883814036846,0.017058408969909206,0.9623524143091384,0.10489634748349655,right,-0.000019073486328125,-0.4770105079016237,2.4396799473918973,-8.363371930861472,-0.24075880262270768,0.006642182823270559,-0.00013355910778045654,4.502482684406638,-0.00013241171836853027
1746739311569775600,2.782775634765625,0.28363920884295807,0.0025294790975749493,0.12493673247474714,-0.00527346134185791,0.01696603605184863,0.962393113701577,0.1046197796824771,right,-0.0018059015274047852,-0.4767796536165784,2.4383408077426254,-8.364844926023483,-0.2406291726006178,0.0008747177198529243,-0.0008770972490310669,4.500471636845171,-0.0026062726974487305
1746739311609775600,2.822775634765625,0.2837083486621769,0.004907473921775818,0.12495432587465581,0.0010096090845763683,0.017030904733685397,0.962392528231675,0.10476512755247203,right,-0.0009683370590209961,-0.4767362392190782,2.438973844949156,-8.364864215245843,-0.2406180112731579,-0.00024362874682992697,-0.00023345649242401123,4.500093158921599,-0.002003997564315796
1746739311649775600,2.862775634765625,0.2837774949968973,0.007285469211637974,0.12497193392790305,0.007292679976671934,0.017095762590167273,0.9623918841484195,0.10491045319439248,right,-0.00013077259063720703,-0.47669279728613057,2.439607028286159,-8.364883504468201,-0.2406068526520368,-0.0013619753299281001,0.0004101693630218506,4.499714680998027,-0.001401752233505249
1746739311689775600,2.902775634765625,0.28421073483187165,-0.0010481949429959059,0.12516421232139752,0.005198794882744551,0.017141790414415516,0.96237871604944,0.10509304219856093,right,-0.0019418001174926758,-0.47655528955772297,2.443404228612035,-8.364419394087792,-0.24055606739827953,-0.002331802621483803,-0.0005408823490142822,4.49851641112417,0.00008019804954528809
1746739311729775600,2.942775634765625,0.28450198259473464,0.0017630301881581545,0.12527447526781638,0.00048013683408498764,0.01714443242362074,0.9623213127708599,0.10522378822781467,right,-0.004590034484863281,-0.47689215317059885,2.445414837782085,-8.362252571442722,-0.24072823646793876,-0.012851353734731674,-0.00012102723121643066,4.50145158779323,-0.00018608570098876953
1746739311769775600,2.982775634765625,0.2846254840996416,0.002576419385150075,0.12527345435991946,0.001739968080073595,0.01724978013337653,0.9622542144233943,0.10555141418694497,right,-0.001013040542602539,-0.47739125026608636,2.445816258189827,-8.359792903330922,-0.24098909165505367,-0.0038210703060030937,0.00024743378162384033,4.5057995538696645,-0.0006214380264282227
1746739311809775600,3.022775634765625,0.28474880249827955,0.00731902290135622,0.12531246164657636,-0.0003033541142940521,0.017338861316150082,0.96225533961944,0.10575285220072009,right,-0.0020133256912231445,-0.47729762204286025,2.446965720485896,-8.359895779183507,-0.24095789780292534,-0.0011200432199984789,-0.00019215047359466553,4.5049838535726066,0.0003400146961212158
1746739311849775600,3.062775634765625,0.2849106189358481,0.0025813570246100426,0.125362777357186,-0.00010699041013140231,0.0174654790002658,0.9622595938720624,0.10603338916872114,right,-0.0016458630561828613,-0.47714926491022164,2.4485062279261647,-8.360141278377174,-0.24090575968883282,-0.00039502966683357954,-0.0004272162914276123,4.5036914756745094,0.000890195369720459
1746739311889775900,3.10277587890625,0.28490021313309966,0.0018229344859719276,0.12534805075965033,-0.0008303171489387751,0.017527803474891617,0.9622696006146948,0.10614608149163744,right,-0.0005360841751098633,-0.4770580236734312,2.448534723368287,-8.36056096509397,-0.24086899063662215,0.00023960520047694445,-0.0007377117872238159,4.502896818165481,0.00003057718276977539
1746739311929775600,3.142775634765625,0.2849062644536288,0.0047966912388801575,0.12533443260036883,-0.0031641870737075806,0.017605478556510814,0.9622736203791222,0.10630112018063334,right,-0.0009882450103759766,-0.47700730916346296,2.4486495819196104,-8.36076554775536,-0.2408544438656779,-0.0009614513255655766,-0.0013172924518585205,4.502454919616878,-0.00046774744987487793
1746739311969775600,3.182775634765625,0.2850949067363086,0.010355515405535698,0.12536537732547037,0.004220565315335989,0.017816628798160317,0.962255109936552,0.10679045543989012,right,0.0005956292152404785,-0.47702814212333805,2.450200318492949,-8.360213759091495,-0.24089676914629077,-0.0025610693264752626,-0.0006833821535110474,4.502636413663626,-0.001191467046737671
1746739312008980700,3.221980712890625,0.2858280316036168,0.003938604146242142,0.12561988095088217,0.003989162389189005,0.018134198128893275,0.9622077923364882,0.1076254198348426,right,-0.0021844475995749235,-0.4769727708664104,2.4563988808721304,-8.358654254689812,-0.24092922661121483,-0.0017047725850716233,0.00005921692354604602,4.502154183104634,0.002182068768888712
1746739312048980700,3.261980712890625,0.2855823788833567,0.0019999120850116014,0.12551571617531224,0.0011990314815193415,0.01808938821986968,0.9622160683200284,0.10748249999456669,right,-0.0017085671424865723,-0.4770476936806183,2.454250470666587,-8.358933656153082,-0.24095393252806901,-0.002637174678966403,-0.0019177347421646118,4.502806801794469,-0.0005678236484527588
1746739312088981000,3.30198095703125,0.2853261251523475,0.0021830082405358553,0.1254102193097077,0.004780026152729988,0.01806305641625335,0.9622397215015573,0.1073547626845878,right,-0.0011820197105407715,-0.47699121274250084,2.4521800941333174,-8.359806347334384,-0.2409165220080415,0.001123154303058982,-0.000815853476524353,4.502314634363353,-0.0006164014339447021
1746739312128981000,3.34198095703125,0.2854176096248736,0.0029765553772449493,0.12543955900093134,0.005714685656130314,0.01808983288213201,0.9622235627820347,0.10744659433574291,right,-0.0016758441925048828,-0.4770760323870962,2.4528373889982698,-8.359215395703911,-0.2409637635449803,-0.004096705466508865,-0.0008244216442108154,4.503053762292861,0.0005857348442077637
1746739312168980700,3.381980712890625,0.2854802672571234,-0.0033655529841780663,0.12546671110708443,0.0028419282753020525,0.01805733478421694,0.9622028346860994,0.10741828305085661,right,-0.0008287429809570312,-0.47722645887193826,2.4531702742144463,-8.358411678105591,-0.2410346642959222,-0.0031973302830010653,-0.0008582919836044312,4.504363968108594,0.00009369850158691406
1746739312208980700,3.421980712890625,0.2854269684748814,-0.0009052196983247995,0.12545869427333947,-0.0000419465359300375,0.017965079590143092,0.9621947797266435,0.10723124954774993,right,-0.00035649538040161133,-0.47734198179799553,2.452578153540194,-8.3580428447932,-0.2410778249115995,0.00013850140385329723,-0.00148753821849823,4.505370222541689,-0.0011807084083557129
1746739312248980700,3.461980712890625,0.2855519911650923,0.006900422275066376,0.12550793719627665,0.005179855972528458,0.01800253459319448,0.962190165409928,0.10733468122781134,right,-0.001559913158416748,-0.4773052713263648,2.4536697481691836,-8.35789496075511,-0.24106784178616222,-0.0010428483365103602,-0.0007357895374298096,4.505050489068031,-0.0006591379642486572
1746739312288980700,3.501980712890625,0.28595025556387654,0.007507121190428734,0.125657000872326,0.004454589914530516,0.018136581233690222,0.962167529655942,0.10770524842662373,right,-0.0007701516151428223,-0.47725521526922654,2.4570620209559797,-8.357133328732848,-0.24107070312744086,-0.0002086953609250486,-0.0008141845464706421,4.504614435738325,-0.0005278289318084717
1746739312328981000,3.54198095703125,0.2861411858140829,-0.0006010830402374268,0.12574978185112315,0.006129605695605278,0.018160154585245954,0.9621780865957275,0.10777000535457108,right,-0.002499520778656006,-0.47705072702960455,2.4589175856947896,-8.357547754752636,-0.24097849362482096,0.0023665486369282007,-0.0002307295799255371,4.502833105279505,0.000462263822555542
1746739312368981000,3.58198095703125,0.28629655556343026,-0.0023627677001059055,0.12583352524086555,0.0020600957795977592,0.01807394928652701,0.9621547915169946,0.10764989331041638,right,-0.0049839019775390625,-0.47717915115703224,2.4600524349436164,-8.356610766163469,-0.24103391919070088,-0.00591743178665638,-0.0005691945552825928,4.503951880176365,-0.0013075172901153564
1746739312408980700,3.621980712890625,0.2863818877224676,0.000880134291946888,0.12585688380334836,0.0013656684895977378,0.018074300104544958,0.962121329127372,0.10771026619105317,right,-0.0021137595176696777,-0.4774229093295008,2.4604554627865554,-8.355347614359856,-0.24115530673250304,-0.004136011935770512,-0.0005919337272644043,4.5060751559406516,-0.001149296760559082
1746739312448980700,3.661980712890625,0.28651606500828425,0.001065339194610715,0.1259055823941079,0.0021441555581986904,0.01811595291902922,0.9621093327288366,0.10783391457724034,right,-0.0014000535011291504,-0.47744477429302906,2.461548810981214,-8.354922666946052,-0.24117477176437666,-0.0005559809505939484,-0.001329377293586731,4.50626571007669,-0.0006724894046783447
1746739312488980700,3.701980712890625,0.2866664722968167,-0.001002780394628644,0.12597549371547154,0.0039254119619727135,0.01812378043627484,0.9621069172543978,0.1078775378801639,right,-0.0014055371284484863,-0.4773789079642924,2.4628891196742653,-8.35483732675016,-0.24114731569426293,-0.0005027107545174658,0.00023630261421203613,4.505692001841962,0.00002828240394592285
1746739312528980700,3.741980712890625,0.28671325813512116,-0.004602661356329918,0.12601348948090024,0.0008784893434494734,0.018059211283702668,0.9621064169882338,0.10775320615775635,right,-0.0017551779747009277,-0.47736724412569975,2.4632950701266525,-8.354772444820403,-0.24113431582370268,0.001228713197633624,-0.000018417835235595703,4.505590295033157,0.0002777576446533203
1746739312568981000,3.78198095703125,0.28662931586999074,-0.0035781818442046642,0.12598987078061433,-0.001694988226518035,0.017991399791632313,0.9621079702573702,0.10759827511806853,right,-0.0011875629425048828,-0.47741222198707745,2.4625363607138393,-8.354784719780087,-0.2411453644423402,-0.0006092144176363945,-0.0007623732089996338,4.5059822169601915,-0.0005941092967987061
1746739312608981000,3.82198095703125,0.28669301310891815,0.0021749017760157585,0.1260037361773793,0.0031631069723516703,0.018022380571974615,0.9620901258485807,0.10769668008250258,right,-0.0009207725524902344,-0.47752702357495214,2.4629221451610324,-8.354131808829306,-0.24120714386190223,-0.0020155860111117363,-0.00023677945137023926,4.5069820416525,-0.0006296932697296143
1746739312648980700,3.861980712890625,0.28691843689141094,0.002534844446927309,0.12608192867664675,0.0003784026484936476,0.01810956184388831,0.9620708723982058,0.10793842852641257,right,-0.0015395879745483398,-0.47755242771939804,2.464773033724725,-8.353466038396954,-0.24123658695055583,-0.0004451634595170617,-0.0009844005107879639,4.507203283187747,0.0003839731216430664
1746739312688980700,3.901980712890625,0.28689568750663386,0.002054312964901328,0.12605875478250833,-0.0016759266145527363,0.018163575571274525,0.9620724735779349,0.10804342617709706,right,-0.0020774006843566895,-0.47754234177712573,2.46459592359215,-8.35356599164009,-0.24123817122120092,0.0006220984505489469,-0.0003669559955596924,4.5071156049042935,-0.0013447999954223633
1746739312728980700,3.941980712890625,0.2867179592971088,0.00045770849101245403,0.1259642896534132,-0.003896037582308054,0.018201774106944353,0.9620745105593282,0.10809039990198134,right,-0.0016866326332092285,-0.4776194926685883,2.463012746053934,-8.353670036536455,-0.2412764880512475,-0.0047857873141765594,-0.002421259880065918,4.507787512816488,-0.0017015337944030762
1746739312768980700,3.981980712890625,0.2864216342050939,-0.0012166702654212713,0.1258229014390193,-0.001128901494666934,0.018203929505221414,0.9620803555843755,0.10803903770679503,right,-0.002566993236541748,-0.477737110299196,2.460387365986407,-8.353890985810756,-0.24132691361526742,-0.0038313160184770823,-0.0005989372730255127,4.508811887428164,-0.0010484755039215088
1746739312808980700,4.021980712890625,0.28638327664745417,0.0007447721436619759,0.1257844974913442,-0.0003519414458423853,0.018204021955312046,0.9620436072143977,0.10808324873345525,right,-0.0016474723815917969,-0.4780785845732947,2.4596318714439867,-8.352508007019757,-0.24149300638717086,-0.008424866013228893,0.000011295080184936523,4.5117853502809995,-0.000022292137145996094
1746739312848981000,4.06198095703125,0.28636335293060233,-0.001677987165749073,0.12575691598727876,-0.0009140460169874132,0.018218637920968218,0.962016905149487,0.10814657341860116,right,-0.0004884600639343262,-0.4783201423839061,2.459157531930506,-8.351510812675953,-0.24161256234798917,-0.003894408233463764,-0.0001373291015625,4.513888460040092,0.00032332539558410645
1746739312888981000,4.10198095703125,0.28620730437628616,-0.004880118183791637,0.12570664107320378,-0.002801258582621813,0.018132846411912863,0.962025961440813,0.10793281106123581,right,-0.0009541511535644531,-0.4783442796748546,2.4578233607172963,-8.351790214139223,-0.24160926253100515,0.00011321669444441795,-0.0012453794479370117,4.514098595659434,0.0003600120544433594
1746739312928980700,4.141980712890625,0.28602899802684106,-0.0025067301467061043,0.12565449312390747,0.00027648755349218845,0.018019673617189893,0.9620392868421942,0.10765329431719284,right,-0.0011186003684997559,-0.47834771539988513,2.456329907289147,-8.352213407987355,-0.241591736473366,0.0003887760976795107,-0.0012306272983551025,4.514128406275809,-0.0008900463581085205
1746739312968980700,4.181980712890625,0.2860898078328727,0.0008210914675146341,0.1256892041246608,0.0004773649852722883,0.01798715818943498,0.9620343818612055,0.1076031442054365,right,-0.0011764168739318848,-0.47836161480473727,2.4568200288936493,-8.352004149150847,-0.24159578338508877,-0.0009978699963539839,-0.002570629119873047,4.514249402306974,-0.0021105706691741943
1746739313008980700,4.221980712890625,0.286156226228509,0.0009219299536198378,0.12572732821553123,0.004178087692707777,0.01799032470923583,0.9620467681512562,0.10760353230903986,right,-0.002627730369567871,-0.4782158509105358,2.457560618127882,-8.352472351184486,-0.24152654347789695,0.003149328986182809,-0.0014315992593765259,4.512980405284464,-0.001987457275390625
1746739313048980700,4.261980712890625,0.28618004460845037,-0.0015990445390343666,0.1257463410355935,0.000999521929770708,0.01795182240482466,0.9620433325682394,0.10753300830772021,right,-0.004399776458740234,-0.4782383945055909,2.457730713997781,-8.352315699318051,-0.24153313106767843,-0.002311337972059846,-0.0014530271291732788,4.513176804639399,-0.0018616318702697754
1746739313088981000,4.30198095703125,0.28614520398537174,-0.0017066901782527566,0.12572795250280888,0.004508515819907188,0.017913635642112766,0.9620234732788878,0.10747610931453934,right,-0.0018157362937927246,-0.4784375068999106,2.457186231857538,-8.351539454248547,-0.24162465435815883,-0.004025806672871113,-0.0005800426006317139,4.5149102043032645,-0.0012226998805999756
1746739313128981000,4.34198095703125,0.2863517854710889,0.0010238973191007972,0.125817115655282,0.006388855166733265,0.017880025249975274,0.9619876156010921,0.10748962235155524,right,-0.0022754669189453125,-0.4786381788076171,2.4586554276272654,-8.350162320676445,-0.24172350979416557,-0.004888789728283882,-0.0011811703443527222,4.516657047970592,-0.0010768473148345947
1746739313168980700,4.381980712890625,0.2865715674411472,0.0005523105501197278,0.12589265068233338,0.0016309376806020737,0.01790249779392161,0.9619397027580366,0.10763699013022104,right,-0.0025448203086853027,-0.4789272700110548,2.460121408526599,-8.348369007518887,-0.2418732631797068,-0.00929246749728918,-0.0013123154640197754,4.519173122444749,-0.00016826391220092773
1746739313208980700,4.421980712890625,0.28662172243255424,0.000952371337916702,0.12588812040498898,0.0010780160082504153,0.017935103779027302,0.9619004649696011,0.10776556850170807,right,-0.000928342342376709,-0.47923368208172246,2.4601482965335246,-8.346916470623016,-0.24202865570902665,-0.005788382142782211,-0.000793159008026123,4.521839711305499,0.000252455472946167
1746739313248980700,4.461980712890625,0.2866990764591109,0.0010513050947338343,0.1259108585649436,0.0028787930496037006,0.01793897448478317,0.9618746564283042,0.10782138157737765,right,-0.0008245110511779785,-0.47941369041495213,2.460563891597092,-8.345945579764246,-0.2421191071109347,-0.002818136941641569,-0.0005327761173248291,4.523406229969859,0.000425487756729126
1746739313288980700,4.501980712890625,0.2868672135562517,0.001913872780278325,0.1259775182613715,0.001494879019446671,0.017950540333368577,0.9618520332291013,0.10790342242132725,right,-0.001420438289642334,-0.4795132945617543,2.461839610621333,-8.34509919206798,-0.24217349891831927,-0.0014008870348334312,-0.001018226146697998,4.524272783671319,-0.0005617439746856689
1746739313328981000,4.54198095703125,0.28685592349727457,0.003042182419449091,0.12596747619562884,0.0013422789052128792,0.01798061314025326,0.9618570862765847,0.1079564615275741,right,-0.00033724308013916016,-0.4794710431515929,2.4617995708718894,-8.345310788992046,-0.24215649106530907,0.005559311248362064,-0.00036329030990600586,4.5239051194027065,-0.0005785524845123291
1746739313368981000,4.58198095703125,0.2868174537428129,0.0029148708563297987,0.12594437837104994,0.0003329470055177808,0.01804769817905346,0.9618790030655133,0.10805802051233064,right,-0.0004824995994567871,-0.4792915080052922,2.4617080931961537,-8.346184064695239,-0.24207651984635317,0.0018402405548840761,-0.0009380578994750977,4.522342984652519,-0.0010235607624053955
1746739313408980700,4.621980712890625,0.2865965249148066,0.0006293419282883406,0.12585553992761406,0.002773731015622616,0.018054718154358333,0.9619164380537394,0.10798537971358406,right,0.00019425153732299805,-0.4790902643868331,2.460121408526599,-8.347600945755838,-0.241973526951712,0.005140296183526516,0.0002449154853820801,4.520591757071018,-0.0020811855792999268
1746739313448980700,4.661980712890625,0.28657586041950284,0.0030318014323711395,0.12584763094185655,0.0024548787623643875,0.018054140623227355,0.9619201208676822,0.1079757931334226,right,-0.0006353855133056641,-0.4790699798775859,2.459974693532288,-8.347739477443694,-0.24196301978851403,-0.0022201002575457096,-0.00015985965728759766,4.5204152314603325,-0.00042638182640075684
1746739313488980700,4.701980712890625,0.2866053721955504,0.0015458869747817516,0.12584612220664046,0.00000751507468521595,0.018096872515877983,0.961909864779412,0.10808236286714276,right,-0.00028973817825317383,-0.47913549361257207,2.4601374828785656,-8.347382919090986,-0.24200138173421687,-0.0038052527233958244,-0.001433253288269043,4.520985432563722,-0.000813215970993042
1746739313528980700,4.741980712890625,0.2866296767089518,0.000031615025363862514,0.12584382753188045,0.0006061060703359544,0.01813243139367037,0.9618996606152662,0.10817331524336384,right,0.00021332502365112305,-0.4792048580558044,2.4602517569079994,-8.347022269085048,-0.24204055317399345,-0.002160186879336834,-0.0022062957286834717,4.521588951414823,-0.0006678402423858643
1746739313568981000,4.78198095703125,0.28667029995709564,-0.002312059048563242,0.12587089391562137,0.004990702029317617,0.018088689245055446,0.9618936166347726,0.10809829376868188,right,-0.0005689263343811035,-0.47924111365046407,2.4605443101137876,-8.346765079453586,-0.24205358327203844,0.001134940655902028,-0.002441003918647766,4.521904593235254,-0.0009679794311523438
1746739313608981000,4.82198095703125,0.28691601821718143,0.0006520422175526619,0.12599145590393504,0.008312259800732136,0.018037670892011217,0.9618730359765293,0.10806159029081838,right,-0.0009632706642150879,-0.47928904646032183,2.4625340226262806,-8.345952009505034,-0.24207645610478906,-0.002010550582781434,-0.002105116844177246,4.522321649603545,-0.00091513991355896
1746739313648980700,4.861980712890625,0.2871622158019547,0.004884148482233286,0.12610796491341683,0.011562254279851913,0.01802784529463001,0.9618629099739875,0.10809517720577196,right,0.0002989768981933594,-0.47923857588629304,2.4646532067373395,-8.345564471492171,-0.24205662124869357,0.006601792760193348,-0.0009245872497558594,4.521882381403446,-0.0018938779830932617
1746739313688980700,4.901980712890625,0.2874824800168215,0.0016922010108828545,0.12626157904294585,0.005903161596506834,0.018025554723372833,0.961858302168162,0.10814871567049637,right,-0.0030069351196289062,-0.47909717645575817,2.4675071348637343,-8.345387945881486,-0.24199513405983314,0.002070231828838587,-0.0010356605052947998,4.520651962825656,-0.0009751617908477783
1746739313728980700,4.941980712890625,0.28767806594486495,-0.0007501204963773489,0.12635549992450085,0.006269584875553846,0.01799218219976915,0.9618413723327933,0.10813509385516216,right,-0.001482546329498291,-0.4791387890551415,2.4690859284877775,-8.344724513536692,-0.24201596562499272,-0.001586035592481494,-0.0005106031894683838,4.521014074136317,-0.0004808008670806885
1746739313768980700,4.981980712890625,0.2880110583310143,0.0022289990447461605,0.12651615720104475,0.0073978290893137455,0.017946032048135482,0.961818680308037,0.10812534766314918,right,-0.0017725825309753418,-0.4791541819779149,2.4718448718070984,-8.343835455742479,-0.2420257111422721,0.0016849031671881676,-0.0017464756965637207,4.521147929649055,-0.0005745589733123779
1746739313808980700,5.021980712890625,0.28833115283038196,0.0023980175610631704,0.1266649153970537,0.005799531936645508,0.01795262679224385,0.9618090977666248,0.10820375732947272,right,-0.0022727251052856445,-0.4790539154254107,2.474644439397752,-8.34347831286788,-0.24198551135420163,0.0020638664718717337,-0.0008539259433746338,4.520275530728697,-0.0003539621829986572
1746739313848981000,5.06198095703125,0.2885401645367065,0.002580980071797967,0.12675621456183292,0.0029274392873048782,0.017984077878228838,0.96180413761429,0.10830887073080828,right,-0.0018193721771240234,-0.47897253815855073,2.476492989873886,-8.343313477694988,-0.24195506527090152,0.0010099727660417557,-0.00041735172271728516,4.519567382459342,-0.0002097785472869873
1746739313888981000,5.10198095703125,0.28867175201627765,0.004003970418125391,0.12679800444041783,0.0028622793033719063,0.018068846328661927,0.9618010284789322,0.10850847066345734,right,-0.0016297101974487305,-0.4789108130727608,2.477670216959715,-8.34325502550602,-0.24193932636843407,-0.00008619553409516811,-0.00048738718032836914,4.519029914581775,0.000500798225402832
1746739313928980700,5.141980712890625,0.28887524980629053,0.004173131659626961,0.12686556572425864,-0.0004039693158119917,0.018175332590973686,0.9617906351750393,0.1087742705583342,right,-0.0015282630920410156,-0.4788677630418249,2.4794234903678296,-8.34293704559803,-0.24193739365612144,0.0008034093189053237,-0.0009749233722686768,4.518655236050487,0.0006491541862487793
1746739313968980700,5.181980712890625,0.2888848140306818,0.0034575487952679396,0.1268555258670483,0.00020516262156888843,0.018272385023975667,0.9618065323564836,0.10895296727766703,right,-0.0017859339714050293,-0.47870658569605967,2.4797104906156657,-8.343610999336839,-0.24187163844844123,0.004584410227835178,-0.00033211708068847656,4.517252383515238,-0.00005370378494262695
1746739314008980700,5.221980712890625,0.2888306935803442,0.001716962200589478,0.12681837826157788,-0.00030243064975365996,0.018352957184960147,0.9618223820470236,0.1090878562530447,right,-0.000838160514831543,-0.4785864165068336,2.479413553495705,-8.344265663853287,-0.2418221214362593,0.0013485937379300594,-0.002429753541946411,4.516206381593644,-0.001034766435623169
1746739314048980700,5.261980712890625,0.28856643504801904,-0.002057054080069065,0.1267184175855609,0.002130481181666255,0.018317392130978806,0.9618591357134574,0.10892167362398855,right,-0.0024816393852233887,-0.4784234877289992,2.477417995764315,-8.345625846290588,-0.241731106205699,0.006117843557149172,-0.0008992850780487061,4.5147880392283195,-0.0012557506561279297
1746739314088981000,5.30198095703125,0.2884893173542172,0.0003564304206520319,0.12669441128879172,0.001592102344147861,0.018287512162477253,0.9618707155424248,0.10883195599129145,right,-0.002288639545440674,-0.4783716163192301,2.4768407803982493,-8.346041441354155,-0.24169986649439212,0.0006145215593278408,-0.0005798935890197754,4.514336496068537,-0.00035011768341064453
1746739314128981000,5.34198095703125,0.28842495150862313,-0.0012089618248865008,0.126670010484507,0.0006409438792616129,0.01827901511907283,0.9618796796184134,0.1087918398854039,right,-0.0011163949966430664,-0.47833197251396586,2.476354750446975,-8.346372865265607,-0.2416777367450094,0.0036027110181748867,-0.0007387101650238037,4.513991335892677,-0.0003739595413208008
1746739314168980700,5.381980712890625,0.2882883800431013,0.00014176825061440468,0.12661626005837753,-0.00029071065364405513,0.018284858135818795,0.961905573116827,0.10874616119631327,right,-0.0008500218391418457,-0.47818325297728326,2.475405486898124,-8.347354277518392,-0.24160234781438772,0.0020521292462944984,-0.0020339787006378174,4.512696619907021,-0.0013298988342285156
1746739314208980700,5.421980712890625,0.28824166233913656,0.0027424904983490705,0.12659533976055262,0.002564443740993738,0.018302004475296202,0.9619165291020835,0.10875878914452727,right,-0.00039315223693847656,-0.47811186857795923,2.475107088473439,-8.347778640410304,-0.24156851104574237,-0.00014927773736417294,-0.0023609399795532227,4.5120749808773395,-0.001259148120880127
1746739314248980700,5.461980712890625,0.28842639398202946,0.0025963224470615387,0.12666289354507643,0.0039660995826125145,0.01835698310175261,0.9618998894898391,0.10892427856150377,right,-0.0001525282859802246,-0.47814210869292006,2.476610478773713,-8.347190611389278,-0.24159517098873648,-0.004521191120147705,-0.0034299492835998535,4.512338307988643,-0.0016286075115203857
1746739314288980700,5.501980712890625,0.2885745315994575,0.0024436251260340214,0.12672120719431373,0.006675921380519867,0.018391816310156583,0.9618899405758013,0.10903315812628571,right,-0.0010953545570373535,-0.478137267541277,2.4778531723111867,-8.346843989908695,-0.24160113743467582,-0.002124390797689557,-0.0024437904357910156,4.512296222412586,-0.0015775859355926514
1746739314328981000,5.54198095703125,0.2888363560860616,0.0010795302223414183,0.12682940399128023,0.005437844432890415,0.018400520477728097,0.9618586327730908,0.10913630615549558,right,-0.0032979846000671387,-0.47825899769399166,2.479882047790289,-8.345668516388535,-0.24166839830673487,-0.003095872700214386,-0.0018083453178405762,4.513355960598588,-0.001962512731552124
1746739314368981000,5.58198095703125,0.2889966513073931,0.0010468554683029652,0.126893619124008,0.006317124702036381,0.018392879834117068,0.9618299800324687,0.10918591510016386,right,-0.0016172528266906738,-0.47841808363488664,2.4810148512125014,-8.344582474717498,-0.24174923551027258,-0.0020436111371964216,-0.0008867979049682617,4.5147409852162,-0.0009624063968658447
1746739314408980700,5.621980712890625,0.2892432842204399,0.002521021291613579,0.12700063735409042,0.005130367819219828,0.01839241751493115,0.9618060627903696,0.1092576354875746,right,-0.0018224716186523438,-0.47848548344557834,2.4829861512854694,-8.343678803876042,-0.24178833625768376,-0.0018708768766373396,-0.0007413327693939209,4.515327845193445,-0.0010487139225006104
1746739314448980700,5.661980712890625,0.28948915425610605,0.0032601109705865383,0.12710191353254305,0.0041435942985117435,0.018422434591708822,0.9617857900230865,0.10938678532683548,right,-0.0022497177124023438,-0.478516495879281,2.484997491107881,-8.34293412298858,-0.2418136478336373,-0.002696024253964424,-0.000980079174041748,4.515597894306481,-0.0016324818134307861
1746739314488980700,5.701980712890625,0.2896233280929677,0.003052906133234501,0.12714137887611376,0.0008862814866006374,0.018486708579793017,0.9617668881274926,0.10956640589805032,right,-0.002132415771484375,-0.47859345718964674,2.4860177740663287,-8.342267768034338,-0.24186316862256463,-0.004057826474308968,-0.0007870197296142578,4.516267756392061,-0.001377016305923462
1746739314528980700,5.741980712890625,0.2896913910824984,0.003534364514052868,0.1271348414587472,0.001324853510595858,0.01858282793574415,0.9617367101509933,0.10981643314815774,right,-0.0014050602912902832,-0.4788012303574767,2.4863173415347934,-8.341198677498102,-0.24197921648638007,-0.008893057703971863,-0.0009822845458984375,4.518076267118752,-0.0005733072757720947
1746739314568981000,5.78198095703125,0.28990148242946184,0.003689117031171918,0.12718849974138796,0.0035657621920108795,0.018677323571388165,0.9616896180547402,0.11010936431730048,right,-0.0013756752014160156,-0.47907498296969014,2.487716102416813,-8.339490704536438,-0.2421309149398079,-0.00670815072953701,-0.001388251781463623,4.520458778341114,-0.0007215738296508789
1746739314608981000,5.82198095703125,0.290092423098181,0.003952154889702797,0.1272439479492513,0.0012087519280612469,0.018760320904414825,0.9616578025462422,0.11035446523911571,right,-0.0024265050888061523,-0.4792283058076617,2.489110187123716,-8.338351471373437,-0.24222172515068036,-0.003006136976182461,-0.0021810531616210938,4.521792949554324,-0.0007286667823791504
1746739314648980700,5.861980712890625,0.29022528469695114,0.0048871696926653385,0.1272749350794229,-0.0018399783875793219,0.018870398675297877,0.9616448669295449,0.1106196819721071,right,-0.0029749274253845215,-0.4792459863407758,2.490195059750974,-8.337944059616326,-0.2422483141143942,-0.00033634272404015064,-0.002856135368347168,4.521946971072256,-0.00008869171142578125
1746739314688980700,5.901980712890625,0.2901573814902081,-0.002924255095422268,0.12722689939759624,-0.007216721773147583,0.018955347533563698,0.9616548774298006,0.11076928172019451,right,-0.0028319358825683594,-0.47918343431256016,2.4897099065825343,-8.338384204599262,-0.24222722890107976,0.003643770469352603,-0.003213435411453247,4.521402488932013,-0.0009259581565856934
1746739314728980700,5.941980712890625,0.29001855553626604,-0.006601833272725344,0.12719311222015262,0.0007292376831173897,0.018875381960160913,0.9616812839839816,0.11054628233271604,right,-0.003978729248046875,-0.47904700544541223,2.4887287865906953,-8.339320608666538,-0.24214638963690163,-0.00020498689264059067,-0.0021084249019622803,4.5202153249740595,0.0018789172172546387
1746739314768980700,5.981980712890625,0.2900436175703744,-0.006131457164883614,0.12722737687403368,0.0019077362958341837,0.018750458589764585,0.9616665944865802,0.11031425031320083,right,-0.0029854178428649902,-0.479181785631941,2.4887632733821867,-8.338674711978435,-0.24219641976298767,0.0002508742909412831,-0.0008819401264190674,4.521388168145716,0.0005426704883575439
1746739314808980700,6.021980712890625,0.2899889036324615,-0.0028599328361451626,0.12722904164154042,-0.001645176438614726,0.018652139382275362,0.96167493389541,0.11009208573127574,right,-0.0028531551361083984,-0.4791572236355907,2.4883389104902744,-8.338917288562655,-0.2421700121832988,0.0012717248173430562,-0.0013367235660552979,4.521174525395035,-0.0002123415470123291
1746739314848981000,6.06198095703125,0.28986558819942293,0.0014934851787984371,0.12717769191813694,-0.001949751516804099,0.0186435503436378,0.9616867637588351,0.11003809293374878,right,-0.001713097095489502,-0.47912521446769585,2.4873519452795385,-8.339362109720707,-0.24215013327723828,0.0011826143600046635,-0.0014202594757080078,4.5208960007145995,-0.0008498728275299072
1746739314888981000,6.10198095703125,0.28995508258313013,0.0034490807447582483,0.1271983950281659,0.0009573302231729031,0.018719186554104907,0.9616784314177139,0.1102193194584121,right,-0.0022739171981811523,-0.4791339897336925,2.4880869815558193,-8.339101412957906,-0.24216668562081908,-0.002411819761618972,-0.001430809497833252,4.520972280821204,-0.00004482269287109375
1746739314928980700,6.141980712890625,0.28997602516206644,-0.0002809022553265095,0.12718717315528674,-0.002458252478390932,0.018797514780040634,0.96167384477455,0.11038983730085308,right,-0.0006896257400512695,-0.4791487289451414,2.488242464378476,-8.338985677623748,-0.24218478191831888,0.0011839002836495638,-0.0011820495128631592,4.52110058337599,-0.0013777613639831543
1746739314968980700,6.181980712890625,0.290009695497891,-0.003081906819716096,0.1272116512244572,0.0008315611630678177,0.01877952908300136,0.9616807427189432,0.11034879064266635,right,-0.0031113028526306152,-0.4790726125928324,2.4886215268239376,-8.339231761339306,-0.24214602532893634,-0.001473238691687584,-0.00118941068649292,4.520438320074975,-0.0018669366836547852
1746739315008980700,6.221980712890625,0.29009863219272736,-0.0007331520318984985,0.12723721065487908,-0.0013530750293284655,0.01880232745608532,0.961658469482161,0.11044074578253725,right,-0.004016995429992676,-0.4792116821939285,2.489183544620871,-8.338408169996738,-0.24221931403918515,-0.006493177730590105,-0.0023710131645202637,4.521648280386627,-0.0006777644157409668
1746739315048980700,6.261980712890625,0.2902457590091401,0.0002472723135724664,0.1272759183209413,0.001313038868829608,0.018859146353624942,0.9616234880170597,0.11062945491472063,right,-0.0019421577453613281,-0.479421758009999,2.4901383611276744,-8.337130989667772,-0.2423333231816942,-0.004032665863633156,-0.0020702779293060303,4.523476372596622,-0.0007372498512268066
1746739315088981000,6.30198095703125,0.29038145917857466,-0.0006886706687510014,0.12732722646388756,0.0025417101569473743,0.01887414017760742,0.9616032623367659,0.11071004994612417,right,-0.0012830495834350586,-0.4795171626016354,2.491146076865494,-8.336379879039525,-0.24238542521066406,-0.002826028037816286,-0.0008633732795715332,4.524306393679976,-0.000700145959854126
1746739315128981000,6.34198095703125,0.29054813933041385,0.0010093988385051489,0.1273957840656287,0.0026020274963229895,0.018877120487096756,0.9615817399071886,0.11077277294696632,right,-0.0016102194786071777,-0.4796081075037325,2.4924177042365074,-8.33557031622231,-0.24243454571613826,-0.0019604400731623173,-0.0013555586338043213,4.525097836318611,-0.001973450183868408
1746739315168980700,6.381980712890625,0.2906705561184065,0.002594894263893366,0.12744026975049466,0.0016147291753441095,0.01890730393633318,0.9615676189075034,0.11087403259075178,right,-0.0022246241569519043,-0.4796558562621224,2.4933760278746484,-8.335058275046944,-0.242465006679147,-0.002168009988963604,-0.001399308443069458,4.525513139121234,-0.0005914568901062012
1746739315208980700,6.421980712890625,0.2907868846371143,0.0032481930684298277,0.12746998691200928,0.0033097125124186277,0.01895961652013973,0.9615417130446292,0.1110360762554601,right,-0.0010761022567749023,-0.479805544433332,2.4941513961613175,-8.334118948370218,-0.24254810972996094,-0.004335745237767696,-0.0011393427848815918,4.526815453891456,-0.000491797924041748
1746739315248980700,6.461980712890625,0.2910370633141229,0.004259116947650909,0.12755723598961363,0.004747022874653339,0.019038005460475016,0.9615134156232755,0.11127638367785068,right,-0.0016021728515625,-0.4798940265866709,2.4961215271905064,-8.333111232632398,-0.24260818320318256,-0.002363154198974371,-0.0006941854953765869,4.5275852692201735,0.000029653310775756836
1746739315288980700,6.501980712890625,0.29127470487328067,0.0014011864550411701,0.12765037209380228,0.001630196115002036,0.019091997291735708,0.9614961096854434,0.11144922337889548,right,-0.0032408833503723145,-0.4798975171260894,2.498097211177647,-8.332502160823344,-0.2426231722336784,-0.000859601772390306,-0.002300828695297241,4.527615372097492,-0.0006020665168762207
1746739315328981000,6.54198095703125,0.2913120697884484,-0.0006648644339293242,0.12766490577766418,-0.0005706432275474072,0.019096034327926954,0.9614913030307211,0.11147023443009256,right,-0.0008963942527770996,-0.47991744656773877,2.498382457859814,-8.332322712603212,-0.2426344028637873,0.00016452488489449024,-0.0018696486949920654,4.527788975098729,0.00018537044525146484
1746739315368981000,6.58198095703125,0.2912739652279569,-0.004450731910765171,0.12765386715545035,-0.0026716922875493765,0.019049090877650467,0.9614843349840547,0.11137744970611066,right,-0.0007064938545227051,-0.48000792391293157,2.497947281312942,-8.33202519096136,-0.24267144416758427,0.0021689487621188164,-0.0023073554039001465,4.528575741562247,-0.0017123818397521973
1746739315408980700,6.621980712890625,0.29141244304184144,-0.0039749001152813435,0.1277420475185517,0.005981889553368092,0.018938619567729843,0.9614736437191062,0.11118774338145467,right,-0.003952324390411377,-0.4800400195369644,2.499059334208071,-8.331540037792921,-0.24267601687666976,-0.0033143083564937115,-0.001682966947555542,4.528855143025517,0.0002810060977935791
1746739315448980700,6.661980712890625,0.2915978053515467,-0.0033695732709020376,0.12783276047875206,0.0029094633646309376,0.018848358629414263,0.9614350353151873,0.11108594092528214,right,-0.0037022829055786133,-0.48028465903619527,2.500285076610744,-8.330015020182728,-0.24278838726938873,-0.004931265488266945,-0.0014127790927886963,4.530982802703976,0.00016671419143676758
1746739315488980700,6.701980712890625,0.29162494316856086,-0.0016061726491898298,0.12784296429498285,0.0005995137616991997,0.01879100402514343,0.9614043509429065,0.11101518613653126,right,-0.0035042762756347656,-0.48054504491868355,2.5001719716250896,-8.32881675030887,-0.24290879995344714,-0.0042312671430408955,-0.0011624395847320557,4.533247240504622,-0.0013870298862457275
1746739315528980700,6.741980712890625,0.29163594270043947,-0.00010639592073857784,0.1278320367485301,0.0009746875730343163,0.018819039484410608,0.9613870505081433,0.11109851888860543,right,-0.0017037391662597656,-0.4806838212465474,2.5000825397759674,-8.32818663571179,-0.242980683767435,-0.0023492458276450634,-0.0005652010440826416,4.534453985945881,-0.0006743967533111572
1746739315568981000,6.78198095703125,0.29181475540465557,0.0026635259855538607,0.1278941267949826,0.0027993214316666126,0.018871298229389565,0.9613647913507954,0.11126547294241144,right,-0.002635180950164795,-0.48076519840291704,2.501465518566966,-8.327386425244807,-0.24303200408535963,-0.0032270499505102634,-0.0016163885593414307,4.5351615496933455,0.00014579296112060547
1746739315608981000,6.82198095703125,0.2919485357276477,0.0005866542924195528,0.12793388711085465,0.0014928774908185005,0.018919751840060568,0.9613401437195727,0.1114207530465074,right,0.0009655356407165527,-0.48089402454062785,2.5024112749844787,-8.326492106753587,-0.24310486978234558,0.0005585351027548313,-0.0008462667465209961,4.53628178589493,-0.002172708511352539
1746739315648980700,6.861980712890625,0.2921212329388476,0.00011273351265117526,0.12801275534077128,0.003796032862737775,0.01890338961934436,0.9613235877719926,0.11143789277265168,right,-0.001980006694793701,-0.48094079738688267,2.5037881162956355,-8.325856146937609,-0.243129997791853,-0.0032969494350254536,-0.001172482967376709,4.5366883208692075,-0.0019132792949676514
1746739315688980700,6.901980712890625,0.2922555721117673,0.00300705642439425,0.12804328108295082,-0.0008713279385119677,0.018968741657815667,0.961289272982966,0.11164156932782489,right,-0.0027359724044799805,-0.48115099509373344,2.5046318736433983,-8.324607023659349,-0.24324490516200953,-0.008038781583309174,-0.0016232728958129883,4.538515828557312,-0.0011033117771148682
1746739315728980700,6.941980712890625,0.29244602432595806,0.0026741614565253258,0.12808993824854056,0.0035383517388254404,0.01906080195774972,0.9612463886584096,0.11192092884139643,right,-0.0016838312149047852,-0.4813976218401626,2.505894733186066,-8.323057456129789,-0.24338265767179076,-0.005643553100526333,-0.0018489360809326172,4.540659562587738,-0.0006379485130310059
1746739315768980700,6.981980712890625,0.29260725311444474,0.0012651445576921105,0.128145102328145,0.0025344311725348234,0.01911319867438407,0.9612272558792432,0.11208107298614729,right,-0.0019251704216003418,-0.4814616962503668,2.5071526242926714,-8.322375319084525,-0.243425122239136,-0.0009024282917380333,-0.0017851591110229492,4.5412166119486095,0.00040477514266967773
1746739315808980700,7.021980712890625,0.29273911896744415,-0.0001304487232118845,0.12819734080233128,0.0018423408037051558,0.019126105014814244,0.9612112343382263,0.11215093995332154,right,-0.0019999146461486816,-0.48152140998510923,2.50817173820734,-8.321784367454052,-0.24345946988626374,-0.0007237020181491971,-0.0019242465496063232,4.541735667386651,0.000058144330978393555
1746739315848981000,7.06198095703125,0.2928300168502206,0.001406399649567902,0.1282354441346877,-0.0002609471557661891,0.01912611300089313,0.9612002013522731,0.11218096907404036,right,-0.001985609531402588,-0.4815648581583652,2.50887111864835,-8.321367603346705,-0.2434830544928957,-0.003114165738224983,-0.0026213228702545166,4.542113268527388,-0.0011677742004394531
1746739315888981000,7.10198095703125,0.292882089742524,0.003608685452491045,0.12823641494238347,-0.0016895909793674946,0.019196870143934754,0.9611871937623593,0.1123527713935194,right,-0.0009382963180541992,-0.48163559615121576,2.5092116026490925,-8.32092921192944,-0.24352842055920826,-0.001863747602328658,-0.002649664878845215,4.5427281855553385,-0.001179724931716919
1746739315928980700,7.141980712890625,0.2930069865046724,0.00369385932572186,0.12827343294988433,0.0029438566416502,0.01926799732493604,0.9611754513092465,0.1125352537286713,right,-0.00044661760330200195,-0.48165323492369394,2.5102277939543125,-8.32053933582902,-0.24354975903781698,-0.0014413988683372736,-0.001744091510772705,4.542881330290436,-0.0007764101028442383
1746739315968980700,7.181980712890625,0.2932274666765844,0.0017900279490277171,0.12836928476638507,0.0014265800127759576,0.019291137416565202,0.9611648738238047,0.11263284175306995,right,-0.003094196319580078,-0.481613320567779,2.512114630614221,-8.320158812078834,-0.2435390497967347,-0.0006984955398365855,-0.0011213123798370361,4.542534416548907,0.00012919306755065918
1746739316008980700,7.221980712890625,0.29316465841291695,0.00031090201810002327,0.12834807158636505,-0.002183360978960991,0.01928408105119478,0.9611786026735956,0.11258905624717706,right,-0.002836287021636963,-0.48153145587155344,2.5116993278115984,-8.320672606819867,-0.24349646101309888,0.0020329230464994907,-0.0008771717548370361,4.541823053409159,-0.0017178058624267578
1746739316048980700,7.261980712890625,0.29301004763653415,0.0030288451816886663,0.12827247493982297,-0.0017321305349469185,0.01932672889088408,0.9611966076263732,0.11262668937830923,right,0.00017523765563964844,-0.4814573437916172,2.5105101180270313,-8.321383385437727,-0.2434619058338489,-0.0008694338612258434,-0.003072798252105713,4.541178910286725,-0.0034924745559692383
1746739316088981000,7.30198095703125,0.2928667384100518,0.001195086631923914,0.12821194541374215,0.004699631128460169,0.01932474550272765,0.9612123695653965,0.11257764599042155,right,-0.0006006956100463867,-0.48140381996269155,2.509387835998833,-8.32197550611198,-0.2434317548046641,0.0015221689827740192,-0.0007341206073760986,4.540713630862534,-0.002171933650970459
1746739316128981000,7.34198095703125,0.2929374668004236,-0.00012145284563302994,0.1282449494800127,0.0013211409095674753,0.019286604552368466,0.961193168554733,0.11253750685271767,right,-0.0032064318656921387,-0.48153615408324596,2.5098028465405107,-8.321222641918062,-0.24349320490319107,-0.006574967410415411,-0.0009216666221618652,4.541863677680492,0.00010511279106140137
1746739316168980700,7.381980712890625,0.29289786311505306,-0.001414153608493507,0.12821966205644325,-0.0007336195558309555,0.019254900616116375,0.9611685357969086,0.11250051233193266,right,-0.0018901228904724121,-0.48177845074954484,2.5091554885476826,-8.320268702194094,-0.24360641109068007,-0.002594331745058298,-0.00029927492141723633,4.543969417788088,-0.0002923905849456787
1746739316208980700,7.421980712890625,0.2927134947063822,0.0024333102628588676,0.1281397078965059,-0.005407898686826229,0.019241797155572973,0.9611802902425693,0.11242746254878624,right,-0.0008828639984130859,-0.4817842387344226,2.507613812063634,-8.32070534004569,-0.24360275155937033,0.0010467942338436842,-0.001984715461730957,4.544019978931546,-0.0009602010250091553
1746739316248980700,7.461980712890625,0.29262090165779425,0.004615725949406624,0.12808646246699304,-0.00008060596883296967,0.019317862303499096,0.9611987301057565,0.1125429806308893,right,-0.000030219554901123047,-0.48166431981696667,2.507000648601353,-8.321459373283385,-0.24355186766156892,0.0005412526661530137,-0.0021982192993164062,4.5429777764022345,-0.0013858973979949951
1746739316288980700,7.501980712890625,0.2928023395697097,0.00496003357693553,0.12814656206183467,0.002294959034770727,0.01942213422378534,0.9611934129485046,0.11279355161271756,right,-0.0003546476364135742,-0.48158748714777344,2.5086110064074396,-8.321338377252221,-0.2435329036135728,-0.0018306431593373418,-0.003048151731491089,4.5423099601432675,-0.0011830627918243408
1746739316328981000,7.54198095703125,0.2929966068525551,0.0014004160184413195,0.1282281696990409,0.006853689905256033,0.019473810661825776,0.9611927788459236,0.11293183385654175,right,-0.0008080005645751953,-0.48147295246512284,2.510378016079962,-8.321349483168124,-0.24348880265734785,-0.00015004619490355253,-0.003483712673187256,4.541314519365131,-0.002282768487930298
1746739316368981000,7.58198095703125,0.2933427942295649,0.0018405216978862882,0.12838095471030317,0.00784223061054945,0.01945704238868677,0.9611572048927617,0.11300263605563407,right,-0.003568589687347412,-0.48158453369681214,2.513112117218971,-8.319994561427832,-0.24355011519671355,-0.007581763900816441,-0.0019864141941070557,4.542284241180122,-0.0017968416213989258
1746739316408980700,7.621980712890625,0.2936537255911633,0.0021385361906141043,0.12849099320750432,0.006610404700040817,0.019477120389095437,0.961091732328866,0.11318527882239142,right,-0.0020653605461120605,-0.4819689673635819,2.5151933074072,-8.317540738534927,-0.24374885178732822,-0.011520348489284515,-0.0008144974708557129,4.545625076040626,-0.0012126564979553223
1746739316448980700,7.661980712890625,0.293909392801727,0.001745079760439694,0.1285706174233998,0.0030644291546195745,0.019532895073174104,0.9610354262127196,0.11341941650974902,right,-0.002076089382171631,-0.4822981916425348,2.5168857905387876,-8.315464516782761,-0.24392396916465262,-0.0077083781361579895,-0.0009944736957550049,4.548485726168751,-0.0005203783512115479
1746739316488980700,7.701980712890625,0.2940372425444668,0.00016599707305431366,0.12860035869645106,0.000795349944382906,0.019595363984816518,0.9610043714824931,0.11361166495423453,right,-0.0028442740440368652,-0.48248242107096434,2.517706167010963,-8.314340481188893,-0.24402573022664006,-0.0034344359301030636,-0.000447005033493042,4.550086147102713,0.0008390545845031738
1746739316528980700,7.741980712890625,0.2940244775444808,0.00021748126891907305,0.1285836533479934,-0.0022184550762176514,0.01962366670212804,0.9609978713605782,0.11367680804419045,right,-0.002495288848876953,-0.4825410434768704,2.5175226271376014,-8.314117193827032,-0.24405784572500694,-0.0004999109078198671,-0.0006462931632995605,4.550595557929575,0.0013277232646942139
1746739316568981000,7.78198095703125,0.2938672526236218,0.0031448646914213896,0.12850606310586676,-0.004423317965120077,0.019674802940580466,0.9610181877957744,0.11372808471785702,right,-0.0018940567970275879,-0.4824469163399373,2.5163395548328755,-8.314922664991022,-0.24401455779436448,0.002408004365861416,-0.0016916990280151367,4.549777811805904,-0.00000947713851928711
1746739316608981000,7.82198095703125,0.29368802510087033,0.0015884231543168426,0.12841740617496505,-0.0034396955743432045,0.0197451958464129,0.9610462822737049,0.11380453556964215,right,-0.0009757280349731445,-0.482295096751519,2.5150492227613923,-8.316035010147095,-0.24394504148002225,0.0017442579846829176,-0.001859128475189209,4.548458838161826,0.001092374324798584
1746739316648980700,7.861980712890625,0.29366626709494614,-0.000029061688110232353,0.1284159891480714,0.00018418533727526665,0.019751430634731216,0.9610654360187824,0.11378705132326764,right,-0.0019069314002990723,-0.4821407646032816,2.5150714345932004,-8.316761570855975,-0.24386984731951145,0.003322301432490349,-0.0025651752948760986,4.547117944946885,0.0004912912845611572
1746739316688980700,7.901980712890625,0.29360392466231394,-0.001371484249830246,0.12840573000562203,-0.001285906182602048,0.01971072715866077,0.9610838032546419,0.11366785705877819,right,-0.002976655960083008,-0.4820251918789851,2.514704939368367,-8.31742149606943,-0.24380626397492547,0.0021922988817095757,-0.0037057697772979736,4.546113736340403,-0.0017535984516143799
1746739316728980700,7.941980712890625,0.29351989806254614,-0.0020036231726408005,0.12837521670979332,-0.0024066665209829807,0.019703636876437988,0.9610992355240968,0.1136181051299375,right,-0.0017783641815185547,-0.48194038918231746,2.514117494869232,-8.318001341783999,-0.24376168478709528,0.0007237341487780213,-0.0037783384323120117,4.545376654237509,-0.0013600289821624756
1746739316768980700,7.981980712890625,0.29337608027099943,-0.008711500093340874,0.1283223789073292,-0.003514029085636139,0.019616387855226573,0.9610921955761457,0.11342589419151747,right,-0.002923309803009033,-0.48210046015230273,2.512710842941701,-8.317666410741209,-0.24382452498350712,0.0012580214533954859,-0.0038305819034576416,4.546767816334962,-0.002443164587020874
1746739316808980700,8.021980712890626,0.2933389665982289,-0.010174565017223358,0.1283402204432658,0.0024794042110443115,0.01942894375367646,0.9610750515574246,0.11305912776925849,right,-0.004793047904968262,-0.4823032430537112,2.512135381141305,-8.316876721668242,-0.24389767628785888,-0.0068872952833771706,-0.0022185444831848145,4.548529565310478,0.002001941204071045
1746739316848981000,8.06198095703125,0.29332540999299317,-0.007068805396556854,0.12836188744268742,0.0013292136136442423,0.019229399165463998,0.9610387461063497,0.1126979514722592,right,-0.0034267306327819824,-0.48265987934424404,2.511553489600122,-8.315357549276948,-0.24404504217068698,-0.004527316894382238,-0.0019632279872894287,4.551627823586761,0.001684337854385376
1746739316888981000,8.10198095703125,0.2931774620387669,-0.0069587016478180885,0.12833324749548475,0.0005587219493463635,0.019052093443886847,0.9610392469095345,0.11230939081073117,right,-0.002767324447631836,-0.48277153734191636,2.5101763560280204,-8.31524239846468,-0.24407211981263555,0.003322258125990629,-0.001839965581893921,4.552597545401752,0.0015310049057006836
1746739316928980700,8.141980712890625,0.2928780498918526,-0.0068532549776136875,0.12824340154334365,-0.0007065795361995697,0.018910230193252598,0.9610778127555782,0.11191614307711294,right,-0.0023885369300842285,-0.4826349715086183,2.507866033259034,-8.316589136898518,-0.24397868433111736,0.008615333586931229,-0.0007369816303253174,4.551411258226633,0.0003580152988433838
1746739316968980700,8.181980712890624,0.2926586653820766,-0.0003760433755815029,0.12818779750137452,-0.0011613750830292702,0.018836219100332265,0.9611376081965075,0.11164538649635113,right,-0.0039823055267333984,-0.4822552410982228,2.506539753091335,-8.318792784422635,-0.24377754538104202,0.008999870158731937,0.00041091442108154297,4.548112508942187,-0.00041878223419189453
1746739317008980700,8.221980712890625,0.29235851107963445,-0.0003602277720347047,0.1280728501264503,-0.010455701500177383,0.018850449998085463,0.9612001385291579,0.11153928598912376,right,-0.001077413558959961,-0.481884322542323,2.504528997790813,-8.321159513553976,-0.24359037322804442,0.01206042617559433,-0.0003186166286468506,4.544889455242455,-0.0027401745319366455
1746739317048980700,8.261980712890624,0.29204738638097455,-0.0007161464309319854,0.12795955077383456,-0.008338549174368382,0.018870918565691112,0.9612780640874038,0.11142280012858419,right,-0.004441976547241211,-0.4813842678316923,2.5025939380750057,-8.324113687184452,-0.24334061977515364,0.00727050332352519,-0.0016672015190124512,4.540543534992635,-0.0018100440502166748
1746739317088981000,8.30198095703125,0.2916079556379073,-0.0006841490394435823,0.12776976361886752,-0.011575316078960896,0.018902884612840187,0.9613356217430559,0.11133774940295903,right,-0.004208683967590332,-0.4811325908691014,2.499264209130406,-8.326306813314556,-0.24321054225076172,0.0024276673793792725,-0.0028136074542999268,4.538355961820483,-0.002662092447280884
1746739317128981000,8.34198095703125,0.291238289095631,0.005494820885360241,0.1275925841623253,-0.007075064349919558,0.018991732655956935,0.9613794613369437,0.11139978027421993,right,-0.0023096799850463867,-0.48094956563877816,2.496424601790309,-8.328025892192125,-0.2431233734557437,0.004156792536377907,-0.004444926977157593,4.536764600975811,-0.0030670762062072754
1746739317168980700,8.381980712890625,0.2911678374745324,0.00760080199688673,0.1275365800314281,-0.002088745590299368,0.019154198289223667,0.9614113409727457,0.11167766676534718,right,-0.0022200345993041992,-0.48068531978554563,2.496182025206089,-8.329349834272264,-0.24301391308591194,0.002611881121993065,-0.0034973323345184326,4.534467137688398,-0.0009630322456359863
1746739317208980700,8.421980712890624,0.291169370725816,0.003761008381843567,0.1275135622879812,-0.0031356592662632465,0.019282366509785938,0.9614244007599069,0.1119228051346331,right,-0.0021686553955078125,-0.4805486142466417,2.4963725793421268,-8.329939616858958,-0.24296411147489513,-0.000010491348803043365,-0.0035035312175750732,4.533278512425721,-0.00015541911125183105
1746739317248980700,8.461980712890625,0.2910569742118444,0.0011621695011854172,0.1274424681915476,-0.003022477263584733,0.01936373464397002,0.961430284184199,0.11206354541860261,right,-0.0010535120964050293,-0.48054785582214044,2.495437344318628,-8.330223694497347,-0.24297163481725717,-0.0015612426213920116,-0.003365844488143921,4.533271790423989,-0.000038951635360717773
1746739317288980700,8.501980712890624,0.2910569159803283,0.0010693975491449237,0.12743390022962675,0.002682838821783662,0.01939033481610199,0.9614264624021941,0.11212344147133221,right,-0.0011980533599853516,-0.48057646118254943,2.4953996426567433,-8.330099191334844,-0.24298914539249328,-0.00035861204378306866,-0.0030041933059692383,4.533520504488051,-0.0006737709045410156
1746739317328981000,8.54198095703125,0.291083935443694,-0.00016886589583009481,0.12744262878395754,0.0005971747450530529,0.01939679665048316,0.9614213291346185,0.11214822346585762,right,-0.0013020038604736328,-0.48060467507412924,2.4955881509661673,-8.329909806242584,-0.24300448625355034,0.0001231599017046392,-0.003122389316558838,4.533766003681719,-0.00032392144203186035
1746739317368981000,8.58198095703125,0.2910388044125674,0.0012180401245132089,0.12742993806513594,0.0033204308710992336,0.019376826948904455,0.9614293814716391,0.11208880368816514,right,-0.0016075968742370605,-0.4805642315647161,2.495264618100226,-8.330197975534201,-0.24298089764199007,0.0031789082568138838,-0.0033749639987945557,4.533414121504128,-0.0022244155406951904
1746739317408980700,8.621980712890625,0.29099171378452227,-0.002882004715502262,0.1274182993019577,-0.0009666634723544121,0.019332004321845283,0.961430204442431,0.1119881232514353,right,-0.002498030662536621,-0.48059214140679896,2.4948361635550853,-8.330194468402862,-0.24298738537738138,0.0014910463942214847,-0.0042490363121032715,4.533656990349293,-0.0027246475219726562
1746739317448980700,8.661980712890625,0.29064169771183784,-0.0051402198150753975,0.12730672286206646,0.002972918562591076,0.019175171410250023,0.9614679588998346,0.11155753631449822,right,-0.002915680408477783,-0.4804926804195823,2.4920494554460046,-8.331499121260643,-0.24290896885912322,0.003568354994058609,-0.002984076738357544,4.532791897952556,-0.0030007362365722656
1746739317488980700,8.701980712890625,0.2905560307942393,-0.0018181942868977785,0.12729032600674978,0.002602863358333707,0.019054408846365996,0.9614608654914433,0.11130573615146143,right,-0.0031853318214416504,-0.4806245340863924,2.491164489305019,-8.331139640298485,-0.24295524893851106,-0.0010258909314870834,-0.0029616951942443848,4.5339384376391765,-0.001821964979171753
1746739317528980700,8.741980712890625,0.2903743894579894,0.0007775428239256144,0.12722836320646994,-0.001931654056534171,0.01901887795646237,0.9614931275085041,0.111158709236507,right,-0.002253413200378418,-0.48045385637046484,2.489872695928812,-8.332333233997225,-0.24286246272973128,0.009855425916612148,-0.0009522736072540283,4.532454336561262,-0.000703275203704834
1746739317568980700,8.781980712890626,0.29010410002918546,0.000652332731988281,0.12713478668273454,-0.00583257619291544,0.019021598491972973,0.9615632388435754,0.11102355854500265,right,-0.001439809799194336,-0.4799986567930828,2.4882103156745434,-8.334981702679395,-0.24263333861317746,0.011364931240677834,-0.001529991626739502,4.528495369802415,-0.0004405975341796875
1746739317608981000,8.82198095703125,0.289856697379928,0.00026291864924132824,0.12704874106153347,-0.0015543308109045029,0.0190183056850201,0.9616243384678631,0.1108924335307482,right,-0.0010069012641906738,-0.4796102256847535,2.4866508112728596,-8.337282380837202,-0.24243662393446333,0.008233528584241867,-0.001979053020477295,4.525116248758137,-0.0011776983737945557
1746739317648980700,8.861980712890626,0.28984560669639303,0.0014939073007553816,0.1270605006331733,0.0006409748457372189,0.01901792831836209,0.9616554418656356,0.11084678711884206,right,-0.0021343231201171875,-0.4793459846778344,2.486899817597866,-8.338455516269802,-0.24230706927370121,0.003351891413331032,-0.0034612715244293213,4.5228170319050545,-0.0037436485290527344
1746739317688980700,8.901980712890625,0.2898981249980298,0.0047542378306388855,0.1270933159710614,0.0061195953749120235,0.019052309616846605,0.9616838230278391,0.11088648089983968,right,-0.003033161163330078,-0.47906309976952144,2.487703535196185,-8.339550325769185,-0.24217459964671578,0.003547561587765813,-0.0030936896800994873,4.52035531796664,-0.004905909299850464
1746739317728980700,8.941980712890626,0.2900813592863929,0.005182080436497927,0.12715416247644568,0.0019056755118072033,0.019144258162420935,0.9616726597845608,0.11112009050957689,right,-0.005690038204193115,-0.47903952692380714,2.4892621628150344,-8.339196690025926,-0.24217989740028742,-0.0044814832508563995,-0.00349310040473938,4.52015015078336,-0.004258304834365845
1746739317768980700,8.981980712890625,0.2902135397437812,0.006637135520577431,0.12716812135307484,0.00383032881654799,0.019283551315591233,0.9616420845866069,0.11146952652647518,right,-0.0026801228523254395,-0.47920544554751926,2.4901497593045234,-8.338149226799606,-0.2422828501073285,-0.006713624577969313,-0.001843959093093872,4.521594212111831,-0.0029018521308898926
1746739317808980700,9.021980712890626,0.29050073881504446,0.00509102875366807,0.12726173384981218,0.006541803479194641,0.019397687939226565,0.9616082153082359,0.11179679263097536,right,-0.002362072467803955,-0.47931521050808845,2.4924022144064306,-8.336957971188426,-0.24235900957029136,-0.005273086484521627,-0.0019542574882507324,4.522549320879579,-0.0015284717082977295
1746739317848981000,9.06198095703125,0.290826567274675,0.0037354822270572186,0.1273895100785935,0.005830906797200441,0.019449569855573876,0.9615750548494919,0.11200156224290729,right,-0.003323197364807129,-0.4794074393384955,2.494998660640418,-8.335745672789216,-0.24241937028278768,-0.0037010598462074995,-0.001217573881149292,4.523351869434118,-0.00018301606178283691
1746739317888981000,9.10198095703125,0.2910407714581055,0.0032060686498880386,0.12746760430825166,0.0029327967204153538,0.01949754134693934,0.9615486172677836,0.1121710828923609,right,-0.0023433566093444824,-0.479505843004091,2.496656656980514,-8.33478471880257,-0.2424793743282102,-0.0051561687141656876,-0.0008719861507415771,4.524207901741564,0.0005335807800292969
1746739317928980700,9.141980712890625,0.29121615518276517,0.005167263559997082,0.12752023411283087,0.0009262666571885347,0.019579253589897844,0.9615248581418426,0.11239971126777622,right,-0.002157866954803467,-0.479595952926738,2.4980010573267935,-8.333955866762995,-0.24253884244836757,-0.0021881330758333206,-0.0016621947288513184,4.524992037856578,-0.000750124454498291
1746739317968980700,9.181980712890624,0.2914410465768362,0.006807080470025539,0.12758635467801888,0.0002467641606926918,0.01972663443809416,0.9615106699661065,0.1127578181695776,right,-0.0025243759155273438,-0.4795636092914202,2.499917412342131,-8.33353384195864,-0.2425484025120133,-0.001997570041567087,-0.002305835485458374,4.524710590566695,0.0004699230194091797
1746739318008980700,9.221980712890625,0.29160962178874217,0.008945778012275696,0.12762747641000385,0.0017258344450965524,0.019882747810867022,0.961504627616643,0.11311345809187004,right,-0.0025788545608520508,-0.4794912022759192,2.5014164187282324,-8.333426289930939,-0.2425380862710503,-0.0015681593213230371,-0.0026651620864868164,4.524080475969613,-0.0013359785079956055
1746739318048980700,9.261980712890624,0.29167763914475137,0.003601845819503069,0.12763253908581795,-0.00028563698288053274,0.019999333597554785,0.9615046127870909,0.11336345282169875,right,-0.002957642078399658,-0.47943091092950785,2.502061730894446,-8.33351747534573,-0.24252585319295755,-0.0013841260224580765,-0.004380375146865845,4.5235561598345635,-0.0025101900100708008
1746739318088981000,9.30198095703125,0.29146078975175793,-0.004237065557390451,0.12755110629319627,0.003450751304626465,0.019956901726679344,0.9615297848003325,0.11320671419969956,right,-0.003549635410308838,-0.47934495228609353,2.5003660328924653,-8.33443225210309,-0.24247252122224175,0.000989808700978756,-0.003479480743408203,4.522807971815765,-0.0019300580024719238
1746739318128981000,9.34198095703125,0.29148437831108803,-0.0022331031505018473,0.12757701311115308,0.005256134085357189,0.019863313038185372,0.9615152481157765,0.11303886767966335,right,-0.002724885940551758,-0.47947519986064296,2.5003935054212807,-8.333809151768683,-0.24252440204303402,-0.005608863662928343,-0.0033740997314453125,4.523941359759867,-0.0021352767944335938
1746739318168980700,9.381980712890625,0.2915200371438806,0.0004107644781470299,0.12757730006171836,0.0017498447559773922,0.019884388656055657,0.9614936567323829,0.11311794242787485,right,-0.0012665390968322754,-0.479638900466537,2.5004776765733956,-8.333010694867372,-0.242608176330057,-0.004548531956970692,-0.003475755453109741,4.525365547344088,-0.0018489658832550049
1746739318208980700,9.421980712890624,0.29162678174880036,0.003148637944832444,0.12759849991989608,-0.0006807090248912573,0.019947201344678343,0.9614654479191636,0.11330315864146646,right,-0.001317143440246582,-0.4798110996044493,2.501143154744804,-8.331997133910656,-0.24270351085429723,-0.005916218273341656,-0.002120763063430786,4.526863676947355,-0.0011258423328399658
1746739318248980700,9.461980712890625,0.2918429932718888,0.0033701155334711075,0.12766116896361593,0.005303444340825081,0.02003189406126415,0.9614255002506319,0.11356719433742067,right,-0.0012900233268737793,-0.4800183829786638,2.5026746020957824,-8.330557456496358,-0.24282176360795077,-0.006409869994968176,-0.00211411714553833,4.5286669269770385,-0.0018557608127593994
1746739318288980700,9.501980712890624,0.29214503526205343,0.0015501203015446663,0.12776387823508295,0.0030875802040100098,0.020099625786652284,0.9613751078790317,0.11382478138369581,right,-0.0016651749610900879,-0.4802697078851013,2.5048627597898245,-8.328710951846837,-0.24296156449360962,-0.008900624699890614,-0.003951281309127808,4.530852746583521,-0.0018561184406280518
1746739318328981000,9.54198095703125,0.29229932735498293,0.003454877994954586,0.12781123748104514,0.00508723733946681,0.020146840038071656,0.9613457189049796,0.11398738900070043,right,-0.0025829076766967773,-0.4804275806685804,2.505941494937241,-8.327638938701153,-0.24304907751868887,-0.003561949823051691,-0.0038893818855285645,4.532225788502395,-0.0014771819114685059
1746739318368981000,9.58198095703125,0.29253852216953086,0.005870412103831768,0.12789510246200203,0.0044510457664728165,0.020208867497498503,0.9613140789674322,0.1141971261532235,right,-0.0052266716957092285,-0.4805531711089596,2.507769294886291,-8.326494444841146,-0.24312501263389072,-0.00476091168820858,-0.0036769509315490723,4.533317967653274,-0.0005398988723754883
1746739318408980700,9.621980712890625,0.29276851405894805,0.0048628635704517365,0.1279705637914486,0.0045524099841713905,0.02031152006036357,0.9612929379130946,0.11447399848832913,right,-0.002835988998413086,-0.4805850196145286,2.5096426875427365,-8.32577899004817,-0.24316030048045928,0.0011588577181100845,-0.001604914665222168,4.533595031028986,-0.0006053745746612549
1746739318448980700,9.661980712890625,0.2929063459688884,-0.0006348141469061375,0.12803716123367273,0.0036858294624835253,0.020323807254774805,0.9612972753640106,0.11451516279092205,right,-0.0016705989837646484,-0.48046553757655763,2.510946463617682,-8.325952008527517,-0.24310713870975761,0.004300367087125778,-0.0020168721675872803,4.532556043370068,-0.00125962495803833
1746739318488980700,9.701980712890625,0.29298534502971907,-0.0010924655944108963,0.12810117076353641,0.003210616298019886,0.020257246934729325,0.9613140537913208,0.11436756859195528,right,-0.002171933650970459,-0.48028502210800617,2.511840489847958,-8.326535945895314,-0.24301211565498335,0.003626709571108222,-0.002528071403503418,4.53098601757437,-0.0021637380123138428
1746739318528980700,9.741980712890625,0.29301681062637364,0.003210498485714197,0.12812439094983996,-0.0006815155502408743,0.020246573541402146,0.9613235410449226,0.1143373790414996,right,-0.0027893781661987305,-0.48018617218097487,2.5122318272531032,-8.326886074507236,-0.24296318626351113,0.0016594035550951958,-0.002917170524597168,4.530126185874641,-0.0022833049297332764
1746739318568980700,9.781980712890626,0.2931199407510573,0.0049832286313176155,0.12814913844221,0.002740902826189995,0.020336149192526878,0.9613165134282331,0.11454734775135283,right,-0.0012955665588378906,-0.48017093040694897,2.513110363653302,-8.326692597761749,-0.2429703935535756,-0.0016314142849296331,-0.0032581984996795654,4.529993791666627,-0.001919090747833252
1746739318608981000,9.82198095703125,0.29334985006764885,0.005897510796785355,0.1282206914054516,0.0030520078726112843,0.020454177346763615,0.9612950177622334,0.11485617087636416,right,-0.003146052360534668,-0.4802028504730094,2.514982879526913,-8.325976558446884,-0.24300780835722388,-0.002611083211377263,-0.0026214122772216797,4.530271439564228,-0.0011278092861175537
1746739318648980700,9.861980712890626,0.29345715707538145,0.0035987193696200848,0.12823854883626656,-0.000001960666850209236,0.02056744374161925,0.96128228120065,0.11512341946754663,right,-0.0036572813987731934,-0.48023050658766236,2.5158400808781383,-8.325586682346463,-0.24303927621471225,-0.002821726491674781,-0.001705259084701538,4.530511970321834,-0.0008546710014343262
1746739318688980700,9.901980712890625,0.29348059304705076,0.0010055364109575748,0.1282252675335906,-0.0006252516759559512,0.02064294963629349,0.9612706998418759,0.11529826387550016,right,-0.001328885555267334,-0.48030369267659184,2.515939449599385,-8.325210250249505,-0.2430857528796315,-0.004438817035406828,-0.0025360584259033203,4.531148514659702,-0.0015505552291870117
1746739318728980700,9.941980712890626,0.29334176273241974,-0.0022737537510693073,0.12815432063258597,-0.003085177857428789,0.02064831234651448,0.96126716366442,0.11529212494852265,right,-0.0016047358512878418,-0.4804139585956701,2.5146391806557773,-8.325081070911883,-0.24313670209955177,-0.0009211467113345861,-0.0018683969974517822,4.532107422819734,-0.0030676722526550293
1746739318768980700,9.981980712890625,0.2935132069154373,0.005847574677318335,0.12821368943220596,0.003910677973181009,0.02067163408330755,0.9612341865449872,0.11541362017380008,right,-0.003655731678009033,-0.4805971615481235,2.515826052352786,-8.323855328509211,-0.24323393400165028,-0.010553545318543911,-0.0008752942085266113,4.533700537230074,-0.0016059279441833496
1746739318808980700,10.021980712890626,0.29382182930397077,0.007363046053797007,0.12829531316755174,-0.0027164993807673454,0.02083876162435066,0.9611834992517139,0.11587665458843771,right,-0.0032548904418945312,-0.4808269509383635,2.5180931205019355,-8.322080720052123,-0.2433768110406229,-0.005144042428582907,-0.0009985566139221191,4.535698725309968,0.00048410892486572266
1746739318848981000,10.06198095703125,0.2937307153537924,-0.0013019419275224209,0.12823214631302376,-0.00658994447439909,0.0209126917492853,0.9611818463422246,0.11601604806791277,right,-0.002668440341949463,-0.4808803076504707,2.5172648529842494,-8.322078381964564,-0.24341033146236937,-0.0012956641148775816,-0.0018474757671356201,4.536162543429434,0.0007500648498535156
1746739318888981000,10.10198095703125,0.2934825599804067,0.0016032522544264793,0.12811148459567406,-0.004100427962839603,0.020930025659665067,0.9611897976623608,0.11600086908684873,right,-0.0015280842781066895,-0.4809520348754214,2.5151053368628022,-8.322391685697436,-0.24344108244863738,-0.0012674889294430614,-0.0032425522804260254,4.536786228285729,-0.0019024908542633057
1746739318928980700,10.141980712890625,0.2935669057865751,0.004911995958536863,0.12811960989623922,0.001820974051952362,0.021028458348769437,0.9611733758056531,0.11623919310811649,right,-0.0014432072639465332,-0.4810271153399251,2.515708855713904,-8.321853341037034,-0.24349316441514937,-0.003327686805278063,-0.004173010587692261,4.537438846975565,-0.001321166753768921
1746739318968980700,10.181980712890624,0.29365367173840295,0.0022005527280271053,0.12813473183323337,0.00419847946614027,0.02112551724562882,0.9611666632568708,0.11646142500755235,right,0.0001844167709350586,-0.48101654721555925,2.5164447687730194,-8.321680907079577,-0.2435032611302321,0.005910280626267195,-0.003442823886871338,4.537347077038884,-0.003616511821746826
1746739319008980700,10.221980712890625,0.2937943723649033,-0.0019737728871405125,0.12820433199762019,0.00407669460400939,0.021115926677272398,0.9611643734972605,0.11646742865808306,right,-0.00274050235748291,-0.4809567299881161,2.5176941843122242,-8.321586799055337,-0.24347650525092643,0.000704936683177948,-0.0032002925872802734,4.536826852557063,-0.003359466791152954
1746739319048980700,10.261980712890624,0.2939386687410166,-0.0003538301680237055,0.1282675583686454,0.0044469041749835014,0.021086581928727626,0.9611393050190913,0.11646556608992598,right,-0.0023453235626220703,-0.48109654784887934,2.5187109601393343,-8.320615908196569,-0.24354481000176254,-0.0030179291497915983,-0.002772510051727295,4.538042365826666,-0.0026063621044158936
1746739319088981000,10.30198095703125,0.29419086790877835,0.0026437456253916025,0.1283737811416906,0.003998312633484602,0.02109098859301838,0.9611116397230774,0.11655375575295532,right,-0.0021924972534179688,-0.4811897799776304,2.5206869363874196,-8.319575459232926,-0.2435977350624898,-0.0010991781018674374,-0.002864450216293335,4.538853097687661,-0.0015869736671447754
1746739319128981000,10.34198095703125,0.294418634265333,0.0018943666946142912,0.12847765857303772,0.0038475184701383114,0.021094278268472565,0.9611002430898217,0.1166126704277884,right,-0.0014202594757080078,-0.48115481886012657,2.522627549061179,-8.319152849906683,-0.2435872200597874,0.0019922528881579638,-0.0015052258968353271,4.538549146305025,-0.00044041872024536133
1746739319168980700,10.381980712890625,0.29455636970028043,-0.0020705859642475843,0.12855625039331567,0.0030029721092432737,0.02103223632328824,0.9610940633794219,0.1165161456452141,right,-0.0013387799263000488,-0.48114050473971315,2.5237922089263796,-8.318867603224515,-0.24357561118304358,0.0003684073453769088,-0.0018220841884613037,4.5384246431425215,-0.0015336275100708008
1746739319208980700,10.421980712890624,0.2945791309729168,0.0006046593189239502,0.12857333538512644,-0.0014961238484829664,0.02098854723139001,0.9610860093807635,0.11644152129240014,right,-0.0024051666259765625,-0.481205319209506,2.523896253822744,-8.318528580528497,-0.24360207220853647,-0.0029932023026049137,-0.0021149516105651855,4.538988122244179,-0.001776278018951416
1746739319248980700,10.461980712890625,0.2946575637178905,0.0031011260580271482,0.12858950320650434,0.0011797440238296986,0.021048156600509012,0.9610724543376036,0.11659537120293237,right,-0.0010805130004882812,-0.4812664587065001,2.524468208491802,-8.318065054669976,-0.2436420320047823,-0.0010856145527213812,-0.002114802598953247,4.539519452641904,-0.0021308958530426025
1746739319288980700,10.501980712890624,0.29479027292828863,0.000709818908944726,0.12863595554205726,0.0011851853923872113,0.021119890042157925,0.9610707222342918,0.11676594633551929,right,-0.002776503562927246,-0.48119043902938646,2.5256723235845566,-8.318060378494858,-0.2436180320046736,-0.0008066882146522403,-0.0028170347213745117,4.538858650645613,0.00044995546340942383
1746739319328981000,10.54198095703125,0.2947195199265141,-0.0010281528811901808,0.1285989087678561,-0.001254923059605062,0.02111707141521086,0.9610650603138016,0.11675693428204593,right,-0.0037430524826049805,-0.48128150139274717,2.5249635907933112,-8.317843520873785,-0.2436602709340367,-0.0007230572518892586,-0.001992255449295044,4.539650385545194,-0.0021986663341522217
1746739319368981000,10.58198095703125,0.29452726552735625,0.0018116494175046682,0.12850172165630488,-0.002890920266509056,0.021148240464299754,0.9610722747903012,0.11678010414682576,right,-0.0005823373794555664,-0.481324943951144,2.5233073480188843,-8.318139873471855,-0.2436805073560243,-0.00040491833351552486,-0.0033221840858459473,4.540027986685931,-0.0032342374324798584
1746739319408980700,10.621980712890625,0.29421415171013937,-0.0021993594709783792,0.1283678869941211,0.0018992209807038307,0.021136019207582055,0.9611002923420237,0.11666569197479557,right,-0.0009584426879882812,-0.4812657832487421,2.5207804598897696,-8.319186752176284,-0.24364154532342677,0.00392609927803278,-0.0017440617084503174,4.539513607423007,-0.0024407804012298584
1746739319448980700,10.661980712890625,0.2942008628447632,-0.0070801908150315285,0.12838596136401498,0.0046578459441661835,0.021019984403335544,0.96109426536574,0.11643420509928665,right,-0.0023566484451293945,-0.48134810355945906,2.5205615564420816,-8.318862342527508,-0.24366593125484737,-0.0032974728383123875,-0.0015567541122436523,4.540229354476929,0.00041049718856811523
1746739319488980700,10.701980712890625,0.294111359317995,-0.006257100496441126,0.12837035668545596,0.0020579916890710592,0.020879144214364962,0.9610837278142159,0.1161459877296766,right,-0.0017819404602050781,-0.48151814848332164,2.519593003670871,-8.318349132308363,-0.24372785933967883,-0.0015473567182198167,-0.0018471181392669678,4.541707318075001,-0.0011330246925354004
1746739319528980700,10.741980712890625,0.29398414206259665,-0.0014383592642843723,0.1283402456615382,-0.00027970061637461185,0.020753397456753385,0.9610864043951244,0.11586401576913027,right,-0.0026003122329711914,-0.4815919983004242,2.5184376961559054,-8.318348547786474,-0.24374378530787083,-0.00014738482423126698,-0.003067225217819214,4.542349123109877,-0.0020053982734680176
1746739319568980700,10.781980712890626,0.2939139730753418,0.005807753652334213,0.12830378879043602,0.0012807197635993361,0.02079923733709059,0.9611020014260945,0.11592487512944227,right,-0.0022777318954467773,-0.4814886320167569,2.5179899523884055,-8.318974570730328,-0.2436975022687583,0.0005435110069811344,-0.002708137035369873,4.541450712965428,-0.001963287591934204
1746739319608981000,10.82198095703125,0.29406149505814344,0.004822756163775921,0.12834817721550346,0.002708004554733634,0.020923595237696015,0.9611064912021255,0.11619717241154888,right,-0.002584397792816162,-0.48134120327650853,2.5194112173631784,-8.319244035321473,-0.24364595144115497,-0.0006412809016183019,-0.002806544303894043,4.540169148722291,-0.00009277462959289551
1746739319648980700,10.861980712890626,0.2940108032423244,0.0021969329100102186,0.12831862956614049,0.003372850362211466,0.020993051606500678,0.961127545739003,0.1163018427725875,right,-0.0015079975128173828,-0.48117445397193137,2.519208972789347,-8.320095683714747,-0.24357235043219627,0.004399055615067482,-0.002292066812515259,4.538719826696813,-0.0016861259937286377
1746739319688980700,10.901980712890625,0.29400384028650683,-0.00043552438728511333,0.12831929051636626,0.001593837165273726,0.021004468490728394,0.9611395599027389,0.11630720008300886,right,-0.004298686981201172,-0.4810717514019268,2.519285837417841,-8.320559209573268,-0.24352348229018558,-0.001327842939645052,-0.003888547420501709,4.537826969510316,-0.002236872911453247
1746739319728980700,10.941980712890626,0.29400183668962526,0.0004834764404222369,0.1283092506397295,0.0011087930761277676,0.0209982909985471,0.9611208804771417,0.11632048762511618,right,-0.003071725368499756,-0.48123624910237117,2.5190529054448008,-8.319850184521078,-0.24360303087007637,-0.005283423699438572,-0.0035665035247802734,4.539257002313435,-0.00228196382522583
1746739319768980700,10.981980712890625,0.2940812792307918,0.0031386446207761765,0.12832728993369316,0.0006712303729727864,0.021033558456827722,0.9610993349483037,0.1164357749878447,right,-0.0028730034828186035,-0.48137054114529454,2.519537181830406,-8.319066340667009,-0.24367552165316544,-0.0025102230720221996,-0.003560662269592285,4.540424292527139,-0.0019894540309906006
1746739319808980700,11.021980712890626,0.2942103568779489,0.002834494225680828,0.12837484019201914,0.002557939849793911,0.02107289275088303,0.9610889790134273,0.11655162879877905,right,-0.0020948052406311035,-0.4813784240248832,2.520600719408691,-8.318706859704852,-0.2436880768952622,0.00009731692261993885,-0.00338706374168396,4.5404926815882325,-0.000940173864364624
1746739319848981000,11.06198095703125,0.2942991235137488,-0.0008801079820841551,0.12841924634936222,0.0017623907187953591,0.021069763933957684,0.9610896781030492,0.1165584139742427,right,-0.0017004609107971191,-0.4813216488193508,2.521413789357245,-8.318729656058549,-0.24366227458595893,-0.00024021539138630033,-0.0025377869606018066,4.539999345113337,-0.00089988112449646
1746739319888981000,11.10198095703125,0.29428331968384175,-0.00038197991671040654,0.12842160792578586,-0.000006021582521498203,0.021017980271899328,0.9610853011551903,0.1164557832948448,right,-0.002146899700164795,-0.48137793196818995,2.5212080376520754,-8.31852507339716,-0.24368247048726457,-0.0019970738794654608,-0.0029528141021728516,4.540488589935005,-0.0028762519359588623
1746739319928980700,11.141980712890625,0.29433936217457674,0.0039955489337444305,0.1284309003076814,0.0037904633209109306,0.021053212907583232,0.9610684898482169,0.11656065368967419,right,-0.0006065964698791504,-0.4814848588396535,2.5215336163446307,-8.317918924197555,-0.2437409504981747,-0.0036848909221589565,-0.002660304307937622,4.541417979739606,-0.0023005306720733643
1746739319968980700,11.181980712890624,0.2946205512262196,0.0038617553655058146,0.12853631557336156,0.006064667832106352,0.02111149676840892,0.9610374200940387,0.11676875067302107,right,-0.0024547576904296875,-0.48158025769052937,2.523746616218984,-8.316795473125577,-0.24380292439676965,-0.0013479436747729778,-0.002187371253967285,4.542247124040126,-0.0016154944896697998
1746739320008980700,11.221980712890625,0.29476404370510323,-0.00025871465913951397,0.12859337289480652,0.0007538222707808018,0.021138757617411692,0.9610262633800761,0.11686322707810669,right,-0.003283560276031494,-0.48158851309850664,2.52492910400182,-8.31639682919681,-0.24381446247621735,0.0002646262291818857,-0.0021386146545410156,4.5423187279716135,-0.002167344093322754
1746739320048980700,11.261980712890624,0.2946191212684708,-0.00057459797244519,0.12852166290618294,-0.005527007859200239,0.021154883862543633,0.9610312858848448,0.11686613946160955,right,-0.004847288131713867,-0.4816262022964816,2.523674135504663,-8.316599073770641,-0.24383114581155452,-0.0040443576872348785,-0.0033240020275115967,4.542646352490783,-0.0010285377502441406
1746739320088981000,11.30198095703125,0.2944969648637061,-0.003099911380559206,0.12845130602169688,-0.00450478121638298,0.02116373505590856,0.961015952679699,0.11688635975963656,right,-0.004110097885131836,-0.48182818663198346,2.5223916944786904,-8.316029164928198,-0.243927799904627,-0.0022422373294830322,-0.004833042621612549,4.544401671725511,-0.0008370876312255859
1746739320128981000,11.34198095703125,0.2943901331607797,-0.009067356586456299,0.12843214203032272,0.0036754989996552467,0.021023394849775095,0.9610141116271271,0.1165840176220997,right,-0.005723536014556885,-0.48193188914259316,2.52136644308418,-8.315847378620505,-0.24395690042693563,-0.0015118559822440147,-0.003448694944381714,4.545303004479408,0.0020852088928222656
1746739320168980700,11.381980712890625,0.29437496940676217,-0.014624064788222313,0.12847490470721137,0.003879987169057131,0.020766451447274778,0.9609930743943216,0.11608437421378422,right,-0.004529595375061035,-0.48217200115500625,2.5209236677527427,-8.314840831926464,-0.2440395186088712,-0.0018525202758610249,-0.0022368431091308594,4.547389163103699,0.001013427972793579
1746739320208980700,11.421980712890624,0.294201187848903,-0.012044772505760193,0.12847325751572913,0.0030023783911019564,0.02042688741843466,0.9609945699655889,0.11535790895666062,right,-0.0030463337898254395,-0.48232223579367534,2.5192805767208335,-8.31462514334917,-0.24406295941117687,0.00416699331253767,-0.003311663866043091,4.548694692744315,-0.0033799707889556885
1746739320248980700,11.461980712890625,0.2940564168346535,0.003919025883078575,0.12844044644279998,-0.00010549323633313179,0.020327978742202824,0.9610190806089175,0.11509744914429866,right,-0.0027901530265808105,-0.48221201679371434,2.5182220075786113,-8.315469192957877,-0.24399201360952819,0.0028093750588595867,-0.0028463006019592285,4.547736953628063,-0.0038388073444366455
1746739320288980700,11.501980712890624,0.2941613276624453,0.007543614599853754,0.12846306929927573,0.002912691794335842,0.020463338294772152,0.9610266905589075,0.11538125410737733,right,-0.0028437376022338867,-0.48206059279750835,2.5192940207242964,-8.315864329755305,-0.2439388522335862,0.00010617543011903763,-0.0019277632236480713,4.5464211948543785,-0.0005478858947753906
1746739320328981000,11.54198095703125,0.29414649857753966,-0.004270411562174559,0.12844767942528723,-0.0032102023251354694,0.02049792021401569,0.9610270316015251,0.11544932506335008,right,-0.0012881159782409668,-0.4820597623819423,2.519171855649352,-8.315905246287583,-0.24394267726036084,-0.0003142785863019526,-0.0037405788898468018,4.546414180591702,-0.0015184879302978516
1746739320368981000,11.58198095703125,0.29401343518585854,-0.00581970252096653,0.12841364868412844,0.0012194267474114895,0.02038287253347769,0.961032338724992,0.11518463406419717,right,-0.0030755996704101562,-0.4821123412892744,2.517996089868247,-8.316011629271507,-0.24394946928044023,-0.0025623810943216085,-0.003191322088241577,4.546870984448493,-0.0026851296424865723
1746739320408980700,11.621980712890625,0.29417982633108536,0.0008561192080378532,0.12847544054576363,0.0011517009697854519,0.020365289971220744,0.9609905508300858,0.11523388997374007,right,-0.005456507205963135,-0.48238156302511,2.519024556133151,-8.314420560687779,-0.24408313748972923,-0.009323986247181892,-0.0030484795570373535,4.5492099487900735,-0.0017635822296142578
1746739320448980700,11.661980712890625,0.29432177652498326,0.00040264573181048036,0.12851268368049784,0.0005416622734628618,0.020416886600112837,0.960955927743654,0.11541093469010834,right,-0.0033235549926757812,-0.4825888174902159,2.5199311495840546,-8.313160331493616,-0.24419514868466105,-0.004385211039334536,-0.0022003352642059326,4.551010568471253,-0.0004093050956726074
1746739320488980700,11.701980712890625,0.29437388748737403,-0.0013930853456258774,0.12854085216203376,0.0027775189373642206,0.020389670659240963,0.9609491954177061,0.11537293662301813,right,-0.0022850632667541504,-0.4826221614744465,2.520320441162586,-8.312883852639795,-0.244209185448478,0.00018564146012067795,-0.0015037953853607178,4.551300199067592,-0.00043976306915283203
1746739320528980700,11.741980712890625,0.29451367551216456,0.000006031244993209839,0.12861533366837755,0.0028516133315861225,0.020356805280096136,0.960946415901411,0.11533181598761662,right,-0.002458512783050537,-0.48257133854868,2.521549690696597,-8.312752919736504,-0.24418364932536352,0.0016759136924520135,-0.002765059471130371,4.550858592779934,-0.0019987523555755615
1746739320568980700,11.781980712890626,0.29452874513811306,0.001621295465156436,0.12862414280084936,-0.0016740304417908192,0.020375252597375684,0.9609569497698482,0.11535726288872823,right,-0.0029230117797851562,-0.4824679002700221,2.5218115565031765,-8.313165007668733,-0.24413595270890023,0.0010265818564221263,-0.0035056471824645996,4.549960182635486,-0.0024173855781555176
1746739320608981000,11.82198095703125,0.2944568232885129,0.0029161330312490463,0.12857102708509166,-0.00035625696182250977,0.020454997751164307,0.9609591325058573,0.11550627916006292,right,-0.0013409852981567383,-0.48247603447861925,2.521202776955068,-8.313311138141154,-0.24414869064195796,-0.004200736992061138,-0.0035389065742492676,4.550030617523193,-0.001977890729904175
1746739320648980700,11.861980712890626,0.29456966260663664,0.002621512394398451,0.12859353114032582,0.003911653067916632,0.02053308242848459,0.960935012942441,0.11571835156564945,right,-0.0013627409934997559,-0.4826047344114645,2.5219708387181163,-8.312465919488668,-0.2442250669673647,-0.003767775371670723,-0.0038487911224365234,4.551148807898164,-0.001140683889389038
1746739320688980700,11.901980712890625,0.29472695994950837,-0.0009253022726625204,0.12864910217049472,0.0010600832756608725,0.02056531623437792,0.9609114819684534,0.11584269803769218,right,-0.003174304962158203,-0.4827111417218054,2.5231375444099307,-8.31160550326705,-0.24428559351300735,-0.0014630844816565514,-0.0043097734451293945,4.552072937005758,-0.0013835728168487549
1746739320728980700,11.941980712890626,0.29468612968733304,0.0010640472173690796,0.12863185600300492,0.00007815496064722538,0.020569842180825474,0.9609181014290405,0.1158361254443975,right,-0.0031893253326416016,-0.48267656118742835,2.522844114421308,-8.311859185767172,-0.24426820977766142,0.0017925004940479994,-0.0036367177963256836,4.551772785015404,-0.0034641921520233154
1746739320768980700,11.981980712890625,0.2947587258539288,0.00042647990630939603,0.1286539979591676,0.0010250112973153591,0.020610109431166458,0.9609120585252099,0.11593897426731069,right,-0.0032416582107543945,-0.48268022488618895,2.523442664836347,-8.31166044832468,-0.2442772997439129,-0.004132749512791634,-0.00533488392829895,4.551804349197447,-0.003737717866897583
1746739320808980700,12.021980712890626,0.29471157480900373,0.00005945123848505318,0.12863251549714944,0.0031538382172584534,0.0206060026683828,0.9609128776196939,0.11592178505314245,right,-0.0033603906631469727,-0.4827007932407146,2.5230235626414417,-8.311689674419164,-0.24428556073990243,-0.003132816404104233,-0.003119349479675293,4.551983212895691,-0.0017247498035430908
1746739320848981000,12.06198095703125,0.2947568124320919,-0.0014382011722773314,0.1286455130573986,0.0010593088809400797,0.020579286136024173,0.960885384127354,0.11591286862925798,right,-0.0034949779510498047,-0.4829174936828073,2.523112994490564,-8.310631689798832,-0.2443891238651177,-0.0058454954996705055,-0.0022011399269104004,4.553865373380482,0.0007680058479309082
1746739320888981000,12.10198095703125,0.2945921020075944,-0.0034611138980835676,0.12856570500416586,-0.002324276138097048,0.020563558165009283,0.9608793182614029,0.11586264751623168,right,-0.0019722580909729004,-0.48306783554778454,2.5215450145214793,-8.31039145130217,-0.24445613541847744,-0.0015386766754090786,-0.0018292665481567383,4.5551709030210965,-0.0004132688045501709
1746739320928980700,12.141980712890625,0.2943907349389009,-0.003017856040969491,0.12848489969778007,-0.0025021175388246775,0.020503390199523002,0.9608841876308216,0.11570017518250066,right,-0.0031145215034484863,-0.48315415481874247,2.519757546582818,-8.31052296872735,-0.24448489801343873,-0.0001191991614177823,-0.0035132169723510742,4.55592055234462,-0.000689774751663208
1746739320968980700,12.181980712890624,0.2942131144509998,-0.0006489739753305912,0.12840759339778351,-0.0018058039713650942,0.020494524599589257,0.9608967353122253,0.11563589420976546,right,-0.003292381763458252,-0.4831502578206086,2.5182865972474215,-8.31098766362965,-0.24447707549325076,0.0002387490530963987,-0.0027360916137695312,4.555886942335963,-0.0005033612251281738
1746739321008980700,12.221980712890625,0.2941508124636684,0.0004430400440469384,0.12836805194390277,-0.0014055981300771236,0.02052060120301961,0.960891555523771,0.11568656521439565,right,-0.0025394558906555176,-0.4832257918816972,2.5176690498709675,-8.310815229672192,-0.24451583819623535,-0.003031001193448901,-0.003672569990158081,4.556542775896191,-0.0025592148303985596
1746739321048980700,12.261980712890624,0.29406017432385106,0.0008374005556106567,0.12832481039258636,0.0017328762914985418,0.020551719870590797,0.9609065377308054,0.11571481883192812,right,-0.00362396240234375,-0.48314276171988585,2.517025491270423,-8.311405012258886,-0.244477000010405,0.002066162182018161,-0.0033332109451293945,4.555821768145263,-0.004056304693222046
1746739321088981000,12.30198095703125,0.2939637297005004,-0.0009711177553981543,0.12827676046297418,-0.0017912788316607475,0.020552189559463814,0.9609048144405511,0.11570268945821177,right,-0.006444692611694336,-0.48321333895548424,2.5161305882573126,-8.311340130329132,-0.2445089937361105,-0.004709756001830101,-0.0035848915576934814,4.556434639346599,-0.002651721239089966
1746739321128981000,12.34198095703125,0.29378280936979567,-0.0012063365429639816,0.12818552346774947,-0.0006292829057201743,0.020530612602049563,0.9608898883467875,0.1156501577941978,right,-0.0032924413681030273,-0.4834506308843924,2.514313601963222,-8.310760284614563,-0.24461729315963252,-0.0034506763331592083,-0.0036007165908813477,4.558495079007744,-0.003319859504699707
1746739321168980700,12.381980712890625,0.2938028700134348,0.0015103518962860107,0.12819687662802753,0.002246348187327385,0.020500608410994662,0.960879791772625,0.11560599452953832,right,-0.0028790831565856934,-0.4835320656676954,2.514372930935025,-8.31035462642312,-0.2446536210067646,-0.001575073110871017,-0.004401743412017822,4.55920205823332,-0.004445254802703857
1746739321208980700,12.421980712890624,0.29392142996090315,-0.00006058020517230034,0.12824727790797227,0.0016850229585543275,0.020503148913848697,0.9608678667649345,0.11564699810002199,right,-0.0027813315391540527,-0.4835661933707999,2.515313134394586,-8.30990746717751,-0.24467379449231502,-0.0010331178782507777,-0.003951996564865112,4.559498410831392,-0.0030009448528289795
1746739321248980700,12.461980712890625,0.2939341074718996,-0.000028379621653584763,0.12825943766809228,0.000789371901191771,0.02047454621524788,0.9608661789636888,0.11559272911981519,right,-0.0023512840270996094,-0.48357878037740293,2.5154019817218183,-8.309820373415947,-0.2446764645785427,-0.0004839781322516501,-0.0035936832427978516,4.559607716424763,-0.002640336751937866
1746739321288980700,12.501980712890624,0.2940275585442715,0.001241439487785101,0.12829553451313655,0.004462921991944313,0.02047825606289753,0.9608510679663645,0.11563655526357168,right,-0.001032114028930664,-0.4836547467394949,2.516077981287241,-8.309253971704841,-0.24471657439488004,-0.002025545109063387,-0.003281623125076294,4.560267349377274,-0.002750575542449951
1746739321328981000,12.54198095703125,0.2942469450473435,0.0019775533583015203,0.12839121783910767,0.0035039030481129885,0.02048342251853911,0.9608335058897686,0.11570708020526424,right,-0.0030426979064941406,-0.4836787546254658,2.5178692486181853,-8.308596969100833,-0.24473483721130102,-0.001552794361487031,-0.0030970871448516846,4.560475731430947,-0.0017161369323730469
1746739321368981000,12.58198095703125,0.29433255539128544,0.004035289399325848,0.12842125344879426,-0.0017361377831548452,0.02050748828111268,0.9608231817300162,0.11578469498079534,right,-0.0031447410583496094,-0.48371398283186523,2.518533850006759,-8.308227551266551,-0.24475755306294905,-0.001443547778762877,-0.002117723226547241,4.560781436379254,-0.0032048821449279785
1746739321408980700,12.621980712890625,0.29450595425304665,0.0061836098320782185,0.1284696536209756,0.0012466551270335913,0.020629337457202412,0.9608117088034772,0.11607866634507044,right,-0.0014380216598510742,-0.4836903231697464,2.52000567612499,-8.30789378926754,-0.24476690127190406,-0.003790093120187521,-0.0028895139694213867,4.560576269195973,-0.002344667911529541
1746739321448980700,12.661980712890625,0.29451440011344815,-0.0012951078824698925,0.12845119030188668,-0.0033130815718322992,0.020720971613673797,0.9608111502343182,0.11626884573655479,right,-0.003967761993408203,-0.4836736234886429,2.5200980305835605,-8.307945811715722,-0.24477120423045745,0.004436207469552755,-0.0029099881649017334,4.560431015506387,-0.0015626847743988037
1746739321488980700,12.701980712890625,0.2945052173832187,-0.002987832762300968,0.12846073307145545,0.0013424160424619913,0.02066959696863461,0.9608139106558449,0.1161581207673108,right,-0.004873037338256836,-0.4836647238976553,2.52003344091475,-8.308007771036028,-0.24475973797186,-0.0038055465556681156,-0.003668755292892456,4.560353858616947,0.0004981756210327148
1746739321528980700,12.741980712890625,0.2945622443265125,-0.0005939193069934845,0.1284809388382845,-0.0008508877363055944,0.02064205075261853,0.9607885706176151,0.11614623770638306,right,-0.0037220120429992676,-0.48385519246305736,2.5202549747109413,-8.307032204002141,-0.24485069146680657,-0.003383754985406995,-0.0031335651874542236,4.562007471042871,-0.00047528743743896484
1746739321568980700,12.781980712890626,0.2945442152820464,-0.0010107711423188448,0.12847142973843675,-0.0002601614105515182,0.020641875036109425,0.9607872089787747,0.1161448929558352,right,-0.003210306167602539,-0.4838774694492462,2.520075818751752,-8.30698076607585,-0.24486107291517145,0.0006224962417036295,-0.0036575496196746826,4.562200655527413,-0.0004711151123046875
1746739321608981000,12.82198095703125,0.29443086273282315,0.0003688985016196966,0.1284217221150181,-0.002098293509334326,0.020646292234613832,0.9607988187652995,0.11611939816783645,right,-0.002908766269683838,-0.4838417106339694,2.519181500260532,-8.307422080102562,-0.24484116392028304,0.0011853212490677834,-0.0028285086154937744,4.561890274403989,-0.0016003251075744629
1746739321648980700,12.861980712890626,0.2944039794318557,0.00312963780015707,0.12840418294167763,-0.001254253787919879,0.02068446216311158,0.960807346589098,0.11618140657669962,right,-0.003188610076904297,-0.48377641233029584,2.5190444298774004,-8.307775131323933,-0.24481363405521359,-0.00041117402724921703,-0.0028884708881378174,4.561323580431938,-0.0011393427848815918
1746739321688980700,12.901980712890625,0.2943615607987818,0.0022519617341458797,0.12836627897419786,-0.0012937262654304504,0.02076682170279845,0.9608121983320941,0.11633672636505082,right,0.0001302957534790039,-0.4837436936754701,2.518735510058701,-8.30802472217083,-0.24480751242052576,0.0035563285928219557,-0.0028350353240966797,4.56103950279355,-0.0035304129123687744
1746739321728980700,12.941980712890626,0.2944857100128425,-0.002752237021923065,0.1284234611546505,0.0012990180402994156,0.02077858438210405,0.9608114805768112,0.11638188265829205,right,-0.0050803422927856445,-0.483676184543777,2.519856330782175,-8.308006601992249,-0.24477940254909036,-0.0026743330527096987,-0.003977060317993164,4.56045351959914,-0.0022950172424316406
1746739321768980700,12.981980712890625,0.29462217547356967,-0.0020415361505001783,0.12847175399693336,0.00046785996528342366,0.020774359654211913,0.960777529769722,0.11644284442954189,right,-0.004149794578552246,-0.4838916340986311,2.520704764305055,-8.306722407400608,-0.2448877872373278,-0.006901228800415993,-0.004076480865478516,4.5623236973851915,-0.0025585591793060303
1746739321808980700,13.021980712890626,0.2947845890248676,0.0011146615725010633,0.1285321655174708,0.0031932727433741093,0.02078931264688335,0.9607507654592043,0.11653708387956074,right,-0.0026378631591796875,-0.48402518183891186,2.5218767306938767,-8.305729304710031,-0.2449594361704651,-0.0022255927324295044,-0.003802001476287842,4.563483096553385,-0.0020778775215148926
1746739321848981000,13.06198095703125,0.29497481341968945,0.0018531081732362509,0.12861457923390734,0.004602786153554916,0.020818692590542597,0.9607453392502738,0.11663564216292659,right,-0.003438234329223633,-0.483956923008604,2.523547001993656,-8.305547518402337,-0.24493509229766097,0.002163591794669628,-0.0017629563808441162,4.562890391357243,-0.0010809600353240967
1746739321888981000,13.10198095703125,0.29516684961152045,0.0017035207711160183,0.1286908477075754,-0.00018357718363404274,0.020870528980970436,0.9607370384059339,0.116784492728442,right,-0.004207432270050049,-0.48390763654759306,2.525207336421311,-8.305278053811191,-0.24492309977972707,-0.0025036977604031563,-0.0026879310607910156,4.562462813594937,-0.0002613663673400879
1746739321928980700,13.141980712890625,0.29517262763754787,0.0015658932970836759,0.12867779591633882,-0.0007208757451735437,0.02092966211579868,0.9607343603791549,0.11691048310122605,right,-0.0022863149642944336,-0.4839163501824056,2.525243869039416,-8.30522544684112,-0.24493543327132947,-0.0008707573870196939,-0.0025300681591033936,4.562538216918707,-0.001112431287765503
1746739321968980700,13.181980712890624,0.29518436714142665,0.001501720049418509,0.12867157902879056,-0.0009714087937027216,0.020999645799842096,0.9607432555987837,0.11704340307292796,right,-0.0028550028800964355,-0.48381952353559554,2.52546978674978,-8.30561824555099,-0.24489779622429075,-0.00010934553574770689,-0.0029258430004119873,4.561697674441337,-0.001795738935470581
1746739322008980700,13.221980712890625,0.295144789148169,0.0030160141177475452,0.1286406457280664,-0.002359377685934305,0.021060499631130422,0.9607487455526933,0.11715414857538925,right,-0.0027256011962890625,-0.48378361344466175,2.525188631720841,-8.305875435182452,-0.24488732502751545,0.0008386985864490271,-0.0034385323524475098,4.561386124274135,-0.002644091844558716
1746739322048980700,13.261980712890624,0.2951506433688148,0.004281229805201292,0.12862442059934276,0.0003964237403124571,0.021167733747067485,0.9607609438886728,0.11735785228494072,right,-0.0012270808219909668,-0.48365450092779133,2.5254087042123077,-8.306423716714978,-0.24483873249125326,-0.00022346223704516888,-0.003984570503234863,4.560265011289715,-0.002291768789291382
