time,seconds_elapsed,roll,rotationRateZ,quaternionY,rotationRateY,quaternionZ,quaternionW,yaw,devicelocation,accelerationZ,pitch,gravityX,gravityZ,quaternionX,rotationRateX,accelerationX,gravityY,accelerationY
1746576350498023000,0.45802294921875,0.26535053155524146,-0.006783594843000174,0.13228617339223284,0.0006067785434424877,-2.1796575268823882e-18,0.9912109180233306,-0.00027249418028796503,right,0.23723888397216797,0.0020417767102612998,2.5717659662395715,-9.463403548806905,0.0010299398717727494,-0.014252552762627602,-0.03823910653591156,-0.020022986844170372,0.6536149978637695
1746576350538023000,0.49802294921875,0.26747815168560835,0.0031457734294235706,0.11579846065535694,0.002158017596229911,0.02593469339596451,0.9639423337352792,0.11824809979491978,right,0.13543999195098877,-0.470341515772386,2.3104550170637665,-8.43092687921822,-0.23818703809865466,-0.005544809624552727,-0.01174841821193695,4.444283301155269,0.1992456614971161
1746576350578023000,0.53802294921875,0.28945012393325026,0.0039786286652088165,0.10719610962095232,0.0001993454061448574,0.03626584427730347,0.9360452918947976,0.17779741580323885,right,0.032402634620666504,-0.6636279374775512,2.20500083842352,-7.403946468958258,-0.33318578355775047,0.0008401987142860889,-0.0013844221830368042,6.040689446517825,0.039202868938446045
1746576350618023000,0.57802294921875,0.29553188523003704,0.0005615490954369307,0.10630617859131183,0.0023579702246934175,0.03778019525024197,0.9309863751387061,0.18840924058212197,right,0.01222294569015503,-0.6924340988526324,2.1983825893275437,-7.220891164243221,-0.34718291123776873,-0.0007087134290486574,0.0003939121961593628,6.2606894572705025,0.015773534774780273
1746576350658023000,0.61802294921875,0.29793806727064037,0.007566758431494236,0.10624131408519329,0.0005467820446938276,0.03824647284375432,0.9294354042046952,0.19185532961731191,right,0.005488038063049316,-0.7008438965437903,2.200216965147853,-7.164994504976272,-0.35128294745391875,0.002859069500118494,-0.000035196542739868164,6.323945247128606,0.008382141590118408
1746576350698023200,0.658023193359375,0.3003997399059196,0.014571966603398323,0.10617438319924735,-0.0012644060188904405,0.03871201176965113,0.9278664213180041,0.1953528549634063,right,-0.0013036131858825684,-0.7092473781323816,2.2020450573578474,-7.108541380870342,-0.35537619398870485,0.006426852196455002,-0.0004636794328689575,6.386707115989923,0.001041114330291748
1746576350738023200,0.698023193359375,0.3010042001691342,0.006683125160634518,0.10613688106561696,-0.0011016128119081259,0.03897163345571056,0.9275346135468532,0.19646110340286208,right,-0.003997862339019775,-0.7109419444223035,2.2031294915936885,-7.096862633514404,-0.3562241570723756,0.0019492357969284058,-0.0009860098361968994,6.399308823409676,0.00023990869522094727
1746576350778023000,0.73802294921875,0.3006687142661674,0.0011323913931846619,0.10600230037681084,-0.0010839017340913415,0.03902821322235192,0.9275843145803687,0.1964189032761406,right,-0.003245115280151367,-0.7107529070181414,2.201106753594428,-7.098756484436988,-0.35612866268408727,0.003581293625757098,-0.0014511048793792725,6.3979036327868695,-0.0004550814628601074
1746576350818023000,0.77802294921875,0.30037503344528366,0.005338042974472046,0.10590713532690588,-0.00273895263671875,0.03905955990495246,0.9276537778740599,0.19631478047677392,right,-0.0013613700866699219,-0.7104373768499972,2.1996191453851757,-7.1013307188391686,-0.35597266272062533,0.002221211325377226,-0.0004603564739227295,6.395558530965447,-0.0017715692520141602
1746576350858023000,0.81802294921875,0.3002979294169352,0.012436632066965103,0.10586164788446256,0.000826733885332942,0.03920400991125012,0.9277171536400749,0.19652441284212738,right,0.00042194128036499023,-0.7100507842915799,2.1998026852585375,-7.103861698621511,-0.3558049361527129,0.001798186800442636,-0.001342087984085083,6.3926838523119685,-0.0014491677284240723
1746576350898023000,0.85802294921875,0.3004676468168533,0.012484701350331306,0.10589241104291264,-0.0006139317993074656,0.03939350983435182,0.9277570391632839,0.1969332246879715,right,0.00015205144882202148,-0.7097041089644169,2.2016640952162443,-7.105604742896556,-0.3556708651201716,-0.000171464285813272,-0.0004836171865463257,6.390105526256561,-0.0005221962928771973
1746576350938023200,0.898023193359375,0.300652697818462,0.0059789796359837055,0.10592220218183966,0.0009970087558031082,0.03961093529012282,0.9278004047296432,0.19740163563446678,right,0.0010251402854919434,-0.7093232926047194,2.203699400436133,-7.107520805650949,-0.35552462811649965,-0.0004883400397375226,0.0008305758237838745,6.3872717641353605,0.001523733139038086
1746576350978023200,0.938023193359375,0.3007402161382109,0.0055905734188854694,0.10593815321372047,0.0033043979201465845,0.03967504188852179,0.9278017308260237,0.1975628768036243,right,0.0004693269729614258,-0.7092672414071044,2.2044274224497378,-7.107669274210929,-0.3555091994920398,-0.0014411613810807467,0.0008634477853775024,6.386855000028014,0.0009222030639648438
1746576351018023000,0.97802294921875,0.30095507672263067,0.004797279369086027,0.10598043436282839,-0.0010464743245393038,0.03977466388524416,0.9277771351190145,0.19786813525579433,right,-0.0007426738739013672,-0.7093108889063466,2.2058719221696257,-7.106929269498586,-0.35554966168541324,0.0005251818802207708,-0.000034436583518981934,6.3871799941986795,0.0010916590690612793
1746576351058023000,1.01802294921875,0.30097999360657296,0.0007007536478340626,0.1059472900412621,-0.005910633131861687,0.03988566987451637,0.9277701341320305,0.1981178044975754,right,-0.0003115534782409668,-0.7093153026491029,2.2060407028652724,-7.10684743643403,-0.3555654051032625,0.0038727063219994307,-0.000014454126358032227,6.387212727424502,0.0004578232765197754
1746576351098023000,1.05802294921875,0.30095898476938443,0.003715664381161332,0.10590588420520543,0.0009551751427352428,0.0399986934807075,0.9277828021069661,0.19833517482331187,right,0.0017521381378173828,-0.7092180332434125,2.206075481917709,-7.107486903381347,-0.35553189308882904,-0.0013445636723190546,0.00035609304904937744,6.3864885048031805,-0.0005803704261779785
1746576351138023000,1.09802294921875,0.3008097969350684,-0.017308300361037254,0.10585286714097347,-0.006922009866684675,0.03997914803735146,0.9277903533175413,0.19823847953453502,right,-0.0008116364479064941,-0.7092319494518198,2.2049887095943093,-7.107731233531236,-0.35553017505386514,-0.0007984159747138619,-0.00080089271068573,6.386592549699545,0.0017997026443481445
1746576351178023000,1.13802294921875,0.30049391579881013,-0.017290065065026283,0.10581748596507615,0.005775141064077616,0.039685177644276044,0.9277853183027411,0.197524791871808,right,-0.0026186704635620117,-0.7094513522975194,2.202328696604818,-7.107088843974471,-0.3555867709243845,-0.0015330093447118998,-0.0009618550539016724,6.388225119337439,0.003573775291442871
1746576351218023200,1.178023193359375,0.3001480049242707,-0.0076223984360694885,0.10581521936667253,0.006506743840873241,0.03926573475947106,0.927782244150007,0.19653469250595684,right,-0.00010001659393310547,-0.7097011151407312,2.199398342241347,-7.10632604290843,-0.35564212823796437,0.003746454371139407,-0.00002759695053100586,6.390083314424753,0.00043141841888427734
1746576351258023000,1.21802294921875,0.30034535015285635,-0.005127336364239454,0.10595694434442127,0.00600228738039732,0.03913213317075991,0.9277959237949377,0.19630013772943672,right,0.00020229816436767578,-0.7095822854328397,2.201025358921289,-7.106617134809493,-0.3555790454296871,0.002971776993945241,0.0006097704172134399,6.389198932805657,0.0008599758148193359
1746576351298023000,1.25802294921875,0.30054264299221617,-0.00263227429240942,0.10609864493001556,0.005497830919921398,0.03899852894843104,0.9278095434291306,0.19606554071200202,right,0.000504612922668457,-0.7094634260676057,2.2026522294707593,-7.106908226710558,-0.3555159282502116,0.002197099616751075,0.0012471377849578857,6.3883145511865616,0.00128859281539917
1746576351338023000,1.29802294921875,0.3006939544125824,-0.0017257663421332836,0.10619161538569541,0.007852780632674694,0.03891827391179013,0.9278075135214884,0.19594634726488017,right,-0.0003777146339416504,-0.7094411090690932,2.20376983532384,-7.106711242833733,-0.35550230344185796,0.00004732469096779823,0.0020208656787872314,6.38814854696989,0.0019410252571105957
1746576351378023000,1.33802294921875,0.3008452783753127,-0.0008192584500648081,0.10628458584137529,0.010207729414105415,0.03883801887514923,0.9278054836138463,0.19582715947968626,right,-0.0012599825859069824,-0.7094188319794141,2.204887441176921,-7.1065136744350195,-0.3554886786335043,-0.002102450467646122,0.0027945786714553833,6.387983127275109,0.002593398094177246
1746576351418023000,1.37802294921875,0.3010541819947286,-0.007615312933921814,0.1064757017872014,0.0008857918437570333,0.03861296628011111,0.9278377161320033,0.19538231909985995,right,-0.0013815760612487793,-0.7092060660660602,2.2067747162282467,-7.107350125259161,-0.3553714999517217,0.008038736879825592,0.00045299530029296875,6.386399657475948,0.0001233816146850586
1746576351458023200,1.418023193359375,0.30107946300392247,-0.004311167635023594,0.10654708258312191,0.0024971580132842064,0.038487677704422935,0.92786292208403,0.1950979384013247,right,-0.0024091601371765137,-0.7090776747450604,2.2071976178154347,-7.108077270489931,-0.3552979224703717,0.0028523518703877926,0.00037582218647003174,6.385443964186311,0.0011048316955566406
1746576351498023000,1.45802294921875,0.3011534579957559,-0.014181075617671013,0.10671872643021359,0.016402078792452812,0.03824517352710302,0.9279480564683494,0.1945147549458869,right,0.0011355280876159668,-0.7086022989185208,2.2086235589653254,-7.110811663889884,-0.35505011260074715,0.02366510033607483,-0.00010152161121368408,6.381905268666148,0.004640638828277588
1746576351538023000,1.49802294921875,0.3007483377056034,-0.02674775943160057,0.10684205988548331,0.017024626955389977,0.03774704126179743,0.9281437092935051,0.1931185276502767,right,0.0011862516403198242,-0.7077026777568474,2.207442824748158,-7.1171876286625855,-0.35455489680985636,0.03599413484334946,0.0003811568021774292,6.375204309722781,0.003837764263153076
1746576351578023000,1.53802294921875,0.3004722676705048,-0.019258566200733185,0.10701408315076286,0.015085453167557716,0.03718619761325705,0.9282920928677039,0.19168338880093883,right,-0.0020067691802978516,-0.7070507264594849,2.206707642341405,-7.121765604102611,-0.35417366015239526,0.02812058851122856,-0.0013019144535064697,6.370344594731926,-0.0002884864807128906
1746576351618023000,1.57802294921875,0.3004488195134066,0.0005373973399400711,0.1071970511485592,0.0035414081066846848,0.036885314805183485,0.9284312148215451,0.1908863431399366,right,-0.002360224723815918,-0.7062974893394594,2.207959834359586,-7.126397940078378,-0.35378466930044766,0.023747701197862625,-0.0014490187168121338,6.364726754850149,-0.0024932026863098145
1746576351658023000,1.61802294921875,0.3004844508780978,0.005026195198297501,0.10731330163484878,0.005032064393162727,0.036870819895474735,0.9285863931561382,0.19069420430925257,right,-0.00021058320999145508,-0.705357470466815,2.2099835952721536,-7.132030393007398,-0.35334326748302786,0.01246239710599184,0.002667829394340515,6.35771073860824,0.001270294189453125
1746576351698023200,1.658023193359375,0.30055271464870975,-0.0026471982710063457,0.10739075455787839,0.006212988868355751,0.036814736866695216,0.9286316476968677,0.19054693210580984,right,-0.0008457303047180176,-0.7050749049175782,2.211002270795405,-7.1335957426279775,-0.3532067868551436,0.003616437315940857,0.0024912208318710327,6.355601199108362,0.0002586245536804199
1746576351738023200,1.698023193359375,0.3006045184204884,-0.0016778369899839163,0.10746845163803152,-0.0004353439435362816,0.03670544677778585,0.9286581875122483,0.19030310241077683,right,-0.003312528133392334,-0.7049232588988144,2.211657373703271,-7.134402382835745,-0.3531249412332557,0.0023448108695447445,0.0015699118375778198,6.354468395686149,-0.003249526023864746
1746576351778023000,1.73802294921875,0.3007677477155398,0.01186155341565609,0.10751319301004676,-0.008210171945393085,0.03681997390872409,0.9286818453514035,0.19056938784204575,right,-0.0033035874366760254,-0.7046947498784748,2.2132520955488086,-7.135428218752145,-0.35303725734198405,-0.0006388090550899506,-0.0010643601417541504,6.352761591768265,-0.0032539963722229004
1746576351818023000,1.77802294921875,0.3009698388926221,0.012707240879535675,0.10749083267342346,-0.01354173757135868,0.03711137482925629,0.9286709930506977,0.19125908665493385,right,-0.002965688705444336,-0.704615558837716,2.2148428718715905,-7.135460367456078,-0.3530417429291222,-0.005841504316776991,-0.000952795147895813,6.352169471094012,-0.0016171932220458984
1746576351858023000,1.81802294921875,0.30057854714078347,0.009841665625572205,0.10723093154441055,-0.011503570713102818,0.03734152069247617,0.928658028107119,0.19163662649024932,right,-0.0010970234870910645,-0.704780526245178,2.2117403758116065,-7.13532534289956,-0.35313052406257206,-0.006205156445503235,-0.00031398236751556396,6.353402227759361,-0.0014361739158630371
1746576351898023000,1.85802294921875,0.3001873758279704,0.006976091302931309,0.1069710354049216,-0.009465403854846954,0.03757168595833661,0.9286449994106646,0.1920142259245332,right,0.0007714629173278809,-0.7049456881705601,2.208638756534457,-7.1351873957335945,-0.353219275814345,-0.006568808574229479,0.00032469630241394043,6.354635568946599,-0.0012552738189697266
1746576351938023200,1.898023193359375,0.3002271894394151,0.009269626811146736,0.10688134372287302,-0.00821652077138424,0.03788432552276065,0.9286515193307252,0.19267853281011976,right,0.0009604692459106445,-0.7048155807717902,2.209167310453206,-7.135888822001219,-0.35319579211503094,-0.006147528067231178,-0.00025419890880584717,6.35366409356594,0.000274658203125
1746576351978023200,1.938023193359375,0.30026691086130264,0.011563162319362164,0.10679164233950912,-0.006967637687921524,0.03819696979898637,0.928657977992669,0.19334278941260344,right,0.0011495351791381836,-0.7046854993380072,2.209695133719593,-7.136590832790732,-0.3531722765392791,-0.005726247560232878,-0.0008330494165420532,6.352692033663391,0.001804649829864502
1746576352018023000,1.97802294921875,0.3005022709974705,0.009111675433814526,0.10674925199277538,-0.004367098677903414,0.03852388134684478,0.92861165233589,0.19415709326141575,right,-0.0020552873611450195,-0.7047968219955634,2.2111653524026273,-7.1353949010044335,-0.3532713932839691,-0.003154773497954011,-0.0010530799627304077,6.353523808312416,0.0022611618041992188
1746576352058023000,2.01802294921875,0.300721055310979,0.006324423011392355,0.10677099730222887,-0.002483348362147808,0.03869110027008997,0.928588999163765,0.1946032010768632,right,-0.0005061030387878418,-0.7048114272150465,2.2126989917106927,-7.13482265407443,-0.35330613119429427,-0.0010549644939601421,-0.0011230260133743286,6.353633113905787,0.0011290907859802246
1746576352098023000,2.05802294921875,0.30072385441880956,0.010175604373216629,0.10673279658745957,0.003548777662217617,0.0388249351352857,0.9286018814195431,0.19487166734889433,right,-0.0011265277862548828,-0.7046995759751183,2.2129294394657015,-7.13549485424757,-0.3532691430114955,0.006301350891590118,-0.0007481276988983154,6.352797247603536,0.0011693239212036133
1746576352138023000,2.09802294921875,0.30086877768083364,0.005573705770075321,0.10676492173443634,-0.0027223187498748302,0.03891394231340088,0.9286028482758463,0.19510335605851856,right,-0.005751907825469971,-0.7046183425669446,2.2141164572931826,-7.135666703683137,-0.3532470295911729,0.0012135813012719154,-0.0005747079849243164,6.35219051388204,0.0009644627571105957
1746576352178023000,2.13802294921875,0.3007087484893195,0.00667901337146759,0.1067360380700815,-0.0030348303262144327,0.038923698855943496,0.9286737410103865,0.19499456704776533,right,-0.0036700963973999023,-0.7042486502168936,2.213669882569462,-7.138263734439015,-0.35306830797835237,0.01224003080278635,-0.00036676228046417236,6.3494280634313816,0.0006153583526611328
1746576352218023200,2.178023193359375,0.30054881965682423,0.0077843209728598595,0.10670713971488768,-0.003347341902554035,0.03893346274390582,0.9287446324975458,0.1948859118591245,right,-0.0015884637832641602,-0.703879001153492,2.213223161715269,-7.140859596151113,-0.3528895838707724,0.02326647937297821,-0.00015875697135925293,6.346665028458833,0.0002663731575012207
1746576352258023000,2.21802294921875,0.3003624913800961,0.00816250778734684,0.10670673659680531,-0.000607070978730917,0.03900569662828439,0.9289151303790365,0.19478906872098897,right,-0.0010371208190917969,-0.7029036265014652,2.2137230740614235,-7.147181200388074,-0.35243269499402946,0.021883191540837288,0.0009420514106750488,6.339370195275545,0.0010082125663757324
1746576352298023000,2.25802294921875,0.30022927381181297,0.008524815551936626,0.10669321206503538,-0.004939851816743612,0.03914764681611522,0.9290668970100858,0.19487649937819673,right,0.001232445240020752,-0.7020026477852083,2.2144591332510113,-7.152929388651251,-0.3520207653236627,0.009225629270076752,-0.00041262805461883545,6.332625981712341,0.0017527341842651367
1746576352338023000,2.29802294921875,0.3003893705009103,0.006598654203116894,0.10674681360861532,0.0010967841371893883,0.03925620343434335,0.929102390723847,0.1951150521462768,right,0.0013093948364257812,-0.7017029527292853,2.216165791038424,-7.15438777076602,-0.3518988856115765,0.002459373790770769,0.00035127997398376465,6.330382002177834,0.0009958744049072266
1746576352378023000,2.33802294921875,0.3007858306434254,0.0020660399459302425,0.10688015017934432,-0.00020818854682147503,0.03935255140744299,0.9290934050444756,0.19545093010967132,right,-0.0019972920417785645,-0.7015864919693838,2.2192203563034534,-7.1542124141991135,-0.3518711367670384,-0.0004696603864431381,-0.00007383525371551514,6.329509310996532,0.0006229281425476074
1746576352418023000,2.37802294921875,0.30085553805567383,0.00258213235065341,0.10687481020315022,-0.000060006670537404716,0.0394490210997432,0.9290905653986549,0.1956787856967835,right,-0.0005383491516113281,-0.7015531648293881,2.2197814973175523,-7.154258591428398,-0.3518693835409672,0.004431483335793018,0.00037553906440734863,6.329259720149636,-0.0007081031799316406
1746576352458023200,2.418023193359375,0.30080699526513244,-0.0032282783649861813,0.10680080731078995,-0.007637658156454563,0.03962442512983628,0.9291048526010522,0.1960168875077166,right,-0.0015076398849487305,-0.7014400834505227,2.2196463266305626,-7.155050034067035,-0.3518345075837596,0.0015008763875812292,-0.00023663043975830078,6.3284127479314805,0.0005639791488647461
1746576352498023000,2.45802294921875,0.3007583670862012,-0.009038688614964485,0.10672679471711423,-0.015215309336781502,0.03979981918089193,0.9291190810400926,0.1963549242911172,right,-0.0024768710136413574,-0.7013269503729265,2.2195104252912103,-7.15584206122756,-0.35179959975011327,-0.00142973056063056,-0.000848725438117981,6.327565191191434,0.0018360614776611328
1746576352538023000,2.49802294921875,0.30049209494763324,-0.00620546517893672,0.10661041329102439,-0.008238257840275764,0.039800804575752476,0.929119276442673,0.19627423719558812,right,-0.0015749931335449219,-0.7014236281221854,2.217423974405974,-7.155848490968346,-0.35183439947927253,-0.005988070275634527,-0.00014981627464294434,6.328289413812756,0.0030121207237243652
1746576352578023000,2.53802294921875,0.30021648112659394,-0.00018673250451683998,0.10648371814284506,-0.004362399689853191,0.03980019830225235,0.9291084969546003,0.19619950632327224,right,0.00044459104537963867,-0.7015897510360203,2.2151406857743856,-7.155455107736587,-0.3519012739935153,-0.0012914505787193775,-0.0008637905120849609,6.329533860915899,-0.00029343366622924805
1746576352618023000,2.57802294921875,0.30037482381778097,0.004908372648060322,0.10651671397545825,0.0035591041669249535,0.03984858563334593,0.929078091870687,0.19638460334917898,right,0.0005791783332824707,-0.7017022056420914,2.2160630613163113,-7.15442401112318,-0.35196597492878956,-0.006747023668140173,-0.0004958361387252808,6.330376156958938,0.00031489133834838867
1746576352658023000,2.61802294921875,0.3007587357224635,0.006287451833486557,0.106606020798138,0.0033892907667905092,0.039950219879339145,0.9290106524972677,0.19679353984981074,right,0.0001404881477355957,-0.7019417468743142,2.2183602323427793,-7.152124502009153,-0.3521054726026966,-0.004288936033844948,-0.00012022256851196289,6.332170054638385,0.00007635354995727539
1746576352698023200,2.658023193359375,0.30118876817716994,0.009401620365679264,0.1067581221318219,0.010666575282812119,0.04001397016330563,0.9289900324094463,0.1970844314565153,right,0.0002396106719970703,-0.7018917451073174,2.2215296561591327,-7.151472175580262,-0.3521066049764353,0.0004064152017235756,0.0010684579610824585,6.331795960628986,0.004491567611694336
1746576352738023200,2.698023193359375,0.301438984809689,-0.005869987420737743,0.10690915742973973,0.0021254243329167366,0.039994896233419175,0.9290459303990517,0.19705879975750812,right,-0.000028967857360839844,-0.7014670935384077,2.2241168961733577,-7.153482930880784,-0.35191517905126546,0.02051711082458496,0.0007974058389663696,6.328614992505312,0.0037087202072143555
1746576352778023000,2.73802294921875,0.3014309635238287,-0.002667536260560155,0.1069928507672325,0.0022674924694001675,0.03990744600747234,0.9291357488599837,0.19677101005013722,right,-0.002864539623260498,-0.7009509485477922,2.225029042582214,-7.156618890818953,-0.3516624696894408,0.012107362039387226,-0.0005393773317337036,6.3247477956831455,0.004880726337432861
1746576352818023000,2.77802294921875,0.30137354364572205,-0.0008169749053195119,0.10703156560845449,-0.0009914690162986517,0.03985082358507649,0.9292056409333272,0.19655530707609983,right,-0.0019513964653015137,-0.7005651807567649,2.225342346315086,-7.159076220843195,-0.35147249527672547,0.013374307192862034,-0.0005495995283126831,6.321856165894865,0.002505362033843994
1746576352858023000,2.81802294921875,0.3012014476248267,-0.00035931530874222517,0.10702610057237298,-0.00018866301979869604,0.039811790388278624,0.9292947341231854,0.19631945217926747,right,-0.0005638003349304199,-0.7001005404641542,2.2249814040482043,-7.162263618707656,-0.35124291517165956,0.014099117368459702,-0.00040835142135620117,6.3183718309104435,0.0015261173248291016
1746576352898023000,2.85802294921875,0.30098931818569347,-0.001007129205390811,0.10702541845136687,0.0009888882050290704,0.039749929267529356,0.9294066272372628,0.19599754348244952,right,-0.0001722574234008789,-0.6995182434132389,2.224552218850702,-7.16624771990776,-0.35095384046166256,0.014150191098451614,0.00019408762454986572,6.314003698828816,-0.0002040863037109375
1746576352938023200,2.898023193359375,0.3008675465674633,0.002842817921191454,0.10705082580652948,-0.001739820814691484,0.03970796158223307,0.9295086126408282,0.1957567855725352,right,-0.00157088041305542,-0.6989578113682577,2.2247280138090253,-7.169897474586963,-0.35068086458785047,0.0063957697711884975,-0.0001431107521057129,6.309797479310632,0.00032442808151245117
1746576352978023200,2.938023193359375,0.3010261243803416,0.007459027227014303,0.1070848708451816,0.0015826317248865962,0.039819598389449734,0.9295148052886214,0.19603352434446913,right,-0.0006632208824157715,-0.6988328716046787,2.2260987176403404,-7.170297287559509,-0.3506413932436173,-0.0006898632273077965,-0.000060424208641052246,6.3088593216776845,0.00013697147369384766
1746576353018023000,2.97802294921875,0.3014847121073117,0.009838082827627659,0.1072001822273202,0.000901168561540544,0.04003344113477473,0.9294986235847185,0.19664293687530648,right,-0.0007029175758361816,-0.698705935722951,2.2296245536789296,-7.170040682449937,-0.3506248212684391,-0.000265398615738377,-0.00020501017570495605,6.307906550997496,0.0004417300224304199
1746576353058023000,3.01802294921875,0.3015039772117668,0.005930248182266951,0.10716231175790956,-0.0035574352368712425,0.04013982389515897,0.9294842458757605,0.19688884688121633,right,-0.001005709171295166,-0.6987580495197695,2.2296650318197906,-7.169683539575338,-0.3506623431559041,-0.00367804616689682,-0.0007225126028060913,6.308297596141696,0.0005880594253540039
1746576353098023000,3.05802294921875,0.3015232009146281,0.0020224140025675297,0.10712441190682084,-0.008016038686037064,0.040246214000963114,0.9294698669194207,0.19713476441965588,right,-0.0013085007667541504,-0.698810171604492,2.2297052176997063,-7.169326981222629,-0.35069986005384984,-0.0070906938053667545,-0.0012399852275848389,6.308689225807786,0.0007343292236328125
1746576353138023000,3.09802294921875,0.30153167109827284,0.0036327573470771313,0.10706409160404555,-0.010742537677288055,0.04040477660037969,0.9294563618984472,0.19748608867298895,right,-0.0009705424308776855,-0.6988472931392529,2.229696449871361,-7.169084404638409,-0.35073589720462345,-0.002127275336533785,-0.0030771493911743164,6.308968042749166,0.0004634261131286621
1746576353178023000,3.13802294921875,0.30104642136455945,0.00027763331308960915,0.10683729960595105,-0.0033372933976352215,0.04047239604872717,0.9294704526469376,0.1974626304547928,right,-0.0013833045959472656,-0.69892296101467,2.2260756290256976,-7.169709258538484,-0.35075965569491785,-0.0022683595307171345,0.0011914223432540894,6.3095356135040515,0.00310361385345459
1746576353218023200,3.178023193359375,0.30073173954621146,-0.0011217213468626142,0.1066901569654532,-0.0038290414959192276,0.040479632192808944,0.9294591273322064,0.19739352431908322,right,-0.0014432668685913086,-0.6991055660920114,2.2234780137479304,-7.169308276522159,-0.3508335473279081,0.0015333660412579775,-0.00048536062240600586,6.310906901857257,0.0012666583061218262
1746576353258023000,3.21802294921875,0.3003516477363154,-0.0011111731873825192,0.10655824842759268,-0.004745013080537319,0.04048285648020183,0.9295152289033359,0.19721971887357953,right,0.0018714070320129395,-0.6989055341488347,2.221126336055249,-7.17135877931118,-0.3507246316095821,0.006197409704327583,0.0014175772666931152,6.309405265122652,0.0015183687210083008
1746576353298023000,3.25802294921875,0.3001668674684719,-0.00004089891444891691,0.10646783094377181,-0.00017464952543377876,0.04055650077559042,0.9295408113378207,0.19728869102997984,right,0.0013335347175598145,-0.6987994333630553,2.219999085590988,-7.172408580625056,-0.35067578343821126,0.00022810790687799454,-0.0004951655864715576,6.3086085617870085,0.0013366341590881348
1746576353338023000,3.29802294921875,0.30040810209235186,0.002646025735884905,0.10653409336020511,0.00001711116055957973,0.04064892849587037,0.9295300126040204,0.19756965084367187,right,0.000897526741027832,-0.6987516057879037,2.22181855610311,-7.1721613278657195,-0.3506736445139704,0.0001418173051206395,-0.00004698336124420166,6.308249080824852,0.0010330677032470703
1746576353378023000,3.33802294921875,0.3006492814499795,0.0053329505026340485,0.10660034108579934,0.00020887186110485345,0.04074135621615053,0.9295192138702189,0.1978505762107605,right,0.000461578369140625,-0.6987037437662202,2.2236377343542872,-7.171914075106382,-0.3506715030949696,0.00005552670336328447,0.0004011988639831543,6.3078901843845845,0.0007293224334716797
1746576353418023000,3.37802294921875,0.30089035634137934,0.008019874803721905,0.10666657911008205,0.00040063256165012717,0.040833771323773214,0.9295082963623242,0.19813141001462492,right,0.00002562999725341797,-0.6986556701712555,2.225456328083575,-7.171666822347045,-0.3506693297995298,-0.00003076390567002818,0.0008494704961776733,6.307528949856758,0.0004258155822753906
1746576353458023200,3.418023193359375,0.30126411994670516,0.004287503194063902,0.10676610737672255,0.003682386828586459,0.04094856875597432,0.9294706643771825,0.19853044327482983,right,-0.001920163631439209,-0.6987144981749724,2.228026616962999,-7.170479658389091,-0.3507253175147767,-0.0015616652090102434,-0.00017532706260681152,6.307970848405361,0.0005167722702026367
1746576353498023000,3.45802294921875,0.30140521477387633,-0.0009638252668082714,0.1068330888720684,0.0013995696790516376,0.040899518792709984,0.9294519087468113,0.19849205157946231,right,-0.0020867586135864258,-0.6987888480263256,2.228899015883356,-7.16971744184494,-0.3507603312003203,-0.0006398527766577899,-0.0002630650997161865,6.308529066810012,0.0005245208740234375
1746576353538023000,3.49802294921875,0.3016091029386466,0.005971751641482115,0.10689066882857325,0.005486789159476757,0.04092572831036673,0.9294166243528958,0.19865007677129717,right,0.0017852783203125,-0.6989207715871367,2.2301137985005974,-7.168468903088569,-0.3508335296906343,-0.004296342376619577,-0.0014099031686782837,6.30951924689114,-0.0011668801307678223
1746576353578023000,3.53802294921875,0.3019904392983178,0.00678957300260663,0.10698956114323717,0.0011941916309297085,0.04107135248678522,0.9293898997291699,0.19910397575152017,right,0.0008089542388916016,-0.6989025100131234,2.2328815096482635,-7.167727729332447,-0.35085721554290805,-0.0025340935681015253,0.00014069676399230957,6.309382468768954,-0.0006414651870727539
1746576353618023000,3.57802294921875,0.3023634393632339,0.0053687505424022675,0.10707889208483834,0.004386842250823975,0.041191363709805195,0.9293397139622596,0.19952809813191033,right,0.0012726187705993652,-0.6990358745666191,2.2353043528810144,-7.166091652563214,-0.3509488648301852,-0.009896133095026016,-0.0005118101835250854,6.310383754765987,0.0011725425720214844
1746576353658023000,3.61802294921875,0.30297045686813684,0.005751388147473335,0.1072592996029972,0.009101513773202896,0.04119627035534656,0.9292085333520697,0.1998745753922718,right,-0.00003212690353393555,-0.6996028218760709,2.2385861510306597,-7.161317277768254,-0.35124043776383956,-0.008127491921186447,-0.0005327612161636353,6.314638489601015,0.0011807084083557129
1746576353698023200,3.658023193359375,0.3035780446102281,0.00613402621820569,0.10743969741984465,0.013816184364259243,0.04120117173365004,0.9290772327204064,0.2002216834870271,right,-0.001337289810180664,-0.700169649868306,2.2418664878755807,-7.156539395841956,-0.35153197882105547,-0.006358850747346878,-0.0005535930395126343,6.318890301826596,0.0011892318725585938
1746576353738023200,3.698023193359375,0.3040901466002432,0.006772336550056934,0.10756467354433323,0.0019215373322367668,0.041279113933815476,0.9289648457130238,0.20067158482236563,right,-0.0027890801429748535,-0.7006372193340316,2.2446461817219854,-7.152570492210984,-0.351781491241173,-0.008666805922985077,-0.00024369359016418457,6.322396264120936,0.0026575326919555664
1746576353778023000,3.73802294921875,0.3042595049201768,0.0072537376545369625,0.10756397579392789,-0.006840237416327,0.04143844243900507,0.9289350683533895,0.2010926147105264,right,-0.0035533905029296875,-0.7007104518749703,2.2457186332590875,-7.151747485390305,-0.35184131683916603,-0.0013731331564486027,-0.0013036876916885376,6.322945130175352,0.0029518604278564453
1746576353818023000,3.77802294921875,0.30430254618482855,0.0017129573971033096,0.10753418975784465,0.0014754338189959526,0.04155170551136436,0.928921154613639,0.20135992995452417,right,0.0015698671340942383,-0.7007483306641279,2.245954780102521,-7.151423075741529,-0.3518739542044481,0.0010287563782185316,-0.0008850246667861938,6.323229207813739,0.002063751220703125
1746576353858023000,3.81802294921875,0.30363135727454915,-0.014408575370907784,0.10733503144414025,0.007585745770484209,0.04128699033170636,0.9289234245119227,0.2005937291998973,right,0.0006768107414245605,-0.7010553598016483,2.2405736715860662,-7.1510758697390555,-0.3519599008829588,-0.0035146402660757303,0.002160117030143738,6.325529885971545,0.0018703937530517578
1746576353898023000,3.85802294921875,0.3034989491308701,-0.006839076057076454,0.10729877139816081,0.00495052058249712,0.04118026930346053,0.9288985619772985,0.2003567623845456,right,0.0006669163703918457,-0.7012831893560136,2.2391960996225473,-7.149996842330694,-0.352049085509315,-0.001232351642102003,0.0009808391332626343,6.3272372744113206,0.0012887120246887207
1746576353938023200,3.898023193359375,0.3033663783103262,0.0007304241880774498,0.10726248696002294,0.0023152949288487434,0.04107354827521699,0.9288736994426727,0.20011967745246456,right,0.0006570816040039062,-0.7015109499093841,2.237817650876194,-7.148918399444222,-0.35213823576447323,0.0010499367490410805,-0.00019834935665130615,6.328943493807316,0.000707089900970459
1746576353978023200,3.938023193359375,0.30347547195931457,-0.0013013798743486404,0.10730631980664522,0.0012647162657231092,0.04108061179216447,0.9288715930681155,0.2001706538844873,right,0.000656425952911377,-0.7014813014863238,2.2386536633089182,-7.148852932992577,-0.35212959752411077,-0.00044880365021526814,-0.00027845799922943115,6.328721375489234,0.0006676912307739258
1746576354018023000,3.97802294921875,0.3035474964408738,-0.005621988791972399,0.1073424158583058,0.006277182139456272,0.04094882057675268,0.9288061280765715,0.199990259078742,right,0.000012755393981933594,-0.7018846330569476,2.238405387636274,-7.14625531771481,-0.35230661170613775,-0.010882046073675156,0.0016505420207977295,6.331742184615135,0.0007856488227844238
1746576354058023000,4.01802294921875,0.30398995618214286,0.00043570948764681816,0.10751396882903991,0.009596890769898891,0.04080420825069361,0.9286921765609182,0.19995269340021013,right,-0.0012140870094299316,-0.7024459427905344,2.2405027983069417,-7.14187198806405,-0.35257137931329685,-0.008773300796747208,-0.00019888579845428467,6.335944897001982,-0.0015676021575927734
1746576354098023000,4.05802294921875,0.30426307253798923,0.011730637401342392,0.10757448797044813,-0.0006148964166641235,0.04089021904955007,0.9286474623654264,0.20026910905262035,right,-0.0026483535766601562,-0.7025913627057624,2.2421773073904214,-7.14038087272346,-0.3526607355465585,-0.007819905877113342,-0.0008371323347091675,6.337033276760578,-0.000600278377532959
1746576354138023000,4.09802294921875,0.3048832551161965,0.016100872308015823,0.10769750623577239,0.0032480985391885042,0.04117610788607632,0.9285734002136183,0.2011468831036922,right,-0.0015181303024291992,-0.7027311733005829,2.2463392493754624,-7.138143907451629,-0.35278488841876243,-0.007686252240091562,-0.0005722194910049438,6.338079570943116,0.0010821819305419922
1746576354178023000,4.13802294921875,0.305327175901225,-0.0006355289369821548,0.10781138492030878,0.005307380110025406,0.041292703143823856,0.9285124888978471,0.20159915066951917,right,-0.000924527645111084,-0.702902241471322,2.249181925455481,-7.136112109363078,-0.35289690907538046,-0.0047685494646430016,0.00032691657543182373,6.33935967388153,0.0037425756454467773
1746576354218023200,4.178023193359375,0.305719018862471,0.000855703023262322,0.10795488778766428,0.007935887202620506,0.041258809862358706,0.9284505921050368,0.20171981098971925,right,0.0005660057067871094,-0.703137479353226,2.2515287808425724,-7.133806755030155,-0.3530195225566699,-0.0056684743613004684,-0.00024919211864471436,6.341119669291377,0.0008407831192016602
1746576354258023000,4.21802294921875,0.3061427939716041,0.007546490989625454,0.10808329490256653,0.006476584821939468,0.0412813695662132,0.9283746347226077,0.20198547468218775,right,0.00006151199340820312,-0.7034313337142457,2.2539902025200425,-7.13107528423965,-0.35317744943897317,-0.006905123591423035,-0.0016987919807434082,6.343317471596598,-0.0007029175758361816
1746576354298023000,4.25802294921875,0.3067751677218711,0.007727387826889753,0.10826345520391692,0.009645199403166771,0.04137525683584725,0.9282765286593037,0.20249117484662185,right,0.00006341934204101562,-0.7037606976997925,2.257868066866696,-7.1276564157068725,-0.3533690131425136,-0.012448368594050407,-0.0034589022397994995,6.345780646839738,-0.001535952091217041
1746576354338023000,4.29802294921875,0.30746066689108026,0.01014853734523058,0.1084438746970549,0.013217725791037083,0.04150089148577837,0.9281603956225013,0.2031010703275933,right,0.0006225705146789551,-0.7041697165365718,2.2619679034009574,-7.12363256701827,-0.35360390877026576,-0.018269579857587814,-0.0004653334617614746,6.348838280844688,0.0005393028259277344
1746576354378023000,4.33802294921875,0.3082652330930527,0.00876091979444027,0.10865430708616043,0.017055708914995193,0.04155943022397895,0.9279739779193711,0.20368809782416705,right,0.002499103546142578,-0.7049744400534811,2.266147819434106,-7.116939791381359,-0.35402155685137493,-0.02630307525396347,-0.00025673210620880127,6.354850673002004,0.0029160380363464355
1746576354418023000,4.37802294921875,0.30968576362049793,0.009709259495139122,0.10909728458775096,0.02316230908036232,0.04160226571832608,0.9277234813145141,0.20450774380957204,right,0.00013577938079833984,-0.705936106341236,2.2743919161662456,-7.107890223485231,-0.3545366138697301,-0.023289265111088753,-0.000013962388038635254,6.362030355373024,0.0001583695411682129
1746576354458023200,4.418023193359375,0.3108028265184897,0.005134820472449064,0.10945617404502068,0.01205017976462841,0.04164551176649648,0.9275486083663512,0.20514756933802092,right,-0.002031564712524414,-0.7065546413283517,2.281126631248742,-7.101597260820865,-0.3548783263560879,-0.016090786084532738,-0.0016344338655471802,6.3666451556921,0.0013228654861450195
1746576354498023000,4.45802294921875,0.3116672957773682,0.003167856717482209,0.1097299276317006,0.018384240567684174,0.04162163074429946,0.9273764288080845,0.2055653402426846,right,-0.0002308487892150879,-0.7072685634349546,2.285870464774966,-7.095294361284375,-0.3552463601883667,-0.028958750888705254,-0.0011499226093292236,6.371968396541476,0.002458035945892334
1746576354538023000,4.49802294921875,0.31301796969694606,0.00010323617607355118,0.11016695439760281,0.025627581402659416,0.0415212342040054,0.9270882860711582,0.20610865936740802,right,0.0020002126693725586,-0.7085127269387795,2.2930086460918186,-7.084651971238851,-0.355874249017411,-0.026661505922675133,-0.0006475746631622314,6.381238329190015,-0.0007525086402893066
1746576354578023000,4.53802294921875,0.3135964676919601,-0.011896755546331406,0.11034996643693123,0.02521366998553276,0.04123610019803721,0.9268274642666036,0.2059924808377366,right,-0.0006352066993713379,-0.7099314665218324,2.2943116915144026,-7.074705746763944,-0.35652946548275244,-0.03657901659607887,0.0022499412298202515,6.391796548083424,0.0016618967056274414
1746576354618023000,4.57802294921875,0.31508003548800523,0.0019359365105628967,0.11082645544318279,0.026368901133537292,0.04109000564476619,0.9264880144105108,0.206543338011266,right,-0.003548562526702881,-0.7114377269311829,2.3018187061436475,-7.062132096394896,-0.3572799233836304,-0.03936665877699852,0.003033369779586792,6.402991895836592,0.004803359508514404
1746576354658023000,4.61802294921875,0.31636137288573896,0.011036003939807415,0.11119910417921498,0.01770177111029625,0.041120758094215545,0.9262220368999623,0.20731936377386814,right,0.0010436773300170898,-0.7125316445583506,2.3086853770427402,-7.052516126787662,-0.3578498131826073,-0.021190855652093887,0.0021506696939468384,6.411113242971897,0.0026256442070007324
1746576354698023200,4.658023193359375,0.3173360796219269,0.0026508690789341927,0.11150984151789566,0.009794538840651512,0.04119646966434005,0.9260900171164032,0.2079379571895825,right,-0.0015373826026916504,-0.7129287505476937,2.314763674043119,-7.047842874279618,-0.35808595081382355,-0.006956523284316063,0.0027535706758499146,6.414059817817807,0.005557537078857422
1746576354738023200,4.698023193359375,0.31757475666426394,-0.009634115733206272,0.11161839919515779,0.009285700507462025,0.041040847734809774,0.9260126985528071,0.20777552859446166,right,-0.0017163753509521484,-0.7133402851866925,2.3156214599162337,-7.044782317665219,-0.3582699801655209,-0.008508686907589436,0.0022430717945098877,6.41711219112575,0.006894052028656006
1746576354778023000,4.73802294921875,0.3179457659096591,-0.003300777170807123,0.1117755016518072,0.0050834715366363525,0.04087880801501579,0.9259179697053672,0.20766129391160515,right,0.0011861324310302734,-0.7138060761603567,2.317300206783414,-7.041082294103503,-0.3584841995074986,-0.0024965545162558556,-0.00045071542263031006,6.420565546450018,0.0015624761581420898
1746576354818023000,4.77802294921875,0.3177651944357729,0.002610673662275076,0.11172796266954908,-0.0013167699798941612,0.040878025247346,0.9259647157264826,0.2075482454524533,right,0.002679765224456787,-0.7135965855804093,2.3164489967815576,-7.042778576627374,-0.35837839625258383,0.0026768771931529045,0.0008253753185272217,6.419012471789121,0.0005780458450317383
1746576354858023000,4.81802294921875,0.31795113643223194,0.0015522288158535957,0.11176656878848533,-0.00272082956507802,0.04091058419424254,0.9259181356904217,0.20772976706850102,right,-0.0019003748893737793,-0.7137947528815606,2.3173607047989964,-7.041138992726802,-0.35848295461496477,-0.0027912231162190437,-0.0010856539011001587,6.4204813752979035,0.00014579296112060547
1746576354898023000,4.85802294921875,0.31771043635981727,-0.0010467739775776863,0.11165904681865502,-0.004571153782308102,0.040921054623244656,0.9259198037264723,0.20767477827277642,right,-0.002173781394958496,-0.7138735330439983,2.315507916539162,-7.041216149616241,-0.35851097609247207,-0.0001938601490110159,0.00001621246337890625,6.421065312665701,0.0021055936813354492
1746576354938023200,4.898023193359375,0.31772290713087575,0.0052129896357655525,0.11161040585079275,0.001002215314656496,0.04102765505411226,0.9258957157769302,0.2079317519532694,right,0.000554203987121582,-0.7139841290764121,2.3153737687654794,-7.040512385261058,-0.35857614222269235,-0.004554347135126591,-0.00027327239513397217,6.421885396876931,0.0007169842720031738
1746576354978023200,4.938023193359375,0.31799044422748624,0.009436646476387978,0.1116595784204926,0.0017226941417902708,0.04116746997015746,0.925869493999427,0.20834086502259488,right,0.00001919269561767578,-0.714001713390436,2.317222026980668,-7.039785824552178,-0.3586125148582646,-0.0007443006616085768,-0.000009521842002868652,6.422015745258331,0.00002473592758178711
1746576355018023000,4.97802294921875,0.3183807066440404,0.015009095892310143,0.11171900457958411,-0.00028457469306886196,0.041439852556794145,0.9258495379218453,0.20906016408993885,right,-0.0006980299949645996,-0.7138995399032401,2.3201745931759477,-7.0395035004794595,-0.3586140516680717,-0.005811338312923908,-0.0002687126398086548,6.421258204889297,0.0005760788917541504
1746576355058023000,5.01802294921875,0.3189167657863147,0.01096523366868496,0.11180936298161236,0.003873593406751752,0.04172246123789971,0.9257858874447816,0.20989804565786951,right,0.0012334585189819336,-0.713998708693349,2.3237480677485465,-7.037654073220491,-0.3587173624609802,-0.005865680985152721,0.0003050118684768677,6.421993533426523,0.0016900300979614258
1746576355098023000,5.05802294921875,0.3193282685452658,0.005610194522887468,0.11186648196902049,0.0006566331721842289,0.04191339084544035,0.9257047351553483,0.21052473177067324,right,0.0010556578636169434,-0.7142735667311232,2.326089662438631,-7.035020802107453,-0.3588866410835196,-0.012761972844600677,0.0012841969728469849,6.424030007690191,0.006544888019561768
1746576355138023000,5.09802294921875,0.3196507046981607,0.0041413214057683945,0.11189844373010972,0.000038275145925581455,0.04199842287720048,0.9255876376024926,0.21094347332780672,right,-0.0021705031394958496,-0.7148252865132776,2.3272439470402895,-7.03090518348217,-0.3591689057985468,-0.010687783360481262,0.00041550397872924805,6.428116984742879,0.003917336463928223
1746576355178023000,5.13802294921875,0.31961382856730386,0.006380672100931406,0.11177973628508947,-0.003180236555635929,0.042278517979813045,0.925583904605266,0.21152643767869458,right,0.0002288222312927246,-0.7147853787278731,2.327065229472518,-7.031234269306063,-0.3591825130056363,0.00030501559376716614,-0.0000731050968170166,6.427821801188588,0.0026751160621643066
1746576355218023200,5.178023193359375,0.3195768711770895,0.008620022796094418,0.111660984767556,-0.006398748606443405,0.04255861779422568,0.92558011034992,0.21210939401830275,right,0.0026280879974365234,-0.7147455751123305,2.326885635121912,-7.031563355129957,-0.35919611272844637,0.011297815479338169,-0.0005616545677185059,6.427526617634296,0.0014327764511108398
1746576355258023000,5.21802294921875,0.31908316150523053,-0.010223732329905033,0.11149601336358145,-0.006526984740048647,0.04255305261244274,0.9256522748947961,0.21185795984371064,right,0.0019701123237609863,-0.7145056492598931,2.323897559221834,-7.034174998933077,-0.35906196374873417,0.007097017019987106,0.000024944543838500977,6.4257496710896485,0.0023679733276367188
1746576355298023000,5.25802294921875,0.3178572519160966,-0.033651065081357956,0.1111530781210658,-0.003881905460730195,0.04210100740119356,0.9256968159092519,0.21047013206802404,right,-0.00134199857711792,-0.7148294589519871,2.3146220736153422,-7.035041844895481,-0.359106747735345,-0.0008126003667712212,-0.0005376636981964111,6.428147964403033,0.001225888729095459
1746576355338023000,5.29802294921875,0.31766254273264166,-0.004929982125759125,0.11112183784234296,0.0018514988478273153,0.04183967739474243,0.925636601993994,0.20992959708777847,right,-0.0014277100563049316,-0.7153317977404273,2.3122433617852627,-7.032424355873465,-0.3593021932668771,-0.005135444924235344,-0.0014270544052124023,6.431867861708998,0.0008028745651245117
1746576355378023000,5.33802294921875,0.31769654587884316,0.004013411700725555,0.11110361983709914,-0.0009898210410028696,0.04190158150473759,0.9256202856330114,0.21008996488540826,right,0.0019634366035461426,-0.7153994513787267,2.312346676029265,-7.031932188442349,-0.35934271996263906,0.0004236306995153427,-0.000314369797706604,6.43236821244657,0.0007361173629760742
1746576355418023000,5.37802294921875,0.31776453103895713,0.00014044437557458878,0.11112755555879728,-0.0015760953538119793,0.041929666022920066,0.9256268824939574,0.21016262848118547,right,-0.0008814334869384766,-0.7153267838277003,2.3129706531465053,-7.032219188690185,-0.359314983773629,-0.0034907436929643154,-0.0010560452938079834,6.431830452308058,0.004693269729614258
1746576355458023200,5.418023193359375,0.3175954388416448,-0.00426210043951869,0.11105138331804928,0.002833743579685688,0.04183948423306873,0.9255743630795665,0.20998155437434027,right,0.0006131529808044434,-0.7157273505434091,2.3109769951112566,-7.030162256160378,-0.35948441986508306,-0.009810326620936394,0.000577971339225769,6.434795147332549,0.0011270642280578613
1746576355498023000,5.45802294921875,0.31816947850163624,0.011711295694112778,0.11119197406783844,0.00855737179517746,0.04194737349920243,0.925468014807753,0.21051415956365122,right,-0.000039517879486083984,-0.7161123208197385,2.3142368736900387,-7.026480352777242,-0.3597019717338308,-0.005841886159032583,-0.0014202296733856201,6.437643522500991,0.0008673667907714844
1746576355538023000,5.49802294921875,0.31812488422257107,0.005491133313626051,0.11114196040242906,0.004177548456937075,0.042078960044341134,0.9254930681712007,0.21074807432821893,right,0.005482912063598633,-0.7159457695258677,2.3142592316523194,-7.02760263480544,-0.3596378874487683,0.015050964429974556,0.001384839415550232,6.436411350357532,-0.000561833381652832
1746576355578023000,5.53802294921875,0.3182658336254537,-0.005566166248172522,0.11121815575544469,0.0031863506883382797,0.04205559471739522,0.9255027795227078,0.21073151338434906,right,-0.004234433174133301,-0.7158409198123472,2.3154608625270425,-7.027917107582092,-0.35959203136643053,-0.005504896864295006,0.0001356750726699829,6.435635689809918,0.004296779632568359
1746576355618023000,5.57802294921875,0.3179578076419385,-0.006846012081950903,0.11113892197771874,-0.00076637277379632,0.04187888708793081,0.925489983300945,0.21027768342482536,right,-0.002128124237060547,-0.71608117123863,2.312812539975345,-7.027161320778727,-0.3596701094493878,0.0022824425250291824,-0.0002662241458892822,6.437413220876455,0.000571131706237793
1746576355658023000,5.61802294921875,0.31791204501609716,0.006783307995647192,0.11114159817659688,-0.00012392696226015687,0.04184806827588043,0.9255072480078804,0.21017790828279337,right,0.00000864267349243164,-0.7160035460874624,2.312646828019619,-7.027741166493296,-0.3596281828751583,0.0023131701163947582,-0.0017679333686828613,6.436839220380783,-0.0007791519165039062
1746576355698023200,5.658023193359375,0.31820625043693823,0.010995007120072842,0.11119391065987287,0.0005522154388017952,0.04206528753970656,0.9255105044969935,0.21072411327261942,right,-0.000716090202331543,-0.7158147434157115,2.3150946595631536,-7.028215213745832,-0.35957842222700565,-0.000030115479603409767,-0.0002913922071456909,6.435442213064432,0.0005822181701660156
1746576355738023200,5.698023193359375,0.3184553250796863,0.004346013534814119,0.1112044026693463,-0.004051630850881338,0.042248573804453265,0.9254620883225817,0.21124561743250775,right,-0.0022388696670532227,-0.7159587762353996,2.3165550875045358,-7.026758000674843,-0.35967844816659994,-0.012969409115612507,-0.0005009174346923828,6.43650779646933,0.0034196972846984863
1746576355778023000,5.73802294921875,0.31859085881823723,0.012882357463240623,0.11111919550279294,-0.010394275188446045,0.04248672725418362,0.925373763005297,0.21189430690452007,right,0.0006380677223205566,-0.7163671609290525,2.3166838284507394,-7.02394761942923,-0.3599039362089103,-0.007986539974808693,-0.00028555095195770264,6.439528605595231,0.0006820559501647949
1746576355818023000,5.77802294921875,0.3188002882712105,0.008171383291482925,0.11110406778034028,0.003527045249938965,0.042760372466903916,0.9253613311271739,0.21255114280872303,right,0.0038751959800720215,-0.7162866172807786,2.318317421001941,-7.023954633691907,-0.35990810834023695,0.007025335915386677,0.0009654760360717773,6.43893297778964,0.005158185958862305
1746576355858023000,5.81802294921875,0.318996376609761,-0.0012871790677309036,0.11117805949829376,-0.0019671330228447914,0.0428042133418441,0.9253677915230712,0.212697290764667,right,-0.00020176172256469727,-0.7161619692890175,2.319946337378025,-7.024262092205881,-0.3598634801829643,-0.007643456570804119,-0.000787392258644104,6.438011186769605,0.004179835319519043
1746576355898023000,5.85802294921875,0.3189549590650895,0.002883768640458584,0.11112147194910305,-0.0023794248700141907,0.04284695007052983,0.92533290478599,0.21281554337572875,right,0.0007211565971374512,-0.7163723234331597,2.3192304441936313,-7.02307142111659,-0.3599652946758093,0.0010945182293653488,0.0002757161855697632,6.43956718403995,-0.0005862712860107422
1746576355938023200,5.898023193359375,0.3191610000538074,0.014969059266149998,0.11113512994467897,0.004545485135167837,0.04300068093538393,0.9253015387691956,0.21324112980371712,right,0.0013791322708129883,-0.7164382173387417,2.3205444494016465,-7.022190546628832,-0.36002344698665534,-0.0017558408435434103,-0.00000642240047454834,6.440054090774059,0.00006961822509765625
1746576355977976000,5.93797607421875,0.31914492261576893,-0.011789754033088684,0.11110665057872286,-0.013417011126875877,0.043041734464365135,0.9252913628915601,0.21333457807949452,right,-0.0028755213133990765,-0.7164930910377897,2.3203205775178968,-7.021891855943203,-0.3600533740309518,-0.004930334165692329,-0.0020026410929858685,6.440460333487391,0.0019832467660307884
1746576356017976000,5.97797607421875,0.31897009505588353,-0.003714192658662796,0.11105171785480565,-0.00848623737692833,0.042933433883219484,0.925265075767974,0.21308279135945413,right,-0.0014688968658447266,-0.7167452204965403,2.3185835245922206,-7.020755545389652,-0.36015078403932466,-0.001627311110496521,-0.001281142234802246,6.442324373793602,0.0016210079193115234
1746576356057976000,6.01797607421875,0.3189384043767292,0.0001208665780723095,0.11103483496469847,-0.0022344193421304226,0.0429075667806207,0.9252466153370054,0.21304022410562018,right,0.002024054527282715,-0.7168738843400373,2.3181011479027567,-7.0200418441623444,-0.36020650080280886,-0.0016661295667290688,-0.0002050846815109253,6.443275975430011,0.0011475086212158203
1746576356097976300,6.057976318359375,0.3188946803088914,-0.0013043837388977408,0.11102112049441566,-0.0012531831162050366,0.04288052115587984,0.9252400838864875,0.2129772714023849,right,0.0012969374656677246,-0.7169366783021949,2.3176674326606093,-7.019758935567737,-0.3602307431236109,0.0024238144978880882,-0.00007906556129455566,6.443740085810423,0.001736462116241455
1746576356137976000,6.09797607421875,0.3189039351496251,0.0019351973896846175,0.11103385539505907,0.0029114834032952785,0.0428408171327488,0.925231772285758,0.21290630848149464,right,0.00026732683181762695,-0.7169930450846924,2.317618332821876,-7.019392440342902,-0.3602527661718275,-0.0013928341213613749,0.0007167607545852661,6.4441568499177695,0.0015621185302734375
1746576356177976000,6.13797607421875,0.3191152422529766,0.001315650879405439,0.11110580410767903,-0.0049482970498502254,0.0428591017203136,0.9252116785595355,0.2130349460278972,right,0.00017303228378295898,-0.7170272936075672,2.3190322912730275,-7.018692767640948,-0.36028006857877654,0.005381000228226185,-0.0018836110830307007,6.444409947896004,-0.0002192854881286621
1746576356217976000,6.17797607421875,0.3192482878578414,0.0006862928858026862,0.11115599134682408,-0.0032591272611171007,0.04292674396777302,0.9252364060587118,0.21318993824468452,right,-0.002086043357849121,-0.7168119316468389,2.320401826060563,-7.019702236944436,-0.3601931583424232,0.0008826036937534809,-0.0022225379943847656,6.442817710268497,0.0014860033988952637
1746576356257976000,6.21797607421875,0.31936907677482557,-0.0025387159548699856,0.1111753859429567,-0.00035362737253308296,0.042964568997422264,0.9252071295986417,0.21334223775029906,right,-0.002127528190612793,-0.7169295954306983,2.321011774652451,-7.0187021199911825,-0.3602579376404399,-0.006628780625760555,-0.001523524522781372,6.443687478840351,0.0016364455223083496
1746576356297976000,6.25797607421875,0.3194327316384597,-0.00255052768625319,0.11116881598016393,-0.0023138062097132206,0.04297898739120671,0.9251636905987967,0.21344408556162017,right,-0.0017842650413513184,-0.7171591399307142,2.3209939467348155,-7.017150214374065,-0.36036978766533323,-0.004515909589827061,-0.0010360479354858398,6.445384345886111,0.0014116764068603516
1746576356337976300,6.297976318359375,0.31918844519367623,-0.0003926013596355915,0.1110534307446225,-0.005013967864215374,0.04300097833932945,0.9251619512584832,0.2134158560167266,right,-0.000530540943145752,-0.717256170615794,2.3190834369383753,-7.017123326367139,-0.3604072655721133,-0.005887992680072784,0.00007396936416625977,6.446101554244756,0.0006015300750732422
1746576356377976000,6.33797607421875,0.31914496445336027,0.003324823221191764,0.11097427183444686,-0.0036775730550289154,0.04309098146238018,0.9251201865656202,0.2136412884285101,right,0.00043129920959472656,-0.7174953693793723,2.3182944785177706,-7.0157596367985,-0.36052806994243636,-0.0077147893607616425,0.000033468008041381836,6.447869148439168,0.0003337264060974121
1746576356417976000,6.37797607421875,0.31926053898644374,0.0037680407986044884,0.11094717427417303,-0.0023535913787782192,0.04324720713540142,0.9250883364262174,0.21404448169560267,right,0.0015291571617126465,-0.7175974469758616,2.3188988741517065,-7.014867071872949,-0.36059952444271426,-0.0035534934140741825,-0.00010657310485839844,6.448623181676864,0.001705765724182129
1746576356457976000,6.41797607421875,0.31949822586878857,0.003036156529560685,0.11096374900188086,0.0024553039111196995,0.043384915119593526,0.92503248528574,0.21447544398450266,right,0.002074122428894043,-0.7178001763397804,2.3201554500840604,-7.013074343237281,-0.36072113904058706,-0.010899918153882027,-0.0001761019229888916,6.450120726758241,0.002386808395385742
1746576356497976000,6.45797607421875,0.320057358531637,0.0026089735329151154,0.1111072343553394,0.006443228106945753,0.04345924491652053,0.9249236137113211,0.21493686066193296,right,0.0013251900672912598,-0.7182122203369887,2.323239825965464,-7.0092521546006195,-0.36094701176833704,-0.010941989719867706,-0.0005141943693161011,6.453164332237839,0.0021535158157348633
1746576356537976000,6.49797607421875,0.3205667275928863,0.0025474606081843376,0.11124049856567912,0.005473718047142029,0.04348414021163169,0.924805604162193,0.21528960429228663,right,-0.00003254413604736328,-0.7187104792875871,2.325796232450008,-7.005015539944171,-0.36120512614448885,-0.010729096829891205,-0.0007017999887466431,6.456842728489637,0.0008299946784973145
1746576356577976000,6.53797607421875,0.3210945365018443,0.008574881590902805,0.1113740917829042,0.009698592126369476,0.043558446900043006,0.924702782308575,0.2157344807235615,right,-0.000007927417755126953,-0.7190980484391223,2.3287033520683647,-7.001411962494254,-0.36141822497796083,-0.009367510676383972,-0.0007980167865753174,6.459702794095874,0.0002097487449645996
1746576356617976000,6.57797607421875,0.3216459925494176,0.006945108063519001,0.11152945772729532,0.006610526703298092,0.043636069678725985,0.9246188647938425,0.21617139176799802,right,-0.000011801719665527344,-0.7193631552036872,2.3320224134884775,-6.998501628005505,-0.36157556078523917,-0.004308667965233326,0.00005681812763214111,6.461658604338765,0.0003044009208679199
1746576356657976000,6.61797607421875,0.32163580573717415,-0.007627001963555813,0.11151507139524289,-0.00011322833597660065,0.04358849573923118,0.9245789400448355,0.2161156629157545,right,-0.001560509204864502,-0.7196168757638817,2.3314329231627284,-6.996970180654525,-0.3616879576477941,-0.008396662771701813,0.0002518892288208008,6.463530243429541,0.0032330751419067383
1746576356697976000,6.65797607421875,0.32168163900755004,-0.004617570899426937,0.11152387132671103,0.0023652627132833004,0.04346821887440417,0.9244984607924287,0.21597258980676554,right,-0.0015520453453063965,-0.7201085457806817,2.330748594160378,-6.99384708019793,-0.3619052869758914,-0.010650715790688992,0.00046212971210479736,6.467155448189377,0.003238499164581299
1746576356737976000,6.69797607421875,0.32180316295723627,0.0047811707481741905,0.11152789848182158,0.000243103364482522,0.04348715847309805,0.9244362979962644,0.21612486692781868,right,0.0013319849967956543,-0.7204243222584896,2.3309523000389336,-6.991625897017121,-0.3620604712016304,-0.004715820774435997,0.0002180337905883789,6.469483014354109,0.0017032027244567871
1746576356777976000,6.73797607421875,0.322106210440656,0.008753553964197636,0.11157988998885933,-0.0014786485116928816,0.04365035108185701,0.9244051994106401,0.21660134119553076,right,0.0012549757957458496,-0.720447643339608,2.3330234072245655,-6.9907760021895164,-0.36210427520989014,-0.0014987059403210878,-0.0007506608963012695,6.469654863789677,0.0027918219566345215
1746576356817976000,6.77797607421875,0.3222745875936089,0.003576601855456829,0.11158921264273944,-0.00012404692824929953,0.04378635222127722,0.924383131838385,0.2169673272850821,right,0.0015259385108947754,-0.7204762544657664,2.334141889860481,-6.9902078469127416,-0.3621414076540968,-0.001019832561723888,-0.000014126300811767578,6.469865876191854,0.0042705535888671875
1746576356857976300,6.817976318359375,0.32243621826331315,0.0022918088361620903,0.11162427204177587,0.003174219746142626,0.04381549297283094,0.9243466846307667,0.217123232478101,right,-0.00003325939178466797,-0.7206222579194516,2.334972349335253,-6.988934758237004,-0.3622202132058358,-0.0019318264676257968,0.00033192336559295654,6.470941396468877,0.0037490129470825195
1746576356897976000,6.85797607421875,0.3224655451044211,0.005538967438042164,0.11161641004697856,-0.0017356001771986485,0.04388205781581794,0.9243515834990123,0.21726685715512098,right,0.001110076904296875,-0.7205634867684179,2.3352979280278086,-6.989227019181847,-0.3622020707910016,0.004942475818097591,-0.0007738620042800903,6.47050885027051,0.0003305673599243164
1746576356937976000,6.89797607421875,0.3226349965534116,0.006744530517607927,0.11165383890234203,0.0028017843142151833,0.04398562515746274,0.924352979769421,0.21753669869293815,right,-0.0001900792121887207,-0.7204615101311598,2.336691282082349,-6.989456736284494,-0.3621743588016785,-0.00021354947239160538,-0.000662684440612793,6.469757155120372,0.0007677078247070312
1746576356977976000,6.93797607421875,0.32274028732117654,0.0012196674942970276,0.11167032448609243,0.0006979552563279867,0.04405132094186688,0.9243444836347671,0.21771829280011618,right,-0.0011889934539794922,-0.7204525109303828,2.337445461450517,-6.9892655976265665,-0.36218275070693107,-0.003105615032836795,-0.0012034326791763306,6.469690519624948,0.0010836124420166016
1746576357017976000,6.97797607421875,0.3228614860381114,0.0047787572257220745,0.11168722267520334,0.0010306027252227068,0.04408697142048628,0.9243106793553322,0.21787205692804124,right,-0.0009015798568725586,-0.7205963020200181,2.337997542375326,-6.988100060978532,-0.3622595604134135,-0.003933568950742483,-0.0013545453548431396,6.47075025781095,-0.00021147727966308594
1746576357057976000,7.01797607421875,0.32312857521325933,0.007230683229863644,0.11174763395813407,0.0013966254191473126,0.044184098014473684,0.9242799779513577,0.21819746221875458,right,-0.00010734796524047852,-0.7206483245241871,2.3397569532632825,-6.987156058126687,-0.36230736370541666,-0.0022378922440111637,-0.0008088797330856323,6.471133704170584,0.0002352595329284668
1746576357097976300,7.057976318359375,0.32342604149197357,0.006285859737545252,0.11180946626104955,0.0017775911837816238,0.04429791087258725,0.9242408203382239,0.21857776749274685,right,-0.0005134344100952148,-0.720734095827496,2.34165884136185,-6.985933238333463,-0.36237430142817917,-0.005896622780710459,0.0002543032169342041,6.471765572333336,0.00231170654296875
1746576357137976000,7.09797607421875,0.32371788081110553,0.0043303752318024635,0.11186471263436229,0.0035847274120897055,0.044360039996227375,0.924168421230565,0.21888739697841703,right,0.0004189610481262207,-0.721032930916633,2.3430822982937096,-6.983416287076473,-0.362534314260242,-0.007346271071583033,-0.00016567111015319824,6.473967466291785,0.001810312271118164
1746576357177976000,7.13797607421875,0.3240801034246076,0.007084523793309927,0.11193471948847519,0.0013593975454568863,0.04446541330940815,0.9240956311754084,0.21931079799816355,right,-0.0001983046531677246,-0.721294497446591,2.3450723030671474,-6.980961295139789,-0.36268528620899226,-0.0033294949680566788,-0.0005098283290863037,6.475893465918302,0.0018330812454223633
1746576357217976000,7.17797607421875,0.32442458762573373,0.006179876625537872,0.11200126698160719,0.0025719469413161278,0.04458329790332019,0.9240357705221475,0.21973953390645282,right,0.0004901289939880371,-0.7214827996142769,2.3470883190646767,-6.978997301590442,-0.3628027815629882,-0.004613739438354969,-0.0002018958330154419,6.477280536362528,0.0032697319984436035
1746576357257976000,7.21797607421875,0.32477138488366897,0.0036410782486200333,0.1120952357942806,0.0031548654660582542,0.044645192522059424,0.9239851761103073,0.22003999789785378,right,-0.0001984238624572754,-0.7216314116273984,2.3492013656958934,-6.977270623928308,-0.36289506729264914,0.0001944773830473423,-0.0008154809474945068,6.478374761340022,0.0031903982162475586
1746576357297976000,7.25797607421875,0.3249534884143298,0.0025007210206240416,0.11215573462392384,0.0013366197235882282,0.04467458982003611,0.9239732917332424,0.2201735762957143,right,-0.000871121883392334,-0.7216237256801519,2.3504878983750936,-6.976890100178122,-0.36290310410261106,0.001292777364142239,-0.0009698569774627686,6.478318062716722,0.0028111934661865234
1746576357337976300,7.297976318359375,0.3251222401100239,0.0062494040466845036,0.11219417180020753,-0.0009637235198169947,0.04473267871806009,0.9239526657117924,0.22037383178752845,right,-0.00040847063064575195,-0.7216639889770461,2.351581831091642,-6.976245957055688,-0.36293647474599644,-0.0018477622652426362,-0.0013871490955352783,6.4786144153147935,0.0009639859199523926
1746576357377976000,7.33797607421875,0.32539798514045,0.008029741235077381,0.11223611246679116,-0.0008650030358694494,0.044883206817568994,0.9239177928980672,0.2208196870333553,right,0.0012576580047607422,-0.7217211615700032,2.353386980817467,-6.9752464246243235,-0.36299371666760355,-0.0006355586228892207,-0.0008519589900970459,6.479035271075367,-0.0003084540367126465
1746576357417976000,7.37797607421875,0.32525884272863526,-0.0031471149995923042,0.1121406185763142,-0.0010442130733281374,0.04492583811488448,0.9238892721494921,0.22090014902779068,right,-0.00018256902694702148,-0.7219306521052895,2.351982666977495,-6.974287224203348,-0.36309055655256456,-0.007810198236256838,0.00038057565689086914,6.480577239820361,0.0017101764678955078
1746576357457976000,7.41797607421875,0.32520417036732263,-0.0008527224417775869,0.11207541098359397,-0.000571422278881073,0.04489668462559588,0.9238136324370008,0.22091272082655156,right,-0.0022977590560913086,-0.7224056869268026,2.350617223843187,-6.971497885745763,-0.36330650284703064,-0.009243649430572987,0.0009900778532028198,6.484072680720686,0.00262606143951416
1746576357497976000,7.45797607421875,0.3251634212753826,0.005502261221408844,0.11199982923387897,-0.0051511432975530624,0.0449857083375511,0.9237760242916259,0.22113272458529154,right,-0.00011408329010009766,-0.7226173214833129,2.349894754787534,-6.97029260160923,-0.3634143418669406,-0.0022400873713195324,0.00004725158214569092,6.4856298470348115,0.002302885055541992
1746576357537976000,7.49797607421875,0.3251134384754579,0.00288895471021533,0.11192842938332573,-0.006384275853633881,0.04511726907036265,0.9237726667898806,0.22139811992646596,right,0.0012888908386230469,-0.7226184309518936,2.3495440416537225,-6.9704036607682704,-0.36342857661485406,0.0006327719893306494,-0.0005588680505752563,6.485638030341267,0.0024855732917785645
1746576357577976000,7.53797607421875,0.324872154832267,-0.004159952979534864,0.11182663971200978,-0.005097273737192154,0.04512248990967275,0.923780002477781,0.22132421420562104,right,0.0008887052536010742,-0.7226659513821307,2.3477637341082094,-6.970678386056423,-0.3634406433042178,-0.000003282446414232254,-0.0005366653203964233,6.4859875744313,0.0030471086502075195
1746576357617976000,7.57797607421875,0.324650780434667,-0.0013544585090130568,0.11174614238584119,-0.001802647951990366,0.04506238125740082,0.9237714679951032,0.22113807534641938,right,0.0007696151733398438,-0.7228181100972518,2.345905685151368,-6.970262206470966,-0.36349456546598646,-0.00029290170641615987,-0.0004072040319442749,6.48710634932816,0.001825869083404541
1746576357657976000,7.61797607421875,0.3245078638817618,0.0051198676228523254,0.1116723019398145,-0.00276927649974823,0.04510107753906139,0.9237746908800083,0.22117057437019222,right,0.0011327266693115234,-0.7228423543813389,2.3448593909688293,-6.970448084431887,-0.36350421415234,0.0018983655609190464,-0.0008286833763122559,6.487284628504514,-0.00012820959091186523
1746576357697976000,7.65797607421875,0.3245951419379744,0.002858008723706007,0.11167349483074757,-0.0008403606479987502,0.04518047654293101,0.9237627794558343,0.2213796858187655,right,0.00045806169509887695,-0.7228563694865244,2.3454386521615085,-6.970157577052712,-0.36352424694545404,0.00007935403846204281,-0.0010229051113128662,6.487388088878989,0.0009720325469970703
1746576357737976000,7.69797607421875,0.3246824065318146,0.0005961498245596886,0.11167469770072007,0.0010885553201660514,0.04525986820138497,0.923750869279041,0.2215887549184874,right,-0.00021648406982421875,-0.7228702404083432,2.346018205615133,-6.969867069673538,-0.3635442209752112,-0.0017396574839949608,-0.0012171268463134766,6.487489795687794,0.002072453498840332
1746576357777976000,7.73797607421875,0.3248450383407723,0.00229717418551445,0.11171885488062197,0.0029867752455174923,0.045294472107859404,0.9237304830236372,0.2217376610903786,right,0.0002319812774658203,-0.7229191414464389,2.3470507635332645,-6.969185517150163,-0.36357844205717244,-0.000804998679086566,-0.000737801194190979,6.487849276649952,0.0013491511344909668
1746576357817976000,7.77797607421875,0.3249943705637293,0.0032285889610648155,0.11176581829295507,0.00213562767021358,0.04533940961335964,0.9237278698687559,0.22188257364831154,right,0.0007875561714172363,-0.7228646092902357,2.3482044636130333,-6.969170319581031,-0.3635650756003256,0.0026393888983875513,-0.0006506592035293579,6.4874482946336265,0.0013391971588134766
1746576357857976300,7.817976318359375,0.32519815516724193,0.0027818267699331045,0.11183961501968888,0.004997405223548412,0.04537702206984721,0.9237259565146837,0.2220283354453269,right,0.0006517171859741211,-0.7227870271973096,2.3497853030636904,-6.969168566015362,-0.3635425117179573,-0.0004587569274008274,-0.0010400712490081787,6.4868778012692925,0.0022884011268615723
1746576357897976000,7.85797607421875,0.3253641931151376,-0.0001708043273538351,0.11190826630462161,0.00446754414588213,0.045382502022115176,0.9237235144789503,0.2220950454068407,right,0.0006200671195983887,-0.7227356728388157,2.351048747128248,-6.969093162691593,-0.36352666152332325,0.0010424089850857854,-0.0009401142597198486,6.486500200128555,0.002101302146911621
1746576357937976000,7.89797607421875,0.3255136804673017,0.001184589695185423,0.11198178188590667,0.005242888815701008,0.045351655503876896,0.9237197445213358,0.22208177617762392,right,0.0003170967102050781,-0.7227097702270486,2.352144287279993,-6.968901439511775,-0.3635175017915357,0.00026055285707116127,-0.001374855637550354,6.486309645992517,0.0006104111671447754
1746576357977976000,7.93797607421875,0.32582531008895843,0.005342369433492422,0.11209744024176779,0.006519443355500698,0.04534926514896764,0.9236895587190861,0.2222113809928743,right,0.00015372037887573242,-0.7227689275126016,2.354192890372872,-6.967804291924834,-0.3635587865441753,-0.0037621017545461655,-0.0006663799285888672,6.486745114800334,0.00029581785202026367
1746576358017976000,7.97797607421875,0.3263118613880886,0.004909856710582972,0.11227031501082825,0.004800834227353334,0.04537937062372547,0.9236489574680775,0.22247714630309215,right,-0.0008652806282043457,-0.7228130562112858,2.3574910551354287,-6.966386826342344,-0.36360483008693484,-0.002679618541151285,-0.00032278895378112793,6.48706952444911,0.0007113814353942871
1746576358057976000,8.01797607421875,0.3267984351876682,0.004477343987673521,0.11244318007856947,0.0030822250992059708,0.04540948344390497,0.9236083549696884,0.22274295663445653,right,-0.0018843412399291992,-0.7228570681397406,2.3607889276370404,-6.964968776237964,-0.36365084175325685,-0.0015971354441717267,0.000020831823348999023,6.487393349575996,0.0011270642280578613
1746576358097976300,8.057976318359374,0.32713766979232367,0.008402375504374504,0.11253391589922217,0.005067229736596346,0.04548310805647385,0.9235643536328045,0.22305813729189153,right,0.00017338991165161133,-0.722964756086118,2.3629269625790417,-6.963505717948078,-0.3637253177148634,-0.002252743113785982,0.0001500248908996582,6.488184792214632,0.0002741217613220215
1746576358137976000,8.09797607421875,0.3275433536517275,0.007403857074677944,0.11264335912211522,0.007113965693861246,0.045593232260388694,0.9235246132611602,0.22346596419454678,right,0.0021702051162719727,-0.7230111765136406,2.365654926238209,-6.962261855366826,-0.3637786361878332,0.0002077626995742321,0.0006937980651855469,6.488526152998209,0.001301407814025879
1746576358177976000,8.13797607421875,0.3275255954510301,-0.011952348984777927,0.11265088254052187,-0.0007093776948750019,0.0455246737050749,0.9235110447220022,0.22333251465382212,right,0.00043636560440063477,-0.7231179479160224,2.3653084508880973,-6.9616475228607655,-0.36381933238734004,-0.0038552796468138695,0.00029402971267700195,6.489311165896058,0.005663394927978516
1746576358217976000,8.17797607421875,0.32724560452286566,-0.013912794180214405,0.11260346504913385,0.004373868461698294,0.04523292291775864,0.923466879218267,0.2226836053620379,right,-0.0017251968383789062,-0.7235705106384732,2.3624149214036763,-6.959528046488762,-0.3639824970263817,-0.009632794186472893,0.0009787529706954956,6.492638264492154,0.00574570894241333
1746576358257976000,8.21797607421875,0.32718005972528286,-0.005304194986820221,0.11260412451821722,0.0025939703918993473,0.04503343183426407,0.9234050513027474,0.22231770365882625,right,-0.00013691186904907227,-0.7240172612605076,2.3610263896547257,-6.956935107386112,-0.36416383176918565,-0.0037328465841710567,-0.0007447749376296997,6.495920939424634,0.0030502676963806152
1746576358297976000,8.25797607421875,0.3272944944731856,-0.002062521642073989,0.11267785104326808,0.006120819598436356,0.04493127665265314,0.9233864265404373,0.22216119028672357,right,0.003095567226409912,-0.7241125466243811,2.3616234787650403,-6.956079367339611,-0.36420095820207826,0.0037895641289651394,-0.0008105635643005371,6.496621196648478,0.0026121139526367188
1746576358337976300,8.297976318359375,0.32732427676160436,-0.006929721683263779,0.11276892824406701,0.007327534258365631,0.044746945623238034,0.9234032797054873,0.22176179980385344,right,0.0025382637977600098,-0.7240548358585327,2.361951249414682,-6.956364029499888,-0.3641528228970388,0.005310636479407549,-0.00007918477058410645,6.496196833756565,0.0018451809883117676
1746576358377976000,8.33797607421875,0.3273148001582335,-0.004356863908469677,0.11287571628729316,0.010050181299448013,0.04450211498151973,0.9234359084333431,0.22120329609173434,right,-0.00017261505126953125,-0.7239357780931448,2.362133912505209,-6.957118647259473,-0.3640669091799534,0.008503763005137444,0.0002597421407699585,6.495322389009594,0.0001634359359741211
1746576358417976000,8.37797607421875,0.3274126004849747,-0.0013253018260002136,0.11301194951704922,0.004489442799240351,0.044327371011101784,0.9234803347529412,0.22081201636215309,right,-0.0006881952285766602,-0.723686080631676,2.363335835640877,-6.9584233001172535,-0.3639332764217156,0.01202401053160429,-0.0016021132469177246,6.493487574797868,-0.002293527126312256
1746576358457976000,8.41797607421875,0.3275725327548209,0.0006889151409268379,0.11312356666692813,0.004023516550660133,0.044285310780658727,0.9235193386707452,0.2207264708109586,right,-0.0017625689506530762,-0.723406762137465,2.36503226429522,-6.959762439766526,-0.36380477396131417,0.0027604764327406883,-0.0007640570402145386,6.491434733921289,-0.001175999641418457
1746576358497976000,8.45797607421875,0.32772399309632005,0.00038143523852340877,0.11317873588963875,0.0007055939640849829,0.044309770204859496,0.9235165151144136,0.22082904933593492,right,-0.0019728541374206543,-0.7233578572202599,2.3661884485930202,-6.959703987577557,-0.3637916825199234,-0.0014422284439206123,-0.0007997006177902222,6.491075252959132,0.0003578662872314453
1746576358537976000,8.49797607421875,0.3279347169751141,0.000010152842151001096,0.11323994401274647,0.003434854093939066,0.04433293707228852,0.9234844075665158,0.22098312327305977,right,-0.0006693005561828613,-0.7234592567999173,2.3674428325682877,-6.958582290071249,-0.3638512592837285,-0.004291044548153877,0.0005634129047393799,6.491820518368482,0.0017871260643005371
1746576358577976000,8.53797607421875,0.3282126627098405,0.0012451071524992585,0.11333163855049655,0.005234298296272755,0.044327995269368384,0.9234394196337663,0.22111478923624553,right,0.00001811981201171875,-0.7236186068058222,2.369043399632722,-6.956944459736347,-0.363937445519398,-0.004745651967823505,0.00012388825416564941,6.492991900235414,0.0012052059173583984
1746576358617976000,8.57797607421875,0.32858297632290245,0.009235170669853687,0.1134342015982293,0.001717954408377409,0.04440086439549694,0.9233927050677297,0.22144167602506046,right,-0.0003662109375,-0.7237305828164791,2.371384848192334,-6.9553785255938765,-0.3640151693381056,-0.005101008806377649,-0.00008438527584075928,6.493814322534203,0.0008885860443115234
1746576358657976000,8.61797607421875,0.3291714398021791,0.01823265478014946,0.1135453378316595,-0.002166920341551304,0.04470285176977448,0.9233406364143275,0.22232647659267182,right,0.0001728534698486328,-0.7237242493652236,2.375490676075965,-6.954020681244135,-0.3640756070768777,-0.001985706388950348,-0.0006510913372039795,6.493768145304918,0.0005663633346557617
1746576358697976000,8.65797607421875,0.3297083192785983,0.010878877714276314,0.11364996902118729,-0.0002786406548693776,0.045026120991457114,0.9233224376756893,0.2231983687907457,right,0.0009775161743164062,-0.7235309906456046,2.379630113968253,-6.953931249395012,-0.36404921074536556,-0.001256386749446392,-0.00024102628231048584,6.492347757112979,0.0038890838623046875
1746576358737976000,8.69797607421875,0.3298387498427936,-0.0013950793072581291,0.11367098102157491,0.0028125480748713017,0.045103017285868324,0.9233108303405325,0.22341551627918024,right,0.0007169246673583984,-0.7235269367685799,2.3805456213779745,-6.953646002712845,-0.36406263360249685,-0.0020325554069131613,0.0005433708429336548,6.492317946496605,0.004141807556152344
1746576358777976000,8.73797607421875,0.3299016093600717,-0.0014709514798596501,0.11370324884053053,0.0032071522437036037,0.045056846602160534,0.9232939436169691,0.223358645287393,right,-0.000014960765838623047,-0.7236154179448835,2.380796673529595,-6.952952759751677,-0.3641010930589632,0.0015176767483353615,-0.0008108466863632202,6.4929685193598266,0.0018854737281799316
1746576358817976000,8.77797607421875,0.3298919959629812,-0.001385764335282147,0.11373005603484482,0.001188707072287798,0.04500404597622649,0.9233111323675414,0.2232233746774021,right,-0.00036656856536865234,-0.7235329419689378,2.3809032026439905,-6.9534823365837335,-0.36405564664152856,0.00531980162486434,-0.001461416482925415,6.4923623701602216,0.0008015036582946777
1746576358857976300,8.817976318359374,0.32980430687578294,-0.0006647307309322059,0.11372655550052746,0.0005702052731066942,0.04495519751160699,0.9233357513386119,0.2230628933762579,right,0.0002168416976928711,-0.7234360528058094,2.3804972521916032,-6.954286638703942,-0.36400042841043734,0.0025518303737044334,-0.0014849305152893066,6.491649837976694,-0.0003381967544555664
1746576358897976000,8.85797607421875,0.3297252664265436,-0.006184556987136602,0.11372673695403744,0.0021928311325609684,0.04485516802921547,0.9233336938228172,0.22282988885067068,right,0.00048023462295532227,-0.7235075876300796,2.3797972872287034,-6.954035294291376,-0.36401796180032425,-0.0008480674587190151,-0.0005674064159393311,6.492175907677412,-0.00047194957733154297
1746576358937976000,8.89797607421875,0.32943234412345923,-0.013987153768539429,0.11365120364896898,0.004415709525346756,0.044624646637554485,0.9232888642346011,0.22230689946293844,right,-0.0011982917785644531,-0.7239510456130651,2.3768285005509853,-6.952007003334164,-0.36418354638793377,-0.011008217930793762,-0.0007298290729522705,6.495434617212414,-0.0005056858062744141
1746576358977976000,8.93797607421875,0.3295597527566486,-0.008237730711698532,0.11365950026063958,0.0026783079374581575,0.0445974381243585,0.923206787981228,0.22238983379725122,right,0.00012415647506713867,-0.7243934470202705,2.3767842230178413,-6.948985025164484,-0.3643924470497213,-0.007851733826100826,-0.00006535649299621582,6.498683974397182,0.0004190802574157715
1746576359017976000,8.97797607421875,0.3296871518888545,-0.002488307189196348,0.11366777248016353,0.0009409062331542373,0.044570214364885265,0.9231245329430244,0.22247279968766534,right,0.0014464259147644043,-0.7248356798898341,2.376738630310446,-6.945961877951025,-0.3646013133403098,-0.00469524972140789,0.0005992501974105835,6.501931578016281,0.0013440251350402832
1746576359057976000,9.01797607421875,0.3297482436740354,-0.003280915319919586,0.11367173343422966,-0.0011444390984252095,0.044557181260287765,0.9230852115639602,0.22251260595318537,right,0.0005796551704406738,-0.7250475847842263,2.376716856870055,-6.944513432708383,-0.3647013486527938,-0.0038043346721678972,-0.00012704730033874512,6.503486990764737,0.0028214454650878906
1746576359097976300,9.057976318359374,0.32966112261332714,-0.0015355685027316213,0.11361252229684016,-0.0013757769484072924,0.04455051611642216,0.9230510359612158,0.22251280051003935,right,-0.000819861888885498,-0.7252842909306787,2.375613425672799,-6.943263724908232,-0.3648071310433719,-0.0036812368780374527,-0.0002022385597229004,6.505224189820885,0.0016230940818786621
1746576359137976000,9.09797607421875,0.3298579655210156,0.0041006216779351234,0.11364297537194039,0.003715753788128495,0.04462306027138275,0.9230093945876514,0.2227785850319357,right,-0.000049114227294921875,-0.7254328137023524,2.376667318639904,-6.941881915161013,-0.36489419283064667,-0.0013863295316696167,-0.00024500489234924316,6.50631432314515,0.0011226534843444824
1746576359177976000,9.13797607421875,0.3299291797388813,0.009086599573493004,0.11366161292049858,0.0048979176208376884,0.04473022792475199,0.9230473006563606,0.2229805142490409,right,0.002585113048553467,-0.725151070422225,2.377755113876611,-6.943446095737815,-0.3647791020271154,0.012594220228493214,0.0006047189235687256,6.504246284699439,-0.0009815096855163574
1746576359217976000,9.17797607421875,0.33031060423143666,0.00982682779431343,0.11380000754038135,0.007897748611867428,0.044883201674139374,0.9230870408793842,0.22337434027311184,right,0.00003147125244140625,-0.7247255998320967,2.3813006775289773,-6.945155237743258,-0.36461645375822516,0.0036361543461680412,-0.0007338821887969971,6.501123184242844,0.0017813444137573242
1746576359257976000,9.21797607421875,0.33072824061219697,0.005288844462484121,0.11393235614884809,0.006196065805852413,0.04499049983818076,0.92307160086123,0.22375061890035047,right,0.00036662817001342773,-0.7246237633925168,2.384415886940062,-6.944786404430866,-0.3646009310251688,0.0017831677105277777,-0.0009651780128479004,6.500375580745935,0.0009899139404296875
1746576359297976000,9.25797607421875,0.3309726007059138,0.0045129102654755116,0.11403083053404417,0.006359776481986046,0.04501353898310193,0.9230721623105971,0.2238752849939812,right,0.0008617639541625977,-0.7245191681374363,2.386333849390596,-6.944846610185504,-0.3645659318953561,-0.0006295116618275642,-0.0007574856281280518,6.499607518982887,0.0011677742004394531
1746576359337976300,9.297976318359375,0.3314618150879082,0.008266117423772812,0.11421087505390828,0.010614169761538506,0.04503279237196552,0.9230348549243322,0.22411533615900936,right,0.0015027523040771484,-0.7245437405555543,2.389679214295745,-6.943527344280481,-0.36460179665828957,-0.003565219696611166,0.00024791061878204346,6.4997881362468,0.0004892945289611816
1746576359377976000,9.33797607421875,0.33212228789491244,0.005930179730057716,0.11444082209109427,0.008464230224490166,0.04505911893847312,0.9229658151168441,0.22446298527966935,right,0.0007159113883972168,-0.7246859652466442,2.3939633213557303,-6.941073521387577,-0.36470124317668984,-0.00317928334698081,0.00011800229549407959,6.50083209234178,0.00023299455642700195
1746576359417976000,9.37797607421875,0.33260665936173744,0.0027503117453306913,0.1145908360837945,0.005005954299122095,0.045097957549374505,0.9228987616832234,0.22477941589620234,right,0.00024622678756713867,-0.7248814103665527,2.3969103345930574,-6.938712637475133,-0.36481915839979706,-0.006430373061448336,0.0008697658777236938,6.5022670935809606,0.0020551085472106934
1746576359457976000,9.41797607421875,0.33302751388238716,0.003370254300534725,0.11470819613038677,0.004129202105104923,0.04511625477392168,0.922814036241551,0.2250544267880625,right,0.0004279613494873047,-0.725210827597678,2.39912991033867,-6.93567838434577,-0.3649942535582462,-0.008283442817628384,0.002135530114173889,6.5046852606385945,0.002158522605895996
1746576359497976000,9.45797607421875,0.333425823997152,0.007423351984471083,0.11480259227707791,0.0014236324932426214,0.04518713976270968,0.9227377923775476,0.22542286127182048,right,-0.00017559528350830078,-0.7254838603345881,2.401310907639563,-6.933043944188952,-0.36514855104798416,-0.005837707314640284,0.0008698403835296631,6.5066884171545505,0.001338362693786621
1746576359537976000,9.49797607421875,0.3336934500743156,0.01037721149623394,0.11481184549245779,-0.005371730774641037,0.04541324203841404,0.9227011495612484,0.2260283502333225,right,-0.00009161233901977539,-0.7255290146079302,2.403069880136102,-6.932122737690806,-0.36520994558134445,-0.0010804072953760624,0.0008815973997116089,6.507019841066002,0.0008435845375061035
1746576359577976000,9.53797607421875,0.33380331089958715,0.00576359685510397,0.11475641481534787,-0.005260076839476824,0.04566898490184512,0.9226856515553383,0.22662080025113474,right,0.001302480697631836,-0.7255034936955066,2.403886018824577,-6.932016354706883,-0.365234812174743,-0.004911912605166435,-0.00047522783279418945,6.506832794061303,0.002461075782775879
1746576359617976000,9.57797607421875,0.33389163056528287,0.0036647196393460035,0.11469620188189082,-0.006605793721973896,0.04588473155261944,0.922656027143015,0.22713950064513713,right,0.0013497471809387207,-0.7255799322419338,2.404335077766329,-6.9313336331397295,-0.3653013686085152,-0.002730362582951784,-0.0028713643550872803,6.507393350553512,0.0008214116096496582
1746576359657976000,9.61797607421875,0.3335947636013438,0.005417934153228998,0.11452234715839764,-0.00402534194290638,0.04598897543384094,0.9226463656175385,0.22727788050617226,right,0.00022351741790771484,-0.7257224880699593,2.401973609331995,-6.931170551532507,-0.36536727796747737,-0.001953550148755312,-0.0018015354871749878,6.508439060214162,0.0013656020164489746
1746576359697976000,9.65797607421875,0.333654801466962,0.004638614598661661,0.11448616823066769,0.00019674375653266907,0.04607963437837379,0.9226043686418471,0.22753957472903932,right,0.0007540583610534668,-0.7259193719194775,2.4019699560701846,-6.929815629792213,-0.3654731627818417,-0.0018224926898255944,-0.0009777992963790894,6.509883413803577,0.0022194981575012207
1746576359737976000,9.69797607421875,0.3337459434554306,0.0005995212122797966,0.11449509878348677,0.002675824798643589,0.046109903049524587,0.9225762544661967,0.22766673364037257,right,0.0017406344413757324,-0.7260403249581987,2.402343611688167,-6.928852337718009,-0.365537525407238,-0.002039424143731594,-0.00106145441532135,6.510770718032122,0.0024513602256774902
1746576359777976000,9.73797607421875,0.33385180903267464,0.0009056826820597053,0.11452541212795969,0.003294839523732662,0.046111536930123896,0.9225546353426624,0.2277301085007519,right,0.001861274242401123,-0.72612528793287,2.402895692612976,-6.9280749236047265,-0.3655822428818608,-0.0018560757162049413,-0.0009511858224868774,6.511393233844638,0.0022104978561401367
1746576359817976000,9.77797607421875,0.3341812508096023,0.0016030550468713045,0.11464218593817552,0.006948625668883324,0.046097680690262335,0.9225097102467295,0.22786006667374897,right,0.0008006095886230469,-0.7262651424826466,2.4048794137760994,-6.926423064744472,-0.36566083825115997,-0.003255000337958336,-0.0005713999271392822,6.512419069761037,0.002583146095275879
1746576359857976300,9.817976318359374,0.334683813407508,0.0007566453423351049,0.11482597549731825,0.003279765835031867,0.04608458276241446,0.9224532298240794,0.22806028659910452,right,0.0003680586814880371,-0.7264045593795192,2.4080616970740256,-6.92435561082065,-0.36574727726836387,-0.0015363669954240322,-0.001979425549507141,6.5134413985460995,0.0012556910514831543
1746576359897976000,9.85797607421875,0.33493943769089,0.005195182748138905,0.11493539307504587,0.006883861031383276,0.04607707860880677,0.9224466446310237,0.22813296099962796,right,0.00020867586135864258,-0.7263458050661343,2.4099575938232243,-6.9241019283205265,-0.36573061127783457,-0.0018835666123777628,-0.0006369501352310181,6.5130106059134,-0.00007337331771850586
1746576359937976000,9.89797607421875,0.3354324653096755,0.004421098157763481,0.11508916985274363,0.006831811275333166,0.04607819057869538,0.9223610286946964,0.22839642117237682,right,-0.001698315143585205,-0.7266560776188119,2.412705869618058,-6.921004546827078,-0.3658981062118796,-0.009229536168277264,-0.000614851713180542,6.515284980586171,-0.0006697773933410645
1746576359977976000,9.93797607421875,0.33586705811701406,0.006423138082027435,0.11520803486539147,0.0039330353029072285,0.04612015079028815,0.9222829859275958,0.22871826716183982,right,-0.00225907564163208,-0.7269322711609323,2.415120383413881,-6.918256124901771,-0.3660521455066739,-0.006850270088762045,-0.00028280913829803467,6.517309179890155,-0.00038951635360717773
1746576360017976000,9.97797607421875,0.336288734698584,0.0075280019082129,0.11528445170778853,0.0026750052347779274,0.04630755932079718,0.922227158890457,0.22931482716025367,right,-0.0017611980438232422,-0.7270397142151459,2.417806261496991,-6.916576208990812,-0.36614507809307484,-0.008166346698999405,0.00014218688011169434,6.518095946353673,0.0006622076034545898
1746576360057976000,10.01797607421875,0.33671046233095475,0.008632865734398365,0.11536084415803519,0.0014169749338179827,0.04649496992948802,0.9221712105844642,0.22991147829284106,right,-0.0012633204460144043,-0.7271468617236887,2.4204921395801007,-6.9148962930798525,-0.3662379763082779,-0.009482423774898052,0.000567212700843811,6.518880959251523,0.0017140507698059082
1746576360097976300,10.057976318359374,0.3370002055744562,0.008722128346562386,0.1153662058595096,-0.004799124784767628,0.04670858566033316,0.9221097239446053,0.23052889375039318,right,-0.00028139352798461914,-0.7273304645467706,2.422099574776739,-6.913064401477575,-0.3663637627703417,-0.006474711000919342,-0.00018139183521270752,6.520226528641581,0.0018256306648254395
1746576360137976000,10.09797607421875,0.33705183454906085,0.007338543422520161,0.11528214276048449,-0.00829169899225235,0.04695056769769095,0.922082838804511,0.23108817230604206,right,0.00013691186904907227,-0.7273958781306453,2.4223154094845056,-6.912537162733077,-0.3664269340707872,-0.002565606962889433,-0.0003584921360015869,6.520705252069234,0.0027565360069274902
1746576360177976000,10.13797607421875,0.33693773461960236,0.0027161315083503723,0.11517501183302872,-0.003756939899176359,0.047090735431765826,0.9220734248758895,0.23135930125469306,right,0.0013963580131530762,-0.7274544457160784,2.4214004865966734,-6.912452991580963,-0.3664664485189677,0.0009892950765788555,0.0003504157066345215,6.521134291136264,0.004004836082458496
1746576360217976000,10.17797607421875,0.3367770104856032,-0.00000848434865474701,0.11510247182473587,-0.0046584527008235455,0.047159416608804586,0.9221046263152066,0.23141444209010262,right,-0.0005307197570800781,-0.7273135764931121,2.4205929696060715,-6.913709129121899,-0.36640186405357206,0.008537476882338524,-0.0005757063627243042,6.520102610000968,0.003495514392852783
1746576360257976000,10.21797607421875,0.3364019580889166,-0.0013481145724654198,0.11498875135498271,-0.004749634303152561,0.04716621586615414,0.9221777745234121,0.23121973580829716,right,0.00012564659118652344,-0.7270290814795192,2.4186120249219236,-6.916367534676194,-0.3662525979338681,0.007794688455760479,-0.001501813530921936,6.518018204942345,0.0023307204246520996
1746576360297976000,10.25797607421875,0.3360271007092305,-0.0026877447962760925,0.11487503587474931,-0.00484081543982029,0.047173015123505614,0.9222509227316179,0.23102522925797883,right,0.0007818341255187988,-0.7267445310008368,2.416630787976831,-6.919024186664819,-0.366103302432486,0.007051900029182434,-0.0024278610944747925,6.515933215361833,0.0011661052703857422
1746576360337976300,10.297976318359375,0.33577761587307303,-0.008450541645288467,0.11482015777994489,-0.0053176842629909515,0.047151292452610044,0.9223154323354287,0.23082073100828665,right,0.00030410289764404297,-0.7264691761963867,2.415495500336587,-6.921320188647508,-0.36596061289373455,0.004531935788691044,-0.002208709716796875,6.513914861276746,0.0016747713088989258
1746576360377976000,10.33797607421875,0.33526383004986243,-0.008552629500627518,0.11468183561033432,0.0008871681056916714,0.04696388193590017,0.9223410307192884,0.23023326870016633,right,-0.001709580421447754,-0.7265768034750549,2.4117085291437803,-6.921898865318298,-0.3659636946506277,-0.0006001796573400497,-0.0011745840311050415,6.514703965827822,0.0010260939598083496
1746576360417976000,10.37797607421875,0.33500825269856177,-0.0016919756308197975,0.11460939961018193,-0.0014853337779641151,0.04683466680117374,0.9223303868438759,0.22989430117412016,right,-0.0011490583419799805,-0.7267784389263334,2.4095075119681657,-6.921274595940113,-0.36602986819586825,0.000605899142101407,-0.0003982037305831909,6.51618163716495,0.0001259446144104004
1746576360457976000,10.41797607421875,0.33480235688358334,0.00015740050002932549,0.11453605199166252,-0.004508369602262974,0.04683530197452915,0.9223537971266139,0.2298019023788729,right,0.0005117058753967285,-0.7267213484427468,2.4082047588065265,-6.922122152680158,-0.365993803657784,0.004274354781955481,-0.0006401091814041138,6.515763119491934,0.0011211037635803223
1746576360497976000,10.45797607421875,0.33452944013187746,-0.0020252156537026167,0.11444547318098754,-0.004231702536344528,0.046851696148614015,0.9224019187173564,0.22969078439196278,right,0.0009216666221618652,-0.7265394921557409,2.4067041449852287,-6.923897345659136,-0.3658984661362781,0.002905115019530058,0.00034891068935394287,6.514430409583449,0.0016553401947021484
1746576360537976000,10.49797607421875,0.3342766405098874,0.0006869786884635687,0.11435798650735626,-0.00466170022264123,0.046863546906996005,0.9224399294242472,0.22958918136270287,right,0.00004482269287109375,-0.726411447034974,2.405227496561408,-6.925293768453598,-0.36582853216794975,0.006000213325023651,0.000014826655387878418,6.513491667428612,0.001089930534362793
1746576360577976000,10.53797607421875,0.3340812986955333,0.003918032627552748,0.11426503224336658,-0.005060928408056498,0.04697513322603743,0.9224856096930649,0.229706084464517,right,0.00028592348098754883,-0.7261859443882409,2.40435626668483,-6.927150794497132,-0.3657281359956607,0.004875652026385069,-0.00020389258861541748,6.511838055002689,0.00036656856536865234
1746576360617976000,10.57797607421875,0.33388598981778206,0.007149087265133858,0.11417210264925949,-0.0054601565934717655,0.04708671691146253,0.9225312299511481,0.2298230111965187,right,0.0005269646644592285,-0.7259603180390153,2.4034847445473075,-6.9290084050625556,-0.3656276835547749,0.0037510907277464867,-0.00042256712913513184,6.510183858054876,-0.0003567337989807129
1746576360657976000,10.61797607421875,0.3337880890969103,0.0035335251595824957,0.11409828090908596,-0.006504688411951065,0.047224563151867356,0.9225572758789069,0.2300500938458993,right,-0.0012853741645812988,-0.725803966414493,2.4031398766323924,-6.930204921370744,-0.3655672646363939,0.00009896303527057171,-0.0012641996145248413,6.509037026107311,0.0008895397186279297
1746576360697976000,10.65797607421875,0.33377976995101954,0.002205557655543089,0.11405211995344595,0.000006251037120819092,0.04729942400633219,0.9225353735890229,0.23023222943210112,right,-0.0002945065498352051,-0.7259137794907492,2.4028480540789663,-6.929550256854295,-0.3656273502384039,-0.005855816416442394,-0.0005659312009811401,6.509842497271299,0.0016526579856872559
1746576360737976000,10.69797607421875,0.33397163928197743,0.005334017798304558,0.11406207660156688,0.002066566376015544,0.0473980577971331,0.9224816840356643,0.2305666877919718,right,0.0009916424751281738,-0.7261251075845064,2.4037265904791654,-6.92778909240067,-0.3657469945571663,-0.005855101626366377,-0.00059528648853302,6.511392064800858,0.000279843807220459
1746576360777976000,10.73797607421875,0.33430555247762084,0.0074246712028980255,0.11412670915949094,0.005082172341644764,0.04752151443368249,0.9224302481383136,0.23099505751890206,right,0.0015131235122680664,-0.7262590081144085,2.4057534201316533,-6.926161783459782,-0.36584025359490285,-0.006757132243365049,-0.0007323920726776123,6.512374061575532,0.0011944770812988281
1746576360817976000,10.77797607421875,0.3348451515480964,0.007680067326873541,0.11425242832226493,0.005854146089404821,0.047647304603604175,0.922340085616074,0.231541291397523,right,-0.00006574392318725586,-0.7265400308033924,2.4088889416784047,-6.923133960071206,-0.36601196187494434,-0.010330931283533573,-0.0006378740072250366,6.514434501236677,0.0011920332908630371
1746576360857976300,10.817976318359374,0.33527098468731537,0.004280720837414265,0.11435225510885373,0.0034386273473501205,0.047732779961095685,0.9222629359614252,0.2319509025423644,right,0.00022345781326293945,-0.7268008250916401,2.411277736511081,-6.920503027045727,-0.36616400753923706,-0.005118795204907656,0.0003800243139266968,6.516345887815952,0.00289154052734375
1746576360897976000,10.85797607421875,0.3354894832033725,0.002695496194064617,0.11439677159125873,0.0023121931590139866,0.04776712269547093,0.9222092817147595,0.232158698803362,right,0.0011304616928100586,-0.7270204325061485,2.412318769996613,-6.9186249582141635,-0.36628084499567115,-0.00268820789642632,0.00115126371383667,6.517955076578259,0.0030484795570373535
1746576360937976000,10.89797607421875,0.33557753526915857,0.0035048271529376507,0.11442721138205769,0.0008656098507344723,0.04778819616829663,0.9222087259733667,0.23223133883132932,right,0.00046539306640625,-0.7269825280689728,2.4130092364788056,-6.918645416480302,-0.36626990215353794,0.003452381817623973,0.0016660243272781372,6.517677428680658,0.002729058265686035
1746576360977976000,10.93797607421875,0.33556080768946506,-0.0004916856996715069,0.11442255849039938,-0.001305494224652648,0.04781041451199314,0.9222236344254376,0.23225428173540472,right,-0.0002053976058959961,-0.7268948900470943,2.413081571062654,-6.919225262194871,-0.3662309932627159,0.003471958450973034,0.00032654404640197754,6.5170350391238925,0.0022616982460021973
1746576361017976000,10.97797607421875,0.33536500133719555,0.002162250690162182,0.11435624984076835,-0.003864727448672056,0.047816318611927325,0.9222532839940688,0.2321682639883761,right,-0.00007003545761108398,-0.7267955398710749,2.411939853681624,-6.92030896577835,-0.36617626362095224,0.0031068180687725544,-0.001279681921005249,6.5163067248493425,0.0004150271415710449
1746576361057976000,11.01797607421875,0.33533281268245435,0.00383548391982913,0.11432902448662072,0.0009758262895047665,0.04787074758646166,0.9222622388555629,0.23226151361632535,right,0.0023224353790283203,-0.7267389228220515,2.411838439133763,-6.920735082235932,-0.3661551050311731,0.003693519625812769,-0.0016130656003952026,6.515892298829555,-0.0025673508644104004
1746576361097976300,11.057976318359374,0.3350906504069809,-0.00715377414599061,0.11424648713866642,0.0010028872638940811,0.04783437491690767,0.9222762146400643,0.232091562983718,right,-0.00018715858459472656,-0.7267628467896445,2.4101111769497394,-6.921171720087528,-0.3661504597377629,-0.0032663606107234955,0.00011362135410308838,6.516067070874572,0.0019621849060058594
1746576361137976000,11.09797607421875,0.335003330827831,-0.008728627115488052,0.11421916936145254,0.004151526372879744,0.04767900669507484,0.9222129396906863,0.2318159814023571,right,-0.0012569427490234375,-0.7272161620902606,2.4085354520656166,-6.918591640466452,-0.36633856070405946,-0.008979089558124542,0.00008438527584075928,6.51938890877366,0.002079904079437256
1746576361177976000,11.13797607421875,0.3350068168062592,0.00042116083204746246,0.11420239314882617,0.0016516989562660456,0.04761682883438771,0.9221559065581966,0.23175717045300487,right,0.0001914501190185547,-0.7275686013451649,2.407803922920674,-6.916413127383589,-0.3664953813074977,-0.001673632301390171,0.0003366917371749878,6.521970741960406,0.0003274679183959961
1746576361217976000,11.17797607421875,0.3351492076424975,0.0054787322878837585,0.11422485657211459,-0.0009983410127460957,0.04771126242839532,0.9221481528356157,0.23201036096864924,right,0.0007841587066650391,-0.7275298506926038,2.4088718444131314,-6.9163084979653355,-0.366495628973163,0.0001028719125315547,0.00032979249954223633,6.521686664322019,0.0010775923728942871
1746576361257976000,11.21797607421875,0.33529429338183375,0.0032240122091025114,0.11423684234893099,0.00032458791974931955,0.04780133743834497,0.9221218531824369,0.23227826875323931,right,0.0009453296661376953,-0.7276000147686748,2.409724661850184,-6.915526992198824,-0.36654627258055544,-0.00373101606965065,0.0021166354417800903,6.522200459063053,0.003841996192932129
1746576361297976000,11.25797607421875,0.3354759484693147,0.0035904839169234037,0.11427252508499541,0.0027174735441803932,0.047839806297780924,0.9220804362534963,0.23246795643077722,right,0.0008088946342468262,-0.7277604435504762,2.4106363698676225,-6.914100758787989,-0.3666343131398989,-0.0016859029419720173,0.002087235450744629,6.523375348061323,0.0018866658210754395
1746576361337976300,11.297976318359375,0.3355173060953048,0.007553433999419212,0.11424518182817406,0.0024107489734888077,0.04792929815599638,0.9220620951633204,0.2326921162482746,right,0.002315223217010498,-0.7278245232372925,2.4107846922971308,-6.9136062532693145,-0.3666772199791859,0.001107602845877409,0.0017118752002716064,6.523844719138741,-0.0007240176200866699
1746576361377976000,11.33797607421875,0.33583797683173783,0.007938385009765625,0.11429650867980298,0.0009884582832455635,0.04807943839363101,0.9220141688359271,0.23316866851334284,right,0.00025916099548339844,-0.727934417950549,2.4127651985898613,-6.912156054461002,-0.3667620527654455,-0.003946006763726473,0.00019216537475585938,6.524649021258949,0.0009810328483581543
1746576361417976000,11.37797607421875,0.33600338178317907,0.0029117469675838947,0.11430292091440306,0.0006701464299112558,0.04818661944802518,0.9219765001624023,0.23349329094899482,right,-0.0006928443908691406,-0.7280582696364436,2.4136421275548634,-6.910994024944305,-0.3668407999444112,-0.0030825436115264893,-0.0005114972591400146,6.5255556147098535,0.001770615577697754
1746576361457976000,11.41797607421875,0.33617023262611445,0.002757951384410262,0.11433809119378517,0.0017398433992639184,0.04821728749146992,0.9219396122201748,0.23365641335522272,right,0.00003260374069213867,-0.7282002552573247,2.4144896842949093,-6.90971684461534,-0.3669185965401532,-0.0020361123606562614,-0.0003892630338668823,6.526594894629716,0.0011759400367736816
1746576361497976000,11.45797607421875,0.3363888936458085,0.00332473823800683,0.11440764104434144,0.004658298566937447,0.0482691281301768,0.9219297205395871,0.2338465922052845,right,0.0007127523422241211,-0.7281565192816155,2.416094635273516,-6.909457901418208,-0.3669148998477434,0.001981691922992468,-0.000005602836608886719,6.526275161156058,0.0014720559120178223
1746576361537976000,11.49797607421875,0.3366592644049355,0.00146374327596277,0.11450641021620764,0.0035072853788733482,0.04830311841369164,0.9219201395529781,0.23401505310956577,right,0.0013890862464904785,-0.7280960332679088,2.418092969483882,-6.909176746389269,-0.36690362007398547,0.00031035125721246004,-0.000461384654045105,6.525832093563675,0.0017533302307128906
1746576361577976000,11.53797607421875,0.33691111431449955,0.0013109651627019048,0.11459763974449366,0.0036915838718414307,0.048314609867776054,0.9219000507188275,0.23414352245278763,right,0.0017458796501159668,-0.7281115373498058,2.4197996272712943,-6.908472397512197,-0.3669241002170806,-0.0007677879184484482,-0.0008498281240463257,6.525945490810274,0.00099104642868042
1746576361617976000,11.57797607421875,0.33719088055984175,0.001240424462594092,0.1146987201889288,0.003776678116992116,0.04833040462689055,0.9218788683615021,0.23429116275979694,right,0.001504063606262207,-0.7281209965049095,2.4217117445029315,-6.907736484453082,-0.3669436232955448,-0.0012655863538384438,-0.00021748244762420654,6.526015048915148,0.0013872981071472168
1746576361657976000,11.61797607421875,0.33749961434049086,0.0018610465340316296,0.11480228409167251,0.00546297337859869,0.04832141755693644,0.9218312421977873,0.2344289593940117,right,0.0010386109352111816,-0.7282820644831275,2.423496289832145,-6.905996947309374,-0.367032097216318,-0.0033689006231725216,0.00022739171981811523,6.527194029566645,0.0012117624282836914
1746576361697976000,11.65797607421875,0.33793773805900174,0.0036679089535027742,0.11496202933151181,0.005812535993754864,0.04832308512965526,0.9217886384452703,0.23462357008783868,right,-0.00029790401458740234,-0.7283594522172432,2.4263543096117672,-6.90445790117383,-0.36708897005653884,-0.0018194855656474829,-0.00019365549087524414,6.527760431277752,0.001199960708618164
1746576361737976000,11.69797607421875,0.3383672984276275,0.008481919765472412,0.11509843075721406,0.0009883069433271885,0.048407501516157345,0.9217600350028824,0.2349718297841477,right,-0.0005264878273010254,-0.7283314622456851,2.429380379434675,-6.903586963558197,-0.36710672240688746,0.00003525393549352884,-0.00023888051509857178,6.527555264094471,0.0008744001388549805
1746576361777976000,11.73797607421875,0.33882006857082864,0.008565268479287624,0.11521433329869536,-0.003313741646707058,0.04858865194442143,0.9217373134285252,0.23552350128204852,right,-0.0014292597770690918,-0.7282301616362643,2.4327257443398236,-6.903109993696212,-0.36710349111421087,-0.001676743384450674,-0.0018217414617538452,6.526814090338349,0.0016155838966369629
1746576361817976000,11.77797607421875,0.33920647832210526,0.003969162702560425,0.11529406336977602,-0.0019565464463084936,0.048763839192694905,0.9217016387116592,0.23605809435490124,right,0.000011920928955078125,-0.7282327665638711,2.4353873647645115,-6.902153715884685,-0.3671448715730845,-0.001734633115120232,-0.0014491826295852661,6.5268327950388185,0.002140223979949951
1746576361857976300,11.817976318359374,0.33881780545518925,-0.007869348861277103,0.11515022504747213,-0.001065806020051241,0.048676337228841536,0.9216938263170079,0.23576208079798394,right,-0.0008606314659118652,-0.7284596406408103,2.4322123879902064,-6.901703049507737,-0.36722128921460717,-0.00550789525732398,0.0016137510538101196,6.528493421727418,0.003590226173400879
1746576361897976000,11.85797607421875,0.33853498747454336,-0.0028141862712800503,0.11503396270677319,-0.0019886004738509655,0.04854421025791358,0.9216379102337686,0.23546575090676025,right,-0.0008220672607421875,-0.72894037270359,2.4292177362188694,-6.899429259356856,-0.3674155065970172,-0.004163223784416914,0.00029140710830688477,6.5320104899376625,0.002654850482940674
1746576361937976000,11.89797607421875,0.33847366674258905,0.007845982909202576,0.11496870915307869,-0.004187183454632759,0.04864236079553429,0.9216335759875984,0.23565839870496727,right,0.0010112524032592773,-0.7289594919853097,2.428753187447041,-6.899460239017009,-0.3674337777603366,0.0043111867271363735,0.0009645670652389526,6.532150190669298,0.0032992959022521973
1746576361977976000,11.93797607421875,0.33851916340744886,0.004416833631694317,0.11496755936010226,-0.00229135574772954,0.048828837318539695,0.9216973117119052,0.2359846622501417,right,0.002058744430541992,-0.7285092748701664,2.430043373388052,-6.902122736224531,-0.3672493670816243,0.010234441608190536,0.00039070844650268555,6.528856409820914,0.00688779354095459
1746576362017976000,11.97797607421875,0.33813638782708333,-0.007634807378053665,0.11490329193050804,-0.0006601166678592563,0.04876462107372745,0.921807307359437,0.23559104605675962,right,0.001984894275665283,-0.728034058697404,2.428430092972517,-6.905978242608905,-0.3670017603962991,0.0159011147916317,0.0011641085147857666,6.5253785045772785,0.004889845848083496
1746576362057976000,12.01797607421875,0.3377733071696579,-0.003650488331913948,0.11488027455098108,0.0031247208826243877,0.04858332169567035,0.9219045384566593,0.23497376199656164,right,0.0017639994621276855,-0.7276628682925005,2.4267251887507735,-6.909145182207227,-0.36678893911634086,0.015022631734609604,-0.0007876753807067871,6.5226610623121255,0.00007021427154541016
1746576362097976300,12.057976318359374,0.33753509982669777,0.00335879297927022,0.11486814271199092,0.005457257851958275,0.04849580850846303,0.9219882008895102,0.2346099997502332,right,0.0017340779304504395,-0.7272924320825204,2.425879385576397,-6.912002909725904,-0.36659407844563824,0.009829318150877953,-0.0010794252157211304,6.5199477117002,-0.0035091042518615723
1746576362137976000,12.09797607421875,0.3376785093837147,0.0005993521772325039,0.11494636787204612,0.005949248094111681,0.04846877378521276,0.9219964193394112,0.2345878003225397,right,-0.0013766884803771973,-0.7271961666767739,2.4270786783635616,-6.912247239875793,-0.36655255728563624,-0.0004937611520290375,-0.0016281753778457642,6.519242193779349,-0.003050506114959717
1746576362177976000,12.13797607421875,0.33786518661523407,0.0007085538236424327,0.11500267920605725,0.007758202962577343,0.04840545940590884,0.9219298454790485,0.2345966247140665,right,-0.0028656721115112305,-0.7275326448170927,2.4276414268128574,-6.909723274356127,-0.36671039309749315,-0.012828531675040722,-0.0007396489381790161,6.5217071225881575,-0.0015184283256530762
1746576362217976000,12.17797607421875,0.3383281867292576,0.009837424382567406,0.11510230895898202,0.007105758413672447,0.04846791939699534,0.9218191202908608,0.23501233810817432,right,-0.001618027687072754,-0.7279811929058957,2.4298691858649253,-6.905838541877269,-0.3669491322591863,-0.011922993697226048,-0.0008470863103866577,6.524991551086306,-0.0021674036979675293
1746576362257976000,12.21797607421875,0.33889700885838936,0.014960911124944687,0.1152182950945461,0.003791090799495578,0.04872773943798359,0.9217655064362476,0.23580459691722913,right,-0.0005127787590026855,-0.7279908533587592,2.433775984045118,-6.904395357331633,-0.3670129630566231,-0.005523339845240116,-0.0004890710115432739,6.525062278234958,0.0018382072448730469
1746576362297976000,12.25797607421875,0.33936720663800507,0.009027780964970589,0.11530357200523313,0.0026843203231692314,0.04895431588143254,0.9217125199087176,0.23649533077237322,right,0.00003075599670410156,-0.7280461921077956,2.4369021532416344,-6.90291067173183,-0.3670893233060127,-0.00985790602862835,-0.00002065300941467285,6.525467351904511,0.0029962658882141113
1746576362337976300,12.297976318359375,0.3397337390484464,0.007268095389008522,0.11533808170655713,-0.0017006234265863895,0.049130845239143114,0.9216271626536684,0.23708918361544828,right,0.0003694891929626465,-0.7283473238012653,2.4387771533332763,-6.900164003372192,-0.36726918170372674,-0.007790823467075825,-0.00016327202320098877,6.527671583950519,0.0017340779304504395
1746576362377976000,12.33797607421875,0.340036451734105,0.0077387308701872826,0.11535137600479554,0.00045669684186577797,0.049311306407934095,0.9215529874698711,0.23765723754705426,right,0.0022405385971069336,-0.7286061981243529,2.4403021709434687,-6.897831761032342,-0.3674268465315357,-0.008674674667418003,0.0001471191644668579,6.529566019394993,0.004282355308532715
1746576362417976000,12.37797607421875,0.34035908119393093,0.0035118688829243183,0.11540696268689848,0.0010694321244955063,0.049420835352317546,0.9214900718605156,0.23806830996655745,right,0.0009102225303649902,-0.7288135162820668,2.4420756103567776,-6.895768398761749,-0.36755254680080346,-0.002042005304247141,-0.00036232173442840576,6.53108285369873,0.004225015640258789
1746576362457976000,12.41797607421875,0.3403472996178809,-0.0019489489495754242,0.11539626657477324,-0.0031133699230849743,0.049395104336329175,0.921469653664994,0.23803624463718345,right,-0.0015417933464050293,-0.7289454173507806,2.441706484783441,-6.894983970385789,-0.3676102815142682,0.0006045030895620584,-0.000918269157409668,6.532047314816713,0.0035477280616760254
1746576362497976000,12.45797607421875,0.34011569312560175,-0.0013707999605685472,0.11532069538651817,-0.0066752019338309765,0.049342163263537256,0.9214785835165251,0.2378410324648674,right,-0.0010187625885009766,-0.729001474392228,2.4399874059058724,-6.895204335138201,-0.3676187294149755,0.0014449087902903557,-0.0026847273111343384,6.532457649183273,0.00018781423568725586
1746576362537976000,12.49797607421875,0.3400328383887997,-0.0029624062590301037,0.11527626649963475,-0.001548930536955595,0.0493554727314374,0.9214737840995059,0.23784905853171226,right,0.0010471940040588379,-0.72905799685201,2.4392928477704525,-6.89505820466578,-0.36764280413708345,-0.0012099549639970064,-0.0022033601999282837,6.532870906159282,-0.0002688169479370117
1746576362577976000,12.53797607421875,0.33984926743757526,-0.004538462497293949,0.11523569445496833,0.001842632656916976,0.049120207337619966,0.9214117436519523,0.2373751420909542,right,0.00017583370208740234,-0.7295683776660368,2.43691515885368,-6.892361220666766,-0.36784246893940636,-0.009619491174817085,-0.0019376128911972046,6.53660307842493,0.00010466575622558594
1746576362617976000,12.57797607421875,0.3396652501306839,-0.006114518269896507,0.11519508332730438,0.005234194919466972,0.04888494194380497,0.9213497032043961,0.23690088128455025,right,-0.0006955862045288086,-0.7300787877187855,2.434535131849348,-6.889663652145862,-0.36804209687577144,-0.018029026687145233,-0.00167161226272583,6.54033349712491,0.0004782676696777344
1746576362657976000,12.61797607421875,0.3397816939364411,0.000002377200871706009,0.11522396428520613,0.006217374466359615,0.04877715103789713,0.9212658944610247,0.23681635226621736,right,0.0011714696884155273,-0.7305567623654502,2.4342950394831595,-6.886431246095896,-0.36825688120194205,-0.011052384972572327,-0.0002865642309188843,6.5438254308938975,0.0005099177360534668
1746576362697976000,12.65797607421875,0.3402055202995447,0.0035810552071779966,0.11534411678232392,0.0056642270646989346,0.048759681776395405,0.9211683194454514,0.23703617580362304,right,-0.0003395676612854004,-0.7309664101053407,2.436318800395727,-6.882871507787704,-0.36846564199047976,-0.01204838976264,-0.00007365643978118896,6.546817013925313,0.0026793479919433594
1746576362737976000,12.69797607421875,0.3404794927594589,0.0007772082462906837,0.11541601915930877,0.004602200351655483,0.048733499152875906,0.9210900592088063,0.23716629681861676,right,-0.0010026097297668457,-0.7313250279230632,2.4374204780273137,-6.879990983915328,-0.36864238862893445,-0.0064133028499782085,0.0008136779069900513,6.54943450294733,0.003201723098754883
1746576362777976000,12.73797607421875,0.3408216892858162,0.005489971488714218,0.11551184593740509,0.004420947283506393,0.04874184203256286,0.9210209899781722,0.2373789848348934,right,-0.00044089555740356445,-0.7315917293982874,2.439190848700702,-6.877509688493609,-0.36878390036802716,-0.0038705123588442802,-0.000597149133682251,6.551380960839986,0.0010318756103515625
1746576362817976000,12.77797607421875,0.34099282675957715,0.004619813524186611,0.11553135808829468,0.000908339861780405,0.04889998715299153,0.9210239399685377,0.23776200108477927,right,-0.0015639066696166992,-0.7314579599783282,2.4406609212532637,-6.8779182692945,-0.3687495485651414,-0.004629559349268675,-0.0005615949630737305,6.55040480928421,0.0018557310104370117
1746576362857976300,12.817976318359374,0.34116380893855913,0.003749655559659004,0.11555086053787288,-0.0026042680256068707,0.04905812700618228,0.9210267699374302,0.2381448951997027,right,-0.002686738967895508,-0.7313239945969731,2.4421302631534636,-6.8783274346172805,-0.3687151648858172,-0.0053886063396930695,-0.0005259662866592407,6.549426904162764,0.002679765224456787
1746576362897976000,12.85797607421875,0.3411210229473192,0.0010494741145521402,0.11548839312247634,-0.0032060667872428894,0.04915176836532306,0.9210131049469608,0.2383457398403025,right,-0.0008780360221862793,-0.7313916083342086,2.4416877800829706,-6.878014715406298,-0.36875636931958833,-0.005060168448835611,0.00009043514728546143,6.54992082515955,0.0018001794815063477
1746576362937976000,12.89797607421875,0.3410882833665743,0.0050481464713811874,0.11543654988572095,-0.002961639314889908,0.04921732438347304,0.920994173313067,0.2384974104770675,right,0.00040280818939208984,-0.7314952869393636,2.4412355062708255,-6.877454743435979,-0.3688112881419297,-0.0062106698751449585,-0.0006270259618759155,6.550677196484804,-0.00025767087936401367
1746576362977976000,12.93797607421875,0.341472270270713,0.011195763945579529,0.11548700407080432,0.0009829304181039333,0.049425176614202704,0.9209369301494258,0.2391281551628349,right,0.0008979439735412598,-0.731613403323157,2.4436171407103537,-6.875787687006592,-0.3689106942538065,-0.006038111634552479,-0.0005950629711151123,6.551539366272092,0.0006057620048522949
1746576363017976000,12.97797607421875,0.3418646050154437,0.008854662999510765,0.11554991043414464,0.00045961642172187567,0.04962738581122086,0.9208888675561665,0.23973790851291335,right,-0.00010120868682861328,-0.7316752395123086,2.446178661761433,-6.874446793791651,-0.36898367879957955,-0.005017576739192009,-0.0008539110422134399,6.5519906171709295,0.002872645854949951
1746576363057976000,13.01797607421875,0.3421537745010378,0.002440189942717552,0.11559358428122403,0.0015803247224539518,0.0497385820607325,0.9208312309420607,0.24013604367490116,right,0.0009897351264953613,-0.7318628860496817,2.447753948254138,-6.872580999919772,-0.36909889194661377,-0.0064161126501858234,-0.0011589080095291138,6.553359567436575,0.003080427646636963
1746576363097976300,13.057976318359374,0.3424375597173287,0.0016643395647406578,0.11566523137352745,0.004620440769940615,0.04975746664226889,0.9207695006993175,0.24034354969867577,right,0.000057220458984375,-0.732105389089459,2.449170390923321,-6.870388458311558,-0.36922783343955345,-0.0034837324637919664,-0.0006790757179260254,6.555128330674767,0.001726984977722168
1746576363137976000,13.09797607421875,0.3427541212583506,0.0037253585178405046,0.11575534023299884,0.002763384487479925,0.04977107182148405,0.9207109039371582,0.24054635318023954,right,-0.0007615089416503906,-0.7323181197996103,2.450876464188844,-6.868299377077817,-0.3693438282409959,-0.004156059119850397,-0.0006116479635238647,6.556680236291885,0.0014344453811645508
1746576363177976000,13.13797607421875,0.34311033449434775,0.00758068822324276,0.11582853031076627,0.003875507740303874,0.04988525808846755,0.9206552988029906,0.24096948574549096,right,0.000047326087951660156,-0.732465816528355,2.4529969634741544,-6.866513662704825,-0.3694441026270304,-0.004116380121558905,-0.00012701749801635742,6.557756925612687,0.00032848119735717773
1746576363217976000,13.17797607421875,0.3435316326212801,0.010853730142116547,0.11588983040250873,0.003667752258479595,0.05005548480897425,0.9205725232965322,0.24156561909464636,right,0.0007647275924682617,-0.7327281085200169,2.455310208852589,-6.863859933325648,-0.36960798501734926,-0.009580865502357483,0.00042498111724853516,6.559669481235742,0.0004038214683532715
1746576363257976000,13.21797607421875,0.34359538542541784,-0.0021749651059508324,0.11583050398456077,-0.0072394199669361115,0.05017682730251113,0.9205138891622778,0.24191575557753492,right,-0.0016404986381530762,-0.7330070609020677,2.455131345154345,-6.861980110928416,-0.36975618933489407,-0.008680939674377441,0.00040924549102783203,6.561702448368072,0.0022388696670532227
1746576363297976000,13.25797607421875,0.34344729243372135,-0.00239244825206697,0.11570264316360765,-0.006322399713099003,0.05019659878800755,0.9204378006704266,0.2420077333064903,right,-0.0023763179779052734,-0.733503991449654,2.453016544957459,-6.859272605535388,-0.3699828376888317,-0.014284679666161537,0.00024709105491638184,6.56532356147468,0.0034363269805908203
1746576363337976300,13.297976318359375,0.3434719453198113,0.005955582484602928,0.11560501595368347,-0.008133197203278542,0.0503352625061885,0.9203588736502649,0.24240776250099247,right,0.00004023313522338867,-0.7339105022451765,2.452286769378185,-6.8566983711332075,-0.37019067888692514,-0.009856696240603924,-0.000533178448677063,6.568284164845943,0.0017453432083129883
1746576363377976000,13.33797607421875,0.34357069768471676,0.005072025116533041,0.11554668773132001,-0.00564219243824482,0.05053224443464873,0.9203181677327487,0.24290520662360707,right,0.0014343857765197754,-0.7340462159338642,2.4526634937360883,-6.855617005637288,-0.37028334070057073,-0.003566308878362179,0.00011152029037475586,6.569272591361403,0.002677738666534424
