time,seconds_elapsed,roll,rotationRateZ,quaternionY,rotationRateY,quaternionZ,quaternionW,yaw,devicelocation,accelerationZ,pitch,gravityX,gravityZ,quaternionX,rotationRateX,accelerationX,gravityY,accelerationY
1746576276645480200,0.618480224609375,0.10067232088404583,-0.09896582365036011,0.04522750965964265,0.01123369112610817,3.850980221226209e-17,0.9655664660243283,0.026669542284516384,right,0.0004861158085986972,-0.5175423830625985,0.856516145440191,-8.479197865912317,-0.2561946223989601,-0.005993947386741638,0.010114273987710476,4.851799979946017,0.0011898044031113386
1746576276685480200,0.658480224609375,0.09099945893729386,-0.0928284227848053,0.041819284590637086,0.013763980939984322,-0.0029803114034054516,0.9668940320440041,0.017506490297886496,right,0.006735384464263916,-0.5086555036515684,0.7783468640886246,-8.529689451265334,-0.2517101766522311,-0.02413995936512947,0.020315490663051605,4.775872340041399,0.005129009485244751
1746576276725480200,0.698480224609375,0.09816776217228049,0.04039105772972107,0.04474338779238752,0.0007786490023136139,-0.0020455700012168856,0.9663029817947515,0.021488530318972132,right,0.01137542724609375,-0.5121593836873225,0.837824523647502,-8.507185358512402,-0.2534803551615528,-0.002014739438891411,-0.0038447901606559753,4.805854221329093,-0.00892704725265503
1746576276765480000,0.73847998046875,0.10368464510952877,0.07530682533979416,0.04673427414933115,0.03079366125166416,-0.00006275603105068368,0.9663638568359679,0.026959338443965246,right,0.022742867469787598,-0.510697583952842,0.885470802571997,-8.509411802390217,-0.2528965003425299,0.06811156123876572,-0.0036896318197250366,4.793353051674366,-0.004839062690734863
1746576276805480000,0.77847998046875,0.1036870723860897,0.014699719846248627,0.04675281180231106,0.0773705393075943,0.00031889460794837585,0.9670920725657868,0.027426891056760445,right,0.018863916397094727,-0.5048744023840603,0.8883654280349612,-8.53702812359035,-0.2500937340105387,0.10480403900146484,0.0076883211731910706,4.743452710212767,-0.014935135841369629
1746576276845480000,0.81847998046875,0.10361718961491924,-0.02116725593805313,0.04690136779639734,0.03154695779085159,-0.0002260226468621126,0.9673407725763016,0.026172004863163924,right,0.010143697261810303,-0.5028842754034761,0.888743467567116,-8.54646289141178,-0.24910225167420944,0.06004101410508156,0.009761005640029907,4.726361582419276,-0.00733610987663269
1746576276885480000,0.85847998046875,0.1056740209964548,-0.014321130700409412,0.04805751902946687,0.043153420090675354,-0.001157740038750091,0.9672115528729925,0.024811392438453674,right,0.004106462001800537,-0.5035290338910956,0.9059986268159002,-8.541584471720457,-0.24938095896350201,0.032121699303388596,0.0009001046419143677,4.731900804106891,-0.0017455518245697021
1746576276925480200,0.898480224609375,0.10773059131272149,-0.007475004997104406,0.04921355786997156,0.05475988611578941,-0.0020894289245908713,0.9670800959927796,0.023451870153613337,right,-0.0019357800483703613,-0.5041762528548044,0.923233546994254,-8.53665636766851,-0.24965910234472713,0.004202384501695633,-0.007958739995956421,4.737459022755921,0.0038430094718933105
1746576276965480200,0.938480224609375,0.11177553057622264,0.03389187902212143,0.05112135069316534,0.07661795616149902,-0.0024446450230376725,0.9669213050230452,0.02378894329140441,right,-0.0007874965667724609,-0.5046413258295618,0.9575103489968925,-8.530662095689774,-0.2498877401451286,0.02812967635691166,-0.010684601962566376,4.7414518917843695,0.008862674236297607
1746576277005480000,0.97847998046875,0.11434700098280201,0.03682338818907738,0.05229643816731976,0.050476640462875366,-0.0024402805508753423,0.9669525432749821,0.024415373308637914,right,-0.010957121849060059,-0.5038593264097475,0.9798661923855543,-8.531852182257175,-0.24952289787909118,0.03737979382276535,-0.012041255831718445,4.7347377810984845,0.008385539054870605
1746576277045480000,1.01847998046875,0.11427532147570198,0.024481933563947678,0.05215181993778168,0.034109704196453094,-0.0020757951151181135,0.9668463713368385,0.025203780770632688,right,-0.008910059928894043,-0.5047367291553058,0.9787805891059338,-8.527792093211412,-0.24996758377563685,0.00018099695444107056,-0.007852770388126373,4.7422708069518205,0.009531170129776001
1746576277085480000,1.05847998046875,0.11420437168915203,0.012140477076172829,0.052007173358109365,0.017742764204740524,-0.0017113244436198038,0.9667398625473276,0.02599246164060757,right,-0.006863772869110107,-0.5056142254628296,0.9777009771756827,-8.523723820859193,-0.2504121946017951,-0.03701779991388321,-0.0036648958921432495,4.749801202456653,0.01067700982093811
1746576277125480000,1.09847998046875,0.11390939748740406,0.011370982974767685,0.05180931396244305,0.022256601601839066,-0.0015476743729405764,0.9666148605721337,0.026319048473617275,right,0.004176080226898193,-0.506680963728034,0.9746101715534925,-8.51897341146171,-0.25093630593666844,-0.01464315876364708,-0.0001852288842201233,4.758950723595917,0.009282976388931274
1746576277165480200,1.138480224609375,0.11449700307113726,-0.002399698831140995,0.05203384724194205,0.019862104207277298,-0.0015265626423763613,0.966394856531504,0.026614942090862792,right,-0.0013743042945861816,-0.5083217077956123,0.9787224291779101,-8.510630530530214,-0.2517361152163351,-0.04581223428249359,0.003660149872303009,4.773013151217997,0.01112547516822815
1746576277205480200,1.178480224609375,0.1146920339261802,-0.007812410593032837,0.052088919762585076,-0.0037472210824489594,-0.0016240619029162125,0.9660472877632089,0.026630056001431587,right,-0.0035154223442077637,-0.511050884338118,0.9788877758074551,-8.497467097574471,-0.2530543512828164,-0.06584686785936356,0.002557717263698578,4.79637532210499,0.0037791430950164795
1746576277245480000,1.21847998046875,0.11450300640990423,0.0031768903136253357,0.0519129815462065,-0.012875773943960667,-0.001528184460102227,0.9656658043083903,0.026965483823769645,right,-0.0003357529640197754,-0.5141164080262768,0.9755970636989921,-8.483004856979846,-0.2545430343425924,-0.04678624868392944,0.003890320658683777,4.8225741777226325,0.0009315311908721924
1746576277285480000,1.25847998046875,0.11426123679190663,0.007685612887144089,0.051706611757574066,-0.008956199511885643,-0.0012841470206384088,0.9654767823346998,0.02750105120650141,right,0.00316697359085083,-0.5156604537349176,0.9726959354300051,-8.475832773393392,-0.2553022200474989,0.007487103343009949,0.005395077168941498,4.8357528082475065,-0.004349470138549805
1746576277325480000,1.29847998046875,0.11414843824378147,0.010181261226534843,0.05159656510628674,-0.017613722011446953,-0.0010176404533487865,0.9655443712599563,0.027992396989754444,right,0.004726111888885498,-0.515152341921323,0.9720196436036378,-8.478382457876204,-0.2550697961394923,0.010152844712138176,0.005008146166801453,4.831417409391701,-0.004719674587249756
1746576277365480000,1.33847998046875,0.11388008253330684,0.0005036359652876854,0.05139466966335243,-0.021991321817040443,-0.0007008855700651147,0.9655648704923624,0.028571234913340012,right,0.0020444393157958984,-0.515047319270175,0.9698020406194031,-8.479147012507916,-0.2550341264410859,-0.019548814743757248,0.0038753896951675415,4.8305210450738665,-0.0016444921493530273
1746576277405480200,1.378480224609375,0.11337886970172593,0.004147094674408436,0.05110604038304997,-0.021943269297480583,-0.0005226661045965354,0.9654825563069395,0.02885348073329718,right,0.0038266777992248535,-0.5157987024016307,0.9651411361362785,-8.47602332752943,-0.25540408303476053,-0.03045598231256008,0.0031904950737953186,4.836932373420894,-0.0018628835678100586
1746576277445480200,1.418480224609375,0.11309419830924831,0.0017826941329985857,0.05086756918931193,-0.008712592534720898,-0.00021253515197429298,0.9653249779137527,0.029499102249615675,right,0.005458414554595947,-0.5170963863686677,0.96201905859299,-8.47005360547006,-0.25604673255750066,-0.036010466516017914,0.001888461410999298,4.84799854183644,0.0052055418491363525
1746576277485480200,1.458480224609375,0.1129562157593515,-0.0047895340248942375,0.0507587760844841,-0.017779523506760597,-0.00011114750155837553,0.9652135892387284,0.029727144690616786,right,0.002716958522796631,-0.5179992936836644,0.9603565322082489,-8.465833941948413,-0.25648810549491236,-0.03424227610230446,0.0010962337255477905,4.855693480253219,0.006625950336456299
1746576277525480000,1.49847998046875,0.11281846976996325,-0.011361762881278992,0.05064998574795505,-0.02684645541012287,-0.00000968671149489605,0.965101944234114,0.02995533148496109,right,-0.000025331974029541016,-0.5189021895854478,0.9586964169763028,-8.46160609512031,-0.2569294152726915,-0.032474081963300705,0.0003037452697753906,4.863384327016771,0.00804680585861206
1746576277565480000,1.53847998046875,0.1121676507469318,0.0023684604093432426,0.05032160129625525,-0.024070419371128082,0.00007231376287519513,0.965033339490429,0.02999203702644382,right,-0.002146422863006592,-0.5195682706389595,0.9528265020295977,-8.459007310798764,-0.2572515819399018,-0.010464571416378021,0.0002737492322921753,4.86905535839051,0.002377718687057495
1746576277605480000,1.57847998046875,0.11157284498324697,0.019836723804473877,0.0499108573559644,-0.026901351287961006,0.0005641655356312062,0.9649734332676554,0.03088776916443486,right,0.0025243759155273438,-0.5201514275165264,0.9474784920651466,-8.456749302738904,-0.2575552044668983,-0.016586413607001305,-0.0028834491968154907,4.874018533755838,0.0021408498287200928
1746576277645480200,1.618480224609375,0.11166439683493087,0.015761978924274445,0.04975512054002703,-0.01451045274734497,0.0011947146543345485,0.964810206160634,0.03229442898795747,right,0.0020919442176818848,-0.5214036652065345,0.947571869437024,-8.450590780109167,-0.2581941291138783,-0.03334132581949234,-0.003034844994544983,4.884670860673487,0.0053186118602752686
1746576277685480200,1.658480224609375,0.11175798744130051,0.011687235906720161,0.04959933071488577,-0.0021195532754063606,0.001825223171325726,0.9646460527123533,0.03370213813755922,right,0.0016579627990722656,-0.5226557058447231,0.9476799329213798,-8.444417644432187,-0.2588328194072406,-0.050096236169338226,-0.003187723457813263,4.8953138352409,0.008497297763824463
1746576277725480200,1.698480224609375,0.11171059662179346,0.008230553939938545,0.04944212996312229,-0.007607937324792147,0.002144564882675046,0.9643694398895695,0.03448173776341593,right,-0.003322601318359375,-0.5248079186176765,0.946103112058714,-8.433972822785377,-0.2598894291893212,-0.037681981921195984,-0.002805560827255249,4.913590957948565,0.0016258955001831055
1746576277765480000,1.73847998046875,0.11151573299929225,0.0037766918540000916,0.04928335146996924,-0.006731739267706871,0.0023342978812538983,0.9642610555530307,0.0348755060552943,right,-0.00215226411819458,-0.5256807850205097,0.9439819551862776,-8.429891690951585,-0.2603195831731443,-0.03290040045976639,-0.002279996871948242,4.920996850290894,0.0024355649948120117
1746576277805480000,1.77847998046875,0.11132123530595102,-0.0006771702319383621,0.04912456475712668,-0.005855541210621595,0.0025241077105451052,0.9641524990997434,0.03526945520359469,right,-0.000982820987701416,-0.526553786392709,0.9418647438365966,-8.425802375811339,-0.26074968406255744,-0.028118815273046494,-0.001754850149154663,4.928400404545664,0.003245413303375244
1746576277845480000,1.81847998046875,0.11112197273700589,-0.0041334060952067375,0.04902115468733745,0.0016446453519165516,0.002498386609100748,0.9640401847794385,0.03521680719942602,right,-0.0035859346389770508,-0.5274583588765217,0.9396909799940883,-8.421555824282764,-0.26118398398785775,-0.019834237173199654,-0.0014749839901924133,4.9360675781726835,0.001959383487701416
1746576277885480200,1.858480224609375,0.11090407500638785,-0.0019068133551627398,0.04891200175018703,-0.0056364270858466625,0.002467600358667158,0.9639345471242562,0.03514546992373282,right,-0.0033558011054992676,-0.5283143819499911,0.937387890683487,-8.417557694557308,-0.2615943440271238,-0.012889998033642769,-0.0021942853927612305,4.9433197412580245,0.0025320053100585938
1746576277925480200,1.898480224609375,0.11090407500638785,0.004859069362282753,0.04891200175018703,-0.00465412437915802,0.002467600358667158,0.9639345471242562,0.03514546992373282,right,0.0012512803077697754,-0.5283143819499911,0.937387890683487,-8.417557694557308,-0.2615943440271238,0.007686760276556015,-0.00138787180185318,4.9433197412580245,-0.0012700557708740234
1746576278074731300,2.047731201171875,0.11012591153132854,0.015962569043040276,0.04819187640667186,-0.014856063760817051,0.0036497347836888542,0.9636699411484464,0.037516427545684364,right,0.0003095587599091232,-0.5304654813485518,0.9296665757164359,-8.407696225756407,-0.2626867667747558,-0.04446733370423317,-0.0013918684562668204,4.961527013599873,-0.0019206563010811806
1746576278114731300,2.087731201171875,0.1102260596245463,0.018684135749936104,0.048011540340759724,-0.020794054493308067,0.0042922522786076394,0.9633995821287971,0.038999884543063655,right,0.00012314319610595703,-0.5324947434588159,0.9293991569519042,-8.39757815184593,-0.26369972170692907,-0.04331499710679054,-0.0016120746731758118,4.978682146540284,0.0025186538696289062
1746576278154731300,2.127731201171875,0.11019249599363959,0.013662376441061497,0.04784368208323163,-0.01494086068123579,0.004732173958386127,0.9632271181496724,0.03998310462591484,right,-0.00012683868408203125,-0.5338009052279419,0.9284013780862093,-8.391139058709143,-0.26435195250690613,-0.04007277637720108,-0.002792760729789734,4.989713243642449,0.0039286017417907715
1746576278194731500,2.1677314453125,0.10974858463173337,-0.0004369402304291725,0.047509341853721444,-0.015695588663220406,0.005068017986364145,0.9630026427288004,0.04066607348017242,right,0.008333981037139893,-0.5355780894862147,0.9237036487240343,-8.382722528019547,-0.26522244082853985,-0.04256166145205498,-0.0023553669452667236,5.004709152722358,0.0003873109817504883
1746576278234731500,2.2077314453125,0.10951974666340233,0.00013465562369674444,0.04734686878050878,0.012666398659348488,0.005130869759700532,0.962780134217322,0.04083790039492129,right,0.012166738510131836,-0.5373052093689532,0.9208391992036252,-8.374329378205537,-0.2660569248153221,-0.01845470257103443,0.001193612813949585,5.019267254906892,-0.009447693824768066
1746576278274731500,2.2477314453125,0.11005845198510156,0.026065148413181305,0.04747581331173121,0.003221821039915085,0.005422315111686186,0.9626091576937582,0.0416640370550667,right,0.004462838172912598,-0.538486642632984,0.9246983588498086,-8.367932370644807,-0.2666462484715524,-0.03408845514059067,0.0016947761178016663,5.029216986513138,-0.01060330867767334
1746576278314731300,2.287731201171875,0.11107403591745642,0.05503112077713013,0.047650108306644845,0.003435485064983368,0.006268617464718382,0.9623633212834846,0.0438040121251437,right,0.005523085594177246,-0.5401133991279733,0.9322881563916802,-8.358847146913408,-0.267482478280308,-0.04917733743786812,0.001298278570175171,5.042905904647708,-0.010025441646575928
1746576278354731300,2.327731201171875,0.1130540268973889,0.06919606029987335,0.04811130230643347,0.009412102401256561,0.007573305412770214,0.9620361377694119,0.047193326761681184,right,-0.009192705154418945,-0.5421320283738635,0.9476863626621663,-8.34685275773704,-0.26854095386144833,-0.07701458036899567,0.0005923360586166382,5.05987340606153,0.00488656759262085
1746576278394731300,2.367731201171875,0.11482303410969724,0.04687713831663132,0.048437215844027645,-0.0038532735779881477,0.008881241187209569,0.9615424251454628,0.05061772184261884,right,-0.01445305347442627,-0.545408912825334,0.9605456981047987,-8.328647238960862,-0.27020549030017343,-0.10990956425666809,0.00001932680606842041,5.087373991927504,0.016208350658416748
1746576278434731500,2.4077314453125,0.11553936222672702,0.02367369644343853,0.04842221499460276,-0.005386057309806347,0.009657352301473958,0.9609926259765469,0.052687420608619404,right,-0.009796500205993652,-0.5493063357529725,0.964218395268172,-8.308198325172066,-0.27213059917813454,-0.08716241270303726,-0.0021599233150482178,5.120010771638155,0.016949951648712158
1746576278474731500,2.4477314453125,0.11551725410940514,0.0005893893539905548,0.04822140544500435,-0.017071638256311417,0.010045107538343433,0.960618472810938,0.053667358263484025,right,-0.006168484687805176,-0.5520480565532107,0.9624131724771111,-8.294244618621468,-0.2734701357547108,-0.05422109365463257,-0.0021703168749809265,5.142922860670089,0.018936514854431152
1746576278514731500,2.4877314453125,0.11526737185553514,-0.015801573172211647,0.04810307680701051,0.0042226966470479965,0.00991564108912327,0.9604203404474657,0.053425604058122717,right,-0.0025985240936279297,-0.55356439934842,0.9594424861032516,-8.28672825164199,-0.2741906660574215,-0.020174317061901093,-0.000059835612773895264,5.155578344103693,0.012175500392913818
1746576278554731300,2.527731201171875,0.11477247605509464,-0.017613830044865608,0.0479644168520728,-0.005620713345706463,0.009548329532355139,0.9603195809293069,0.05257521826499741,right,-0.0010380744934082031,-0.5544239724695417,0.9548333848726004,-8.282796172890066,-0.2745802633547417,-0.016116991639137268,0.0019919872283935547,5.16274692055881,0.003933608531951904
1746576278594731300,2.567731201171875,0.11432041145276692,0.0015422124415636063,0.04776138528346487,-0.007693889085203409,0.009455898002835778,0.9601915859353496,0.052320058317277804,right,0.004205822944641113,-0.5554541984283949,0.9504817655343561,-8.27793879598677,-0.27506621105305357,-0.01645425520837307,0.002662874758243561,5.1713341316401955,-0.003035306930541992
1746576278634731300,2.607731201171875,0.11471035105585714,0.01367720402777195,0.04783910161710224,0.0045584565959870815,0.009713651184051103,0.9600854514881506,0.053013279476722,right,0.004052639007568359,-0.5561413793448745,0.9533025951087474,-8.274035358807444,-0.27541423497044226,-0.01962943561375141,0.004116244614124298,5.177058354505896,0.0019138455390930176
1746576278674731500,2.6477314453125,0.1147801468947245,0.014389902353286743,0.04780715883815402,-0.005773853976279497,0.009870805342222707,0.9600008965509788,0.05339931654167917,right,-0.0007728934288024902,-0.5567353459109219,0.9535277821667492,-8.270912842872738,-0.2757086839769133,-0.01623702608048916,0.0042391493916511536,5.182004578736424,0.004497647285461426
1746576278714731500,2.6877314453125,0.11485029365944023,0.015102600678801537,0.04777521513643975,-0.016106165945529938,0.010027999761282833,0.9599162976618535,0.053785653625920964,right,-0.005598723888397217,-0.5573294529830847,0.9537550150513648,-8.267786235284804,-0.27600315403659453,-0.01284461747854948,0.004361853003501892,5.186950218445062,0.007081508636474609
1746576278754731500,2.7277314453125,0.11462375846767554,0.015692081302404404,0.047557521881987086,-0.01757417805492878,0.010402359571648392,0.9598708223427973,0.05452294131919507,right,-0.006506562232971191,-0.5576738618661473,0.9516776242554187,-8.26622673088312,-0.27618474211207344,-0.0016289977356791496,0.004021592438220978,5.189816129270196,0.011376023292541504
1746576278794731300,2.767731201171875,0.11397213020822812,0.010469654574990273,0.04717104204751851,-0.0384693518280983,0.010774001583984701,0.9599163798018397,0.05509401208759104,right,-0.00951617956161499,-0.557430593801585,0.94643446290493,-8.268098954495787,-0.2760781862326613,0.016461022198200226,0.003092654049396515,5.187791929966211,0.009063124656677246
1746576278834731300,2.807731201171875,0.11217062537687444,0.001797746866941452,0.04631836228735357,-0.04849448800086975,0.011080030394710732,0.9600887172340596,0.05515227130003835,right,0.003251791000366211,-0.5564739042825763,0.932092999145761,-8.274718664896488,-0.2756108927792347,0.0368012934923172,0.0011065825819969177,5.1798278192192315,-0.0022620558738708496
1746576278874731300,2.847731201171875,0.11032540421395887,-0.009517394937574863,0.0454865257487001,-0.04610500857234001,0.01127711652593832,0.9603059497778978,0.05495271301449008,right,0.0063089728355407715,-0.55519807072504,0.9175496561389416,-8.282986142504214,-0.2749840007170107,0.0192452110350132,-0.0009708553552627563,5.16919945769906,-0.003167390823364258
1746576278914731300,2.887731201171875,0.10867138419469577,-0.00660047959536314,0.04474197984731559,-0.03293099254369736,0.011345987876733672,0.9603651574180968,0.05461343869543971,right,0.004535377025604248,-0.5550516388047138,0.9039302961092441,-8.285245319607853,-0.27489672401534715,-0.00845433957874775,-0.0026811137795448303,5.167979560515284,0.0009926557540893555
1746576278954731500,2.9277314453125,0.10840762938123127,0.02098909765481949,0.044470479114260004,-0.029068471863865852,0.011877410547365116,0.9603504712734404,0.0556512441916444,right,0.000782012939453125,-0.5551576872821701,0.9016855859223752,-8.284937861093878,-0.27496925144267037,-0.0017165686003863811,-0.004972800612449646,5.168863357612491,0.0006630420684814453
1746576278994731500,2.9677314453125,0.10814399824308216,0.04857867211103439,0.044198969238748165,-0.025205951184034348,0.012408781883913743,0.9603355764422119,0.056688998997640856,right,-0.0029715895652770996,-0.5552642149797323,0.8994419717140495,-8.284628064492344,-0.27504174682879384,0.005021202843636274,-0.007264591753482819,5.169750661841035,0.0003330707550048828
1746576279034731300,3.007731201171875,0.10823759404729541,0.0309385247528553,0.043986573588973794,-0.018266873434185982,0.013320637521210548,0.9603552624957296,0.05859920959953774,right,0.001653432846069336,-0.5550138334356889,0.9003571868628263,-8.28583042601943,-0.27496434716703105,0.002123928163200617,-0.007516629993915558,5.167664503216743,0.0088578462600708
1746576279074731300,3.047731201171875,0.10774812649906236,-0.0115291066467762,0.04369307639039175,-0.009756616316735744,0.013595787852791488,0.9603678821819103,0.059029908842357294,right,0.006494879722595215,-0.5549789846990906,0.8963208440188318,-8.286449434700607,-0.2749537612441168,-0.0012043977621942759,-0.00692015141248703,5.167373995837569,0.00872337818145752
1746576279114731300,3.087731201171875,0.10677502995153025,-0.0230080708861351,0.04335917172224712,-0.0036333859898149967,0.013241088302733496,0.9603662163071126,0.05802609743966772,right,0.0060773491859436035,-0.5551967733463079,0.8881369530413299,-8.286198674809933,-0.2750298604987637,-0.0033794871997088194,-0.0035820230841636658,5.169188936305046,0.002847015857696533
1746576279154731300,3.127731201171875,0.10625530424879608,-0.006075281649827957,0.04322630928053847,0.009158032014966011,0.012845857211963066,0.9603051131482857,0.057089502707445866,right,0.0017597675323486328,-0.5557729166938464,0.8835142616767436,-8.283696336600183,-0.27528261368856727,-0.01187842059880495,-0.0016371235251426697,5.173989614585041,0.0005484819412231445
1746576279194731500,3.1677314453125,0.10681738209608058,0.025706473737955093,0.04341715644228783,0.00742134265601635,0.012978458695637978,0.960203240691649,0.05756600643122929,right,-0.005214095115661621,-0.556408887926335,0.887819192329049,-8.279925001367927,-0.2756016353662673,-0.01693725399672985,-0.0004277154803276062,5.179286551949382,0.0017532110214233398
1746576279234731500,3.2077314453125,0.10812543433690297,0.043381549417972565,0.043769897503293624,0.007032578345388174,0.013675649132781536,0.9600570050945042,0.05944193749133562,right,-0.0053820013999938965,-0.557179753867751,0.8982179098118096,-8.274784715870021,-0.27602099738764924,-0.024379216134548187,-0.0023161768913269043,5.18570401777625,0.00504612922668457
1746576279274731500,3.2477314453125,0.10889082413054808,0.02346106246113777,0.0439590748654772,0.009022296406328678,0.014216412842269219,0.9600648594279336,0.0607728793613257,right,-0.0023146867752075195,-0.556931750113492,0.9046908321529626,-8.275373329412936,-0.2759365613573447,-0.0011174120008945465,-0.0022040754556655884,5.183640070983767,0.007229626178741455
1746576279314731300,3.287731201171875,0.10965568072652675,0.0035405755043029785,0.044148235788281004,0.011012014001607895,0.01475715809643318,0.9600722926971543,0.062103353555061025,right,0.0007526278495788574,-0.5566827882708115,0.9111611972108483,-8.275961358433962,-0.27585201913821983,0.022144392132759094,-0.0020916834473609924,5.1815673563629385,0.00941401720046997
1746576279354731300,3.327731201171875,0.11000325853968637,-0.01117561012506485,0.04438026367619859,0.015727510675787926,0.014594994727066884,0.9602081138360596,0.06179913828179812,right,0.0017393231391906738,-0.5556450021074075,0.9146275581471621,-8.280984155032039,-0.27535011938454,0.034610647708177567,0.0014400333166122437,5.172923446658253,0.006413400173187256
1746576279394731300,3.367731201171875,0.11013913236310612,-0.014518732205033302,0.044587553072610045,0.00996854342520237,0.014212359244343198,0.960376632581539,0.06096342580358751,right,0.0007439255714416504,-0.5544270068523307,0.9164445444412529,-8.28711637417674,-0.27474825882831155,0.03592916205525398,0.0019578561186790466,5.162772639521956,0.0017438530921936035
1746576279434731500,3.4077314453125,0.1101440364592317,-0.00340326689183712,0.0446894462493891,0.005769707262516022,0.01399405828109162,0.9605445297345532,0.06043306689314483,right,0.0024549365043640137,-0.5532157819961036,0.9171719088677316,-8.293321074035763,-0.27415534195626234,0.03163481876254082,0.0020857974886894226,5.152669763180613,0.0015197992324829102
1746576279474731500,3.4477314453125,0.11016759581674603,0.0018359245732426643,0.04475054642142136,0.00047086412087082863,0.013941190577872646,0.9607022228046762,0.06025585970067968,right,0.0026527047157287598,-0.552055668981959,0.9180238495219498,-8.299235266515613,-0.27359486157499374,0.030706992372870445,0.0008746907114982605,5.142986573556065,0.0005143880844116211
1746576279514731500,3.4877314453125,0.1101493013372702,0.0035818477626889944,0.044783243182129916,0.001352943480014801,0.0139428328907529,0.9608850328176588,0.06016844180805873,right,0.0007252097129821777,-0.5507097767954755,0.9186321176134049,-8.306124441507459,-0.272946810481864,0.034272585064172745,0.00055684894323349,5.131743879529833,-0.0008108019828796387
1746576279554731300,3.527731201171875,0.11017615041781043,0.006496381014585495,0.04481610592324626,0.004611128009855747,0.014007364705669812,0.9610569864080487,0.06022867202032164,right,0.0011875629425048828,-0.5494253335116198,0.9195791161399334,-8.312644198665023,-0.272331788781259,0.03162747621536255,0.0006218254566192627,5.121005627894402,-0.0011240839958190918
1746576279594731300,3.567731201171875,0.11043124938799108,0.014808456413447857,0.04491128639642959,-0.0011055278591811657,0.01418471940807917,0.9611917216565622,0.060602152851560946,right,-0.0015427470207214355,-0.5483608624510404,0.9222998463407158,-8.317822478085755,-0.27183090461980847,0.02379150688648224,-0.00016269832849502563,5.112100436905026,-0.002530395984649658
1746576279634731300,3.607731201171875,0.11073346027837203,0.014890185557305813,0.04500399831626615,0.0033748759888112545,0.014437774696873042,0.9613143217859295,0.06115062060289451,right,-0.0029442906379699707,-0.547367796398127,0.9253741392195224,-8.322585162442921,-0.2713685347442883,0.020764024928212166,-0.0018858984112739563,5.103787366589904,-0.005530834197998047
1746576279674731500,3.6477314453125,0.1109899427698141,0.01810641773045063,0.04503693601890209,0.0052595725283026695,0.014818364058721247,0.9614186758792619,0.06195922423951139,right,0.0058370232582092285,-0.5465017377765592,0.9279979118518531,-8.326737605947256,-0.27097270050289074,0.018745310604572296,0.0012028291821479797,5.096532865417004,-0.007817983627319336
1746576279714731500,3.6877314453125,0.11177537781514738,0.016491372138261795,0.04532843727243872,0.01709297113120556,0.015116024836108383,0.9615136710561986,0.06274242229525868,right,0.0015971660614013672,-0.5456145282653634,0.9350417659487574,-8.330496081697941,-0.2705701851689475,0.010963324457406998,0.002232089638710022,5.08909774698019,-0.007848978042602539
1746576279754731500,3.7277314453125,0.1127702968626194,0.017904367297887802,0.0456834411678067,0.010822802782058716,0.01542819979438447,0.9614941665197798,0.06366676308344238,right,-0.000057756900787353516,-0.5455379746064727,0.9433733217686414,-8.329948969209193,-0.27056205688129364,-0.013383114710450172,0.001330256462097168,5.088455941945314,-0.0045583248138427734
1746576279794731300,3.767731201171875,0.11384683393579753,0.01722925528883934,0.046041219979630614,0.01482480950653553,0.01576161051526827,0.961357589546972,0.06471447194842202,right,0.0011298656463623047,-0.5463138121905399,0.9518914862018077,-8.325003329500555,-0.2709670639925656,-0.028217772021889687,0.0021068155765533447,5.094958163446187,0.0009064078330993652
1746576279834731300,3.807731201171875,0.11463462035620732,0.005629396997392178,0.046298548546908874,0.004959425888955593,0.015942736246215533,0.961168329706611,0.0653957170380665,right,-0.0024443864822387695,-0.5475522847931807,0.9577270604874938,-8.317976207342744,-0.27158363574217737,-0.03360450640320778,0.0026982128620147705,5.105331673422455,0.008342623710632324
1746576279874731300,3.847731201171875,0.11415734718584232,0.000087004154920578,0.04608158845121053,-0.0011086096055805683,0.015866428441100026,0.9610674716324026,0.0651583050504568,right,-0.003549516201019287,-0.5484007535556495,0.9532632129464298,-8.314125961655378,-0.2719816663105874,-0.020454522222280502,0.001382976770401001,5.112434198904038,0.006920814514160156
1746576279914731300,3.887731201171875,0.11367957522919718,-0.005455388221889734,0.045864609147833975,-0.007176644634455442,0.015790113253855053,0.9609664451325107,0.06492028556823799,right,-0.004655420780181885,-0.5492491933959534,0.9487984886225312,-8.310268117183446,-0.2723796538498096,-0.0073045389726758,0.00006784498691558838,5.119532632732391,0.005499422550201416
1746576279954731500,3.9277314453125,0.11367957522919718,0.013385787606239319,0.045864609147833975,0.004366110544651747,0.015790113253855053,0.9609664451325107,0.06492028556823799,right,0.0019392967224121094,-0.5492491933959534,0.9487984886225312,-8.310268117183446,-0.2723796538498096,0.004436121322214603,0.002537257969379425,5.119532632732391,0.0020874738693237305
1746576279994731500,3.9677314453125,0.11497566186791396,0.037069082260131836,0.04631461395090462,0.02532816305756569,0.01627512408694603,0.9609862774575549,0.06626698738827476,right,-0.0011706352233886719,-0.5487982110603471,0.959833238986507,-8.31132376371622,-0.2722046410176323,0.019981183111667633,0.00227181613445282,5.115760128456354,-0.00047713518142700195
1746576280034731300,4.007731201171875,0.11669854248122014,0.03857768699526787,0.046912808911053844,0.013897320255637169,0.016969376354891375,0.9610646493261228,0.06813203873797233,right,-0.00005739927291870117,-0.5477984555555085,0.974746219023317,-8.314733279898762,-0.2717825776492405,0.023135297000408173,0.0025011450052261353,5.107392697605491,-0.001087784767150879
1746576280074731300,4.047731201171875,0.11771496265846157,0.013131896033883095,0.047267268843859525,0.006108782719820738,0.017437676316079075,0.9611787011743986,0.06931808676773463,right,-0.00013071298599243164,-0.5466913150605431,0.9838605227187275,-8.319348664739728,-0.271287794888125,0.02265867218375206,0.001985713839530945,5.098121011391282,-0.0019753575325012207
1746576280114731300,4.087731201171875,0.1178646767632516,-0.005352845415472984,0.04736525145998914,-0.0010257367976009846,0.017468721854660654,0.9613345303656979,0.069342870263303,right,0.00007146596908569336,-0.5454963369569634,0.9858216667238622,-8.325245321562885,-0.2707160006604722,0.03279572352766991,0.0011529922485351562,5.088106982377171,-0.004556417465209961
1746576280154731300,4.127731201171875,0.1173250585750638,-0.0074424464255571365,0.04726959694711122,-0.001603645272552967,0.017150342482812962,0.9615676480776517,0.06841973905372117,right,-0.0015827417373657227,-0.5439021019072721,0.9822773451805115,-8.333821426728367,-0.26992397062090506,0.036135483533144,0.0016927272081375122,5.074735459628701,-0.00260847806930542
1746576280194731500,4.1677314453125,0.11678767852274224,-0.009532047435641289,0.0471739086327076,-0.0021815537475049496,0.016831929891382567,0.9618000078740295,0.06749846317526015,right,-0.0032392144203186035,-0.5423074969138738,0.9787404762912542,-8.342374151018262,-0.269131749256908,0.03947524353861809,0.0022317171096801758,5.061347570267319,-0.0006588101387023926
1746576280234731500,4.2077314453125,0.1162606375875354,0.0018399273976683617,0.04702829287439431,-0.006844664923846722,0.016698275220879102,0.9620203040885023,0.06696945628172798,right,-0.002103865146636963,-0.5407717047021577,0.9752440855428576,-8.350599543049931,-0.26837703782307726,0.03640754893422127,0.0005270540714263916,5.048441326943039,0.003993213176727295
1746576280274731500,4.2477314453125,0.11616747098420034,0.014683359302580357,0.046973036724804455,-0.0018145008943974972,0.016892126728667408,0.9621810630345088,0.06726433812478168,right,-0.0014096498489379883,-0.5395536890287889,0.9751781076345593,-8.35679255247116,-0.2677978732080109,0.02304532565176487,0.0009470805525779724,5.038197580826282,0.005057156085968018
1746576280314731300,4.287731201171875,0.11691250057468597,0.02672528848052025,0.047216231053046655,0.0053526596166193485,0.017281974215896473,0.9622386896743608,0.0682390995393853,right,0.00028312206268310547,-0.5389211393237175,0.9817754600729792,-8.359227086141704,-0.26752318803679515,0.008309636265039444,-0.004012294113636017,5.032874339976907,0.0010303854942321777
1746576280354731300,4.327731201171875,0.11786740981149178,0.02985198423266411,0.047504132738376746,0.005896878428757191,0.01783018199056249,0.9622681551351302,0.06961068859761978,right,-0.0009041428565979004,-0.5384343054186094,0.9900452757682651,-8.360717616960406,-0.26733009094670396,0.006158394739031792,-0.0018960833549499512,5.028776257008314,0.002129793167114258
1746576280394731300,4.367731201171875,0.11838370557086339,0.017112363129854202,0.0476045120132508,-0.009480511769652367,0.018284916173134488,0.9622363272280551,0.07070435252444529,right,0.0019462108612060547,-0.5385079603031638,0.9943180577166378,-8.359837911516427,-0.2673961473438271,-0.012664517387747765,-0.0021765977144241333,5.029396434733271,0.0021411776542663574
1746576280434731500,4.4077314453125,0.11851099276206935,0.0027891630306839943,0.04758025981839755,0.001052836887538433,0.01853700660120808,0.9621867610413983,0.07128529994773544,right,0.001188039779663086,-0.5388204867916926,0.9951962287906557,-8.358149812299013,-0.2675613340108649,-0.005082994699478149,0.0015279054641723633,5.032027367758751,0.0013053417205810547
1746576280474731500,4.4477314453125,0.11851099276206935,0.0012875505490228534,0.04758025981839755,-0.0007457255851477385,0.01853700660120808,0.9621867610413983,0.07128529994773544,right,0.00031316280364990234,-0.5388204867916926,0.9951962287906557,-8.358149812299013,-0.2675613340108649,0.014932412654161453,0.0016357898712158203,5.032027367758751,-0.000019550323486328125
1746576280514731500,4.4877314453125,0.11851099276206935,-0.00021406204905360937,0.04758025981839755,-0.00254428805783391,0.01853700660120808,0.9621867610413983,0.07128529994773544,right,-0.0005617737770080566,-0.5388204867916926,0.9951962287906557,-8.358149812299013,-0.2675613340108649,0.034947820007801056,0.0017436742782592773,5.032027367758751,-0.001344442367553711
1746576280554731300,4.527731201171875,0.11862888159589959,0.0012233504094183445,0.04776183738750295,0.0013996679335832596,0.018329384497103352,0.962464509958002,0.07074172030109353,right,0.0025257468223571777,-0.5367251505410148,0.9974272757783531,-8.368484159308672,-0.2665424323487996,0.06643946468830109,0.00033182650804519653,5.014379482865333,-0.0030561089515686035
1746576280594731300,4.567731201171875,0.11857514292291414,-0.004474519286304712,0.04785364852346285,-0.0025676297955214977,0.01819732868723827,0.9627751856903393,0.07029163770514574,right,0.0042081475257873535,-0.5343940302038593,0.9983576154310255,-8.380121405610442,-0.26541048927414834,0.044254761189222336,-0.0005459114909172058,4.994719673627615,-0.00842207670211792
1746576280634731300,4.607731201171875,0.11854286318294721,-0.014469360932707787,0.04793502346041816,0.008031699806451797,0.017986253161298718,0.9629260177884343,0.06976763806363284,right,0.008494794368743896,-0.5332810383633023,0.9987439113348722,-8.385668518343568,-0.264862435769265,0.010172471404075623,0.001103714108467102,4.985324068772792,-0.011389315128326416
1746576280674731500,4.6477314453125,0.11862169246418486,-0.015705741941928864,0.04805719287718147,0.00864509679377079,0.017620798266856644,0.9628782063430822,0.0690578150955144,right,0.004776954650878906,-0.5336815171033371,0.9991686395529658,-8.383606909638642,-0.26503869127457985,-0.02836044877767563,-0.0001370161771774292,4.98870552790463,-0.009627074003219604
1746576280714731500,4.6877314453125,0.11886362051127279,-0.01507408358156681,0.04818442675723434,0.021885154768824577,0.01730293149669738,0.9626109600716891,0.06860384758743386,right,0.004166662693023682,-0.5357102343110404,0.9999945689830928,-8.37329828159213,-0.2660053687301293,-0.06284874677658081,0.0020187795162200928,5.005823835965991,-0.005153238773345947
1746576280754731500,4.7277314453125,0.11977965768631074,0.018133359029889107,0.04851602488167198,0.01766100339591503,0.017281149688433986,0.9622680038080804,0.06897957335421617,right,-0.005673229694366455,-0.5381285608316205,1.006214904802665,-8.360335339644552,-0.2671847998610062,-0.055186089128255844,0.0026917681097984314,5.026202022606134,-0.002294778823852539
1746576280794731300,4.767731201171875,0.12130983691270117,0.05422692000865936,0.048920752812349165,0.00973441544920206,0.018060688174905453,0.9619898672657142,0.07114341888678856,right,-0.003721952438354492,-0.5398114080846401,1.0179815496377647,-8.35037800925374,-0.26805963766410174,-0.04172036796808243,0.0021178796887397766,5.04036557251513,0.007684290409088135
1746576280834731300,4.807731201171875,0.12334683011976895,0.059711381793022156,0.049450989463228956,0.010530957020819187,0.019250548203273432,0.9617561834738472,0.07426917351316688,right,-0.007546722888946533,-0.5409806438582819,1.034263260744512,-8.34243260320723,-0.2687171537083524,-0.035238806158304214,0.0021003708243370056,5.050198399743437,0.016818106174468994
1746576280874731300,4.847731201171875,0.12497974939837483,0.0351998507976532,0.049875093958316186,0.004979396238923073,0.020209061363993024,0.9615756285294883,0.07678259027387438,right,-0.0066498517990112305,-0.5418521180784381,1.0473354352202267,-8.336362927904725,-0.2692141569402008,-0.019408345222473145,0.0017672553658485413,5.0575218744993204,0.021356701850891113
1746576280914731300,4.887731201171875,0.12554437848575214,0.001044195145368576,0.05002169155799764,0.0011556015815585852,0.020563153419391498,0.9615364837132754,0.07768601248319228,right,-0.0016546249389648438,-0.5419722496547764,1.0519661637607962,-8.335167580640315,-0.2693001370619263,0.01266898587346077,0.0027370229363441467,5.05853134380281,0.015113353729248047
1746576280954731500,4.9277314453125,0.12503291261644459,-0.012821061536669731,0.049859930027310206,-0.00968396756798029,0.020455559349656413,0.9616785614683194,0.0772498073738312,right,0.0019931793212890625,-0.5410283789952529,1.0482978505115956,-8.340438214519619,-0.2688307795643079,0.033184610307216644,0.0003570467233657837,5.0505993817597625,0.006714284420013428
1746576280994731500,4.9677314453125,0.12411013167260372,-0.017305709421634674,0.04958424766649319,-0.002255470957607031,0.02011924434034987,0.9618547530603109,0.07621380915614334,right,0.007536768913269043,-0.5399459481777877,1.0412770850293338,-8.346821778076887,-0.26827586167837975,0.026329439133405685,0.0011257082223892212,5.041497206893563,0.00011968612670898438
1746576281034731300,5.007731201171875,0.12381335008886818,-0.014036132022738457,0.04957034974466637,0.009151708334684372,0.019779977101826746,0.9619549259516348,0.07537922865897055,right,0.0055471062660217285,-0.5393052433546127,1.0391985982548444,-8.350334170112014,-0.2679444512783867,0.0115610770881176,0.0010002478957176208,5.036107330548763,-0.0002664923667907715
1746576281074731300,5.047731201171875,0.12376492600948365,-0.006164379417896271,0.049599276528746156,0.0008985809981822968,0.019563122101481308,0.9619238465535186,0.07493497555530598,right,0.0015401840209960938,-0.5395832856687411,1.0386213098235428,-8.348994445940852,-0.26806652250973056,-0.0010543223470449448,0.001984342932701111,5.038446587151289,0.00001055002212524414
1746576281114731300,5.087731201171875,0.12371641090214285,0.0017073731869459152,0.04962821430081443,-0.0073545463383197784,0.019346307362024334,0.961892723203449,0.07449073694545802,right,-0.002466738224029541,-0.5398613306357163,1.0380433638051152,-8.347654137247801,-0.26818858367585213,-0.013669721782207489,0.00296851247549057,5.040785843753814,0.00028765201568603516
1746576281154731300,5.127731201171875,0.12356330028014087,0.008906424045562744,0.04951807965125403,-0.005739321932196617,0.019441398476165363,0.9618369180724766,0.07467737028562031,right,-0.0033669471740722656,-0.5402993815533432,1.0364929925579578,-8.34562117011547,-0.26840212852145645,-0.011678613722324371,0.0016159117221832275,5.044470085224509,0.000868380069732666
1746576281194731500,5.1677314453125,0.12356330028014087,0.004816232714802027,0.04951807965125403,-0.012672816403210163,0.019441398476165363,0.9618369180724766,0.07467737028562031,right,0.0010680556297302246,-0.5402993815533432,1.0364929925579578,-8.34562117011547,-0.26840212852145645,-0.008194238878786564,0.0008427128195762634,5.044470085224509,0.0018297433853149414
1746576281234731500,5.2077314453125,0.12314956888305516,-0.005104896146804094,0.04925907828942589,0.0020839907228946686,0.019688637613166946,0.9618191206278804,0.07508910337448073,right,-0.001015782356262207,-0.5404811713409235,1.0329274090308695,-8.34513893955648,-0.2684955591762752,0.005198781378567219,0.0023721009492874146,5.045998609966039,0.00018280744552612305
1746576281274731500,5.2477314453125,0.12314956888305516,-0.003500112798064947,0.04925907828942589,-0.015431100502610207,0.019688637613166946,0.9618191206278804,0.07508910337448073,right,-0.0009464621543884277,-0.5404811713409235,1.0329274090308695,-8.34513893955648,-0.2684955591762752,0.0004671975038945675,0.0010049641132354736,5.045998609966039,-0.0002384781837463379
1746576281314731300,5.287731201171875,0.12217692385660317,0.005854342598468065,0.04880468798681601,-0.01435633935034275,0.019779926554669612,0.9618527083108819,0.07500261119643657,right,0.0013120770454406738,-0.5404139576302762,1.0248513623420148,-8.346476325640081,-0.26845155420909933,0.004636925645172596,0.00032276660203933716,5.045433377298712,-0.001624464988708496
1746576281354731300,5.327731201171875,0.12217692385660317,0.002768389880657196,0.04880468798681601,-0.0062403324991464615,0.019779926554669612,0.9618527083108819,0.07500261119643657,right,0.0020455121994018555,-0.5404139576302762,1.0248513623420148,-8.346476325640081,-0.26845155420909933,-0.005258397199213505,0.00041631609201431274,5.045433377298712,0.0028667449951171875
1746576281394731300,5.367731201171875,0.12155994402725039,-0.009703489951789379,0.048484426154820556,-0.003957468084990978,0.01988974793375534,0.9618076481237132,0.07509067283435952,right,-0.0007327795028686523,-0.5408619461421507,1.0194273645319043,-8.344862460702657,-0.26866275512554366,-0.017506863921880722,0.0009952858090400696,5.0492000363558525,0.004238724708557129
1746576281434731500,5.4077314453125,0.12098777990703231,-0.005994873121380806,0.04823283457555664,-0.008263658732175827,0.019800006508930306,0.9617391037059021,0.07479001683191651,right,-0.0002085566520690918,-0.5415075154939787,1.0142589489180593,-8.342206977757812,-0.2689598639381842,-0.007610379718244076,0.0005951225757598877,5.054626737579703,0.0002608299255371094
1746576281474731500,5.4477314453125,0.12098777990703231,0.017294127494096756,0.04823283457555664,-0.01637336239218712,0.019800006508930306,0.9617391037059021,0.07479001683191651,right,0.0005611777305603027,-0.5415075154939787,1.0142589489180593,-8.342206977757812,-0.2689598639381842,0.00277112890034914,-0.0006065294146537781,5.054626737579703,-0.00048536062240600586
1746576281514731500,5.4877314453125,0.12078257674395079,0.007386853918433189,0.04802778115151496,-0.004560048691928387,0.02022217236055896,0.9617505952753365,0.07560267886573992,right,-0.0037444233894348145,-0.5413965108628277,1.012614688842371,-8.342971532389521,-0.26892405582476747,0.004169517196714878,-0.001711331307888031,5.0536938406437635,0.002483189105987549
1746576281554731300,5.527731201171875,0.12039488214299024,-0.0018298998475074768,0.047823171346451074,-0.0165023785084486,0.020377226948582468,0.9617971661526,0.07579573941533264,right,-0.0037236809730529785,-0.5411000574733255,1.0095599774468689,-8.344850770264863,-0.2687823559113916,0.005592120811343193,-0.0003331005573272705,5.051202023828029,0.0033658742904663086
1746576281594731300,5.567731201171875,0.11958249513407887,-0.004128186032176018,0.04748063340011239,-0.011963242664933205,0.02035310886482769,0.9618600276642449,0.07549704361894886,right,-0.0018131732940673828,-0.5407938332854503,1.0029648900307715,-8.347203470870852,-0.26861988721020796,0.007883640006184578,-0.0009281709790229797,5.04862778942585,-0.0014063715934753418
1746576281634731300,5.607731201171875,0.11958249513407887,0.008358905091881752,0.04748063340011239,-0.006226618308573961,0.02035310886482769,0.9618600276642449,0.07549704361894886,right,-0.0026824474334716797,-0.5407938332854503,1.0029648900307715,-8.347203470870852,-0.26861988721020796,0.00629944633692503,-0.00015834718942642212,5.04862778942585,-0.002680957317352295
1746576281674731500,5.6477314453125,0.1194816106128242,0.00725182332098484,0.04735540268904475,-0.004339810460805893,0.02071570535215231,0.9619321377236915,0.07618193693361151,right,-0.001957535743713379,-0.5402125180241263,1.0024724303387105,-8.350217265734075,-0.2683558639361939,0.0034787592012435198,0.00017558783292770386,5.043739432862401,0.002438485622406006
1746576281714731500,5.6877314453125,0.11894977997149309,-0.0004557529464364052,0.04713720252730831,-0.0068728188052773476,0.020676677106157643,0.9619724497291946,0.07593904496398869,right,-0.0005733966827392578,-0.5400213805359467,0.9981457993112504,-8.351706042987107,-0.2682528025542055,0.003550483612343669,0.0003718733787536621,5.042131997665763,0.0009036660194396973
1746576281754731500,5.7277314453125,0.11894977997149309,-0.00816332921385765,0.04713720252730831,-0.009405828081071377,0.020676677106157643,0.9619724497291946,0.07593904496398869,right,0.0006589293479919434,-0.5400213805359467,0.9981457993112504,-8.351706042987107,-0.2682528025542055,0.003622208023443818,0.00012697279453277588,5.042131997665763,-0.0007950663566589355
1746576281794731300,5.767731201171875,0.11795533881711794,-0.004286138340830803,0.046735149250364316,-0.010271630249917507,0.02056190165406454,0.9620276832597296,0.07540922080346302,right,-0.000298917293548584,-0.5398210543875567,0.9899588395938277,-8.35369750906527,-0.26813387820306617,0.0032329983077943325,-0.00019492954015731812,5.040446821057796,0.00021731853485107422
1746576281834731300,5.807731201171875,0.11795533881711794,0.002081671729683876,0.046735149250364316,-0.008059293031692505,0.02056190165406454,0.9620276832597296,0.07540922080346302,right,-0.0023671984672546387,-0.5398210543875567,0.9899588395938277,-8.35369750906527,-0.26813387820306617,0.013632997870445251,-0.0013625696301460266,5.040446821057796,0.0036336779594421387
1746576281874731300,5.847731201171875,0.11730274161384581,0.002032091375440359,0.04646224784957565,-0.006668055430054665,0.02062157848009658,0.9621687575965342,0.07528606969674499,right,-0.002245008945465088,-0.5388754901735904,0.985064345550537,-8.359071603319048,-0.2676699958618787,0.021988768130540848,-0.0007406696677207947,5.032490309095382,0.0035225749015808105
1746576281914731300,5.887731201171875,0.1170683757884248,0.0006911031669005752,0.04640365667148636,0.0019613010808825493,0.02060131960253562,0.9623254432888195,0.07510052317854905,right,-0.0042691826820373535,-0.5377404209492157,0.9837718215219676,-8.364969429185987,-0.26711783260659916,0.030338868498802185,-0.00020901113748550415,5.022933376199007,0.003611743450164795
1746576281954731500,5.9277314453125,0.11697990745873993,-0.006281733047217131,0.04643551060179977,0.006456015165895224,0.02049903577045824,0.9624914616247726,0.07477917028023484,right,-0.0004686117172241211,-0.5365165566181386,0.9837485137116163,-8.37115542434454,-0.2665212552787298,0.029434116557240486,0.001395978033542633,5.012621241021156,0.0015168190002441406
1746576281994731500,5.9677314453125,0.11709226664332228,-0.011061623692512512,0.046575363716182254,0.0016250554472208023,0.020306062256214286,0.9626308269184173,0.07433714882795862,right,0.0005098581314086914,-0.5354677430266149,0.9853027574162929,-8.376261807572842,-0.266007943254775,0.023297015577554703,0.0015713796019554138,5.003778593873977,0.003942251205444336
1746576282034731300,6.007731201171875,0.11671830592060532,-0.034188903868198395,0.04655459217169695,0.008384045213460922,0.019896157426527623,0.9627720222618941,0.07331819017575149,right,0.0020768046379089355,-0.5345326075625036,0.9827147136844694,-8.381273498255014,-0.26553088574972616,0.024053102359175682,0.003964900970458984,4.9958893019288775,0.01165086030960083
1746576282074731300,6.047731201171875,0.11601894585976855,-0.05623391643166542,0.046559937000599155,0.008249280042946339,0.018829820303752243,0.962898831537102,0.07086528313115391,right,-0.005306720733642578,-0.5338689380861533,0.9772365745343268,-8.385250000670553,-0.265147858842495,0.01489312294870615,0.0024855434894561768,4.990287828660011,0.0074310302734375
1746576282114731300,6.087731201171875,0.11488884887644801,-0.05736776813864708,0.04637320757109355,0.017284851521253586,0.01770237253396778,0.9629721679917209,0.06820079650591561,right,0.008138775825500488,-0.5336947991894003,0.9678594551842659,-8.387212240654229,-0.26499188176022165,0.014585702680051327,0.004762716591358185,4.98881775610745,0.0060645341873168945
1746576282154731300,6.127731201171875,0.11438379243998324,-0.05287588760256767,0.04651021288130217,0.03067256510257721,0.01644709784850615,0.9630743945203352,0.06542093773192381,right,0.0051406025886535645,-0.5331829895990061,0.9639145900160073,-8.390235387867689,-0.2646768518404079,0.025099297985434532,0.0024665072560310364,4.984495801255107,0.002102792263031006
1746576282194731500,6.1677314453125,0.1144040490574513,-0.03886737674474716,0.04688205592750874,0.03693212568759918,0.01522437310401992,0.9632060333037609,0.0628310060250355,right,0.0019539594650268555,-0.5323272957349879,0.9645710811633617,-8.394450375214218,-0.26420488440232476,0.03541922569274902,0.0028085261583328247,4.977267603567243,-0.005442976951599121
1746576282234731500,6.2077314453125,0.11543102267266976,-0.016463622450828552,0.04759525815368545,0.04159572720527649,0.01444331042062537,0.9633666184274274,0.06140244185463664,right,-0.0032405853271484375,-0.5309896653395292,0.973957406733185,-8.40006120083332,-0.26353510709853056,0.03460655361413956,0.005573727190494537,4.965960027611255,0.00003141164779663086
1746576282274731500,6.2477314453125,0.11647753051609107,-0.003953135572373867,0.04803257221107454,0.027768239378929138,0.014709630227463907,0.9635175354790827,0.062148474162213335,right,-0.004443228244781494,-0.5295932226424263,0.9835525527480989,-8.4059169411242,-0.26288852724919226,0.031185761094093323,0.00339314341545105,4.954146840220689,-0.00037169456481933594
1746576282314731300,6.287731201171875,0.11752199173723994,0.008557352237403393,0.048469861609393934,0.013940751552581787,0.0149759205057844,0.9636677788280037,0.06289217297430205,right,-0.005648136138916016,-0.5281961688809702,0.993142218870297,-8.411750469583273,-0.2622417881166233,0.02776496857404709,0.0012131258845329285,4.942318455260992,-0.000773310661315918
1746576282354731300,6.327731201171875,0.11856438562134007,0.021067839115858078,0.048907106218199534,0.00011326465755701065,0.015242221516475668,0.9638173045222372,0.06363361829376259,right,-0.006855368614196777,-0.5267984263666028,1.0027261859040706,-8.417561786210536,-0.2615948677248467,0.024344176054000854,-0.0009663179516792297,4.930474288210273,-0.0011733174324035645
1746576282394731300,6.367731201171875,0.1186865144715002,0.0031161922961473465,0.04890394216953641,-0.005230124574154615,0.015627447022530005,0.9639966332019231,0.0643668144326748,right,-0.0017532110214233398,-0.5253388168621844,1.0046052776489407,-8.424576048886776,-0.26091099929575584,0.040934156626462936,-0.001580648124217987,4.918095868152379,-0.0007729530334472656
1746576282434731500,6.4077314453125,0.11779432939418844,-0.0814758762717247,0.04882450300190752,0.0017026551067829132,0.014690240745822217,0.964304292752629,0.06204047907517461,right,-0.007004857063293457,-0.5232499659390604,0.9982937564145773,-8.435652738696335,-0.25984141247540626,0.07389873266220093,-0.006594650447368622,4.900362643063068,-0.00070914626121521
1746576282474731500,6.4477314453125,0.11446166975095907,-0.121979258954525,0.04795243240730443,-0.029991235584020615,0.012761579955322767,0.9648475289594043,0.056925876520217134,right,-0.00910121202468872,-0.5199049583923526,0.9720417823702097,-8.455170509114861,-0.2580830334961303,0.11556743085384369,-0.009167216718196869,4.871920976954698,0.00461462140083313
1746576282514731500,6.4877314453125,0.10892189324552198,-0.15375101566314697,0.04624534006527341,-0.0581178180873394,0.010226914820116945,0.9654758402525363,0.0499709862216035,right,-0.00724714994430542,-0.5163026608995172,0.9270891264438629,-8.477816640686989,-0.2561503876143236,0.08319135010242462,-0.006560511887073517,4.841230947397649,0.006236255168914795
1746576282554731300,6.527731201171875,0.10609820710058207,-0.12999020516872406,0.04544748995958487,-0.03673284500837326,0.008413164183085856,0.9655029828323193,0.04549221637412458,right,-0.005978763103485107,-0.5167633949347861,0.9029104515422135,-8.478181382346152,-0.2562568295611869,0.06533967703580856,-0.006341122090816498,4.845159811279177,-0.0019335448741912842
1746576282594731300,6.567731201171875,0.1032714520344363,-0.10622939467430115,0.04464946078104631,-0.015347873792052269,0.006599375612936558,0.9655263724040464,0.04101080461625865,right,-0.0047119855880737305,-0.517213246531823,0.8787163598757237,-8.478531510958074,-0.2563623038979124,0.0474880114197731,-0.006120160222053528,4.848994567136466,-0.010093778371810913
1746576282634731300,6.607731201171875,0.10044167275673567,-0.08246857672929764,0.0438512571434886,0.0060370974242687225,0.004785545418604248,0.9655459247548763,0.03652677027321557,right,-0.0034465789794921875,-0.5176519187741062,0.8545071437053382,-8.478866442000866,-0.2564667053584475,0.029636340215802193,-0.005897656083106995,4.852733461403846,-0.018244236707687378
1746576282674731500,6.6477314453125,0.09940420350032102,-0.033453214913606644,0.0437138042234512,0.02008769102394581,0.0036504298633850394,0.965732110850509,0.033832801614759635,right,0.003360152244567871,-0.5164117799546103,0.8463067399844527,-8.485730482551455,-0.2558070516700927,0.05116616189479828,-0.004398144781589508,4.84216150624603,-0.014985591173171997
1746576282714731500,6.6877314453125,0.10028647445762982,0.0016262643039226532,0.04428440987074769,0.04168333858251572,0.0031344091343722784,0.9659393820000445,0.03290109755228236,right,0.0011549592018127441,-0.5146375318107052,0.8546518859382718,-8.493515145078302,-0.25493161545928406,0.03888031840324402,-0.0041594430804252625,4.827023266085982,-0.008939772844314575
1746576282754731500,6.7277314453125,0.1025042235333959,0.023286884650588036,0.04535375041603661,0.057989221066236496,0.002960753743189502,0.966047863211122,0.03305717453385686,right,-0.004153728485107422,-0.5133847893226956,0.8741043360356241,-8.497607382827997,-0.254333704543801,0.02208717167377472,-0.005135796964168549,4.816325638721883,0.00021225214004516602
1746576282794731300,6.767731201171875,0.10513652239643152,-0.005061918869614601,0.04658442966870952,0.05815226584672928,0.0028504341242605587,0.966092143677571,0.03347427626558039,right,-0.004813134670257568,-0.5125505944309688,0.8968908259265125,-8.499269763082266,-0.25394433063749816,0.018727149814367294,-0.0007830560207366943,4.809197978799045,0.020402878522872925
1746576282834731300,6.807731201171875,0.10631843992484806,-0.060213714838027954,0.04740287605382174,0.05174364522099495,0.0018414377633724,0.9661931523008634,0.03163842782618104,right,-0.0074974894523620605,-0.5115450398974837,0.9074483872327953,-8.503007780566811,-0.2534170659776387,0.041442617774009705,0.006211213767528534,4.800601707628369,0.018939286470413208
1746576282874731300,6.847731201171875,0.10607526687612363,-0.06923115998506546,0.047742589552624864,0.024598659947514534,0.00028820709930117884,0.9664544907699464,0.02824493144596106,right,-0.0029565095901489258,-0.5095267178163223,0.9064046503335237,-8.512845868492127,-0.2523614210302664,0.06805464625358582,0.004491887986660004,4.783332592919469,0.012613415718078613
1746576282914731500,6.8877314453125,0.10549194475209998,-0.05163423717021942,0.047843220399918805,0.025175942108035088,-0.000940158411054532,0.9667365636191817,0.025430303868461197,right,0.0013121366500854492,-0.5073813817595575,0.9025172144409268,-8.523558401164411,-0.2512578136192684,0.05944230407476425,0.003400243818759918,4.7649555169686675,0.007940053939819336
1746576282954731500,6.9277314453125,0.10491626512404693,-0.03403731435537338,0.04794372426080069,0.02575322426855564,-0.002168473609798282,0.9670159342753512,0.022620563558945886,right,0.005576670169830322,-0.5052346181661049,0.8986793898437172,-8.53423001730442,-0.25015349400496145,0.05082996189594269,0.0023035630583763123,4.746543954226374,0.0032701492309570312
1746576282994731500,6.9677314453125,0.105235770818755,-0.013321690261363983,0.048308503337403955,0.03096633590757847,-0.00290414437349114,0.9672092078331213,0.0210912807980753,right,0.003453552722930908,-0.5036024218173967,0.9022186698857695,-8.54163532512486,-0.2493272654127469,0.04190155863761902,0.0016183555126190186,4.732531210964918,0.0012710988521575928
1746576283034731300,7.007731201171875,0.10634022063302542,-0.002642037346959114,0.04894655215726863,0.039644453674554825,-0.0033362165454150793,0.9673692200087463,0.020397866313963304,right,-0.0019878149032592773,-0.5020862602436468,0.9124125124461948,-8.547758776441215,-0.24857559916043503,0.03915302827954292,0.0016040205955505371,4.7195030948266385,-0.0023315846920013428
1746576283074731300,7.047731201171875,0.10798802073956862,0.006436137482523918,0.04977522514653957,0.046025216579437256,-0.003539408830407844,0.9675410955503921,0.020303686085612224,right,-0.01102900505065918,-0.5003649276031465,0.9273704276032745,-8.554307759693264,-0.2477380099081778,0.04985968396067619,0.0028626620769500732,4.704699201187491,-0.006556093692779541
1746576283114731300,7.087731201171875,0.1100607415704694,0.015069018118083477,0.050791537512509,0.052854910492897034,-0.003660053554079062,0.9678050760270966,0.020436927840946032,right,-0.011966466903686523,-0.49779781257485695,0.9464226263366639,-8.564343416017293,-0.24649590536874516,0.08328224718570709,0.0022554919123649597,4.682595213668048,-0.01942962408065796
1746576283154731300,7.127731201171875,0.11212838633366638,0.01691439189016819,0.05176428794197834,0.04763820022344589,-0.003540948334534477,0.9681826211020904,0.021003161838628256,right,-0.0008023381233215332,-0.494284017210149,0.9659637045655399,-8.578665371358394,-0.24480655170040402,0.08068839460611343,0.003260798752307892,4.652289799514413,-0.018727034330368042
1746576283194731500,7.1677314453125,0.1140116043640357,-0.004099693149328232,0.0526909291517004,0.04820636287331581,-0.0036285966708991474,0.9684544365495329,0.02114065456418757,right,0.007920503616333008,-0.4916448651906621,0.9835108324982226,-8.588999718368052,-0.24352936152813934,0.04613158851861954,0.006994284689426422,4.629489938685298,-0.019433796405792236
1746576283234731500,7.2077314453125,0.11589089434839067,-0.03254079073667526,0.0537404022432902,0.0631277933716774,-0.004311711706069401,0.9685608632075132,0.020123151652644104,right,0.012106657028198242,-0.4903348126894893,1.0003507620096206,-8.593152746394276,-0.2428643721075612,0.015474699437618256,0.0049896687269210815,4.618160443158447,-0.022731870412826538
1746576283274731500,7.2477314453125,0.11775941564522772,-0.029810665175318718,0.05482300864093545,0.06017959117889404,-0.00525128802764614,0.9685006689061864,0.01865449397089183,right,0.007729291915893555,-0.49038460652305815,1.0163784983552993,-8.591040284284949,-0.2428441386835283,-0.018620014190673828,0.004750072956085205,4.618591235791146,-0.02101394534111023
1746576283314731300,7.287731201171875,0.11965561505614995,-0.02205711603164673,0.0558327355031295,0.05392857640981674,-0.0059956716130140355,0.968208326518203,0.01771431964060874,right,0.005912959575653076,-0.4923428661587898,1.0315853467721492,-8.580101541641355,-0.24376069695699226,-0.07860314100980759,0.002049356698989868,4.635523081369698,-0.0018950998783111572
1746576283354731300,7.327731201171875,0.12200383528243587,-0.014613499864935875,0.056959002793155675,0.06518115103244781,-0.006561093344198706,0.9676330789260466,0.017401161909354236,right,0.00037103891372680664,-0.4965115861481876,1.0493694983310997,-8.55839999744296,-0.24576145662496565,-0.1277255266904831,-0.0012763962149620056,4.671508586986363,0.013167321681976318
1746576283394731300,7.367731201171875,0.12590816672841115,0.009349266067147255,0.058740598754195024,0.11164511740207672,-0.006980207342852967,0.9669597034230174,0.017824959119785846,right,0.0008016228675842285,-0.5010834393362794,1.0800829818289726,-8.532960435760021,-0.24797104764906844,-0.09273922443389893,0.001116827130317688,4.710880227909982,0.015155643224716187
1746576283434731500,7.4077314453125,0.1301273823631312,0.010702119208872318,0.06059062662145713,0.07906487584114075,-0.006906469590898755,0.9666236557823199,0.01917710430915311,right,-0.002986133098602295,-0.5028219806571472,1.115011306542903,-8.520193893167376,-0.24883687143615213,-0.05892977863550186,0.006038941442966461,4.725826452629268,0.01550382375717163
1746576283474731500,7.4477314453125,0.13435331237775214,0.012054972350597382,0.0624404013108525,0.04648463428020477,-0.00683270770560909,0.9662833461654511,0.02053890215146998,right,-0.006789505481719971,-0.5045554063784313,1.1499079209443182,-8.507274790361523,-0.24970161362336765,-0.0251203253865242,0.010964274406433105,4.74071451742053,0.015857934951782227
1746576283514731500,7.4877314453125,0.1341038406383541,0.015250872820615768,0.06230285508795339,0.01975361816585064,-0.006677153286931519,0.9663769339875297,0.020748544820914285,right,-0.0019205212593078613,-0.5038700542340379,1.148219675596431,-8.510779583612084,-0.2493779619559443,0.006658978760242462,0.012305714190006256,4.734829843296111,0.009116381406784058
1746576283554731300,7.527731201171875,0.13385430988478583,0.018446773290634155,0.06216530064536458,-0.006977401673793793,-0.006521565989494846,0.9664703094319717,0.020958373215766248,right,0.002948164939880371,-0.5031846776585607,1.14652879990004,-8.514279700687528,-0.2490542571941108,0.038438282907009125,0.013647414743900299,4.728942831084132,0.0023751258850097656
1746576283594731300,7.567731201171875,0.13360469189629823,0.021642673760652542,0.06202773248909174,-0.03370841592550278,-0.006365986074187668,0.9665635164507299,0.021168295618141125,right,0.007816314697265625,-0.5024993185030492,1.1448348554637282,-8.517775726109743,-0.24873050437047836,0.07021758705377579,0.014989443123340607,4.7230534807845945,-0.004366010427474976
1746576283634731300,7.607731201171875,0.13327976438328604,0.026141347363591194,0.061862979514766665,-0.0035595837980508804,-0.0060136344973046145,0.9669793958889465,0.021585695582689763,right,0.004802048206329346,-0.4992179584841783,1.1441204235840587,-8.533461955541371,-0.2471588564390643,0.09541267156600952,0.009334109723567963,4.694826918731629,0.00289800763130188
1746576283674731500,7.6477314453125,0.1337441303219927,0.01498284749686718,0.0620745255144286,0.008232757449150085,-0.005724513423382718,0.967383913982918,0.022064554820714358,right,0.0038242340087890625,-0.4958096178443927,1.1502100456960498,-8.54873901965022,-0.24552467438241266,0.0807090550661087,0.002980180084705353,4.665454693774879,0.0014381706714630127
1746576283714731500,7.6877314453125,0.13511448961620415,0.03869258239865303,0.06266900395352204,0.03022414818406105,-0.005331190746737068,0.9677450947616958,0.022992686276952768,right,0.0011870265007019043,-0.4925090144050739,1.1639917566806077,-8.562365978464484,-0.24395369818889176,0.06743963062763214,0.0012241750955581665,4.636958959391713,0.008219927549362183
1746576283754731500,7.7277314453125,0.1378693291221734,0.058174993842840195,0.06377626477698174,0.046381302177906036,-0.004541569153160601,0.9679655499847332,0.02513875842775119,right,-0.0016234517097473145,-0.49000943815725456,1.1891644841209053,-8.57058084910214,-0.24280560765837733,0.04333978518843651,0.0013592839241027832,4.615345385737717,0.009427815675735474
1746576283794731300,7.767731201171875,0.14046025063688747,0.04764813929796219,0.06472290253155313,0.014890152961015701,-0.0034713293688356456,0.9680875591687377,0.027877689261672767,right,-0.008638381958007812,-0.48834954687187726,1.212437003963068,-8.575044842773675,-0.2420853596095059,0.01326831616461277,0.0009371638298034668,4.600976376384496,0.016805052757263184
1746576283834731300,7.807731201171875,0.14137189705077835,0.026998504996299744,0.06498748719753113,0.005383983254432678,-0.0028259446300951743,0.9681203590608243,0.029401826817162146,right,-0.0026813745498657227,-0.48784989817274554,1.2205777133859694,-8.5762109639436,-0.2418916149423981,0.016069384291768074,0.002149812877178192,4.596648868574202,0.0015254020690917969
1746576283874731300,7.847731201171875,0.14209429586369257,0.05838155746459961,0.06514847312564162,0.0015085043851286173,-0.0020143717107717787,0.9682699055898354,0.031151843925929897,right,0.004785776138305664,-0.48642208389935016,1.227700989394635,-8.581815359821915,-0.24125685433082303,0.035361845046281815,0.003051742911338806,4.584275416952371,-0.010512858629226685
1746576283914731500,7.8877314453125,0.14437149829863027,0.12531809508800507,0.06580619746462243,0.026600306853652,-0.00034022811916522053,0.9683830798517455,0.035058443723133374,right,0.012107670307159424,-0.48486792205921675,1.2482638849519192,-8.58603736143112,-0.24063138895964103,0.015769947320222855,0.005811557173728943,4.570796634437143,-0.02553999423980713
1746576283954731500,7.9277314453125,0.14971177160901478,0.1867353469133377,0.06756924979524154,0.06321213394403458,0.0025131009816857287,0.9683944094765292,0.042149383986932125,right,0.003345966339111328,-0.48324205970316897,1.2952043536946176,-8.586586227485537,-0.24008402272795534,0.0116684939712286,0.000831305980682373,4.556684230193495,-0.009444981813430786
1746576283994731500,7.9677314453125,0.15515410285220327,0.13964048027992249,0.06932433221880512,0.029710043221712112,0.005528350413383155,0.968307686258698,0.04964625235735066,right,-0.004798531532287598,-0.4822726786613413,1.3425979730322957,-8.583770001021026,-0.239882601715263,-0.0034271301701664925,-0.0005737096071243286,4.54826419237256,0.007643848657608032
1746576284034731300,8.007731201171875,0.1579347091474899,0.0896521508693695,0.07008724074579083,-0.01052367314696312,0.007642627553462572,0.9682782558720664,0.054641528753217435,right,-0.012812554836273193,-0.4815607606416864,1.3669697593532502,-8.583198923134804,-0.23972153554137357,-0.006872147787362337,-0.0009477883577346802,4.542077904953063,0.016337275505065918
1746576284074731300,8.047731201171874,0.15846097623281352,0.0522543229162693,0.06993534990150627,-0.031426526606082916,0.009114090287921066,0.9681533913386561,0.057879401300247525,right,-0.00712507963180542,-0.4823491565327811,1.3709211273275315,-8.578939512124657,-0.2402183309578017,-0.04387309402227402,0.0006167441606521606,4.548928501500189,0.009265154600143433
1746576284114731300,8.087731201171875,0.15703205175104415,0.02563796564936638,0.0690210403438338,-0.040177665650844574,0.009842773426125734,0.9679036821150929,0.059243050926651025,right,-0.002458333969116211,-0.4848274343102249,1.3568939171493053,-8.569728616186977,-0.24145708582650086,-0.04949740692973137,-0.0008532851934432983,4.570445336781442,0.003536522388458252
1746576284154731300,8.127731201171875,0.15560508938177617,-0.0009783916175365448,0.06810651958690712,-0.04892880842089653,0.010571459232924688,0.9676511462247334,0.060604545711847375,right,0.0021997690200805664,-0.487307451217949,1.342903093458712,-8.5604323800534,-0.24269512480082578,-0.05512171983718872,-0.002327069640159607,4.591949020320177,-0.00219079852104187
1746576284194731500,8.1677314453125,0.1544867299434996,0.043530240654945374,0.0674057744191708,-0.03025626763701439,0.011276937413178114,0.9676246968371607,0.06182330003088703,right,0.004919826984405518,-0.4877914990117186,1.3329863873392342,-8.559731538307666,-0.2429642256795503,0.022506415843963623,-0.0032855719327926636,4.596142964878678,0.0005164742469787598
1746576284234731500,8.2077314453125,0.15400448457027002,0.0016242489218711853,0.06706231880695913,-0.023474013432860374,0.011933723723194416,0.9677713246107432,0.06296195616312625,right,0.001965343952178955,-0.4866405156811621,1.3296689333543181,-8.565594877383113,-0.24244346211215123,0.01545465737581253,-0.004738673567771912,4.586168975614011,0.011653721332550049
1746576284274731500,8.2477314453125,0.1521722010756877,-0.05324748903512955,0.06632611731361378,-0.03129749745130539,0.011562936918610886,0.9678463431913179,0.06173201435170376,right,0.0019285082817077637,-0.4865838882095111,1.314011491625756,-8.568273741203546,-0.24236432415984355,0.0050453804433345795,-0.003868207335472107,4.5856782694876195,-0.0059986412525177
1746576284314731300,8.287731201171875,0.14967396055428486,-0.05676981434226036,0.06539151847484742,-0.0350666306912899,0.010714642228535541,0.967892720941532,0.05938759646761966,right,0.0015991926193237305,-0.4869957843410957,1.2923200304299591,-8.569661396169662,-0.24247229754503372,-0.011465970426797867,-0.0038291066884994507,4.58924823692888,-0.004220128059387207
1746576284354731300,8.327731201171876,0.14695199905011527,-0.0695648044347763,0.06438911636360181,-0.026173632591962814,0.009611005841497993,0.967832672141618,0.05653550846148506,right,0.006006419658660889,-0.4883604066311751,1.2680708475753664,-8.56694395390451,-0.24302562365329924,-0.02613721787929535,-0.002449721097946167,4.601070484408736,-0.009862720966339111
1746576284394731300,8.367731201171875,0.14582161721188694,-0.0029666200280189514,0.06402083846506919,0.007951982319355011,0.008917221996925415,0.9677640250107715,0.05489319942772992,right,0.004102528095245361,-0.4893015948384348,1.2577562281794845,-8.564083888298272,-0.243422627573311,-0.02759026549756527,-0.00487121194601059,4.609219596333801,-0.006890475749969482
1746576284434731500,8.4077314453125,0.1472694470521197,0.029834192246198654,0.06452762883135246,0.04047765955328941,0.00924257756682403,0.9674609924662412,0.05609867148702375,right,0.008976221084594727,-0.49139300756530335,1.2687369102686643,-8.552699739974736,-0.24447876163287344,-0.07414792478084564,-0.0015424340963363647,4.627312594646215,-0.0000693202018737793
1746576284474731500,8.4477314453125,0.15042923498626307,-0.0004425887018442154,0.06581703444780773,0.08361318707466125,0.009385843425173951,0.9669690949523435,0.05745530467390018,right,0.006822049617767334,-0.49456582618782496,1.293548549311608,-8.534089147529006,-0.24607045167444846,-0.07983310520648956,0.0025774091482162476,4.654722287358343,0.00607869029045105
1746576284514731500,8.4877314453125,0.15330699461410036,-0.04038895666599274,0.0672392482967977,0.07148383557796478,0.008606940513526609,0.9665966331051531,0.056770314711105024,right,-0.0019305944442749023,-0.4968745827945934,1.3164577157340942,-8.519687697210907,-0.24717541005124063,-0.03174290806055069,0.0027227848768234253,4.674638117183744,0.007064640522003174
1746576284554731300,8.527731201171875,0.15443218551616153,-0.06135980412364006,0.06805276708762514,0.04620561748743057,0.00728759759776861,0.9664498938810333,0.05440982859383807,right,-0.0006544589996337891,-0.4978449422784705,1.325344786544889,-8.51371505254209,-0.2475684829054016,-0.002841079607605934,0.005768805742263794,4.683001164120435,-0.0018201470375061035
1746576284594731300,8.567731201171876,0.15471675259874224,-0.046179838478565216,0.06848555651756413,0.032070763409137726,0.006057390042514034,0.9664079223519029,0.05196479000952556,right,-0.0021098852157592773,-0.4981768839350386,1.327527829672396,-8.511801327875256,-0.24764619797885112,0.0014944770373404026,0.004197373986244202,4.685860937465727,-0.008865535259246826
1746576284634731300,8.607731201171875,0.15526086878496373,-0.0251768808811903,0.06890517852639876,0.03135520964860916,0.005291390981347153,0.966308690578865,0.05057726141822462,right,-0.010237812995910645,-0.4988696221063076,1.3316567461706696,-8.507868664601444,-0.2479344570455279,-0.029019419103860855,0.010019585490226746,4.691827736915648,-0.003307521343231201
1746576284674731500,8.6477314453125,0.15658590086684762,-0.01182521227747202,0.06955432328530642,0.0368882417678833,0.0048386120528056764,0.9660174467290725,0.05015095173087957,right,-0.01777017116546631,-0.5008845424567152,1.3414517256066203,-8.496741121387481,-0.2488954544172499,-0.06660133600234985,0.012052148580551147,4.709169624599814,0.001515030860900879
1746576284714731500,8.6877314453125,0.15725403706158045,-0.004188145976513624,0.06977669976866306,0.011674337089061737,0.004909186076131469,0.9657641826981188,0.05062808820300806,right,-0.010915935039520264,-0.5027486599624863,1.3457513224966824,-8.487158469527959,-0.24981305105762114,-0.03543165326118469,0.008118674159049988,4.725196338032186,0.006607681512832642
1746576284754731500,8.7277314453125,0.15792385903843373,0.0034489212557673454,0.06999899761837756,-0.013539567589759827,0.0049797634496986185,0.9655100325867946,0.05110714689312434,right,-0.004064977169036865,-0.5046124949727233,1.3500485812991856,-8.477543084442615,-0.25073039640100925,-0.004261966794729233,0.004185423254966736,4.741204346764087,0.011702209711074829
1746576284794731300,8.767731201171875,0.1571520610157094,-0.0018904595635831356,0.06963361235540105,-0.03224574029445648,0.005062051043795843,0.9655500053986991,0.05106821226992563,right,-0.001020193099975586,-0.5045073367639071,1.3435831846773623,-8.479074531793595,-0.25067639709600065,0.020653169602155685,8.791685104370117e-7,4.740301844966411,0.0031355321407318115
1746576284834731300,8.807731201171874,0.15575566912999642,-0.0010398500598967075,0.06899750558464993,-0.03265975043177605,0.00518715222134405,0.965693780898729,0.050899697732561665,right,0.0094527006149292,-0.5037371393018159,1.3323077574253082,-8.48454682572484,-0.2502955088188524,0.01673649251461029,-0.0023088157176971436,4.733688272045552,-0.0023598074913024902
1746576284874731300,8.847731201171875,0.15482973390355004,-0.00964820571243763,0.06858005239886224,-0.002578308805823326,0.005207747748745494,0.9657449795225334,0.0506895376828387,right,0.017791330814361572,-0.5035844696307661,1.3245624039955437,-8.486490945529937,-0.2502122327614444,-0.006199721246957779,-0.00017525255680084229,4.7323768971860405,0.0009556710720062256
1746576284914731500,8.8877314453125,0.15479503392055122,-0.026636959984898567,0.06863110366128983,0.010582081973552704,0.0048408518601691,0.9656392658700131,0.04999468196203774,right,0.006318092346191406,-0.504465437701962,1.3236246847540138,-8.482413905349373,-0.25061325645138255,-0.028562460094690323,0.0007603466510772705,4.739942071743309,0.00916185975074768
1746576284954731500,8.9277314453125,0.1544434606099545,-0.04268155246973038,0.06861429134710655,0.0049126120284199715,0.004104417462279392,0.9654618729900735,0.048508498779446435,right,-0.010210514068603516,-0.5060244226077101,1.3195040976926684,-8.475566815933584,-0.25131338263460345,-0.031100481748580933,0.00667080283164978,4.753320316493511,0.012040853500366211
1746576284994731500,8.9677314453125,0.1532854689256256,-0.03179583698511124,0.06824526980687,-0.025340203195810318,0.0033894584861420642,0.9653701915763205,0.046815924540145916,right,-0.01851034164428711,-0.5071095035387577,1.308900286091864,-8.471987203881143,-0.2517765616717151,-0.005183354020118713,0.006842896342277527,4.762625028194487,0.0053022801876068115
1746576285034731300,9.007731201171875,0.15150524593354453,0.00276869535446167,0.0674997968414556,-0.0437401607632637,0.0032260935382173294,0.965483410794043,0.045979324156978016,right,-0.006500899791717529,-0.5066950758612249,1.2941139281094074,-8.476254213675857,-0.25154536451299214,0.0299290232360363,0.0016163140535354614,4.759071719627082,0.00045305490493774414
1746576285074731300,9.047731201171874,0.14982836359494145,0.01910112425684929,0.06669899281169499,-0.04279588535428047,0.0035980417071076022,0.9657438569995074,0.04617918624772919,right,0.0034269094467163086,-0.5050441135179542,1.2810694453582168,-8.4861700430125,-0.25075283414112215,0.0452413409948349,0.0007822960615158081,4.7449093387618655,-0.0022980570793151855
1746576285114731300,9.087731201171875,0.1487565994069075,0.008487274870276451,0.06617939958770198,-0.019622333347797394,0.003948234397489866,0.9659969036641869,0.04648405053141832,right,0.00340956449508667,-0.5032787757026991,1.2732130327694118,-8.49580880897343,-0.24990915320915502,0.036737002432346344,0.0019663721323013306,4.729751224857568,-0.004675477743148804
1746576285154731300,9.127731201171875,0.14771254578437754,-0.002011282369494438,0.06570880077803297,-0.024766990914940834,0.004067442437444249,0.9661563780177655,0.04637974676189939,right,-0.00037610530853271484,-0.5022650804875509,1.2650472619704902,-8.50187147001326,-0.24941440468088047,0.009509870782494545,0.0014457851648330688,4.721040387396514,-0.004683822393417358
1746576285194731500,9.1677314453125,0.14695841226590514,-0.0010754268150776625,0.06535068598653253,-0.009674468077719212,0.004122873343140763,0.9661659296669879,0.046309731298863184,right,0.00267183780670166,-0.5023898417254352,1.2585491321228444,-8.502240303325653,-0.24947076964254153,-0.012368034571409225,-0.0000626295804977417,4.722112692803144,-0.0071599483489990234
1746576285234731500,9.2077314453125,0.14695841226590514,0.0035019980277866125,0.06535068598653253,-0.0048695942386984825,0.004122873343140763,0.9661659296669879,0.046309731298863184,right,0.0024371743202209473,-0.5023898417254352,1.2585491321228444,-8.502240303325653,-0.24947076964254153,-0.015518715605139732,-0.0025777220726013184,4.722112692803144,-0.0025207996368408203
1746576285274731500,9.2477314453125,0.14676394024650663,-0.005695176310837269,0.06520489916224848,-0.004396806936711073,0.004229996154416285,0.966047750585375,0.046561185275624514,right,0.00006496906280517578,-0.5033956307050358,1.2562005231700837,-8.497782154873013,-0.2499640146485182,-0.016511688008904457,-0.00035515427589416504,4.73075484894216,0.0018922090530395508
1746576285314731300,9.287731201171875,0.14620984948702798,-0.0029840723145753145,0.06495884204564806,-0.0033477507531642914,0.004131514026882177,0.9659771002226808,0.04627118306388889,right,0.0013703107833862305,-0.5041188758542274,1.2509928715243934,-8.495089847049117,-0.25030245120516315,-0.012002789415419102,0.00010989606380462646,4.736966563063859,0.002116173505783081
1746576285354731300,9.327731201171876,0.1456552896991115,-0.0002729687839746475,0.06471277578659144,-0.0022986948024481535,0.004032984256330048,0.9659063253862563,0.045980509325726046,right,0.002674877643585205,-0.5048420547853963,1.2457841969653964,-8.492390524962543,-0.2506408557206088,-0.007493890821933746,0.0005750805139541626,4.743175062315165,0.0023405253887176514
1746576285394731300,9.367731201171875,0.14574849904950649,0.013410190120339394,0.06472580217964533,-0.00326664000749588,0.004129321985279548,0.9658866623292833,0.046214528687225254,right,-0.0038872957229614258,-0.5049733144667444,1.2464853309720754,-8.491658703556656,-0.2507119374865937,0.005168563686311245,-0.0014536678791046143,4.744301435996592,0.00320473313331604
1746576285434731500,9.4077314453125,0.14567906980792208,0.015462704002857208,0.0646234667750308,-0.008401640690863132,0.00448030789067838,0.9659691531136286,0.04687104251669075,right,0.0017400383949279785,-0.5043119411440268,1.2463508909374474,-8.494847270464897,-0.25041390752354786,0.024738859385252,-0.0015533417463302612,4.7386242671430105,0.0036364197731018066
1746576285474731500,9.4477314453125,0.1456787219734735,0.007065160199999809,0.06460474524802948,0.0034583481028676033,0.004706274701202676,0.9661311200533131,0.047234643389335314,right,0.0020617246627807617,-0.502993824405471,1.2472536849960685,-8.501020406141876,-0.249789495219044,0.03484134376049042,-0.0016501247882843018,4.727302954922616,0.003246009349822998
1746576285514731500,9.4877314453125,0.14606611998136268,0.004961707629263401,0.06480470867114811,0.007816104218363762,0.004761508744726085,0.9662786328405624,0.04734591223909473,right,-0.0007724165916442871,-0.5016904305099018,1.2514425149880348,-8.506625386542082,-0.2491649226483759,0.021959025412797928,-0.0014819502830505371,4.716100300645828,0.003195464611053467
1746576285554731300,9.527731201171875,0.14606611998136268,-0.01053836289793253,0.06480470867114811,0.00009230663999915123,0.004761508744726085,0.9662786328405624,0.04734591223909473,right,-0.0029143691062927246,-0.5016904305099018,1.2514425149880348,-8.506625386542082,-0.2491649226483759,-0.03337904438376427,-0.0004605203866958618,4.716100300645828,0.008654564619064331
1746576285594731300,9.567731201171876,0.1451050464660752,-0.01201750710606575,0.06442254474360253,-0.005653762258589268,0.004405437583996512,0.966145571420384,0.046467188297833036,right,-0.0029648542404174805,-0.5030397110141186,1.2423451624274253,-8.501519587835668,-0.24978561732620105,-0.013718072324991226,0.0006597042083740234,4.727697214937209,0.00424349308013916
1746576285634731300,9.607731201171875,0.14414196516777417,-0.013496652245521545,0.06404034974022714,-0.011399831622838974,0.00404938453776715,0.966011960771202,0.0455863917325062,right,-0.0030173659324645996,-0.5043883844526562,1.233239918821305,-8.496394499906897,-0.2504061788066176,0.005942899733781815,0.0017807334661483765,4.739280392964184,-0.00016614794731140137
1746576285674731500,9.6477314453125,0.14414196516777417,0.007164813578128815,0.06404034974022714,-0.00004647485911846161,0.00404938453776715,0.966011960771202,0.0455863917325062,right,-0.0016095638275146484,-0.5043883844526562,1.233239918821305,-8.496394499906897,-0.2504061788066176,0.02134396694600582,-0.00010572373867034912,4.739280392964184,-0.008361577987670898
1746576285714731500,9.6877314453125,0.1443288021785199,0.02318207547068596,0.06410317437678655,0.005317864008247852,0.0042738186495976304,0.9661572465266672,0.04600313493209375,right,-0.0015468597412109375,-0.5031559758942517,1.235666561446339,-8.501937520986795,-0.24982512332001758,0.025678440928459167,0.00045436620712280273,4.728696162846684,-0.002420872449874878
1746576285754731500,9.7277314453125,0.14482444260424185,0.01020246185362339,0.06427128266325895,-0.004969678819179535,0.004589232209612197,0.966247244864745,0.04671572863861906,right,-0.0019941329956054688,-0.5022833895536353,1.240475276902318,-8.505403735792637,-0.24942790995258166,0.009226607158780098,-0.0005014091730117798,4.72119762378484,0.002558290958404541
1746576285794731300,9.767731201171875,0.1447093738511981,-0.014136137440800667,0.06425093494953997,-0.0007121074013411999,0.0045136194183298065,0.9663008462632217,0.04649806655790005,right,-0.00031948089599609375,-0.5018823554824947,1.2397694667205215,-8.507419751790165,-0.24922705025475922,0.008277463726699352,0.003475978970527649,4.717750405940413,0.0030080676078796387
1746576285834731300,9.807731201171874,0.1441847296081951,-0.04164636880159378,0.0641888159515102,-0.0008637472055852413,0.0038554266687958107,0.9663406214897758,0.04498791475278132,right,-0.0018311142921447754,-0.5017210203851784,1.235415363164246,-8.508822019803523,-0.2490995955096405,0.006513497792184353,0.0023011118173599243,4.716363335496187,0.002849787473678589
1746576285874731300,9.847731201171875,0.14263735198951638,-0.06333863735198975,0.06381274150196642,-0.0033760007936507463,0.002570411952118229,0.9663553050513481,0.04195448611214532,right,0.0052835941314697266,-0.5020444544959116,1.2220306156080216,-8.509213064947724,-0.24915616469872942,0.004548177123069763,0.002428896725177765,4.719143906125426,-0.005585074424743652
1746576285914731500,9.8877314453125,0.14172070291352146,-0.04359796643257141,0.06361473251045031,-0.004327673465013504,0.0017334620838673042,0.9663852387526309,0.03998684210432933,right,0.0008628964424133301,-0.5020550603545669,1.2142230105970053,-8.510279817396402,-0.24909763634657833,0.013496211729943752,0.00273711234331131,4.7192350915402175,-0.001978754997253418
1746576285954731500,9.9277314453125,0.1408040542209462,-0.023857293650507927,0.06341667872942043,-0.005279346369206905,0.0008965266390517263,0.9664145390120682,0.038019214428215965,right,-0.0035576820373535156,-0.5020641404796896,1.2064155517164616,-8.51134715436697,-0.24903892673522,0.02244424819946289,0.003045320510864258,4.719313125212491,0.0016289353370666504
1746576285994731500,9.9677314453125,0.14015199433498227,-0.018336545675992966,0.06329646734221397,-0.006275038234889507,0.0005180005741252214,0.9667846173657727,0.03685510808041073,right,-0.002416849136352539,-0.4992235138365454,1.2027332099419086,-8.52537158806622,-0.24762989089718873,0.07148653268814087,0.0033126994967460632,4.694874849526584,0.0026529133319854736
1746576286034731300,10.007731201171875,0.139504749222095,-0.012815797701478004,0.06317612615769387,-0.007270729634910822,0.00013946644542223448,0.9671525867073681,0.03569490421312457,right,-0.0012835264205932617,-0.4963823605061872,1.1990649697579443,-8.539323541051148,-0.24622032730213425,0.12052881717681885,0.003578655421733856,4.6703941960036754,0.003681272268295288
1746576286074731300,10.047731201171874,0.13862889566308192,-0.020573385059833527,0.06302100396360706,-0.008875804021954536,-0.0003099158107398567,0.9677752664628191,0.03418098693038376,right,-0.005581974983215332,-0.4914771784823318,1.1947366582300514,-8.562956930094957,-0.24380126837598481,0.12884166836738586,0.005080953240394592,4.628040324398875,0.005983233451843262
1746576286114731300,10.087731201171875,0.13727257665582826,-0.005885149352252483,0.06258655376681645,-0.029458198696374893,-0.0006044833538702966,0.9683245047075252,0.03292349339728867,right,-0.0035728812217712402,-0.4872618672343087,1.1857805407710373,-8.583818516337871,-0.24172295295460447,0.08932878077030182,0.004336193203926086,4.591554175783694,0.0012776851654052734
1746576286154731300,10.127731201171875,0.13590280952092346,0.022057265043258667,0.06197200028689274,-0.03030008263885975,-0.0003541392550242123,0.9687028787776824,0.03289592687935257,right,0.005711853504180908,-0.48445172266030334,1.1757651235174387,-8.598184895342587,-0.24036232313253883,0.05474086105823517,0.004442520439624786,4.567185165941715,-0.001086115837097168
1746576286194731500,10.1677314453125,0.1353800258307923,0.023557869717478752,0.06164899758289751,-0.02151404321193695,0.00019087402467733188,0.9689568785644538,0.03374746659266829,right,0.005894005298614502,-0.4824505184451702,1.1725012263506651,-8.607837105306983,-0.23941979717219453,0.04403034970164299,0.003414042294025421,4.549809083727002,-0.002172321081161499
1746576286234731500,10.2077314453125,0.13506225737807181,0.013903752900660038,0.06146661194648255,-0.006629002280533314,0.0005807801422764796,0.969243959422832,0.03430528090889663,right,0.002922654151916504,-0.48010536693314626,1.1711993499718605,-8.618758312293886,-0.23830121694181206,0.065052330493927,0.003919929265975952,4.529423590563237,-0.002231299877166748
1746576286274731500,10.2477314453125,0.13466260415666267,-0.0026175277307629585,0.061324849036552546,-0.009280427359044552,0.0006703346580739461,0.9695517562776746,0.034212120021246586,right,0.000013530254364013672,-0.4775957531180983,1.1692771497376262,-8.630462778612971,-0.23708249794359104,0.061700429767370224,0.004419006407260895,4.507580884328484,-0.002133488655090332
1746576286314731300,10.287731201171875,0.13399444645832106,-0.003731467993929982,0.061110057636466535,-0.011316902004182339,0.0005545188678630942,0.9698662342497905,0.03363126782091744,right,-0.002659916877746582,-0.47508670422588534,1.165017665662244,-8.642423265519737,-0.2358486707244978,0.06604854762554169,0.003057219088077545,4.4857145049571985,-0.0006048083305358887
1746576286354731300,10.327731201171876,0.13333051229329437,0.002502811374142766,0.06089043059065898,-0.0089168231934309,0.00047163069764312774,0.9701908283215258,0.03311417843454088,right,-0.0031763315200805664,-0.4724760372021294,1.160832196671143,-8.654772459483146,-0.23456719720039929,0.06751662492752075,0.0010406896471977234,4.4629327643066645,-0.001660674810409546
1746576286394731300,10.367731201171875,0.13274149864405796,0.014771089889109135,0.060650609624651644,-0.01036443654447794,0.0006342570367241205,0.9705391284795073,0.033106146205245525,right,-0.003075838088989258,-0.4696241872387963,1.1574140587907285,-8.668034676638245,-0.23318386324413246,0.07046311348676682,0.00039133429527282715,4.4380113812789315,0.0025186538696289062
1746576286434731500,10.4077314453125,0.13240847407054065,0.0164071936160326,0.060492229874013925,-0.013119479641318321,0.0009464047808841877,0.970879946965196,0.033467485004041245,right,-0.0017848014831542969,-0.46675182795163717,1.1562055597838015,-8.681020414939523,-0.2318012828685746,0.0674668401479721,-0.0012553483247756958,4.41287460193485,0.0023305118083953857
1746576286474731500,10.4477314453125,0.1322046969113695,0.008642792701721191,0.060411123482822605,0.0007903110235929489,0.0011810615471112952,0.9712122650733039,0.03370217625609205,right,-0.0014917850494384766,-0.4639016156567871,1.1560898244496434,-8.69368817333281,-0.2304251532524106,0.07169000804424286,-0.0008363723754882812,4.387895351240038,0.001579970121383667
1746576286514731500,10.4877314453125,0.1320450384141222,0.00620553083717823,0.060394286680538284,-0.00026090035680681467,0.0011515249562826068,0.9714537320334563,0.03345803501239563,right,-0.0020433664321899414,-0.4618255296239089,1.155898685791716,-8.702884456223249,-0.22940991065943844,0.0560477040708065,-0.00042951107025146484,4.369678142026067,0.00012227892875671387
1746576286554731300,10.527731201171875,0.1318860765985375,0.003768268506973982,0.06037738315536617,-0.0013121118536219,0.001121976951436143,0.9716939760618704,0.033214486830949595,right,-0.0025987625122070312,-0.4597492561316905,1.1557057935681194,-8.712042745190859,-0.22839438565104903,0.04040540009737015,-0.00002247840166091919,4.351440474545956,-0.0013332664966583252
1746576286594731300,10.567731201171876,0.1317278610494582,0.0013310059439390898,0.060360415633002,-0.0023633232340216637,0.001092428605766134,0.971933249797072,0.03297156333369212,right,-0.003158092498779297,-0.4576730471870366,1.155511586170271,-8.721163040235638,-0.22737863635426372,0.024763096123933792,0.0003846883773803711,4.333184686887264,-0.002786993980407715
1746576286634731300,10.607731201171875,0.1315844666786506,0.011961676180362701,0.06029326056319487,-0.001572710694745183,0.0012023891268979324,0.9720549921418321,0.03309149975699207,right,-0.0014573335647583008,-0.45662912654613874,1.1548539259791373,-8.725808235692977,-0.22687507720979244,0.01427730917930603,0.0007996037602424622,4.323998633129895,-0.0031463801860809326
1746576286674731500,10.6477314453125,0.13177333743711922,0.013109387829899788,0.060323183706284665,-0.001825098181143403,0.001500112421623765,0.9721090628864326,0.033710721079213725,right,-0.0004551410675048828,-0.45609354027298615,1.156806082960218,-8.727885041967033,-0.2266336851468828,0.0065000043250620365,0.00024966150522232056,4.319283879567682,-0.0009827911853790283
1746576286714731500,10.6877314453125,0.13203084180931995,0.011724703945219517,0.060370487174168666,-0.005043515469878912,0.0018301544774710155,0.9721285578665769,0.03443239082784861,right,-0.003526747226715088,-0.4558454103936082,1.1591945855319499,-8.728649012076854,-0.22653512590980387,-0.002346112858504057,-0.0005481988191604614,4.317098936744034,0.001990407705307007
1746576286754731500,10.7277314453125,0.13207682759660938,0.001991516910493374,0.06042125854963677,0.0039005172438919544,0.001735172957093653,0.97216280047793,0.034225529003463456,right,-0.003296375274658203,-0.45552909172791023,1.1597757464207707,-8.729948988759517,-0.2263752517600117,0.005606850143522024,-0.00025798380374908447,4.314313689939677,0.0006181001663208008
1746576286794731300,10.767731201171875,0.13212287819454108,-0.007741669192910194,0.06047202535387689,0.012844549492001534,0.0016401914367163593,0.9721970430892833,0.03401868093543317,right,-0.003066122531890869,-0.455212784502194,1.1603574918314814,-8.731247796398401,-0.22621536158962016,0.013559812679886818,0.00003215670585632324,4.311527858613431,-0.0007541775703430176
1746576286834731300,10.807731201171874,0.13212287819454108,-0.017474856227636337,0.06047202535387689,0.0217885822057724,0.0016401914367163593,0.9721970430892833,0.03401868093543317,right,-0.002968311309814453,-0.455212784502194,1.1603574918314814,-8.731247796398401,-0.22621536158962016,0.021512776613235474,0.0003816336393356323,4.311527858613431,-0.00241050124168396
1746576286874731300,10.847731201171875,0.1322941493536042,-0.013748742640018463,0.06064640908952312,0.008984224870800972,0.001316918560439296,0.9722896384133846,0.033332546825307965,right,-0.0035914182662963867,-0.45434313341341265,1.162346985148266,-8.734761941999196,-0.22577218598388066,0.016094094142317772,0.0020903348922729492,4.303866237944364,-0.00159454345703125
1746576286914731500,10.8877314453125,0.13222934656132843,-0.011307905428111553,0.06068088600096505,0.008601301349699497,0.0010653816180557375,0.9723200694886716,0.03278245181606974,right,-0.002044975757598877,-0.45409108152869954,1.1619239374306052,-8.7359122810781,-0.22563299715821863,0.010470222681760788,0.0024871528148651123,4.301645054763555,-0.0008267760276794434
1746576286954731500,10.9277314453125,0.13216474681187268,-0.008867067284882069,0.060715357418413024,0.008218376897275448,0.000813888627625513,0.9723505408248471,0.03223254201157996,right,-0.000498652458190918,-0.45383910555806684,1.161502424082905,-8.737062035635113,-0.22549381336516783,0.004846351686865091,0.002883829176425934,4.299424163843691,-0.00005906820297241211
1746576286994731500,10.9677314453125,0.13216474681187268,-0.016284620389342308,0.060715357418413024,0.0045713577419519424,0.000813888627625513,0.9723505408248471,0.03223254201157996,right,-0.00026619434356689453,-0.45383910555806684,1.161502424082905,-8.737062035635113,-0.22549381336516783,0.0014294874854385853,0.004846066236495972,4.299424163843691,-0.0012694895267486572
1746576287034731300,11.007731201171875,0.13194779622920205,-0.020621594041585922,0.060762021079692544,0.0063581992872059345,0.0001929624713370738,0.9723694874228832,0.030897503555776785,right,0.0027500391006469727,-0.4537302460317352,1.1596684135887771,-8.737777490428089,-0.2254003465706772,0.006164161488413811,0.005580879747867584,4.298464671161771,-0.0025393664836883545
1746576287074731300,11.047731201171874,0.13184285527253986,-0.02049919031560421,0.06082809521609144,0.00579175166785717,-0.00029422733248551355,0.9723798301559927,0.02986668872144325,right,0.0034897923469543457,-0.4536665862277581,1.1587874660357833,-8.738170289137958,-0.22533806321743974,-0.001691923476755619,0.007063485682010651,4.297903530147671,-0.002523094415664673
1746576287114731300,11.087731201171875,0.13179135959213,-0.014236906543374062,0.060850889196196946,-0.00026669399812817574,-0.0005504471553560376,0.9723168950253229,0.029367733885592003,right,0.0007132291793823242,-0.4542428819353143,1.1580118054881692,-8.735773164868354,-0.22560294391184732,-0.008583847433328629,0.005688376724720001,4.302982733108103,-0.001590430736541748
1746576287154731300,11.127731201171875,0.13173951255012828,-0.007974622771143913,0.0608736584746303,-0.006325139664113522,-0.0008066304084026402,0.9722538317298584,0.028868675232046562,right,-0.002063572406768799,-0.45481913994377887,1.157233003135398,-8.73337370251119,-0.2258677866096783,-0.015475770458579063,0.0043135955929756165,4.3080601825028655,-0.0006576180458068848
1746576287194731500,11.1677314453125,0.13173951255012828,-0.002832252997905016,0.0608736584746303,-0.011355392634868622,-0.0008066304084026402,0.9722538317298584,0.028868675232046562,right,-0.00428164005279541,-0.45481913994377887,1.157233003135398,-8.73337370251119,-0.2258677866096783,-0.006110193207859993,0.003247879445552826,4.3080601825028655,0.002419114112854004
1746576287234731500,11.2077314453125,0.13096471858912057,0.0000238749198615551,0.060517300124919356,-0.009817376732826233,-0.0008485709037492118,0.9722276998018106,0.028632856776235966,right,-0.002356886863708496,-0.4552611702561169,1.1502172791544347,-8.732378846254944,-0.2260757390103303,0.0002928185276687145,0.004528172314167023,4.311953975071012,0.00044479966163635254
1746576287274731500,11.2477314453125,0.13050600391716027,-0.005592441186308861,0.06031279110746557,-0.0043151588179171085,-0.0008835326331696773,0.9722327759151077,0.02845959090136732,right,0.0002556443214416504,-0.45533866316736266,1.1461680037636308,-8.732574076566099,-0.22610836148333002,0.0029412428848445415,0.0034782513976097107,4.312636404377222,-0.0012466907501220703
1746576287314731300,11.287731201171875,0.13050600391716027,-0.011208757758140564,0.06031279110746557,0.0011870590969920158,-0.0008835326331696773,0.9722327759151077,0.02845959090136732,right,0.0028482675552368164,-0.45533866316736266,1.1461680037636308,-8.732574076566099,-0.22610836148333002,0.005589667707681656,0.00201541930437088,4.312636404377222,-0.002868562936782837
1746576287354731300,11.327731201171876,0.13050600391716027,-0.0033578108996152878,0.06031279110746557,-0.003612212371081114,-0.0008835326331696773,0.9722327759151077,0.02845959090136732,right,-0.002674579620361328,-0.45533866316736266,1.1461680037636308,-8.732574076566099,-0.22610836148333002,0.0017229968216270208,-0.0012725666165351868,4.312636404377222,-0.0024507641792297363
1746576287394731300,11.367731201171875,0.12974208848161886,-0.006379712373018265,0.05999696338785853,-0.0038969351444393396,-0.001068652051915799,0.9722163789060048,0.027924902927072302,right,0.0028649568557739258,-0.45568733279470924,1.1393020635168998,-8.73195565240681,-0.22626207087372907,-0.013655825518071651,0.00046353042125701904,4.31570719012469,-0.0014877915382385254
1746576287434731500,11.4077314453125,0.1294620023435082,-0.0009722122922539711,0.05988218859481612,-0.0033218045718967915,-0.001177371801783528,0.9721662584205811,0.027671428791952318,right,-0.00048238039016723633,-0.45620724526669143,1.1365665010731667,-8.730048357480763,-0.22650724794065197,-0.010582027025520802,0.0003803819417953491,4.320284873303771,-0.0018826723098754883
1746576287474731500,11.4477314453125,0.1294620023435082,0.00016491312999278307,0.05988218859481612,-0.005726541392505169,-0.001177371801783528,0.9721662584205811,0.027671428791952318,right,-0.0008094906806945801,-0.45620724526669143,1.1365665010731667,-8.730048357480763,-0.22650724794065197,-0.017362482845783234,0.002497166395187378,4.320284873303771,0.0002836883068084717
1746576287514731500,11.4877314453125,0.12903014446979824,-0.0004837815067730844,0.059646013340116016,-0.010032536461949348,-0.001130970198109038,0.972040067370852,0.027750074476894558,right,-0.0020818710327148438,-0.45744302743650334,1.1321084256857632,-8.725237157806754,-0.22711026819502797,-0.024194687604904175,0.005007907748222351,4.331161072105169,-0.004945576190948486
1746576287554731300,11.527731201171875,0.12849001749677683,0.020812785252928734,0.05930366809852289,-0.03234722092747688,-0.0008336088140489735,0.9719289906523054,0.028312092295321466,right,0.0007765293121337891,-0.4585729163234916,1.1267677222449333,-8.720988268190622,-0.2276761191288349,-0.03559716418385506,0.0027947798371315002,4.341099405534565,-0.015055239200592041
1746576287594731300,11.567731201171876,0.12812496512936605,0.03707120940089226,0.05890852608066624,-0.02732873521745205,-0.000055598243643060756,0.971710320812398,0.029964824583379786,right,0.005039393901824951,-0.4606030043527449,1.122455631199479,-8.712640126562118,-0.22871106225534588,-0.07999494671821594,0.002708427608013153,4.358941936217248,-0.02055719494819641
1746576287634731300,11.607731201171875,0.12802920456236516,0.038265250623226166,0.058514854022334355,-0.035868920385837555,0.001029088383878541,0.9712446603449889,0.03245367595599928,right,0.005126953125,-0.4647104961304074,1.1193258818063885,-8.694916253823042,-0.23077833530093764,-0.14537815749645233,-0.00008540600538253784,4.3949879398494955,-0.016802579164505005
1746576287674731500,11.6477314453125,0.12786216239409948,0.01476457342505455,0.05805719282499183,-0.019924847409129143,0.001968675626235397,0.9704811890935772,0.034802200957207055,right,0.002328157424926758,-0.47136637757706007,1.1141185954868793,-8.665897080087662,-0.23407598097606874,-0.19643820822238922,-0.0016426071524620056,4.453240222331881,-0.004440635442733765
1746576287714731500,11.6877314453125,0.12805290540285386,-0.020155660808086395,0.05804879441087121,0.014299625530838966,0.0016050043244214382,0.9695798923440333,0.03462192587976169,right,0.0002015829086303711,-0.47903137137244955,1.1113797451075165,-8.631575708290933,-0.23778655639626328,-0.17282429337501526,-0.002005264163017273,4.520079423634708,0.0022970736026763916
1746576287754731500,11.7277314453125,0.12824290086684176,-0.05507589131593704,0.058039556906741535,0.048524096608161926,0.0012413389834486147,0.9686642938348233,0.03444265581548061,right,-0.0019764304161071777,-0.48669642374346156,1.1085559929236768,-8.596749309581517,-0.24149365677307777,-0.1492103785276413,-0.002359248697757721,4.586653544260561,0.009061753749847412
1746576287794731300,11.767731201171875,0.1293493241989674,-0.04941529035568237,0.0586814318863179,0.05344390869140625,0.00018022245456893288,0.9680073715382392,0.032885219403321723,right,-0.013096809387207031,-0.491892948541962,1.1149774773385375,-8.571765674972534,-0.24396322796536243,-0.08859726786613464,0.0017478391528129578,4.631634549498558,0.016610831022262573
1746576287834731300,11.807731201171874,0.1304550959689524,-0.03327833116054535,0.059346463748423776,0.0319242998957634,-0.0007497701627582556,0.9676181602103334,0.03144581917257248,right,-0.01307833194732666,-0.49483059180668315,1.1226804529312997,-8.55700006751716,-0.24534139480550965,-0.04337412491440773,0.005745775997638702,4.657007475686073,0.014978289604187012
1746576287874731300,11.847731201171875,0.13067692793498215,-0.016150299459695816,0.05956759234289127,0.005425784736871719,-0.0013331252018982103,0.9674721107883567,0.030375285293944388,right,-0.005961894989013672,-0.4959711863348871,1.1238857370678335,-8.55147925826907,-0.24586094693331234,-0.007558759301900864,0.006373010575771332,4.666848193959892,0.007303088903427124
1746576287914731500,11.8877314453125,0.13067692793498215,0.009903784841299057,0.05956759234289127,-0.018480222672224045,-0.0013331252018982103,0.9674721107883567,0.030375285293944388,right,0.00015091896057128906,-0.4959711863348871,1.1238857370678335,-8.55147925826907,-0.24586094693331234,0.01114443875849247,0.0028763338923454285,4.666848193959892,0.002021104097366333
1746576287954731500,11.9277314453125,0.13005243944872255,0.019623897969722748,0.05922241812178723,-0.011801036074757576,-0.0010232146039997239,0.9675732346484688,0.030810590232624613,right,0.006636977195739746,-0.4952950758301451,1.1189541258845477,-8.55530553855896,-0.24554735320408042,0.009751595556735992,0.0010001137852668762,4.661015542283654,0.0016543865203857422
1746576287994731500,11.9677314453125,0.1296473862495653,0.009081006050109863,0.05898535292055779,-0.016576573252677917,-0.000815510753204372,0.967580330876912,0.031140018809077255,right,0.00533294677734375,-0.49533726650554155,1.1154632880941033,-8.55556331271231,-0.24557764697949422,0.00011955108493566513,0.0005422607064247131,4.6613796994209284,0.0018488168716430664
1746576288034731300,12.007731201171875,0.1292422756359222,-0.0014618858695030212,0.058748274005644106,-0.02135210856795311,-0.0006078582364917659,0.9675872184187833,0.03146931438920909,right,0.004028677940368652,-0.4953794675927602,1.1119719388470053,-8.555819917821884,-0.24560789269310895,-0.009512493386864662,0.00008447468280792236,4.6617438565582034,0.0020432472229003906
1746576288074731300,12.047731201171874,0.12857838589815396,0.0028559728525578976,0.058408665493338646,-0.011450718156993389,-0.0004955104140661814,0.9675526365121631,0.03156332009628058,right,0.0006235241889953613,-0.49582278701783317,1.106026401380822,-8.55450532809198,-0.24582519600043054,-0.010867532342672348,0.0007522180676460266,4.665568091021478,0.0023814141750335693
1746576288114731300,12.087731201171875,0.12857838589815396,0.007822386920452118,0.058408665493338646,0.00203018169850111,-0.0004955104140661814,0.9675526365121631,0.03156332009628058,right,-0.00786590576171875,-0.49582278701783317,1.106026401380822,-8.55450532809198,-0.24582519600043054,-0.007058866322040558,-0.00009622424840927124,4.665568091021478,0.00646856427192688
1746576288154731300,12.127731201171875,0.1288178873353448,0.007511042524129152,0.05846812645840599,0.002986213658004999,-0.000329982042381073,0.9675109143386407,0.03198589355389169,right,-0.005472779273986816,-0.4961082438005237,1.107904104886204,-8.552918935683369,-0.2459755157813958,0.007697305642068386,0.002297140657901764,4.668030389481783,0.006318181753158569
1746576288194731500,12.1677314453125,0.12913546657019714,0.004162363708019257,0.05860398121652382,0.005136189982295036,-0.00023484559999105664,0.9675841582073683,0.03221680361141373,right,-0.00392681360244751,-0.4954316885470568,1.111026693886146,-8.55569716822505,-0.24565509346348358,0.026829902082681656,0.0020195692777633667,4.662194230674207,0.0034521520137786865
1746576288234731500,12.2077314453125,0.12925469503548273,0.004845371935516596,0.05867120655078731,-0.00021831411868333817,-0.00018024641898404812,0.9677171863854998,0.032282735945398516,right,-0.001270592212677002,-0.49430931637872577,1.1127205652572214,-8.560748021873831,-0.2451142824386885,0.029658125713467598,0.0018357262015342712,4.652508118440211,-0.002437680959701538
1746576288274731500,12.2477314453125,0.12924313312982058,0.006411882117390633,0.05865649882726306,-0.0018379249377176166,-0.00002807867996942391,0.96786344584957,0.03251160404586852,right,0.0014350414276123047,-0.49310731396426905,1.1133415466997771,-8.566300395303964,-0.2445396636110313,0.027937887236475945,0.0014678984880447388,4.642128178723156,-0.0024692118167877197
1746576288314731300,12.287731201171875,0.12941474987538865,0.005450827535241842,0.05872005658786004,0.00601896271109581,0.00011282542988555542,0.9679654382629675,0.03278526425039499,right,0.002230405807495117,-0.49222399335500727,1.1153403923667966,-8.570172268301247,-0.24412042859480404,0.0221395343542099,0.0015274658799171448,4.634495784148574,-0.002726256847381592
1746576288354731300,12.327731201171876,0.12958598270728636,0.004489772487431765,0.05878359698631113,0.013875852338969707,0.0002537184665463022,0.9680671780378399,0.03305859026471424,right,0.0030251145362854004,-0.49134053122523086,1.1173365346200763,-8.574037711557745,-0.24370110844296763,0.016341183334589005,0.0015873238444328308,4.626858713398874,-0.0029827654361724854
1746576288394731300,12.367731201171875,0.13011440838483465,0.007492017932236195,0.059026647745815654,0.008294493891298771,0.00029708269088740994,0.9681229052435715,0.03324027960366,right,-0.00399017333984375,-0.49074990762942733,1.1222214571174234,-8.5761542653203,-0.24342079552011903,0.007862957194447517,-0.0010325759649276733,4.6217511611267925,-0.0009810328483581543
1746576288434731500,12.4077314453125,0.13045952965792337,0.007120119407773018,0.05915660519973313,0.008156760595738888,0.00043325571118552785,0.9681506444164033,0.03358651357980859,right,-0.002066195011138916,-0.49043549905193784,1.1253702034719288,-8.577206989243626,-0.24327895728003213,0.007159801200032234,0.0010074079036712646,4.619031673035026,0.001608341932296753
1746576288474731500,12.4477314453125,0.13092080281895874,-0.0011299867182970047,0.05938238509659867,0.017294786870479584,0.00041752830008475714,0.968198963226834,0.03363404677300311,right,-0.0021160244941711426,-0.4899209125315234,1.1296367018099873,-8.579042387977243,-0.2430315001120285,0.01376690436154604,0.002981044352054596,4.614579369801283,0.0023927688598632812
1746576288514731500,12.4877314453125,0.13150213390973808,-0.008330902084708214,0.059709805800072874,0.019948065280914307,0.0002286616713937551,0.9682616629192138,0.03334327344660668,right,-0.00110626220703125,-0.48925574653288484,1.1350259205676614,-8.581424899199604,-0.24270112268550378,0.020875660702586174,0.003438621759414673,4.608822705970704,0.0016007721424102783
1746576288554731300,12.527731201171875,0.13192548388355865,-0.005622665397822857,0.059978725121668935,0.01675105281174183,0.000030042770751505782,0.9683819538628575,0.03296152914123937,right,-0.000877678394317627,-0.4881496810736516,1.1393286592628806,-8.585991768723726,-0.24215449712918247,0.022474979981780052,0.003353431820869446,4.599245607069134,0.00018656253814697266
1746576288594731300,12.567731201171876,0.1323490513449644,-0.0029144284781068563,0.06024761336743527,0.013554041273891926,-0.0001685543243258471,0.9685017797903395,0.03257951837161815,right,-0.0006504058837890625,-0.48704365979676745,1.1436358549375087,-8.590545194244385,-0.24160773837545277,0.02407429926097393,0.0032678022980690002,4.589663247470558,-0.0012271404266357422
1746576288634731300,12.607731201171875,0.13277288413401142,-0.0002061915583908558,0.060516488822283665,0.010357029736042023,-0.0003671661836621307,0.968621268866454,0.0321971814481467,right,-0.0004245638847351074,-0.485937898105153,1.1479478729177266,-8.59508517576158,-0.24106091050671302,0.02567361667752266,0.003181673586368561,4.580077380740642,-0.002640455961227417
1746576288674731500,12.6477314453125,0.13322289102482132,0.0039871507324278355,0.060766014210904676,0.00829477421939373,-0.0004536877989405065,0.968723399748975,0.03206197845651141,right,-0.0019809603691101074,-0.484967893493603,1.152405217652768,-8.59896698563099,-0.2405871572364133,0.01724175736308098,0.0013411492109298706,4.571664064921438,-0.0027187764644622803
1746576288714731500,12.6877314453125,0.1337444186017102,0.004864114336669445,0.061025135881986,0.018249453976750374,-0.0004838974332406304,0.9687791454752143,0.03208655478154343,right,-0.001064002513885498,-0.48436760743128443,1.1572554341629147,-8.601083539393544,-0.2402971548059568,0.008058616891503334,0.002904750406742096,4.566455098101496,-0.0000597834587097168
1746576288754731500,12.7277314453125,0.1337444186017102,0.0018733581528067589,0.061025135881986,0.008102473802864552,-0.0004838974332406304,0.9687791454752143,0.03208655478154343,right,-0.00436478853225708,-0.48436760743128443,1.1572554341629147,-8.601083539393544,-0.2402971548059568,0.006169809959828854,0.002519048750400543,4.566455098101496,0.0011027157306671143
1746576288794731300,12.767731201171875,0.1337444186017102,-0.014158411882817745,0.061025135881986,0.002167006488889456,-0.0004838974332406304,0.9687791454752143,0.03208655478154343,right,-0.0007238984107971191,-0.48436760743128443,1.1572554341629147,-8.601083539393544,-0.2402971548059568,0.012312941253185272,0.00485306978225708,4.566455098101496,-0.00023671984672546387
1746576288834731300,12.807731201171874,0.1333225725035438,-0.01904374547302723,0.0609460692887803,-0.008463747799396515,-0.0008745788557923436,0.9688699703495218,0.03112892295612792,right,0.0031887292861938477,-0.48370927228030436,1.1540263160485773,-8.604548000633716,-0.2399493775644527,0.00883486308157444,0.001578591763973236,4.5607408121079205,-0.0025366544723510742
1746576288874731300,12.847731201171875,0.13267368926555614,-0.017354577779769897,0.06074771099592362,0.010228054597973824,-0.0012377940051429366,0.9689233102837348,0.030198409275607716,right,0.005869925022125244,-0.48342337125214724,1.14861517772004,-8.606587397506832,-0.23978295567462868,0.003674470353871584,0.004431299865245819,4.558258639903366,-0.005894750356674194
1746576288914731500,12.8877314453125,0.13283372737243904,-0.0015019010752439499,0.060795893246556265,0.006723527330905199,-0.0011905560032969109,0.968853740134444,0.030373758441687708,right,0.00402146577835083,-0.48396769020544317,1.1496637369249016,-8.60394302047789,-0.24005175987110733,-0.008227447047829628,0.004350751638412476,4.562984207120538,-0.0020819008350372314
1746576288954731500,12.9277314453125,0.13283372737243904,0.0143507719039917,0.060795893246556265,0.0032190007623285055,-0.0011905560032969109,0.968853740134444,0.030373758441687708,right,0.0024427175521850586,-0.48396769020544317,1.1496637369249016,-8.60394302047789,-0.24005175987110733,-0.020129363983869553,0.004377119243144989,4.562984207120538,0.0022127926349639893
1746576288994731500,12.9677314453125,0.1334179657652068,0.01661747321486473,0.06095510814198657,0.002531095640733838,-0.00083702363352413,0.9687431123558513,0.03130363788586687,right,-0.003835141658782959,-0.48475050704626443,1.1542148243580013,-8.59972686408758,-0.2404587847389551,-0.005077472887933254,0.0025549158453941345,4.569777812783419,0.0055051445960998535
1746576289034731300,13.007731201171875,0.13369750836966335,0.015175366774201393,0.061013653895415784,-0.008472409099340439,-0.0005387744527067426,0.9687620180200474,0.03197264035747876,right,-0.008852124214172363,-0.48452294915569044,1.1567573484476654,-8.600434135574101,-0.2403689025917165,0.011490597389638424,0.0030560344457626343,4.567803297840059,0.005979478359222412
1746576289074731300,13.047731201171874,0.13323329491756214,0.005890434607863426,0.0607560999607684,-0.01592755690217018,-0.00030304816070195477,0.9688347950959427,0.03230934496642482,right,-0.005366325378417969,-0.4840311682968427,1.1530630239743738,-8.603196001502871,-0.2401411561351947,0.008320022374391556,0.003819495439529419,4.563535119001567,0.004863142967224121
1746576289114731300,13.087731201171875,0.13248674233479152,0.004950324073433876,0.060382926886474085,-0.01965000294148922,-0.00012602293248916699,0.9689071497513999,0.032460329102417834,right,-0.00029146671295166016,-0.48361302408834944,1.1468919341240078,-8.605945007950067,-0.23994335753809798,0.012257936410605907,0.0010014846920967102,4.559905238066613,0.0010257363319396973
1746576289154731300,13.127731201171875,0.1320699378260879,0.0020769238471984863,0.060198161705759444,-0.0027147866785526276,-0.0000785847424198504,0.9690009622859755,0.03240707985298895,right,0.0021874308586120605,-0.4829290318232952,1.1437152768492698,-8.609511760520935,-0.2396105804271498,0.018241774290800095,0.0011203959584236145,4.553965618884563,-0.0008654892444610596
1746576289194731500,13.1677314453125,0.13196075291564,0.0006180184427648783,0.0601578934130106,-0.0014521675184369087,-0.000046969879836998075,0.9690889293267536,0.0323953356899964,right,0.002217531204223633,-0.48221522850758536,1.1432026511520146,-8.61285697929561,-0.23926456700317836,0.014943113550543785,0.0017640367150306702,4.547765010678768,0.0004290938377380371
1746576289234731500,13.2077314453125,0.13185166009167915,-0.0008408869616687298,0.06011762054903395,-0.00018954824190586805,-0.000015314756365564503,0.9691768524155784,0.03238377615320791,right,0.002247154712677002,-0.481501495967944,1.1426895139981061,-8.61619752189517,-0.23891853755860729,0.011644452810287476,0.0024077147245407104,4.541562648907304,0.0017238259315490723
1746576289274731500,13.2477314453125,0.13185166009167915,0.003167717717587948,0.06011762054903395,0.002282865345478058,-0.000015314756365564503,0.9691768524155784,0.03238377615320791,right,-0.0010536909103393555,-0.481501495967944,1.1426895139981061,-8.61619752189517,-0.23891853755860729,0.005047506187111139,0.001949608325958252,4.541562648907304,0.00005957484245300293
1746576289314731300,13.287731201171875,0.13185166009167915,0.006241059396415949,0.06011762054903395,0.004140895325690508,-0.000015314756365564503,0.9691768524155784,0.03238377615320791,right,-0.0029505491256713867,-0.481501495967944,1.1426895139981061,-8.61619752189517,-0.23891853755860729,-0.002765288110822439,0.0036927759647369385,4.541562648907304,0.002554595470428467
1746576289354731300,13.327731201171876,0.13185166009167915,0.002063288353383541,0.06011762054903395,-0.00038246577605605125,-0.000015314756365564503,0.9691768524155784,0.03238377615320791,right,-0.0027313828468322754,-0.481501495967944,1.1426895139981061,-8.61619752189517,-0.23891853755860729,-0.0003304029814898968,0.005433306097984314,4.541562648907304,0.002796947956085205
1746576289394731300,13.367731201171875,0.13199706759911317,-0.006464194506406784,0.06017379391284411,-0.0058943722397089005,0.00008480665444120931,0.9692444778163037,0.03258360095174648,right,-0.0012170076370239258,-0.48089311778624655,1.1443057900883258,-8.618768249166012,-0.23862988083525724,0.0117583516985178,0.0036343783140182495,4.536273894849419,0.0015389025211334229
1746576289434731500,13.4077314453125,0.13166042569959574,-0.00485967006534338,0.06005773365489361,-0.005405723582953215,0.000010390225300698286,0.9693475124946531,0.03229219970045016,right,0.003591179847717285,-0.4801063125219047,1.1418724985267967,-8.62268863748014,-0.2382400087028553,0.022713687270879745,0.0031763091683387756,4.529431773869693,-0.0012705326080322266
1746576289474731500,13.4477314453125,0.13151913026937254,-0.0023665432818233967,0.06003334670481353,0.0006403569132089615,-0.00006573391278959066,0.9694568235570807,0.03203831553112891,right,0.0006315708160400391,-0.47921620426899125,1.1411823973707853,-8.626843419072031,-0.23780116209287985,0.01774505525827408,0.0017410293221473694,4.5216880278751255,-0.0006781518459320068
1746576289514731500,13.4877314453125,0.13142348379812405,0.00021360116079449654,0.059995025233190724,-0.0032057366333901882,-0.00003824360847118737,0.9695190261813317,0.03203648603194102,right,-0.00008064508438110352,-0.4787129469133171,1.1406553778219968,-8.629207225593923,-0.23755727455673004,0.012117091566324234,0.00201290100812912,4.517307913094759,0.0002084970474243164
1746576289554731300,13.527731201171875,0.13142348379812405,0.002793745370581746,0.059995025233190724,-0.007051830179989338,-0.00003824360847118737,0.9695190261813317,0.03203648603194102,right,-0.0010339021682739258,-0.4787129469133171,1.1406553778219968,-8.629207225593923,-0.23755727455673004,0.00648912787437439,0.002231016755104065,4.517307913094759,0.0006485283374786377
1746576289594731300,13.567731201171876,0.13117303855666845,0.0005115119274705648,0.05987991532729847,-0.003279336728155613,0.000026479620629952373,0.9696000577255821,0.03206517155849284,right,-0.0005515813827514648,-0.47808824827666685,1.1388630875777452,-8.632288824996351,-0.23725544680893024,0.005183007102459669,0.0019626393914222717,4.511869521433114,0.0006230771541595459
1746576289634731300,13.607731201171875,0.13117303855666845,-0.00045958004193380475,0.05987991532729847,-0.0051134671084582806,0.000026479620629952373,0.9696000577255821,0.03206517155849284,right,-0.0015178918838500977,-0.47808824827666685,1.1388630875777452,-8.632288824996351,-0.23725544680893024,0.007135042455047369,0.0018221139907836914,4.511869521433114,-0.0006667077541351318
