time,seconds_elapsed,roll,rotationRateZ,quaternionY,rotationRateY,quaternionZ,quaternionW,yaw,devicelocation,accelerationZ,pitch,gravityX,gravityZ,quaternionX,rotationRateX,accelerationX,gravityY,accelerationY
1746739241688665600,0.49666552734375,0.24556640556538942,0.018484439700841904,0.12240089894353537,-0.010123789310455322,-1.0454310364990672e-17,0.9922757086901631,-0.004942403384789236,right,0.0773627758026123,0.04004533551537302,2.3821428274415433,-9.504822185388207,0.020173139907942884,-0.007994404062628746,-0.05421547591686249,-0.39260578111317007,0.4609251618385315
1746739241728665600,0.53666552734375,0.21476263499632234,0.06189601868391037,0.10059557191301934,-0.020067278295755386,0.01167972479628106,0.9803278077460946,0.06039908538471469,right,0.03258252143859863,-0.33610822849461985,1.9730078997991978,-9.04524009605646,-0.16941549793338123,-0.016426023095846176,-0.009313270449638367,3.2343858256071805,0.08808186650276184
1746739241768665600,0.57666552734375,0.21131926974993445,0.05103606358170509,0.09645059105781222,-0.021018126979470253,0.014344893594202466,0.9754851409571907,0.07152693609769328,right,0.01765894889831543,-0.39209456810291027,1.9008457499079405,-8.860836883863806,-0.19728235495801527,-0.0040454985573887825,-0.0008429735898971558,3.7473645740836856,0.04127049446105957
1746739241808665600,0.61666552734375,0.2088604568404238,0.017547037452459335,0.09402675433706588,-0.02124617248773575,0.015865164303993397,0.9732155010187552,0.07684435099704295,right,0.010061919689178467,-0.416085842437155,1.8598726651370525,-8.774991076534986,-0.20918638473269252,0.005332251079380512,0.0014799237251281738,3.9636844350188967,0.018972069025039673
1746739241848665600,0.65666552734375,0.20928313017098113,-0.008503787219524384,0.09359359162961109,-0.005549991503357887,0.01626115861917851,0.9718539816586679,0.07921571204358942,right,0.002220630645751953,-0.4290258762810423,1.852769847394526,-8.723299467742443,-0.21558230355149668,0.003364577190950513,0.000752374529838562,4.079420645959675,0.0040292441844940186
1746739241888665300,0.696665283203125,0.20968632223370393,-0.005844945088028908,0.09370116867977228,-0.0034252654295414686,0.016186634240018545,0.9716016278815247,0.07940552593479902,right,0.003264486789703369,-0.43125581236466176,1.854388680768013,-8.713632644730806,-0.2166759322178226,0.001000837655737996,-0.000622183084487915,4.0992967282965775,-0.0009629726409912109
1746739241928665600,0.73666552734375,0.21009037144713996,-0.003186103655025363,0.09380862379716942,-0.0013005395885556936,0.016112077543189312,0.9713480055528196,0.07959648900416107,right,0.004303872585296631,-0.43348559238188406,1.8559984540522096,-8.703921398055552,-0.21776924901090514,-0.001362901646643877,-0.0019958019256591797,4.119151183323562,-0.005953013896942139
1746739241968665600,0.77666552734375,0.21090847691074296,0.01645197533071041,0.09406777309661184,0.001769356895238161,0.01656159501593956,0.9712580484320708,0.08075148672229593,right,-0.0047397613525390625,-0.43388664739619365,1.8627724782317876,-8.700783684551716,-0.21802460205077673,-0.011184286326169968,-0.0011795461177825928,4.122719981721043,0.00019088387489318848
1746739242008665600,0.81666552734375,0.21074349895928546,0.019980184733867645,0.09391767385276507,-0.0028655342757701874,0.017006265295019904,0.9713210298757926,0.08156224353604377,right,-0.006459295749664307,-0.4332947024596588,1.8618471800804137,-8.703475992375612,-0.21777438708068816,-0.014173191040754318,-0.00021323561668395996,4.117452270451188,-0.0002396106719970703
1746739242048665600,0.85666552734375,0.21077337242913263,0.024684913456439972,0.09380844375031469,-0.004101134836673737,0.017538526237886005,0.9713012456140401,0.08267448302043055,right,-0.0028114914894104004,-0.4333781712599128,1.8620352499984203,-8.703084362709522,-0.2178673122806897,-0.01604902371764183,0.00018832087516784668,4.118195197772979,0.0010936856269836426
1746739242088665600,0.89666552734375,0.21092517492123633,0.023373130708932877,0.09378363802870789,-0.00490938127040863,0.017950849838260008,0.9712807479705209,0.0835636028794851,right,-0.001961052417755127,-0.4334307873698179,1.8633109690226612,-8.702589857190848,-0.21793585637917048,-0.007661483250558376,0.0009179264307022095,4.118663399806619,-0.00006860494613647461
1746739242128665300,0.936665283203125,0.2110682257452447,0.02273736521601677,0.09374208328215249,-0.005849216599017382,0.018441406018045576,0.9712707108662,0.08459919029675561,right,-0.0028960108757019043,-0.43337309866823925,1.864605685008317,-8.702555370399356,-0.21795773471941898,-0.004661724902689457,0.0008781254291534424,4.1181498973265285,-0.0014134347438812256
1746739242168665600,0.97666552734375,0.211078586900496,0.0289596039801836,0.09360852177981413,-0.02320253476500511,0.019131287517859846,0.9712958457026035,0.08597958882913488,right,-0.0033551454544067383,-0.4330043560825148,1.8650139735482631,-8.70402018225491,-0.2178437592891185,0.004182186909019947,-0.0007625222206115723,4.114867806915939,-0.00022673606872558594
1746739242208665600,1.01666552734375,0.21088932053256504,0.026077790185809135,0.09341100284282941,-0.018648255616426468,0.019697171653979002,0.9713328878938132,0.08705955393110468,right,0.0023709535598754883,-0.43263312788831626,1.8636860859453677,-8.70586610238254,-0.2177125102820944,0.0009312236215919256,-0.0013214945793151855,4.111562920151651,0.0038647055625915527
1746739242248665600,1.05666552734375,0.2102999823605368,0.01029285229742527,0.09304580987604552,0.000019283965229988098,0.020146834501045836,0.9713698351238501,0.08783432453899483,right,0.0031647682189941406,-0.4324681289291198,1.858696607095003,-8.707626097792387,-0.21766278757671662,0.004764513112604618,0.00258636474609375,4.1100940166428686,0.001793205738067627
1746739242288665600,1.09666552734375,0.21040200098728176,0.000622553750872612,0.09308926560631864,0.008588051423430443,0.02016374390106231,0.9713650546492859,0.08789150838982515,right,0.0015769600868225098,-0.4324639003981732,1.8595887336291372,-8.70745366383493,-0.21766440436833645,0.0018443982116878033,0.0028586387634277344,4.110056314980984,0.003763526678085327
1746739242328665600,1.13666552734375,0.21058975353381348,-0.008296498097479343,0.09318521855026574,-0.0009638434275984764,0.02005000128825604,0.9713204708829253,0.08774062338731936,right,0.0005287528038024902,-0.4328218088058894,1.8609158905796706,-8.705665611374378,-0.21783273753801566,0.001012624939903617,0.0012613236904144287,4.11324283606261,0.002432584762573242
1746739242368665300,1.176665283203125,0.21016730710840123,-0.004330037627369165,0.09302963519446668,-0.015447457320988178,0.019864564284966087,0.9713394988255453,0.0872699855835293,right,0.0007265210151672363,-0.43287328039395834,1.8571939474470913,-8.706243703523278,-0.21783155033060417,0.010218697600066662,0.0009409189224243164,4.113701101224124,-0.0008227825164794922
1746739242408665600,1.21666552734375,0.20987930842923153,0.006076833698898554,0.09288024154193245,-0.00323315616697073,0.01994088088131482,0.9713532428699596,0.08736111253419968,right,-0.0016555190086364746,-0.4328608749216378,1.8546970160648226,-8.706828225412965,-0.2178269136441128,-0.003215305507183075,0.0003066509962081909,4.113590626586974,-0.0003558993339538574
1746739242448665600,1.25666552734375,0.20984934144734552,0.009705564007163048,0.09279220727689229,-0.013494816608726978,0.020204138053955066,0.9713136744940621,0.08793509244854142,right,0.001576542854309082,-0.433197387364057,1.8541475654885171,-8.70552941777408,-0.21801636610314712,-0.010722259059548378,-0.0007477849721908569,4.116586009010672,-0.002219289541244507
1746739242488665600,1.29666552734375,0.20992628122100637,0.0075074899941682816,0.09278819935964155,-0.00660881819203496,0.020359957621258695,0.9712961729954555,0.08828467802522175,right,0.0007823705673217773,-0.4332971987798239,1.8547317951172588,-8.704984643372892,-0.21808172993152572,-0.012820972129702568,-0.0017495453357696533,4.117474482282996,-0.001685112714767456
1746739242528665600,1.33666552734375,0.20988342575260927,-0.008606918156147003,0.09272585388835612,-0.0037367045879364014,0.02043682956149473,0.9712374505037283,0.08849765161555913,right,-0.003893911838531494,-0.43385658851463293,1.8538785392887889,-8.702810221943258,-0.2183622785655644,-0.02055760845541954,-0.0014516711235046387,4.122452562956512,0.0020315051078796387
1746739242568665600,1.37666552734375,0.2098012243262246,-0.012267474085092545,0.09269617214064683,0.0033393995836377144,0.02026254624994463,0.9711725576857739,0.08819896527776543,right,-0.0018460750579833984,-0.4345413752857477,1.852574763213843,-8.70019916266203,-0.21867945178080753,-0.02195616438984871,-0.001270577311515808,4.128545034612715,0.000853419303894043
1746739242608665300,1.416665283203125,0.20976833258149993,-0.0038474807515740395,0.0926732147764639,0.0012561806943267584,0.02012001260602482,0.9710834485420519,0.0879994142625787,right,-0.002097904682159424,-0.43542389784531843,1.851529199683666,-8.696693200367688,-0.21909752292066922,-0.016750162467360497,-0.0009286999702453613,4.136393410025537,0.0015811920166015625
1746739242648665600,1.45666552734375,0.20988560522450858,0.004405077546834946,0.09269425274265554,-0.000801347428932786,0.020148937257310633,0.9710150990627051,0.0881526373830838,right,-0.0037123560905456543,-0.4360083460597081,1.8520450402513144,-8.694110198137164,-0.21938897118337572,-0.014801197685301304,-0.0006325244903564453,4.141589517363905,0.001174330711364746
1746739242688665600,1.49666552734375,0.20985540030399552,0.005153970792889595,0.09262437642370597,-0.00289925467222929,0.020317560924355237,0.9709711487046427,0.08853836458344126,right,0.0007786750793457031,-0.4364016493559993,1.8514429827049375,-8.692572321045398,-0.2195971034754623,-0.016225505620241165,0.000845000147819519,4.1450852505251765,0.0037802457809448242
1746739242728665600,1.53666552734375,0.20984897795724158,-0.0022566746920347214,0.09256336813872268,-0.004853843245655298,0.020440173365785866,0.9708979545435089,0.08886608470607937,right,-0.001083672046661377,-0.4370675646452904,1.850811699064076,-8.68988235130906,-0.21993482030034875,-0.015078236348927021,0.0026099085807800293,4.151002657875418,0.0029642581939697266
1746739242768665600,1.57666552734375,0.2096587954396292,0.0012392697390168905,0.09245848394784743,-0.00977046974003315,0.020462928860134594,0.9708783268420519,0.08890052162509755,right,-0.001116931438446045,-0.4373341012248639,1.8489288079269228,-8.689151698946953,-0.22006358002795834,-0.012056422419846058,0.0022923052310943604,4.153370848311484,0.0006071925163269043
1746739242808665600,1.61666552734375,0.2094686060214965,0.00473521463572979,0.09235359975697192,-0.014687095768749714,0.02048566972322528,0.9708587019638721,0.08893488123088628,right,-0.0011503100395202637,-0.4376006747581335,1.84704591678977,-8.688419877541065,-0.2201923397555672,-0.009034608490765095,0.0019747018814086914,4.155738746486604,-0.0017498433589935303
1746739242848665600,1.65666552734375,0.20847562254047472,-0.005513163283467293,0.0918047149668393,-0.031437985599040985,0.020788391335082822,0.9708463019175747,0.08939102573076395,right,-0.0036286115646362305,-0.43810523848345473,1.8379831971511245,-8.688197174701093,-0.22044753979499646,-0.01006990671157837,-0.0035526156425476074,4.160219983553886,0.0024269521236419678
1746739242888665300,1.696665283203125,0.20785864708141089,-0.00239449180662632,0.09151728282569752,-0.009539933875203133,0.020789725925298694,0.970868869147455,0.08926137518649738,right,-0.0036415457725524902,-0.4381726397421568,1.8325646792337298,-8.689055252835153,-0.22046781993647985,-0.008302055299282074,-0.0006167739629745483,4.160818533968925,0.0034247934818267822
1746739242928665600,1.73666552734375,0.20723130986858873,-0.010630990378558636,0.09124812779669335,-0.011533435434103012,0.020643050661989952,0.9708699764202754,0.08885098106673779,right,-0.00024175643920898438,-0.43847323514585307,1.8268559461981058,-8.688978680467605,-0.2205881920233905,-0.0022587310522794724,-0.0017194896936416626,4.163487753178179,-0.004231303930282593
1746739242968665600,1.77666552734375,0.20670426225914337,-0.006950496695935726,0.09101892356081791,-0.010671583004295826,0.020550062260986008,0.9708789961259447,0.08855897815382692,right,0.0014691352844238281,-0.43864324465726107,1.8221308173723518,-8.689247560536861,-0.2206518204431626,-0.0020601225551217794,-0.0016489624977111816,4.1649972809582945,-0.0053217411041259766
1746739243008665600,1.81666552734375,0.2065067593091373,0.0007804781198501587,0.09091793332396973,-0.001919155940413475,0.020556514065714227,0.97086791708999,0.08854895945839193,right,-0.0002576112747192383,-0.43883353815013953,1.820252164018899,-8.688831380951404,-0.2207415247936277,-0.005600501783192158,-0.0019790083169937134,4.166686549219489,-0.0012267529964447021
1746739243048665600,1.85666552734375,0.2065709495031637,0.0058974591083824635,0.09092697768823603,0.004405307117849588,0.02061841521485219,0.9708483237913216,0.08870718925916432,right,0.0025661587715148926,-0.4389756245934138,1.8206883634790778,-8.688134630858897,-0.22081820931747076,-0.005698415916413069,-0.0019327104091644287,4.167947947457432,-0.0036098062992095947
1746739243088665600,1.89666552734375,0.20690933482842108,0.006029992830008268,0.09104838389157652,0.008785514160990715,0.020704960060691478,0.9707956870534905,0.0889991783872404,right,-0.0006136894226074219,-0.43929885775714494,1.8233512990780174,-8.686199278882146,-0.22099156024169497,-0.014485374093055725,-0.00211198627948761,4.170817073152959,-0.0004177987575531006
1746739243128665300,1.936665283203125,0.20749026242601748,-0.0071328808553516865,0.09128395194694428,0.01696266606450081,0.020666170260171424,0.9706728401550471,0.08915326664901922,right,0.000032067298889160156,-0.440191727536182,1.827629268658161,-8.68149095506072,-0.2214370716094107,-0.024603230878710747,-0.0006590932607650757,4.178739975106716,0.0021488964557647705
1746739243168665600,1.97666552734375,0.20824477850192585,-0.015519367530941963,0.09165932586007247,0.021182361990213394,0.020297765609972655,0.9705125239648119,0.08870643352213982,right,-0.0004925131797790527,-0.441417504765391,1.8331186598546803,-8.675091609412432,-0.22201799301385264,-0.01485761720687151,-0.00039412081241607666,4.189611789993942,0.0010682344436645508
1746739243208665600,2.01666552734375,0.20899725052206533,-0.01118636317551136,0.09208322718931956,0.015148879960179329,0.01984074147877857,0.9704224848343361,0.08800396859715659,right,-0.0012668967247009277,-0.44200399844114546,1.839135728187114,-8.671304492089153,-0.2222772736819526,-0.0005385689437389374,0.0014477819204330444,4.194811112202704,0.0007780492305755615
1746739243248665600,2.05666552734375,0.20947822880109027,-0.002850051037967205,0.09234192478159417,0.014131879433989525,0.019658549444025935,0.9703930517515976,0.08774915765529874,right,-0.0030731558799743652,-0.44209552991789614,1.843226358501613,-8.670043093851207,-0.22231459637114634,-0.00261985557153821,0.0005490779876708984,4.1956224285855885,0.00015679001808166504
1746739243288665600,2.09666552734375,0.21000157609159392,-0.0020078332163393497,0.0926033992167726,0.009625053964555264,0.019530573459980397,0.9703503646364735,0.0876266175992944,right,0.0013582110404968262,-0.44228081292169946,1.8476015048459171,-8.668317000710964,-0.2224037499146314,-0.003713390324264765,0.002004072070121765,4.197264935095608,-0.002191901206970215
1746739243328665600,2.13666552734375,0.21041146638805108,0.005579122342169285,0.09278938276472139,0.005880211479961872,0.019519415601323954,0.9703188875752702,0.0877101932900918,right,-0.003286600112915039,-0.4423902746601705,1.851058513431996,-8.66710996300876,-0.22246461744528498,-0.003982800059020519,0.0007203072309494019,4.1982349491715425,-0.0011972486972808838
1746739243368665300,2.176665283203125,0.2106031202819579,0.008200356736779213,0.09281960593102367,-0.000026128720492124557,0.01969578501991175,0.9702648225933717,0.08816168689731359,right,0.00009143352508544922,-0.4427713978431312,1.8523849397301673,-8.665189224079251,-0.22267197205672246,-0.014644862152636051,0.0011186152696609497,4.201612316650152,-0.0025037825107574463
1746739243408665600,2.21666552734375,0.21065624506016972,-0.019540833309292793,0.09280413234484375,-0.019022159278392792,0.019759520285925532,0.9702014111867218,0.08836894615312701,right,-0.007142782211303711,-0.44332258158099613,1.8523606820717453,-8.662824833035469,-0.22294893871638985,-0.023745698854327202,-0.0068094730377197266,4.206495704777539,0.005524307489395142
1746739243448665600,2.25666552734375,0.21012946398396168,-0.016598854213953018,0.09261325415269793,-0.0023529138416051865,0.019447003005152945,0.9701844387325826,0.08765579242784248,right,-0.012029588222503662,-0.4437748326175278,1.8473999909244476,-8.661938113328814,-0.22312963986225973,-0.01653110422194004,-0.0030800849199295044,4.2105017255485055,0.006326198577880859
1746739243488665600,2.29666552734375,0.2102493962792353,0.004462992772459984,0.09266088843343206,0.015184029936790466,0.01933419753354009,0.9701016126111378,0.08753523431299266,right,-0.0008435249328613281,-0.44450703240478323,1.8477949815914034,-8.65869927753806,-0.22347963986969924,-0.006884881295263767,-0.0011927783489227295,4.216985534609854,0.0002720057964324951
1746739243528665600,2.33666552734375,0.210425211017507,0.00859283097088337,0.09271830913967068,-0.006091039627790451,0.019443023777312617,0.9700950001693907,0.08779571525511115,right,-0.0007242560386657715,-0.4444690359219121,1.8493506866008043,-8.65853093523383,-0.223475027862389,0.004973325878381729,-0.00028853118419647217,4.216649142262339,0.0005910992622375488
1746739243568665600,2.37666552734375,0.21052723494734757,0.005390943493694067,0.09272374020979117,0.0034781387075781822,0.01964607861591116,0.9700986147373054,0.0882243701412779,right,0.0013543367385864258,-0.4443523447308694,1.8503369211591778,-8.658823196178675,-0.22343941054170072,0.0006861505098640919,-0.000009894371032714844,4.215615707561374,0.00007590651512145996
1746739243608665300,2.416665283203125,0.21091126094103604,0.003793128300458193,0.09289572915685064,0.007257566321641207,0.019681822847438055,0.9700882573284438,0.08837685482185095,right,-0.002192556858062744,-0.4442688480229191,1.8537356236867606,-8.65845670095384,-0.22340984494142702,-0.0010235869558528066,-0.0013783425092697144,4.214876579631865,0.003009796142578125
1746739243648665600,2.45666552734375,0.21117912174267692,0.00374846369959414,0.09300354914175579,0.008734695613384247,0.019728910125698104,0.9700639345278801,0.08854662840431159,right,0.0070514678955078125,-0.4443638137981988,1.8559709815233945,-8.657568227681518,-0.2234663441612622,0.008882096968591213,0.002172037959098816,4.215717414370179,-0.0045996904373168945
1746739243688665600,2.49666552734375,0.21174415739132138,0.006468299776315689,0.09325381908712782,0.008242219686508179,0.01985581161414941,0.9700806048031775,0.08888811664846852,right,-0.004851400852203369,-0.443930685691212,1.861245999316871,-8.658302387174963,-0.22327820918617533,0.0008234074339270592,-0.0013397634029388428,4.211882073991,0.002816826105117798
1746739243728665600,2.53666552734375,0.21196546460362922,-0.007166983559727669,0.09335172924247774,0.0076830629259347916,0.019836968225427624,0.9700512177945344,0.08892056208060797,right,-0.0029302239418029785,-0.44410572852190217,1.8630070176400244,-8.65716958375275,-0.22336663875862586,-0.005607380531728268,-0.00023165345191955566,4.213432226042449,0.0027774572372436523
1746739243768665600,2.57666552734375,0.21237562763008477,-0.01040489599108696,0.09359670834996281,0.015520323999226093,0.019564624614306924,0.9700223047825571,0.08846894867250134,right,-0.0000030994415283203125,-0.44423842313350637,1.8664399146981536,-8.655857916632295,-0.2234137890044041,0.005561988800764084,-0.001766011118888855,4.214607115040719,-0.0007519125938415527
1746739243808665600,2.61666552734375,0.21266226410734207,-0.006182589568197727,0.09380711645433402,0.01351671852171421,0.019319265953026327,0.9700655218205778,0.0879727110091417,right,-0.002694845199584961,-0.443754795190112,1.8693508337087927,-8.657313960659504,-0.2231592460780195,0.01726628467440605,-0.001771196722984314,4.210324323154985,-0.0009314417839050293
1746739243848665600,2.65666552734375,0.2129609243078194,0.0010050898417830467,0.09400032779529764,0.006964570377022028,0.019181361117165036,0.970110586301472,0.08769544359289468,right,-0.002660810947418213,-0.4432262663769096,1.8724064218871295,-8.658928994640707,-0.22289331117922798,0.011984029784798622,-0.0012160837650299072,4.205642595079541,-0.0021786391735076904
1746739243888665300,2.696665283203125,0.213076589055166,-0.001605437370017171,0.0940751564033993,0.005965138785541058,0.019188991230401416,0.9701598019722286,0.08767820029182112,right,0.0018680691719055176,-0.4427159808271797,1.8738614430010319,-8.660808817037939,-0.22264661608248978,0.010171575471758842,0.0017883479595184326,4.201121318262815,0.0031225979328155518
1746739243928665600,2.73666552734375,0.21357328207703685,-0.0006638879422098398,0.09436479480996152,0.013817442581057549,0.01900568514669028,0.9701843677624307,0.08736504432705076,right,-0.003337562084197998,-0.4422946979791513,1.8785380565099417,-8.661605520373582,-0.22243267523965435,0.010894685052335262,-0.0005670934915542603,4.197387976953387,-0.0011508166790008545
1746739243968665600,2.77666552734375,0.2137231917658127,-0.0025714165531098843,0.09446185776515946,-0.0032516084611415863,0.01891072948490908,0.9701938885012102,0.08718733899446565,right,-0.002765357494354248,-0.44215511423565496,1.8799606366589665,-8.661896612274646,-0.22235813273817157,-0.0005129100754857063,0.000006243586540222168,4.1961508363738655,-0.00015145540237426758
1746739244008665600,2.81666552734375,0.21367279525352925,-0.002919087652117014,0.09445538114376237,0.0030991150997579098,0.018853901398020664,0.9702061896569675,0.08704927157190284,right,0.0012153983116149902,-0.44207500863758376,1.8795954566083848,-8.66231980612278,-0.22231234130625188,0.0006598604377359152,-0.00199851393699646,4.195440642277896,0.0021652579307556152
1746739244048665600,2.85666552734375,0.21304560096706157,-0.004734579008072615,0.0942252758027541,0.013116873800754547,0.018637188337234392,0.9702614833684643,0.08643702217097113,right,-0.002581000328063965,-0.4418877522687814,1.8743281837299466,-8.664264510449767,-0.22218692998182146,0.013121915981173515,0.0010999739170074463,4.193780892372131,-0.0026032626628875732
1746739244088665600,2.89666552734375,0.21332004432169713,0.0007858634926378727,0.09437603925653153,0.010507579892873764,0.018545298550745333,0.9702580288602737,0.0863013523374552,right,-0.00014275312423706055,-0.4418096610318006,1.8767752846211194,-8.664069864660501,-0.22214530123834778,-0.00021351221948862076,0.002102792263031006,4.193088526193797,0.0023919343948364258
1746739244128665300,2.936665283203125,0.21344075783095756,-0.0080649983137846,0.09446082910656317,-0.0013499269261956215,0.01846311314971914,0.9702784403419058,0.08613270056741638,right,-0.0015119314193725586,-0.44157929588973044,1.8780257230736315,-8.664787073019147,-0.22202692954374553,0.011074588634073734,-0.00019788742065429688,4.191046206711232,0.0028416812419891357
1746739244168665600,2.97666552734375,0.21303404581138727,-0.0078109088353812695,0.09433320372498269,-0.008822774514555931,0.01828769754769714,0.9703474366084286,0.08562868339383735,right,-0.0006506443023681641,-0.4411550966107861,1.8748771959148347,-8.667287073141337,-0.221794026663408,0.008135978132486343,-0.0006032437086105347,4.187284808351099,-0.0010165274143218994
1746739244208665600,3.01666552734375,0.21297382999904066,0.006240920629352331,0.0943272969019492,0.01039295457303524,0.018241209519550324,0.9703777749041405,0.08549041387006072,right,-0.001954019069671631,-0.44090854282026404,1.87457339066267,-8.668408770647645,-0.2216675782788242,0.006103638559579849,0.0008355379104614258,4.185098404222726,-0.0019833147525787354
1746739244248665600,3.05666552734375,0.2135169510565717,0.010038050822913647,0.0945422319519466,-0.007977675646543503,0.01842399791588938,0.970364053675522,0.08597339727611095,right,-0.0006400942802429199,-0.44075573053526645,1.8794167390406131,-8.668014218372106,-0.22162135023771704,-0.0024889083579182625,-0.0014731138944625854,4.183743190221488,-0.0014649033546447754
1746739244288665600,3.09666552734375,0.21382944120583003,0.004077455028891563,0.09465089047394762,0.0029297741129994392,0.018630193226554653,0.9703730112667173,0.08643885872547329,right,-0.002101004123687744,-0.4404913239441067,1.8823599528856574,-8.668506970325112,-0.22151825306280296,0.002924022264778614,0.0005967766046524048,4.18139779613912,0.0008946061134338379
1746739244328665600,3.13666552734375,0.21369024255431718,-0.003857569769024849,0.09457215022404267,-0.005205664783716202,0.01864627842921504,0.9703535780046643,0.08646856698527529,right,-0.00421142578125,-0.440733874164919,1.880938103388995,-8.667778071528673,-0.2216357888596938,-0.014611712656915188,0.0012345314025878906,4.1835491289541125,0.0018333494663238525
1746739244368665300,3.176665283203125,0.2137782549419328,0.005041152238845825,0.09457991790787663,0.006255812011659145,0.018656631102009734,0.9702774605303636,0.08658778063912902,right,-0.0006159543991088867,-0.4413992353986281,1.8811099528245627,-8.664889948871732,-0.2219643921662098,-0.01345466636121273,-0.0000314861536026001,4.189449877430499,-0.0022738873958587646
1746739244408665600,3.21666552734375,0.2141467691840618,0.015038389712572098,0.09468788617403089,0.0020561646670103073,0.01889514305199683,0.97023847846599,0.08718132764066609,right,-0.001308143138885498,-0.4415494418233314,1.8841691942647099,-8.663581204360723,-0.2220686486640752,-0.000719018280506134,0.0005642324686050415,4.190781418295204,-0.0013360679149627686
1746739244448665600,3.25666552734375,0.21435869725872078,0.007247672416269779,0.0947290054076712,-0.005109744146466255,0.019194332170814617,0.9702505561273685,0.08781552578786044,right,-0.0022103190422058105,-0.4412847818223279,1.8862411782331763,-8.664265094971656,-0.2219725817043534,0.0045262607745826244,0.0018351376056671143,4.188434855169057,0.0029479265213012695
1746739244488665600,3.29666552734375,0.2140531211616099,0.0036476878449320793,0.09457077364637619,-0.01584330014884472,0.01936013360391957,0.9703095582973231,0.08803598384819784,right,-0.0035236477851867676,-0.44084618985040663,1.883983462434262,-8.666635331234335,-0.22176773695591107,0.011376701295375824,-0.0016961246728897095,4.184545446515083,0.0013286173343658447
1746739244528665600,3.33666552734375,0.21347114863039993,0.00724458321928978,0.09428774443002404,-0.0061464691534638405,0.0195067782505167,0.97037765966504,0.08815923204123281,right,0.0034399032592773438,-0.44045269195063985,1.879288144224882,-8.669338744974135,-0.22157738853783288,0.009265108034014702,0.00025297701358795166,4.18105497405082,-0.00044485926628112793
1746739244568665600,3.37666552734375,0.21363960974675042,0.009523345157504082,0.09436994315359606,0.004585837945342064,0.019623911359498557,0.9704402860910736,0.08835910735101464,right,-0.002723097801208496,-0.4397687878829195,1.8813542829744516,-8.671814779698849,-0.22125734323328217,0.019423549994826317,0.000014409422874450684,4.174987344574928,-0.00014138221740722656
1746739244608665300,3.416665283203125,0.21345336582496105,0.006596122868359089,0.0942782664941193,-0.019743943586945534,0.019775210955830885,0.9705127705043092,0.08855605595219858,right,-0.005536198616027832,-0.43914948973336815,1.880286653742939,-8.674690042874216,-0.22096492121330086,0.009020034223794937,-0.0023070871829986572,4.16949137750715,0.0001850128173828125
1746739244648665600,3.45666552734375,0.21284682555128845,-0.0005468335002660751,0.09396770235898558,-0.015539050102233887,0.02000176011596126,0.9705848179646052,0.08883385887055911,right,0.001226186752319336,-0.43871254052109304,1.8754094030953943,-8.677609145191312,-0.22076036644366676,0.0026515512727200985,-0.002023637294769287,4.16561249024719,0.0021820366382598877
1746739244688665600,3.49666552734375,0.21172381057086154,-0.005871021654456854,0.09350138946653082,0.009119890630245209,0.01986725497206096,0.9706892628297819,0.08825076339720109,right,0.0015106797218322754,-0.4382767484021629,1.8660444856397806,-8.681483356276154,-0.2205108096570445,0.021340258419513702,0.0011009126901626587,4.16174324759841,-0.0024262070655822754
1746739244728665600,3.53666552734375,0.21169987251948888,-0.004281443078070879,0.09353619964691987,0.002017766237258911,0.01970179177765678,0.9707131779975287,0.0878834319572281,right,-0.005614578723907471,-0.43809581634757316,1.8659948012791574,-8.682264277520776,-0.22040575513328753,-0.005103074014186859,-0.0010866820812225342,4.160136396923661,0.0022175610065460205
1746739244768665600,3.57666552734375,0.21150019098777256,-0.002400793367996812,0.09345133317325628,-0.00686291977763176,0.019670044437905664,0.9707232497962031,0.08777307376145894,right,-0.0006798505783081055,-0.4380991840275998,1.8642581867448984,-8.682623173961042,-0.2204002603473978,0.0051191216334700584,0.0002776682376861572,4.160166207540035,-0.0006511509418487549
1746739244808665600,3.61666552734375,0.21095479011163912,0.005099933594465256,0.0931962400785422,-0.018635448068380356,0.019775297607597567,0.9707945425197074,0.08781556267895438,right,-0.0027174949645996094,-0.43766180640927016,1.8599032064057885,-8.685417188593744,-0.2201849959796858,0.008391995914280415,-0.0017619580030441284,4.156281767322123,-0.0009322464466094971
1746739244848665600,3.65666552734375,0.21053889558663727,0.009833627380430698,0.09296638103782585,-0.0033576106652617455,0.019981634851612983,0.9708304253595788,0.0881249253162587,right,-0.0006337761878967285,-0.4374763485004137,1.856451896908134,-8.686943375247717,-0.22010541832469732,0.0016691130585968494,-0.001501232385635376,4.154634292376041,-0.0014564990997314453
1746739244888665300,3.696665283203125,0.21068997864115827,0.005825551226735115,0.09299165793366718,-0.006198070012032986,0.020162319534718382,0.970811464568682,0.08853984350879379,right,0.00132066011428833,-0.43754935962965813,1.857700874055922,-8.686365867620706,-0.22016160601704435,-0.007784274872392416,-0.0014605224132537842,4.1552828194126485,0.0009229481220245361
1746739244928665600,3.73666552734375,0.2107498185964028,-0.00007198704406619072,0.09300270406493295,0.0023477645590901375,0.020270215151557542,0.9708248819663845,0.08875554894669181,right,-0.0006990432739257812,-0.43737495863105286,1.858372197446227,-8.686963248991965,-0.22008776623322418,0.005300868768244982,-0.0011708736419677734,4.153733836404979,0.0002009570598602295
1746739244968665600,3.77666552734375,0.21074119110296674,-0.0085153728723526,0.09301654278481859,0.003959015943109989,0.020151249205392442,0.9708063162221131,0.08853171696757443,right,-0.004257321357727051,-0.4375758823869004,1.8581226065993308,-8.686163038524985,-0.22017460291143137,-0.010409427806735039,-0.0011042654514312744,4.155518673995137,0.0023024678230285645
1746739245008665600,3.81666552734375,0.2108240277691516,-0.0017355121672153473,0.09306272559953153,0.006221659015864134,0.020035703609250617,0.9707621410645647,0.08835850377950474,right,-0.0027480125427246094,-0.4379744627977788,1.8584953854344783,-8.684389014589787,-0.22036043674899408,-0.0028292881324887276,-0.0008798986673355103,4.159058830820023,-0.00052642822265625
1746739245048665600,3.85666552734375,0.2110185344030813,0.009588047862052917,0.09313736443052997,0.0016258424147963524,0.02015739302983089,0.9707798777656449,0.0886211551833568,right,-0.0013679862022399902,-0.43769592262955825,1.8604270841494202,-8.685159414440394,-0.2202396965496258,0.005839838646352291,-0.0008855760097503662,4.156584841921926,-0.00046688318252563477
1746739245088665600,3.89666552734375,0.21135196985323454,0.0027484032325446606,0.09327244690842258,0.0009356781956739724,0.0202834338169679,0.9707846946899681,0.0889307390477906,right,-0.00275421142578125,-0.4374737653414097,1.863516720727831,-8.685441738513111,-0.22014987807855002,0.001784046646207571,0.00001017749309539795,4.154611496022343,-0.00014066696166992188
1746739245128665300,3.936665283203125,0.21114579880237694,-0.005158800166100264,0.09319412798455613,-0.006229761987924576,0.020275622190919176,0.9708295448163717,0.08883032779667051,right,-0.002170264720916748,-0.43714915694916723,1.8620085081219673,-8.687143866255878,-0.21998587333814065,0.006949721835553646,-0.000830426812171936,4.151727757279574,0.001779407262802124
1746739245168665600,3.97666552734375,0.21086972641625118,0.005816106218844652,0.09305610813561356,-0.006347769405692816,0.020337028970639465,0.9708488368740585,0.08888661581604172,right,-0.0006290078163146973,-0.43708291020451245,1.8596676440842448,-8.687926541066169,-0.219953595262038,-0.001324571669101715,-0.0014982372522354126,4.1511391437366605,-0.0014499127864837646
1746739245208665600,4.01666552734375,0.21087967574942199,0.005290317814797163,0.09302490357534071,0.005151255521923304,0.020525190117391682,0.9708603638040963,0.08925919343291301,right,0.003388822078704834,-0.4369333117614548,1.8598840633139013,-8.688515154609084,-0.2198985553555756,0.004189064260572195,0.0005896240472793579,4.149809940959513,0.001194596290588379
1746739245248665600,4.05666552734375,0.21134924579270142,-0.0015623816289007664,0.09323715563522571,0.00371329253539443,0.020586447654977354,0.9708589845544776,0.08946679581426156,right,-0.004303097724914551,-0.4367179504622318,1.8641512192390859,-8.688514570087193,-0.2198087399824804,-0.001664979849010706,-0.0025505125522613525,4.147896216292679,0.0031687021255493164
1746739245288665600,4.09666552734375,0.21105521476184566,0.004520382732152939,0.09308261193882199,-0.0076532824896276,0.020637059380081226,0.9708544996671334,0.08952384468196306,right,-0.003926396369934082,-0.43688521398719987,1.8614510203696786,-8.688383637183904,-0.21988938533816077,-0.0007810461684130132,-0.0033159106969833374,4.149382655458152,-0.00469699501991272
1746739245328665600,4.13666552734375,0.21055749658719466,-0.013784734532237053,0.09282807219667674,-0.027704166248440742,0.020736567164235664,0.970870142625283,0.08962314235604377,right,0.0005941987037658691,-0.4369461167394765,1.8570736820682883,-8.689061682575941,-0.21991836475527343,-0.00286410516127944,-0.0058632493019104,4.149923630467057,0.0011884868144989014
1746739245368665300,4.176665283203125,0.2103240521025639,-0.00746780913323164,0.09278278313302767,0.01078418456017971,0.020512098530068218,0.9709128495090195,0.089079120452022,right,-0.005721151828765869,-0.43669688440723,1.8552610796883702,-8.690506036165356,-0.2197699757239933,0.0014452585019171238,-0.000776141881942749,4.147709169287979,0.0038927197456359863
1746739245408665600,4.21666552734375,0.21083909174304283,-0.004607245326042175,0.09303064619881479,0.00861327350139618,0.02042921616202206,0.9708705059590788,0.08904550455756016,right,-0.005599617958068848,-0.4368745221688581,1.859582450018823,-8.688829042863846,-0.2198597504653619,-0.0039045042358338833,0.0003546178340911865,4.149287670651078,0.001381516456604004
1746739245448665600,4.25666552734375,0.21063632422032258,-0.0053400942124426365,0.09297992922781655,-0.0022668568417429924,0.020261030273922866,0.9708947036819189,0.08864150825413447,right,-0.0032852888107299805,-0.43677389249452353,1.8579079409353434,-8.689614055761695,-0.21979014004463135,0.01585930585861206,0.0014191865921020508,4.148393352159857,-0.0033179819583892822
1746739245488665600,4.29666552734375,0.2099305929700015,-0.0004983930848538876,0.09266417842014814,-0.017198264598846436,0.020283483999548192,0.9709623053988391,0.088491606363093,right,-0.000500023365020752,-0.43645753959490813,1.8520484012521803,-8.692206410342454,-0.21962276735941608,0.005555653013288975,-0.0003713071346282959,4.145582094131409,-0.003976613283157349
1746739245528665600,4.33666552734375,0.20971232136806506,0.008384352549910545,0.09253640460008569,-0.002141948789358139,0.020452306902764283,0.970995046674035,0.0887622681038983,right,-0.0006242990493774414,-0.43621654699273504,1.8503589868605135,-8.693587051045894,-0.21951631299756372,0.0010966919362545013,-0.0014970749616622925,4.143440113666653,-0.0014656484127044678
1746739245568665600,4.37666552734375,0.20982304884146943,0.005625353194773197,0.09255470920272424,-0.0014484792482107878,0.020616321629854797,0.9709964211299603,0.08911408180863188,right,0.0008172988891601562,-0.4361205158268862,1.851404404260218,-8.693771759963035,-0.21948720142952668,0.002877148101106286,-0.0009462982416152954,4.142586711707711,-0.0026458799839019775
1746739245608665300,4.416665283203125,0.21001039311368153,0.002532275626435876,0.09262603473553296,0.004371090792119503,0.020687848599033182,0.9709885681527246,0.08930076061735837,right,-0.004043698310852051,-0.4360944888695548,1.8530556785985826,-8.693529767900705,-0.2194851662917676,-0.00402730330824852,-0.00031244754791259766,4.142355241039395,-0.0018682479858398438
1746739245648665600,4.45666552734375,0.2099968075308964,0.00019609928131103516,0.09258877758975723,-0.004742042161524296,0.020734103643962557,0.9709404277830705,0.08944475946617278,right,-0.0049569010734558105,-0.43654418671747053,1.8525490442506969,-8.691732363089919,-0.2197095483244948,-0.010689886286854744,0.0009613633155822754,4.146352201721072,0.0024293363094329834
1746739245688665600,4.49666552734375,0.21006912822694493,0.002652140101417899,0.09260389553673962,0.0018511447124183178,0.020727520305979942,0.9708911315377122,0.08949718628662712,right,-0.0020263195037841797,-0.4369747787730694,1.852805210968852,-8.689851371648906,-0.21992133339835995,-0.002937707584351301,-0.0005980581045150757,4.15017848201096,-0.0011239051818847656
1746739245728665600,4.53666552734375,0.210175200825074,0.005617833696305752,0.09264287184045776,-0.0007856094744056463,0.020834078596428926,0.970916887121711,0.08970480218304862,right,-0.0020198822021484375,-0.4366633100760348,1.8539964665800333,-8.690918708619474,-0.21978116109660326,0.011113323271274567,-0.0006014853715896606,4.147410770863295,-0.001131683588027954
1746739245768665600,4.57666552734375,0.2100775490246041,0.0042126975022256374,0.09259982804970306,-0.0003955512656830251,0.020921262072010494,0.9709701166389303,0.08980774814826217,right,-0.0007253289222717285,-0.43619017778229574,1.8535567599885165,-8.693017726725339,-0.2195557012792683,0.008807123638689518,-0.00027826428413391113,4.143205720388889,0.0005916953086853027
1746739245808665600,4.61666552734375,0.21005714533671307,0.00571657856926322,0.09259222193933812,-0.003167677205055952,0.020984398841135028,0.9710071040225456,0.08989272793669043,right,-0.0027737021446228027,-0.4358392036214238,1.8536825783252715,-8.694477277883887,-0.2193893762330288,0.005794886499643326,-0.0032198727130889893,4.1400858348026865,-0.00006935000419616699
1746739245848665600,4.65666552734375,0.2099684962251615,0.004206771496683359,0.09252557306160482,-0.001053949585184455,0.021117202968184173,0.971018264594223,0.09013567919223395,right,0.002698957920074463,-0.4357475803262829,1.8529907966688275,-8.69501269993484,-0.21935529942769305,0.0005509285256266594,-0.0014697462320327759,4.139271303549409,0.001000821590423584
1746739245888665300,4.696665283203125,0.21056796003628503,0.008853795006871223,0.09278132446487078,0.015909673646092415,0.021210473105822265,0.970988368992405,0.09046164357183828,right,-0.0013571977615356445,-0.4357338960795626,1.8582146687969565,-8.693955299836396,-0.219370139420783,-0.0026515363715589046,-0.0008865445852279663,4.139149722996354,-0.00046449899673461914
1746739245928665600,4.73666552734375,0.21088425342576064,-0.002679072320461273,0.09291344792063704,-0.0017030183225870132,0.02124552439168647,0.9709590841815419,0.09061956525427,right,-0.004871726036071777,-0.43585713052235614,1.8608575845211743,-8.692868673643469,-0.21944052496950092,-0.00355421076528728,0.0006318539381027222,4.140245409278571,0.0007807910442352295
1746739245968665600,4.77666552734375,0.21070311509038595,-0.008046567440032959,0.09282196792949969,-0.005970635451376438,0.02123151906043207,0.9709424220409941,0.0905779065576927,right,-0.0014369487762451172,-0.43610034209347737,1.859072308539599,-8.692220438867807,-0.21955447945136508,-0.012439513579010963,-0.005569860339164734,4.142407263487577,0.00046578049659729004
1746739246008665600,4.81666552734375,0.21027984147144776,-0.009065886959433556,0.09266822040888928,0.015331885777413845,0.02102134804443251,0.9709530499028148,0.09006509907855711,right,-0.0026907920837402344,-0.4362373825621707,1.8552745236918329,-8.692451325014233,-0.21959261856854875,0.0015426911413669586,0.000567898154258728,4.143625407105684,-0.0013974905014038086
1746739246048665600,4.85666552734375,0.21079522702386572,0.004902825690805912,0.09291616767515418,0.011294540017843246,0.020938594019542057,0.9709107422916885,0.09003179444033046,right,-0.0063346028327941895,-0.4364154446681007,1.8595996934145689,-8.690772578147053,-0.21968274343037458,-0.009201514534652233,0.0009704381227493286,4.14520800012201,0.0023658573627471924
1746739246088665600,4.89666552734375,0.21075284761649196,-0.0064911432564258575,0.09288518680078192,-0.008219830691814423,0.02092790201628063,0.9708808143388373,0.09003513983991021,right,-0.0027775168418884277,-0.4367177431438005,1.8589691404260693,-8.689625161677599,-0.2198289051316996,-0.0007343273609876633,0.0009051859378814697,4.14789446272701,0.00025910139083862305
1746739246128665300,4.936665283203125,0.21012712586914709,-0.00046229641884565353,0.09260122770681359,-0.01868453249335289,0.020915152183665943,0.9709147800255099,0.08986382173345153,right,-0.0012821555137634277,-0.4366884305093062,1.853556906118989,-8.690905849137902,-0.21980019942499007,-0.004516799934208393,-0.001214444637298584,4.1476340582251545,-0.0021219849586486816
1746739246168665600,4.97666552734375,0.21007092377097475,0.012068535201251507,0.09252481139043875,0.006257813423871994,0.021093312966971846,0.9708900537154821,0.09024369325749237,right,-0.002003610134124756,-0.43691043286825054,1.8528765226393937,-8.690109145802259,-0.21992472453520184,-0.011123886331915855,-0.0014934688806533813,4.149606527341902,-0.001528918743133545
1746739246208665600,5.01666552734375,0.210468262821123,0.005217005964368582,0.09265804002579993,0.005457447376102209,0.021241460454548697,0.970829961411248,0.09067951395576837,right,0.0036565065383911133,-0.43726194172893984,1.8560243191458283,-8.68794524576664,-0.22011938750122748,-0.008750280365347862,-0.00541667640209198,4.1527296277984975,-0.004492610692977905
1746739246248665600,5.05666552734375,0.21107320347772932,0.006330101750791073,0.09291103566071478,0.010892683640122414,0.02132330576092628,0.9707825415101694,0.09100281316008858,right,-0.0039550065994262695,-0.4374130731758505,1.861148238030821,-8.686207462188602,-0.220214022532458,-0.006873135454952717,-0.0015345513820648193,4.154072274579107,-0.003920227289199829
1746739246288665600,5.09666552734375,0.21145190581345608,0.008162899874150753,0.09302712234871177,0.0008352827280759811,0.02146040484568235,0.970698539034936,0.09143916857580607,right,-0.005485117435455322,-0.43799835841438306,1.8639269089639185,-8.683122940176725,-0.2205218235333902,-0.019465375691652298,-0.0017582029104232788,4.15927101226598,-0.0010736584663391113
1746739246328665600,5.13666552734375,0.2119555414094085,0.016146883368492126,0.09317581847782548,0.0077412789687514305,0.021721272887335812,0.9706134786208345,0.09215061228126957,right,-0.0006408095359802246,-0.43850923614965326,1.8678525579750538,-8.680105053660274,-0.2208077805399781,-0.011709267273545265,-0.0006080567836761475,4.163807486651837,-0.0010618865489959717
1746739246368661800,5.176661865234375,0.21252514960806662,0.007845429703593254,0.09336974664086682,0.008772192522883415,0.02199235614449508,0.9705644478759882,0.09285504149583791,right,-0.001496234443038702,-0.4386481536601663,1.8726744251735508,-8.678473653066158,-0.2209141460906619,-0.0016253191279247403,-0.002009137999266386,4.165040827839077,0.0020530621986836195
1746739246408661800,5.216661865234375,0.2127098779527029,0.003922187723219395,0.09346688964036975,0.004385507199913263,0.021960736006189845,0.9705673927508365,0.0928196019657179,right,-0.002867758274078369,-0.43854279180241607,1.874370269306004,-8.678556655174493,-0.2208634909538645,-0.0008125503663904965,-0.0024487823247909546,4.164105300554633,0.0017847418785095215
1746739246448661800,5.256661865234375,0.21282861138824324,0.005227637477219105,0.09351931524232308,0.005914297420531511,0.02197311255665095,0.9705626370862324,0.09287061573725926,right,-0.0007278919219970703,-0.4385298916956101,1.875412033443898,-8.678386559304595,-0.22086093510910215,-0.0009348306339234114,-0.002119705080986023,4.163990734264254,0.0005300939083099365
1746739246488661800,5.296661865234375,0.2131190778350792,0.0038121771067380905,0.0936433758393747,0.006737821269780397,0.022024159238892504,0.9705517550495956,0.09303687538512957,right,-0.0010789036750793457,-0.4384869637748297,1.877970485755056,-8.678016556948423,-0.2208511225764107,0.0010795064736157656,-0.0017834603786468506,4.163609625992179,0.0006616115570068359
1746739246528661800,5.336661865234375,0.21335713955261323,-0.00026395171880722046,0.09376520520788627,0.005153469741344452,0.02197665238215826,0.9705444105403508,0.09298947584752709,right,-0.0025186538696289062,-0.4384556376690329,1.8800639509029686,-8.677696238952874,-0.22083635703572516,-0.00029364204965531826,-0.0016583353281021118,4.163331393572688,-0.0016300380229949951
1746739246568661800,5.376661865234375,0.21351946420913578,-0.00019836638239212334,0.09385254011848887,0.0038360748440027237,0.021926464101351524,0.9705403151303036,0.0929199373215308,right,-0.001219034194946289,-0.4384296595248527,1.881495445010811,-8.677496916988492,-0.22082229575513904,-0.0007087599951773882,-0.003060087561607361,4.163100799687206,-0.0018074214458465576
1746739246608662000,5.416662109375,0.21337070631381663,-0.001911768107675016,0.0938075796865808,0.011211677454411983,0.021823781357040172,0.9705502949238367,0.09267416825901956,right,-0.001911938190460205,-0.43842688922771805,1.8802071587659417,-8.677788008889555,-0.22080779249319404,0.003910361789166927,-0.000993087887763977,4.1630762497678395,-0.0022271275520324707
1746739246648661800,5.456661865234375,0.21322190058998086,-0.003625169862061739,0.09376259897686276,0.018587280064821243,0.021721087319618228,0.9705602161923363,0.0924283735790138,right,-0.0026047825813293457,-0.4384241293502448,1.8789181418687104,-8.67807851626873,-0.2207933156704867,0.008529484272003174,0.0010739564895629883,4.163051699848473,-0.0026468634605407715
1746739246688661800,5.496661865234375,0.21364563385658616,-0.00043114391155540943,0.09398124221949691,0.006340517662465572,0.021583597827490298,0.9705250103094529,0.09226050804116766,right,-0.004859268665313721,-0.43858651925821207,1.8824518689528107,-8.676621303197741,-0.2208686499875924,-0.006486792117357254,-0.0007645785808563232,4.164493715350329,0.001520007848739624
1746739246728661800,5.536661865234375,0.21363740116250982,-0.009193032048642635,0.09398750287552964,-0.003959581255912781,0.02150225098425238,0.9705079269071848,0.09211218501458276,right,-0.00014150142669677734,-0.43876701775582316,1.8822209828063845,-8.675901756751538,-0.22094898594258178,0.001491534523665905,-0.0000222623348236084,4.1660961821109055,0.00004416704177856445
1746739246768661800,5.576661865234375,0.21328065094964316,-0.00922102015465498,0.09386565320420565,-0.008382150903344154,0.021333459964036718,0.9705381904030623,0.09167342395934601,right,-0.0018854737281799316,-0.4386841474259473,1.8791988585062325,-8.676910057011247,-0.22088442237682981,0.00563823664560914,-0.0009054839611053467,4.16536026905179,-0.0027064085006713867
1746739246808661800,5.616661865234375,0.21312680750790963,0.006232143379747868,0.09378668318212957,0.003130934201180935,0.021353155129695413,0.9705367574420825,0.09168828754801715,right,-0.0038330554962158203,-0.43876345867426564,1.8777939601443707,-8.676876154741644,-0.22092190573614365,-0.009527424350380898,-0.0009696632623672485,4.166064617928862,-0.005108535289764404
1746739246848662000,5.656662109375,0.21345425898363432,0.007059757597744465,0.09385639174621303,-0.004515678621828556,0.02160409302868596,0.9704607155531734,0.09233950533659896,right,0.002744436264038086,-0.4392711519050322,1.8801868466302751,-8.674192614746094,-0.22120178747115216,-0.014714556746184826,-0.0015487074851989746,4.170570989437401,-0.003615140914916992
1746739246888661800,5.696661865234375,0.21385740317423732,0.006572961341589689,0.09399096293008699,0.005692208185791969,0.021804972954193137,0.9704247457504567,0.09285808682026853,right,-0.005298912525177002,-0.4393790820983415,1.8835881795063614,-8.672993760350346,-0.22128276776724043,-0.011205106973648071,-0.0031644999980926514,4.171529020814598,-0.0003075599670410156
1746739246928661800,5.736661865234375,0.213969553462308,-0.0024056131951510906,0.09400342790680519,-0.0029241694137454033,0.02185938668280206,0.9703573054471916,0.09306238384420967,right,-0.004220008850097656,-0.43994490292900135,1.8840593041494487,-8.670474471005797,-0.22156752332326288,-0.013531866483390331,-0.0014836788177490234,4.176550063847005,0.0006261765956878662
1746739246968661800,5.776661865234375,0.2140527627591183,-0.004374951124191284,0.09403524820446214,0.0057000527158379555,0.021826445854673266,0.9703222615290722,0.09304828022019643,right,-0.0014935731887817383,-0.4402404676264525,1.8845184460937976,-8.669111365959047,-0.2217108396867485,0.003198380582034588,-0.002315223217010498,4.179172521305084,0.00040274858474731445
1746739247008661800,5.816661865234375,0.21404859889156866,-0.008516347035765648,0.09408610344962487,0.006965545006096363,0.021625464845541693,0.9703425284651941,0.09261598348671769,right,-0.004127681255340576,-0.4400952222855165,1.8846112389437852,-8.669712254461645,-0.22162015704985366,0.0031461340840905905,-0.0005923211574554443,4.17788394279927,0.0010322034358978271
1746739247048661800,5.856661865234375,0.21402980395062207,-0.0030440445989370346,0.09412391612713714,0.003146355040371418,0.021458851179309256,0.9703663014054126,0.09224727122919966,right,-0.0013457536697387695,-0.43991659994650956,1.8846068550296127,-8.670476809093355,-0.22151613717530289,0.007037296891212463,-0.0020654499530792236,4.176299011695384,-0.002420663833618164
1746739247088662000,5.896662109375,0.2140724806235922,0.005277436226606369,0.0941387260584865,0.0003595389425754547,0.021531125795093024,0.9703891418802362,0.09237678793670218,right,-0.000660240650177002,-0.4396684737805568,1.8851969298772513,-8.671408536985515,-0.22140257950483586,0.00017178291454911232,-0.0006488114595413208,4.17409740999788,-0.0010998547077178955
1746739247128661800,5.936661865234375,0.2143877583112654,0.0064975726418197155,0.09427052831385817,0.007245022337883711,0.021616983805728084,0.970386111581521,0.09260972427509977,right,-0.0026691555976867676,-0.43953304174644375,1.8880510041341185,-8.67136586688757,-0.22135138849753058,-0.0010228054597973824,-0.0017399340867996216,4.17289534073174,-0.000938117504119873
1746739247168661800,5.976661865234375,0.21455884279480844,0.0029550320468842983,0.09431334734108296,-0.0019786818884313107,0.02175580198725282,0.9703649704314915,0.09294535789879922,right,-0.000776827335357666,-0.4396220169229567,1.8894554641045629,-8.670680222710967,-0.22141214488462876,-0.005245145410299301,-0.00031819939613342285,4.173685029804706,0.0005525350570678711
1746739247208661800,6.016661865234375,0.21456583235089677,0.008387045934796333,0.09426767577674432,-0.00454773148521781,0.021970906937978842,0.970360250068606,0.09338980517195311,right,-0.0006933808326721191,-0.4396178128247561,1.8895197615124284,-8.670683729842304,-0.22143113452824076,0.0020021344535052776,-0.0020136237144470215,4.1736476204037665,-0.0001779794692993164
1746739247248661800,6.056661865234375,0.21417828183449175,-0.0031390944495797157,0.09405352236214391,-0.011624851264059544,0.02212771308230058,0.9703757026678204,0.09362486106656936,right,0.000859379768371582,-0.43962043087551317,1.8861570070810616,-8.671405029854178,-0.2214391787259974,0.017586946487426758,-0.0012955069541931152,4.173671001279354,-0.004192173480987549
1746739247288661800,6.096661865234375,0.2142658356750114,-0.00846085511147976,0.09414910331910747,0.005082461051642895,0.021957833321460604,0.9704126716084767,0.0932534875758864,right,-0.00564730167388916,-0.4392706095401531,1.8872265360087155,-8.672665843570233,-0.2212533223185574,-0.006229553371667862,0.0004073679447174072,4.170566313262284,0.005673438310623169
1746739247328662000,6.136662109375,0.21431944823116775,-0.008213376626372337,0.09421959855578683,-0.001175606157630682,0.021718829107494113,0.9703957794185352,0.0927947373769012,right,-0.0021524429321289062,-0.43945404852542586,1.8875287338256834,-8.671817117786407,-0.22132110368621005,0.004432192072272301,-0.002856045961380005,4.172194498986006,-0.000492781400680542
1746739247368661800,6.176661865234375,0.21403128200320076,-0.002709951251745224,0.09414021774397868,-0.003525965614244342,0.021544378792477895,0.970444374932556,0.09233602110421293,right,-0.0026311278343200684,-0.43916957379913396,1.8852816855512557,-8.673520414572954,-0.22115866963090058,0.00579060148447752,-0.002122059464454651,4.169669656683505,-0.002533435821533203
1746739247408661800,6.216661865234375,0.21389825445866908,0.0040540085174143314,0.09407925087104148,-0.0012518013827502728,0.02157497143152141,0.9704666991537344,0.09235074310094207,right,-0.001925349235534668,-0.4390163560270181,1.8842635945498942,-8.674395443841814,-0.22108374264815245,0.00698530487716198,-0.0027000606060028076,4.168309474246204,-0.003554105758666992
1746739247448661800,6.256661865234375,0.21394813300470128,0.005317618139088154,0.09409141000185672,0.0034626820124685764,0.021691633109558524,0.9704975468505412,0.0925630682884298,right,0.0006024837493896484,-0.43868075559646513,1.8849930778682231,-8.675667947995661,-0.22093177889573223,0.0008054617792367935,-0.0012172013521194458,4.1653301661744715,0.00016519427299499512
1746739247488661800,6.296661865234375,0.21394544782891642,0.004938388243317604,0.09409489010788641,0.012357311323285103,0.02170588688835801,0.9705154965371652,0.0925719257774942,right,0.0001608133316040039,-0.43851147664355156,1.8851194807268679,-8.67636177547872,-0.22085019626989816,0.007134762592613697,0.0001926124095916748,4.163827360396087,-0.0028343498706817627
1746739247528661800,6.336661865234375,0.21405624192390407,-0.0038692187517881393,0.0941568967073732,-0.0009684450924396515,0.021643261459773206,0.9705039669463684,0.0924761670993893,right,-0.004057645797729492,-0.43858017565966384,1.88601993669793,-8.675873115178943,-0.22088017514996514,-0.005549706518650055,-0.0022597312927246094,4.164437308987975,0.00017473101615905762
1746739247568661800,6.376661865234375,0.21411457769382064,-0.003206806955859065,0.09419311317071244,0.007971517741680145,0.021540640889999896,0.9704715632305891,0.09231295742206642,right,-0.0008108019828796387,-0.43887765223830427,1.8862628055430948,-8.67455209570825,-0.2210171463586783,-0.0016782102175056934,-0.0003299117088317871,4.167078178885579,0.0005839765071868896
1746739247608662000,6.416662109375,0.2145744233402689,0.0006521763280034065,0.09443155625174722,0.012731101363897324,0.02145247901978463,0.9704661145931361,0.09221894934161909,right,-0.0021330714225769043,-0.438733004509728,1.8903798854731022,-8.67427269424498,-0.22094763677476292,0.004808689001947641,-0.000819772481918335,4.165793984293938,0.0017538666725158691
1746739247648661800,6.456661865234375,0.21500575208319547,-0.0001069044228643179,0.09465116450949301,0.0034233080223202705,0.021415442410325003,0.9704744146448543,0.09220888160468688,right,-0.004725217819213867,-0.43846247075516903,1.8943615024551748,-8.674557356405257,-0.22082079994614479,0.00707651861011982,0.0002744942903518677,4.163392183849215,-0.0008060634136199951
1746739247688661800,6.496661865234375,0.21488348938927984,0.003010937012732029,0.09460429420289822,-0.005593224428594112,0.021472118502553286,0.9705298279742138,0.09224197051128141,right,-0.004137516021728516,-0.43798884059840065,1.8937211587250231,-8.676714242178202,-0.22059173348289368,0.006929907016456127,-0.0008430629968643188,4.159186256591975,-0.0006115436553955078
1746739247728661800,6.536661865234375,0.2146583473943292,0.000015377765521407127,0.09450934532346374,0.0014033662155270576,0.021454826292890486,0.970552286525353,0.09214326663107279,right,0.002741873264312744,-0.4378879535098641,1.8918571184188127,-8.677550693002342,-0.220535775365633,0.00365475588478148,-0.0006781071424484253,4.158290476796031,-0.0031083524227142334
1746739247768661800,6.576661865234375,0.214854003215912,0.01222941093146801,0.0945933041188285,-0.0014879258815199137,0.02153456270293528,0.9705681023764943,0.0923218470945069,right,-0.003851175308227539,-0.43763207153917255,1.8937816567406056,-8.678219386044145,-0.22042241834750115,0.00515595031902194,-0.002058953046798706,4.156017563427985,-0.0026716887950897217
1746739247808661800,6.616661865234375,0.2147601418531561,0.005817033350467682,0.09451682162100729,-0.0022214408963918686,0.021705337581068733,0.9705814665896157,0.09263864363867243,right,-0.0006728172302246094,-0.43751516635465265,1.893070585861802,-8.678871712473034,-0.22037976656956448,0.001200576312839985,0.0007721185684204102,4.1549791602909565,-0.001943826675415039
1746739247848662000,6.656662109375,0.21471229331749586,0.0006227316334843636,0.09445728797684265,-0.010385140776634216,0.021855362254390966,0.9705725498965331,0.09294556743234,right,-0.0034469962120056152,-0.4375883841102241,1.8925904011294246,-8.678664791724085,-0.2204292258335877,-0.009953496977686882,-0.006551072001457214,4.155629733154178,0.000529557466506958
1746739247888661800,6.696661865234375,0.21418474969103343,0.0025754058733582497,0.09423032155775585,0.0023316657170653343,0.02179518810207787,0.9706051041532874,0.09269630514380683,right,-0.007499039173126221,-0.4375420050789764,1.8880527576997874,-8.679850786638259,-0.22038923911554023,-0.0013580629602074623,-0.0012732893228530884,4.155217645221948,-0.00013390183448791504
1746739247928661800,6.736661865234375,0.21437498883462403,0.013284419663250446,0.09427135800517601,0.004878610838204622,0.021946614645490515,0.9705648364187305,0.09308185436432632,right,-0.0022215843200683594,-0.4377993826485511,1.8894765068925916,-8.678446180537343,-0.22053410621414915,-0.004027791321277618,-0.001166015863418579,4.157503710332513,0.00012171268463134766
1746739247968661800,6.776661865234375,0.2142272138378191,0.0008540451526641846,0.09417261414985899,-0.009067948907613754,0.022142293228848333,0.9705986480988003,0.09341728006646953,right,-0.0007601380348205566,-0.4375088278744283,1.8884506709761917,-8.679905147174,-0.22040760602141074,0.012337204068899155,-0.00029975175857543945,4.1549230461895466,0.000583261251449585
1746739248008661800,6.816661865234375,0.21385123594863534,-0.003789068665355444,0.09402040974113737,-0.004889013711363077,0.022097333256440792,0.9706424106739221,0.0932127093426392,right,-0.0005970597267150879,-0.43728299911942015,1.8853861688390372,-8.681531287071108,-0.22028446357511533,0.00022766273468732834,-0.003210499882698059,4.152916674803197,-0.002182483673095703
1746739248048661800,6.856661865234375,0.21395094035847562,0.007818320766091347,0.0940651197976733,0.0035204500891268253,0.022111173363205228,0.9706416218905489,0.09325896885585709,right,-0.0019538402557373047,-0.4372414779343089,1.8862883783757685,-8.681511997848748,-0.22026762551855103,0.0006120286998338997,-0.0024060308933258057,4.152547841490805,-0.0019317567348480225
1746739248088662000,6.896662109375,0.21411157912708592,-0.0010218219831585884,0.09410863936002545,-0.0021202918142080307,0.02225951381445477,0.9706375830075153,0.0935930086595475,right,0.0027390122413635254,-0.43717292376803873,1.8877433994896708,-8.681486863407493,-0.22025192359209445,0.005146477837115526,-0.001264140009880066,4.151938769681752,-0.0019146203994750977
1746739248128661800,6.936661865234375,0.21417718931886506,-0.003997211344540119,0.09417056992826464,-0.0014851958258077502,0.022206160187221415,0.9706796872257711,0.09344904157435246,right,-0.006119966506958008,-0.43675742998887584,1.888679511296004,-8.683047536852955,-0.22004470142023805,0.0006923717446625233,-0.003113284707069397,4.148247221687436,0.0019454360008239746
1746739248168661800,6.976661865234375,0.21409657920292524,-0.00004033464938402176,0.09413412774589458,-0.002225035335868597,0.02217834899310749,0.970671698809547,0.09338750635361322,right,-0.0049405694007873535,-0.4368767589065519,1.8878743323929608,-8.682716112941502,-0.22009867715544507,-0.011525740846991539,-0.001745954155921936,4.149307544395327,0.0012653470039367676
1746739248208661800,7.016661865234375,0.21444677443689267,0.00483376020565629,0.09428300596440843,0.010830258950591087,0.022149876286359328,0.9706125430197371,0.09345517698400001,right,-0.0012889504432678223,-0.43727483582960985,1.8905632792159914,-8.680439984703064,-0.22029851488663654,-0.0029474981129169464,-0.0015511512756347656,4.152844194088876,-0.0036589205265045166
1746739248248661800,7.056661865234375,0.2149139817257717,0.005055360496044159,0.09449426247124833,0.010100002400577068,0.02220862037050639,0.9706094634207918,0.09365846945330118,right,-0.0033641457557678223,-0.4370734021129605,1.8947969712629913,-8.68037276468575,-0.2202157463821449,0.008159815333783627,0.0002528727054595947,4.1510546803236,-0.0008729100227355957
1746739248288661800,7.096661865234375,0.215165909058173,-0.0027021518908441067,0.09461002922870144,0.0025640344247221947,0.022239560447337672,0.970611566822276,0.09376235588998497,right,-0.0013462305068969727,-0.4369294594417893,1.8971113856852053,-8.680479147669672,-0.22015375169990856,-0.0008897474035620689,-0.0003100931644439697,4.149775746428967,-0.0017063319683074951
1746739248328662000,7.136662109375,0.21516183123574187,-0.00006400002166628838,0.09461278910735937,0.00006072875112295151,0.02220142398747249,0.9706036282589844,0.09369286720381582,right,-0.005337953567504883,-0.4370141686652913,1.8970009110480546,-8.680143632104992,-0.22019143520397322,-0.00002107350155711174,-0.00030456483364105225,4.150528318361938,-0.0019307434558868408
1746739248368661800,7.176661865234375,0.21503194446111804,0.003999485168606043,0.09453389536813371,0.000020790845155715942,0.022252954279363565,0.9705921065551633,0.09378810572947605,right,-0.0007357001304626465,-0.4371707952482054,1.895734690504521,-8.679754340526461,-0.2202703638827877,-0.010376131162047386,-0.0014719367027282715,4.151920064981281,-0.0014698803424835205
1746739248408661800,7.216661865234375,0.2154220668946344,0.00926588661968708,0.09468203586906641,0.005719483830034733,0.022381857503924997,0.9705648049657004,0.094147691907947,right,-0.005407929420471191,-0.4372165759391898,1.8990800554096698,-8.678828457853198,-0.22031389778409155,0.001551625318825245,-0.004042536020278931,4.1523265999555585,-0.0006272196769714355
1746739248448661800,7.256661865234375,0.21542858864727527,0.0074001336470246315,0.09464157917123144,-0.008780162781476974,0.02260823379909696,0.9705769707733857,0.09459592842251571,right,-0.004315614700317383,-0.43705010731327854,1.8992843458101152,-8.679491305676102,-0.22025458369704107,-0.0042228857055306435,-0.004335150122642517,4.150847759574652,0.0023094117641448975
1746739248488661800,7.296661865234375,0.215024665028097,-0.003738093189895153,0.09442985219978609,-0.0025491551496088505,0.022737328772396984,0.970602019869611,0.09476157532735054,right,0.005125820636749268,-0.4369765842944875,1.8958435577064752,-8.680555720037221,-0.22022221184415688,0.005053302273154259,-0.0035149753093719482,4.150194556362926,0.0032429099082946777
1746739248528661800,7.336661865234375,0.21429457386038314,-0.02189149707555771,0.09418259504502377,0.005696235690265894,0.02241655991731479,0.9706818845087797,0.0938950014283096,right,0.0015454292297363281,-0.4366372735448535,1.8898047159336506,-8.683312909790873,-0.22000880854412402,0.02223535068333149,-0.00040966272354125977,4.147179300194979,-0.0014764070510864258
1746739248568661800,7.376661865234375,0.21442312072036016,-0.01508352067321539,0.09434386782638793,0.020057685673236847,0.0219486497891567,0.9706772320807021,0.0929699513375731,right,-0.003221571445465088,-0.43672129925269865,1.8908467723324893,-8.682729556944965,-0.22000732990487898,-0.012798631563782692,-0.000041812658309936523,4.147926026909053,-0.002438962459564209
1746739248608662000,7.416662109375,0.21496661637181733,-0.008726192638278008,0.09462484397222856,0.005105381831526756,0.021678118045981548,0.9705870831580177,0.09261239471357648,right,-0.003891289234161377,-0.437370777012044,1.8949904480084776,-8.679066942784189,-0.22031087483675232,-0.008777433075010777,-0.00007861852645874023,4.153696719264984,-0.004729896783828735
1746739248648661800,7.456661865234375,0.21466352100321384,-0.0023791263811290264,0.09449909397711256,-0.010514779947698116,0.02158770949898962,0.9705888668916448,0.09237424845432704,right,-0.0032802820205688477,-0.43751451870269203,1.8922325276024639,-8.679057005912066,-0.22036593503601073,-0.003866452258080244,0.0005148649215698242,4.154973607333004,-0.0037439465522766113
1746739248688661800,7.496661865234375,0.2142918977075771,0.00962849147617817,0.09429187614983497,-0.0040648686699569225,0.021726381889235372,0.9705935531357024,0.09258735195755997,right,-0.002475917339324951,-0.43761415002978193,1.888919019140303,-8.679355112075806,-0.2204202234501647,-0.006571055389940739,0.00047653913497924805,4.1558585734739895,-0.005932986736297607
1746739248728661800,7.536661865234375,0.21440507994574334,0.018229205161333084,0.09425285018053059,-0.009131735190749168,0.02208093592856189,0.970556096789932,0.09337007019893805,right,-0.0013675093650817871,-0.4378382798798167,1.8897031552553176,-8.678231076481937,-0.22056686636075912,-0.012564955279231071,-0.001737833023071289,4.157849162769318,-0.0009534358978271484
1746739248768661800,7.576661865234375,0.2142492230073203,0.012741856276988983,0.0941010849608342,-0.004035554826259613,0.022443739343292628,0.9705609984466552,0.09407624759325077,right,-0.0006532073020935059,-0.4377872260720934,1.888395725918561,-8.678733180785178,-0.2205736549073797,-0.00037345755845308304,-0.0006277114152908325,4.157395866043865,-0.0010599493980407715
1746739248808661800,7.616661865234375,0.21410320873747907,0.008900047279894352,0.09397467943670464,-0.010988760739564896,0.02268846378642592,0.9705544477087171,0.09455626323552725,right,-0.008228957653045654,-0.43786278139820484,1.887061700835824,-8.678701616603135,-0.22063116855770737,-0.005500243976712227,-0.003707200288772583,4.158066897173225,0.0008763670921325684
1746739248848662000,7.656662109375,0.21364016807299327,0.01306714303791523,0.09368532587343706,-0.013837521895766258,0.022992549459819774,0.9705542288212673,0.09509524491866907,right,-0.0014477372169494629,-0.43801257923310355,1.882910864766687,-8.678965820497273,-0.22072369531939293,-0.002196080517023802,-0.00268729031085968,4.1593972689941525,-0.0012246370315551758
1746739248888661800,7.696661865234375,0.21362966871642852,0.015432694926857948,0.09360561594950251,-0.004888162948191166,0.023368765633088224,0.9705696544311619,0.0958417893671029,right,-0.0007689595222473145,-0.4377889886775481,1.8830169554896652,-8.679894041258096,-0.22065026598239612,0.004410485737025738,-0.0026246756315231323,4.1574113558739425,0.0010232627391815186
1746739248928661800,7.736661865234375,0.213790278439591,0.004392293281853199,0.09365339033654667,-0.0004677893593907356,0.023585907075003694,0.9706081267080562,0.09626862050948237,right,-0.0028412938117980957,-0.43730426398178,1.8848383256979286,-8.681559928643702,-0.22043744394566792,0.008731352165341377,-0.002012774348258972,4.153105767634511,0.00196760892868042
1746739248968661800,7.776661865234375,0.21341248625748355,-0.0021529165096580982,0.09350621030495905,-0.009282141923904419,0.023550371570449872,0.9706691925350079,0.09606372830513188,right,-0.002001643180847168,-0.4369143780952008,1.8819011032022535,-8.683853008016943,-0.2202346255195936,0.006330224685370922,-0.00237978994846344,4.1496415986552835,-0.0018634200096130371
1746739249008661800,7.816661865234375,0.21306175533817745,0.005658569745719433,0.09332963424689485,-0.004831159487366676,0.02362292040897498,0.9706877914963296,0.09613031741718069,right,-0.0005183219909667969,-0.43688617185626555,1.8788800018154084,-8.684626914998889,-0.22021993285490182,0.002285394351929426,-0.004473492503166199,4.149391131025553,-0.004268169403076172
1746739249048661800,7.856661865234375,0.2129909361205802,0.014091568998992443,0.09324430015308013,-0.007611757144331932,0.023900894135812863,0.9707074230545242,0.09666163382340191,right,-0.002015233039855957,-0.43667039310298267,1.8784541776187718,-8.685635215258598,-0.22013939337276825,0.0015331103932112455,-0.003849327564239502,4.147473606966436,-0.001111745834350586
1746739249088662000,7.896662109375,0.21302676700006407,0.0026676971465349197,0.09322304545129403,0.004986485466361046,0.024079166100914054,0.9707072604859788,0.09703048638955934,right,0.0006005764007568359,-0.4366144592234012,1.8788145353637635,-8.685794789734482,-0.22012991971138499,-0.002202872186899185,0.0005407631397247314,4.146976471099257,0.0010290443897247314
1746739249128661800,7.936661865234375,0.21319983369471665,-0.0025475132279098034,0.09330992897846438,-0.00254645524546504,0.024045258075504786,0.9706985059999672,0.09700105405775185,right,-0.006107628345489502,-0.43662452714915884,1.8803088655747473,-8.685428294509649,-0.2201355001880391,0.0010871677659451962,-0.001997828483581543,4.147066195209324,-0.0004558861255645752
1746739249429860400,8.2378603515625,0.21260119377004547,0.007823435589671135,0.09302395050556657,-0.017617428675293922,0.024100185279025847,0.9707312499016291,0.09697336176101318,right,-0.004680206999182701,-0.43658099230896813,1.8751470988973975,-8.686728855714202,-0.22010593436373244,0.0037019546143710613,-0.0018109593074768782,4.146679241718352,-0.0033250125125050545
1746739249469860400,8.2778603515625,0.21103957687444208,0.0067403921857476234,0.09235322017269676,-0.003138162661343813,0.02426066753404139,0.9709925734983501,0.09674296677964708,right,0.0015774369239807129,-0.4348045306655973,1.8631196842342614,-8.696835823708772,-0.21921600699805913,0.0015163366915658116,-0.0010444819927215576,4.13088546025902,-0.002591341733932495
1746739249509860400,8.3178603515625,0.21113551801670694,0.0024760006926953793,0.09237864675328046,-0.002652647439390421,0.02435156714895803,0.9709894809181158,0.0969475928028145,right,-0.0017014741897583008,-0.43476792774118617,1.8639856534138322,-8.69680484404862,-0.21920889394078416,-0.0028917789459228516,-0.0014770179986953735,4.130560173827409,-0.00008228421211242676
1746739249549860400,8.3578603515625,0.21118829327252106,0.002501578303053975,0.09238846493373289,0.0010454840958118439,0.02438092929685679,0.9709686997979625,0.0970392194873492,right,-0.002611696720123291,-0.4349329176848483,1.8643018797561526,-8.696040289416908,-0.21929368002693259,-0.003497350960969925,-0.0022463053464889526,4.132027323770523,-0.000425487756729126
1746739249589860400,8.3978603515625,0.21127488383039664,0.0032768980599939823,0.09241482305164697,0.004667334724217653,0.024429499459205774,0.9709575671801184,0.0971650867369249,right,-0.0010470747947692871,-0.4349866419373372,1.8650082744598389,-8.695661519232392,-0.21932656865668915,0.0017879041843116283,-0.001972779631614685,4.1325051704153415,-0.0006435513496398926
1746739249629860400,8.4378603515625,0.21155771424175523,-0.001686752773821354,0.09254838900840881,0.006081786938011646,0.024428623779557995,0.9709505123632426,0.09721967873050254,right,-0.0012184381484985352,-0.43492247290529623,1.8675231798902152,-8.695392639163137,-0.21930147171820735,0.000005657668225467205,-0.0029868781566619873,4.1319346770510075,-0.0012905895709991455
1746739249669860400,8.4778603515625,0.21169687496633213,-0.0016997151542454958,0.09262176484227391,0.006159646902233362,0.024373326551621166,0.970937872229313,0.09714510530622279,right,-0.002324402332305908,-0.4349900570264826,1.8686745418824255,-8.694859555199741,-0.21933246069784978,-0.0014722996857017279,-0.004075720906257629,4.132535565553606,-0.002288252115249634
1746739249709860400,8.5178603515625,0.2118569133230281,0.0022864292841404676,0.09269250269553841,0.005677512846887112,0.02436308919523592,0.9709184797837255,0.09717314913813015,right,-0.0020751357078552246,-0.43510103717786114,1.869969550129026,-8.694111951702833,-0.2193894683732692,-0.0019314768724143505,-0.0038076043128967285,4.133522530764341,-0.003257930278778076
1746739249749860400,8.5578603515625,0.21216097227253916,0.0005927638849243522,0.0928090573260189,0.005350709427148104,0.02441812641537768,0.9708776290144865,0.09738231769680705,right,-0.00306093692779541,-0.4353323330821282,1.8724116825841366,-8.692608561402558,-0.2195148980964679,-0.006373461335897446,-0.003392145037651062,4.135579463294148,0.0002994835376739502
1746739249789860400,8.5978603515625,0.21248728343956308,-0.003938388545066118,0.09296405914802446,0.015140043571591377,0.024355260682990813,0.970842046239514,0.09734988593984789,right,-0.0021551847457885742,-0.43553092123984427,1.8750747643135488,-8.691194018429517,-0.21961355503675617,-0.004304666072130203,-0.0013402104377746582,4.137345011661947,-0.0005445778369903564
1746739249829860400,8.6378603515625,0.21293451518900336,-0.00335285859182477,0.09320530455783599,0.008488135412335396,0.02417995194779948,0.9708146236699616,0.09710068230094847,right,-0.004528701305389404,-0.43562266800190214,1.8788814631201325,-8.689983473595976,-0.2196518201139548,-0.00027820607647299767,-0.0014199167490005493,4.138160711959004,-0.0012550652027130127
1746739249869860400,8.6778603515625,0.2130287760453069,0.0001403337810188532,0.0932527201787203,-0.004904876463115215,0.024144786481805496,0.9708021053442972,0.0970592546513013,right,-0.0024746060371398926,-0.43570512565239,1.8796283359646797,-8.68947260146439,-0.21969095738859826,-0.002202455885708332,-0.002608582377433777,4.138893994669616,-0.00043210387229919434
1746739249909860400,8.7178603515625,0.21263818018005215,-0.010503008030354977,0.09308192694374706,-0.011407403275370598,0.024084159448094316,0.9708126506721743,0.09685729708228322,right,0.002521216869354248,-0.4358017118799083,1.8761498461991548,-8.689815715813637,-0.2197236068108813,0.00525367446243763,-0.001444697380065918,4.139752657325565,-0.003584951162338257
1746739249949860400,8.7578603515625,0.21274457136433123,-0.006494707893580198,0.09319641053630727,0.008683787658810616,0.023822505509054424,0.9708278101273681,0.09632692499288716,right,-0.007343113422393799,-0.4356703538347927,1.8771891261190174,-8.690147139725088,-0.21963656685784547,-0.0038802865892648697,-0.001004233956336975,4.138584782589972,-0.0016691982746124268
1746739249989860400,8.7978603515625,0.21308626092602664,-0.003849643748253584,0.09336532420746846,0.0030333278700709343,0.02368412291757911,0.9707704374383076,0.09616777961222311,right,-0.005007147789001465,-0.43608443055612733,1.8797958014860747,-8.687830094954371,-0.2198337146148199,-0.009182209149003029,-0.00025822222232818604,4.142265809190273,-0.0006054341793060303
1746739250029860400,8.8378603515625,0.2130503378001504,-0.001857055351138115,0.09334193659705443,-0.003142065368592739,0.023627965042538095,0.9707299787450033,0.09609210011261883,right,-0.002780914306640625,-0.43649441066425915,1.8791244780957699,-8.686236688283085,-0.22002829620371855,-0.003856188151985407,-0.00009897351264953613,4.14590971865058,-0.0019076168537139893
1746739250069860400,8.8778603515625,0.2127251846555039,0.0016754386015236378,0.09316556248361574,-0.004323293454945087,0.023697146956005125,0.9707197251644176,0.09618794973677773,right,-0.00010561943054199219,-0.43672465914544223,1.8760984082728622,-8.685914032199978,-0.22014043834854066,-0.0041376627050340176,-0.0003061443567276001,4.147955837525427,-0.0033669471740722656
1746739250109860400,8.9178603515625,0.2127862881612353,0.006439953576773405,0.09315509739051252,-0.000183790922164917,0.023838661124420252,0.9706987922384217,0.09650933044462633,right,-0.0010116100311279297,-0.4368606091178403,1.8765100578136742,-8.685248261767626,-0.2202219631081357,-0.004570481833070517,-0.0013797283172607422,4.1491640442714095,-0.0015408098697662354
1746739250149860400,8.9578603515625,0.2129164585454638,0.012069263495504856,0.0931588726824357,-0.004955891519784927,0.02405877086812322,0.9706731344685197,0.09700759100244973,right,-0.0016641020774841309,-0.43699010168580904,1.8775269797712564,-8.684478446438908,-0.22030943787027482,-0.0035489066503942013,-0.0023548752069473267,4.150314675611257,-0.003030627965927124
1746739250189860400,8.9978603515625,0.21303932117111998,0.009462365880608559,0.09314607072158734,-0.005088960751891136,0.024329854782028173,0.9706429825849857,0.09761315726759935,right,-0.003902733325958252,-0.4371526919607459,1.8784512550093233,-8.683588219600916,-0.22041785893934462,-0.010104062035679817,-0.0030191242694854736,4.151759029200673,-0.002615511417388916
1746739250229860400,9.0378603515625,0.2129174429356093,0.0027655763551592827,0.09303005369914576,-0.006111436057835817,0.024522664926625515,0.9706084485215114,0.09802209500213163,right,-0.0026015639305114746,-0.4374870673862143,1.8770994020089506,-8.68245950783193,-0.22059731344406688,-0.008419791236519814,-0.0033769607543945312,4.1547295694440605,-0.0002714693546295166
1746739250269860400,9.0778603515625,0.21276756834758362,0.003816526383161545,0.09293177375819793,-0.002414470538496971,0.024622555158441094,0.9705987040480957,0.09820993002949285,right,-0.0025980472564697266,-0.4376237272542072,1.8756782831646501,-8.682185367065667,-0.22067037667817407,-0.001873142085969448,-0.004400357604026794,4.155943621408939,-0.0028352439403533936
1746739250309860400,9.1178603515625,0.21294745103749677,0.006783774122595787,0.09298121784062874,0.0051798210479319096,0.024762930296918104,0.9705832721785012,0.09854352056355763,right,-0.0015892982482910156,-0.4376529573685685,1.8772144066907464,-8.681729439991711,-0.2207022262992913,-0.0029958325903862715,-0.004681020975112915,4.15620314912796,-0.003475487232208252
1746739250349860400,9.1578603515625,0.21326266535248803,0.0006711836904287338,0.09309888574747678,0.004105355590581894,0.024875874372634377,0.9705611140395042,0.09885207929783639,right,-0.0024576783180236816,-0.43768809707211526,1.8799200123876332,-8.680994695976375,-0.22073749750727178,-0.0020331128034740686,-0.003616824746131897,4.156515283817052,-0.000986635684967041
1746739250389860400,9.1978603515625,0.2133823987156081,-0.003978342283517122,0.09315653931265798,0.002842850051820278,0.02480132344656396,0.9705252971867699,0.09876071576216751,right,-0.002091050148010254,-0.43798503684666273,1.8806978648923336,-8.679562617346644,-0.2208785142078548,-0.0060844747349619865,-0.00402127206325531,4.159152646583318,-0.002253592014312744
1746739250429860400,9.2378603515625,0.2134273663385981,-0.0001355085987597704,0.09317990913321215,0.0018371633486822248,0.024743506788362738,0.970501488002253,0.09867728362585926,right,-0.0015725493431091309,-0.4382010113748866,1.880897917509079,-8.67859990979433,-0.22097974061738668,-0.006786655634641647,-0.004096195101737976,4.16107046290338,-0.0008960366249084473
1746739250469860400,9.2778603515625,0.21362666409498593,0.001546783372759819,0.09326448327687202,0.009131746366620064,0.024733387465031273,0.9704711460294386,0.09872472823670096,right,-0.00042182207107543945,-0.4383950929767718,1.8824562528669833,-8.677435542190075,-0.22107837507478875,-0.0025076894089579582,-0.0010990500450134277,4.162793925695121,-0.00024041533470153809
1746739250509860400,9.3178603515625,0.21401489783799046,-0.0007368207443505526,0.09345549886690162,0.005642815493047237,0.024695867862415483,0.9704614494337305,0.09872643926505403,right,-0.004200339317321777,-0.43831556967665974,1.8858952874049544,-8.677027545911074,-0.2210447411086783,0.004145854152739048,-0.0006867051124572754,4.16208782325238,0.0006534159183502197
1746739250549860400,9.3578603515625,0.2139393706651448,0.0019199855159968138,0.09345120431838555,-0.00023209769278764725,0.02460069601439879,0.9704869163773132,0.09849172881068408,right,-0.003985464572906494,-0.4381347890510788,1.8853996128425001,-8.677904913267493,-0.22094532884186502,0.0019232085905969143,-0.00024205446243286133,4.160482433882356,-0.003327488899230957
1746739250589860400,9.3978603515625,0.213708995349016,-0.005930440500378609,0.0933487949938308,-0.012897824868559837,0.024591176973285278,0.9705016831753134,0.0984162105806334,right,-0.006061673164367676,-0.4381055382896729,1.8834262669429183,-8.678458455497026,-0.22092480892759309,-0.00015363097190856934,-0.006333708763122559,4.1602226139023895,-0.002839714288711548
1746739250629860400,9.4378603515625,0.21333770153445528,-0.01005961000919342,0.0932135232328398,0.003529265522956848,0.02448039891529344,0.9705457624917431,0.09807816869912743,right,-0.00680774450302124,-0.4378914374513949,1.8803924522049724,-8.680027312248944,-0.2208008211285947,-0.003295996692031622,-0.0035575032234191895,4.158321456456184,0.0014638900756835938
1746739250669860400,9.4778603515625,0.21331230650818242,-0.007937880232930183,0.09323186124896146,0.004140173085033894,0.024277923405001678,0.9705166010859448,0.09769430915384748,right,-0.003793179988861084,-0.4382238212230589,1.8798792419858277,-8.678723828434943,-0.22094353915327808,-0.005530705209821463,-0.0035560578107833862,4.161272999738157,-0.0008752644062042236
1746739250709860400,9.5178603515625,0.2130176795790996,-0.015212025493383408,0.09314695383252997,-0.000004049390554428101,0.024048158013102176,0.9705331952729077,0.09715778490717529,right,-0.0010140538215637207,-0.4382580888505477,1.8772920019716024,-8.679137669932842,-0.22093157146313322,0.005055170971900225,-0.003977060317993164,4.161577535642683,-0.00047394633293151855
1746739250749860400,9.5578603515625,0.21271912122011236,-0.011347990483045578,0.09309842296015504,0.004640525672584772,0.023700872449929772,0.9705783547004381,0.09635014308228321,right,-0.0016934871673583984,-0.43805331648161877,1.8748805569157003,-8.680530585595966,-0.2207912527528606,0.010129421949386597,-0.004772886633872986,4.159759088043868,-0.002412140369415283
1746739250789860400,9.5978603515625,0.21293628509439488,0.012854523956775665,0.09322573267560952,0.00818423368036747,0.02364111563637106,0.970599780285871,0.0962425833183671,right,-0.005478024482727051,-0.4377653111002085,1.8770187379881738,-8.681293971183896,-0.22064938302456405,0.0014571314677596092,-0.006241142749786377,4.1572012202546,-0.0020126700401306152
1746739250829860400,9.6378603515625,0.21338830972787223,0.013426605612039566,0.09337352199182279,0.005603090859949589,0.023950321609494504,0.9705921994604613,0.0969578530986706,right,0.0015658736228942871,-0.4375559233124872,1.8811269039593637,-8.681295140227675,-0.22058675345018217,0.0068877087906003,-0.004051327705383301,4.155341271601617,-0.00033101439476013184
1746739250869860400,9.6778603515625,0.2140060863827216,-0.00527692586183548,0.09368460820603786,0.016740912571549416,0.02396547935324102,0.970628125282585,0.09705537912491138,right,-0.0032986998558044434,-0.4369281648713573,1.8870432883962989,-8.682678703540564,-0.22029477295474872,0.012154242023825645,-0.002503722906112671,4.149764348252117,0.0029702186584472656
1746739250909860400,9.7178603515625,0.2143661235495838,-0.022168470546603203,0.09395459662555057,0.013738030567765236,0.023563101887664233,0.970648889063363,0.09627608130381614,right,-0.004927933216094971,-0.4366582214923443,1.89040750413239,-8.683093129560351,-0.22013178038833192,0.006574468687176704,-0.000645756721496582,4.147365470416844,0.0005837082862854004
1746739250949860400,9.7578603515625,0.21463176593291053,-0.02086408995091915,0.09421588382882219,0.019283629953861237,0.022970299764038547,0.9706600802881116,0.09510354104621827,right,-0.004513561725616455,-0.436562377855018,1.8927986370526253,-8.682978563269971,-0.22003330670948604,0.008656131103634834,0.0012172460556030273,4.146513822023571,-0.0066245198249816895
1746739250989860400,9.7978603515625,0.21496007873316636,-0.00883464515209198,0.09447832607184056,0.010652556084096432,0.022535515691896386,0.9706825445004005,0.09425036553569834,right,-0.007505178451538086,-0.4362939388572473,1.8958866661958396,-8.683443842694162,-0.2198667940740551,0.007626641541719437,0.001968786120414734,4.144128095930815,-0.007473856210708618
1746739251029860400,9.8378603515625,0.2150067209339052,-0.001081444788724184,0.09453200728216621,-0.0017589079216122627,0.02243762249814732,0.970705076425515,0.0940341943173715,right,-0.0048226118087768555,-0.43608218801039017,1.8964789330005645,-8.68421307350099,-0.21975454525091184,0.004079899750649929,0.0015318095684051514,4.142245935446024,-0.006130129098892212
1746739251069860400,9.8778603515625,0.21487770686397206,0.006163074169307947,0.0944732328444654,-0.007468055468052626,0.022476983244605633,0.9707320219693886,0.09406227969352544,right,-0.0031836628913879395,-0.4358807176308951,1.8955365375839173,-8.685272811686993,-0.21965685233113258,-0.00040682218968868256,-0.00007104873657226562,4.140454960376024,-0.004161626100540161
1746739251109860400,9.9178603515625,0.2146939707334346,0.013124242424964905,0.09432155848952536,-0.0088618453592062,0.022746510226302998,0.970721170914763,0.09459112946508864,right,0.0002803802490234375,-0.43600869716168233,1.8938276878394185,-8.685102715817093,-0.219741739149706,-0.009420901536941528,-0.00289173424243927,4.141592732234299,-0.0034356117248535156
1746739251149860400,9.9578603515625,0.21496612492893122,0.014312541112303734,0.0943646038124331,0.0041306400671601295,0.023056782746054542,0.9706735016352913,0.09532185196529556,right,-0.0009430646896362305,-0.4362608752839545,1.8959684992603956,-8.683566592290997,-0.21990144148580912,-0.006747468840330839,-0.0037983059883117676,4.1438340814203025,-0.0011999905109405518
1746739251189860400,9.9978603515625,0.21508737179626156,0.005951773375272751,0.09435642092034506,-0.0018310337327420712,0.02331057713044245,0.9706468680875994,0.09588836246630598,right,-0.0018101334571838379,-0.43639686715429454,1.896900957804918,-8.682785671046375,-0.21999544123124917,-0.003589761210605502,-0.0035854578018188477,4.145042872688174,0.00012093782424926758
1746739251229860400,10.0378603515625,0.21508023761063563,0.002633570460602641,0.09432571169766503,-0.0013590522576123476,0.023445538083104168,0.9706511171286992,0.09615698815250456,right,0.00045031309127807617,-0.43633072706873555,1.8968975968040525,-8.683067410597205,-0.21997597849291076,-0.0005374248139560223,-0.005475685000419617,4.144455135928094,0.001405090093612671
1746739251269860400,10.0778603515625,0.21485805006833708,-0.00815073773264885,0.09422841356107182,-0.005664827302098274,0.023417301746944688,0.9706597222818973,0.09605192318034368,right,-0.0032194852828979492,-0.4363600111761296,1.8949423710830509,-8.683370192936062,-0.21998260834168307,0.011511707678437233,-0.0026056915521621704,4.144715248169005,-0.004227876663208008
1746739251309860400,10.1178603515625,0.21486497554135237,-0.008634373545646667,0.09429226971089777,0.005627922713756561,0.023197994596544955,0.97068898884459,0.09557447571902936,right,-0.004428863525390625,-0.4361305518556954,1.8952052598029374,-8.684285554215311,-0.21984908836746553,-0.0002538468688726425,-0.0008758306503295898,4.142675851295889,-0.0008282959461212158
1746739251349860400,10.1578603515625,0.21518447877426053,-0.004401118028908968,0.09447608252887243,0.003233945230022073,0.023008780270546387,0.9706638245939588,0.09527226070308396,right,-0.004008889198303223,-0.43625955421530255,1.8978655650533736,-8.683157426968217,-0.21990099290879328,-0.0008853242034092546,-0.002261608839035034,4.143822390982509,-0.00462108850479126
1746739251389860400,10.1978603515625,0.21508783750590416,0.0023402231745421886,0.09444556575202447,-0.006873857229948044,0.02298292955680031,0.9706873882775853,0.09517693858739816,right,-0.003486812114715576,-0.43608922830641095,1.8971771443977952,-8.684030118149519,-0.2198128957014846,0.009572074748575687,-0.0019341111183166504,4.1423084792882205,-0.0036139190196990967
1746739251429860400,10.2378603515625,0.2149172661745883,0.002601922256872058,0.0943666931731683,-0.0005294862203299999,0.0230500405621527,0.9707274331437077,0.09523970769369135,right,-0.0007935166358947754,-0.43577748158973884,1.8959711296088992,-8.685614756992459,-0.21966292820262578,0.005134142003953457,-0.000994846224784851,4.139537261009216,-0.003392428159713745
1746739251469860400,10.2778603515625,0.21502159902242687,0.00460381293669343,0.09439632677756638,0.0026142611168324947,0.023141222007150554,0.9707250146313321,0.09544567164688458,right,-0.0006081461906433105,-0.4357309439004147,1.8969183473311364,-8.685605404642224,-0.2196513153260754,-0.0029643187299370766,-0.0016113817691802979,4.139123419511318,-0.0031881332397460938
1746739251509860400,10.3178603515625,0.21519960239328997,0.006176759954541922,0.0944418081893696,0.003630225080996752,0.02328937408294412,0.970706078869848,0.09579852596462121,right,0.0026419758796691895,-0.4357928476437561,1.8984097549326717,-8.685017375621198,-0.21970000451284025,0.002736409194767475,-0.0005434602499008179,4.139673746870458,-0.005770057439804077
1746739251549860400,10.3578603515625,0.21545139716631742,0.006776467896997929,0.0945201233209342,-0.0007933308370411396,0.023443094557390944,0.9706835190450819,0.09617926355051903,right,-0.005918443202972412,-0.43585203639123615,1.9005441366128621,-8.684299582740664,-0.2197495963377316,-0.006310540251433849,-0.0022946298122406006,4.14020010883212,-0.0022586286067962646
1746739251589860400,10.3978603515625,0.21543177140098338,0.003977132961153984,0.09446588689376573,-0.003724688431248069,0.023594665864034886,0.970656821107386,0.09651398715456534,right,-0.003064274787902832,-0.4360784236362239,1.9001732574738561,-8.683421046340465,-0.2198747894249164,-0.004782691597938538,-0.0027768760919570923,4.142212325437367,-0.0010819435119628906
1746739251629860400,10.4378603515625,0.21551664074399438,0.003807771485298872,0.09448844446898927,0.005494759418070316,0.023675019963070858,0.9706543672152572,0.09669461984992414,right,-0.001723170280456543,-0.4360434061587166,1.9009413192369042,-8.683401757118105,-0.21986736557472245,0.005401940084993839,-0.0029418766498565674,4.1419010675311085,-0.002438277006149292
1746739251669860400,10.4778603515625,0.21590879224137696,0.0057513597421348095,0.09467466470465291,0.008694818243384361,0.023719434378871213,0.9706682574748741,0.0968361664841219,right,-0.003461003303527832,-0.4357172411681754,1.904635643710196,-8.683974588569999,-0.21972079191533028,0.004584189038723707,-0.0033906102180480957,4.139001546697318,-0.0019644200801849365
1746739251709860400,10.5178603515625,0.21639857972784476,0.012471617199480534,0.09487358704766606,0.007491563446819782,0.023868492181205316,0.9706558244107119,0.09723654540010117,right,-0.0028573274612426758,-0.43556946308705174,1.9090199962742627,-8.68363790396154,-0.21967402360335675,-0.0009350902400910854,-0.002437502145767212,4.137687833750248,-0.002427339553833008
1746739251749860400,10.5578603515625,0.2171546796154892,0.021315697580575943,0.09515032426399518,0.008471270091831684,0.024210123203600175,0.9706222579305341,0.09809706443556833,right,-0.0027489662170410156,-0.4354478694973964,1.9156936288192867,-8.68268337971568,-0.2196651257380719,-0.002822997746989131,-0.002604559063911438,4.1366067605152725,-0.0016160905361175537
1746739251789860400,10.5978603515625,0.2177311244545704,0.008411304093897343,0.09534975054239303,0.0063297138549387455,0.02451720165573976,0.970593112726276,0.09885166964966306,right,-0.000825047492980957,-0.4353760467912794,1.9207624565161763,-8.681867387157679,-0.21967331607063256,0.00064468989148736,-0.0008486658334732056,4.13596817035079,0.0017377138137817383
1746739251829860400,10.6378603515625,0.2180040521548055,-0.003156060352921486,0.0954949062599144,0.007019572425633669,0.024476477187762233,0.9706026707282116,0.09880426110131905,right,-0.0037393569946289062,-0.43516592578572133,1.9233198859140275,-8.682191212284565,-0.21957266311595713,0.010340547189116478,-0.0013164132833480835,4.134099746130406,-0.0007831752300262451
1746739251869860400,10.6778603515625,0.2178901062595479,-0.00030402583070099354,0.09547883567041536,-0.008093809708952904,0.02438828894484253,0.9706463975500103,0.09855627642231299,right,-0.005821287631988525,-0.43482890227696874,1.9226316113889217,-8.683770590430498,-0.21939625168327992,0.005522651597857475,-0.001956626772880554,4.131102317880094,-0.00566256046295166
1746739251909860400,10.7178603515625,0.2176550673074565,0.005148773081600666,0.09534931689060477,-0.004537684842944145,0.024521128175098356,0.9706739414727825,0.09875534057574654,right,0.000678718090057373,-0.43464962543895685,1.9207504738174377,-8.684944894906877,-0.21931606421268973,-0.0021401154808700085,-0.002327963709831238,4.129507742165029,-0.004407554864883423
1746739251949860400,10.7578603515625,0.21713184239461866,-0.0016546603292226791,0.0950925658784131,-0.0023667693603783846,0.024596978359793797,0.9707013125427485,0.09879005718988904,right,-0.0011355280876159668,-0.43462164719980667,1.916230950566381,-8.686061916238069,-0.21929775331570922,0.004674321506172419,0.0012769103050231934,4.129259028100967,-0.005420207977294922
1746739251989860400,10.7978603515625,0.21708603762253353,0.004601672291755676,0.09505808241591823,0.00019633141346275806,0.02461106398025051,0.9706811117472386,0.09883378314230255,right,-0.0017909407615661621,-0.43483085840660923,1.915647013198584,-8.685305544912815,-0.21940056411783523,-0.010152403265237808,-0.00011524558067321777,4.131119853536784,-0.002241790294647217
1746739252029860400,10.8378603515625,0.21704683302483974,-0.001659344881772995,0.09500059181638278,-0.004672465845942497,0.024708573477258612,0.9706427493660954,0.09906850395938066,right,-0.0014482736587524414,-0.43518713357924943,1.9149894260726867,-8.683942439866065,-0.21958375432611701,-0.005330015439540148,0.0010529309511184692,4.134288254439831,-0.0012713074684143066
1746739252069860400,10.8778603515625,0.21670897485404628,0.004170710686594248,0.094812866185494,-0.011905331164598465,0.02479013655715489,0.9706279213391629,0.09919365848980821,right,-0.004395186901092529,-0.43546743126432985,1.9118061198614538,-8.683457286697626,-0.21972122022618698,-0.010805882513523102,-0.003678455948829651,4.1367806557774545,-0.0023018717765808105
1746739252109860400,10.9178603515625,0.21649354191523623,0.017688991501927376,0.09462226187060446,-0.007647350896149874,0.02511465297315196,0.9705914654763461,0.09985734837627105,right,-0.0010401010513305664,-0.435833574247506,1.9096097788609563,-8.68238878068328,-0.21992724236238953,-0.009974890388548374,-0.00624421238899231,4.140035858181118,-0.002949953079223633
1746739252149860400,10.9578603515625,0.21668383526320548,0.015848929062485695,0.09466266250915296,0.0005404087714850903,0.02530338491563277,0.9705674917325218,0.1003001685133424,right,-0.0006455779075622559,-0.43592375112231174,1.9111817043527959,-8.68166046640873,-0.21999423990580172,-0.008955787867307663,-0.0056135207414627075,4.140837529952824,-0.0013726651668548584
1746739252189860400,10.9978603515625,0.2168741811198338,0.014008866623044014,0.0947030603244269,0.008728168904781342,0.025492105565003455,0.9705434594636649,0.10074301121505819,right,-0.0002511739730834961,-0.4360138964834284,1.9127539221055805,-8.68093215213418,-0.22006125208047086,-0.007936684414744377,-0.004982814192771912,4.141638909463584,0.0002047121524810791
1746739252229860400,11.0378603515625,0.21751043608778434,0.0037307951133698225,0.09495749435106043,0.01613004319369793,0.025622167756703316,0.9704887387715665,0.10117706543866652,right,-0.0038778185844421387,-0.4361947662093975,1.9181150107473133,-8.678981602588296,-0.22017753253797398,-0.0014353152364492416,-0.0011106878519058228,4.143246636921167,-0.0028793811798095703
1746739252269860400,11.0778603515625,0.21777294251934778,0.009706784971058369,0.09503350278579357,0.002613452263176441,0.02576820594646155,0.9704466576903911,0.10156591733602029,right,-0.0044214725494384766,-0.4364300236845562,1.9201826108016073,-8.677526143082975,-0.22031324340873917,-0.0034470653627067804,-0.0016432106494903564,4.145337471720576,-0.0014669597148895264
1746739252309860400,11.1178603515625,0.21776815152724735,0.0024357568472623825,0.09498333851471737,-0.004695674404501915,0.025977811388573923,0.9704405703566436,0.10199769893750825,right,-0.001829981803894043,-0.4364374354243312,1.9201345338761806,-8.677505684816836,-0.2203372696110976,0.0028118907939642668,-0.0015455782413482666,4.145403522694111,-0.0014613866806030273
1746739252349860400,11.1578603515625,0.21760663029096503,0.0005677990848198533,0.09491238509114598,-0.00474093621596694,0.02602256163312035,0.9704764921206728,0.10202046926839496,right,-0.002950429916381836,-0.43616517787257614,1.918976449882239,-8.67891730518043,-0.22020446153212597,0.004693202208727598,-0.0015391558408737183,4.142983602070808,-0.0027563869953155518
1746739252389860400,11.1978603515625,0.21738092199942563,0.008194237016141415,0.09478600895311227,-0.010289281606674194,0.026167087052051213,0.970505848232671,0.10224221354866464,right,-0.0035629868507385254,-0.4359583029955364,1.9172022798165678,-8.68018688672483,-0.2201119201316307,0.0005478854291141033,-0.004041358828544617,4.1411446962058545,-0.0036611855030059814
1746739252429860400,11.2378603515625,0.21722475612791728,0.013155465014278889,0.09466438405298185,-0.009451412595808506,0.026408841511366583,0.9705179604343898,0.10269272451429214,right,-0.0021422505378723145,-0.4358562598723374,1.9159376667082308,-8.680898249864578,-0.2200818192239443,-0.0018658661283552647,-0.0043804943561553955,4.140237518233061,-0.0025558173656463623
1746739252469860400,11.2778603515625,0.2170686150135282,0.018116693943738937,0.09454276813755141,-0.008613543584942818,0.026650578001273656,0.9705301368076956,0.10314322792289161,right,-0.0007216930389404297,-0.4357544528003729,1.914673053599894,-8.681609028482436,-0.22005175040205097,-0.00427961815148592,-0.004719585180282593,4.139332386086881,-0.0014506280422210693
1746739252509860400,11.3178603515625,0.21719775091455285,0.0036440277472138405,0.09453253963902457,0.0030228672549128532,0.026949060809043208,0.9705110274016127,0.10379241276878108,right,-0.0006702542304992676,-0.4357943287838022,1.915758510749042,-8.681200447681546,-0.22010349989770364,-0.0012830322375521064,-0.003177449107170105,4.139686898612976,-0.0006951391696929932
1746739252549860400,11.3578603515625,0.21751310073170743,0.004057328682392836,0.09468492749070666,-0.001809712965041399,0.026943251771105188,0.9705078990414717,0.10383773122558829,right,-0.005255639553070068,-0.43567629318961326,1.918601479090005,-8.681073021909594,-0.22005274510649878,0.0018290808657184243,-0.003726378083229065,4.138637681820988,-0.0015191137790679932
1746739252589860400,11.3978603515625,0.21782842647625195,0.004470630083233118,0.09483731251911447,-0.006642292719334364,0.026937446071315086,0.970504709333021,0.10388301871234523,right,-0.009841084480285645,-0.4355582697068927,1.9214443013004958,-8.680944427093863,-0.2200020049465516,0.004941193852573633,-0.004275292158126831,4.137588172768056,-0.002343118190765381
1746739252629532700,11.43753271484375,0.2175763869410294,0.0003031747182831168,0.09471768660645837,-0.005177832208573818,0.027072564196898897,0.9705707248944108,0.104039432243218,right,0.0013446472585201263,-0.4350200622712131,1.9197367667302487,-8.683601663604378,-0.21974549897095774,0.0087232431396842,-0.002352483570575714,4.1328023997962475,0.0005358537891879678
1746739252669532400,11.477532470703125,0.21715722645030777,0.0007443645736202598,0.09458238215798848,-0.000337403267621994,0.026941793487268228,0.9706549631325532,0.10360752628995568,right,-0.0010012984275817871,-0.43445867706772157,1.9165964228779075,-8.686669819003344,-0.21944763293512867,0.0076461853459477425,-0.0007471591234207153,4.127809121553599,-0.0007641017436981201
1746739252709532700,11.51753271484375,0.21673841526043242,0.0011855543125420809,0.09444704562373128,0.0045030261389911175,0.02681102945393458,0.9707390786740748,0.1031760164092228,right,-0.0033475756645202637,-0.4338972099065712,1.913456225156039,-8.68973388274908,-0.21914977588400222,0.006569127552211285,0.0008581429719924927,4.122814089745283,-0.0020639002323150635
1746739252749532700,11.55753271484375,0.2168427876531025,-0.002807879587635398,0.09449664852189174,-0.002115230541676283,0.026822598310396246,0.9707422489984515,0.10321345067180414,right,-0.0038475990295410156,-0.4338142222382798,1.9144367606259882,-8.689868322783708,-0.21911277208372917,0.0027781669050455093,0.00038489699363708496,4.122075546337664,-0.0028918087482452393
1746739252789532700,11.59753271484375,0.21632276247750276,-0.0033718387130647898,0.09428510109370673,-0.013362115249037743,0.026748334701187343,0.9707942763397857,0.10291598539360378,right,-0.003828585147857666,-0.43358803437692367,1.9101175822526215,-8.691772695100306,-0.2189822610419118,0.005996735766530037,-0.004249021410942078,4.120062745210528,-0.006538689136505127
1746739252829532700,11.63753271484375,0.21609056658865378,0.015253053978085518,0.09415347216270346,0.000834975391626358,0.02687744522235687,0.9708118558264354,0.10311883742828094,right,-0.0016992688179016113,-0.4334981412439982,1.908178723144531,-8.692577581742405,-0.2189451761082979,-0.00007536588236689568,-0.0030936598777770996,4.119262827004492,-0.005988776683807373
1746739252869532700,11.67753271484375,0.21660176350064103,0.02314828336238861,0.0942914535868819,0.0016263420693576336,0.02736789003564463,0.970800140504983,0.10421311600742554,right,-0.0020610690116882324,-0.43323634947246537,1.9128538753487168,-8.692654154109954,-0.2188769055089775,-0.0023791210260242224,-0.0060851722955703735,4.116932922752201,-0.0007715225219726562
1746739252909532700,11.71753271484375,0.21679479391210071,0.010667368769645691,0.09433606925844354,0.004023128654807806,0.02763768368006453,0.970817647561081,0.10477287972267661,right,-0.00046068429946899414,-0.4329071068657799,1.9148232757255434,-8.693608093833923,-0.21874651727166583,0.004391895607113838,-0.0034981220960617065,4.114002129997313,-0.0010898113250732422
1746739252949532700,11.75753271484375,0.21685176920717955,-0.004757018759846687,0.09436621994193199,-0.002532464452087879,0.027654095280446697,0.9708302638330871,0.10480132940307547,right,-0.006553292274475098,-0.432755745348856,1.915452513539791,-8.694107275527715,-0.21867536231790421,0.0012762192636728287,-0.0052490234375,4.112654807041586,-0.0026665925979614258
1746739252989532700,11.79753271484375,0.2165049763244879,-0.0028464393690228462,0.09422249271422306,-0.006650685332715511,0.027582779339327776,0.970849670583916,0.10457629186734908,right,-0.0029016733169555664,-0.43275562815084834,1.9124374035023153,-8.6947712923944,-0.21865992101130044,0.0029559482354670763,-0.0036777853965759277,4.112653637997806,-0.002392202615737915
1746739253029532700,11.83753271484375,0.21643145426355237,0.0063069723546504974,0.09418825822697076,-0.0005340110510587692,0.027603069500810113,0.9708617812539403,0.1045914113251636,right,-0.0013102293014526367,-0.43267132529035857,1.9118726092264056,-8.695250600343941,-0.21861877438131957,0.0023545105941593647,-0.005548983812332153,4.111903111891448,-0.003998756408691406
1746739253069532700,11.87753271484375,0.21667484933853967,-0.002210262231528759,0.09430456755133974,0.007795634679496288,0.02761781923659718,0.9708647627222866,0.10465871179116543,right,-0.0008049607276916504,-0.4325223374877923,1.9141206804141402,-8.6953832868129,-0.21855318143855298,0.00025969231501221657,-0.004227250814437866,4.110576539462804,-0.0016654729843139648
1746739253109532700,11.91753271484375,0.2170031024713222,-0.014049370773136616,0.09450127662418266,0.011005129665136337,0.027379500835684897,0.970837661309741,0.10426139046571122,right,-0.0033038854598999023,-0.4326864068169404,1.9168295009814202,-8.694095585089922,-0.21861839498404628,-0.007103090640157461,-0.0015714317560195923,4.112037259665131,-0.0016004443168640137
1746739253149532700,11.95753271484375,0.21707421733042354,-0.007424464914947748,0.09456778820169792,0.004170681349933147,0.027132605514808873,0.9707949749233361,0.10382136688081227,right,-0.0014278888702392578,-0.4331237883316993,1.9170603871278464,-8.692202318689226,-0.21881032166903547,-0.007475969381630421,-0.0030435770750045776,4.115931052233279,-0.007580161094665527
1746739253189532700,11.99753271484375,0.21706538213004453,0.007022360805422068,0.09453989601296627,-0.005778200924396515,0.027162451826568613,0.9707583779936394,0.10392199952523826,right,-0.001873016357421875,-0.4334658246092615,1.9166801556386053,-8.690843889817595,-0.21898058706247236,-0.009409744292497635,-0.0019439607858657837,4.118975242234766,-0.0036178231239318848
1746739253229532700,12.03753271484375,0.21721577177726312,0.007604608312249184,0.09454797571233746,0.005762017332017422,0.027331954205062563,0.9706977465454968,0.10436025864335136,right,-0.0009260773658752441,-0.4339236544002995,1.9175806116096674,-8.688713307529687,-0.21922499319112815,-0.013432156294584274,-0.00020976364612579346,4.123049359805882,-0.0013194680213928223
1746739253269532700,12.07753271484375,0.2175655380397542,-0.002072424627840519,0.09465177714541083,-0.0018864227458834648,0.02745309988894226,0.9706137265574872,0.10476063414642961,right,-0.002741694450378418,-0.4345186493193527,1.920089671821147,-8.685645152130723,-0.21953676718961426,-0.011914428323507309,-0.0027310699224472046,4.128342790038883,0.0014091134071350098
1746739253309532700,12.11753271484375,0.217306735849762,-0.0064907134510576725,0.09452527669197398,-0.009600624442100525,0.02737507318206515,0.9705763343336654,0.10460117725173991,right,-0.003294229507446289,-0.4350154018377652,1.917399263693392,-8.68413767017722,-0.21976614637363964,-0.011971455998718739,-0.005411550402641296,4.132760898742079,-0.00020429491996765137
1746739253349532700,12.15753271484375,0.21665257400765642,-0.009923719801008701,0.09422293291228002,-0.01944885402917862,0.027280119480579755,0.9705640011676968,0.10431166760768552,right,0.000014185905456542969,-0.43546704461389946,1.9113165827788412,-8.683566592290997,-0.21996217116046113,0.0038096262142062187,-0.007080003619194031,4.136777148646116,-0.003077387809753418
1746739253389532700,12.19753271484375,0.2168727381938451,-0.010760283097624779,0.09435994467313684,0.01576632261276245,0.027110764830997336,0.970551941216282,0.10401910759773027,right,-0.0034177303314208984,-0.43552134256984254,1.9131800385631619,-8.6829259562999,-0.2199776521173193,-0.0047943927347660065,-0.003500327467918396,4.137259963726997,0.001870661973953247
1746739253429532400,12.237532470703124,0.2174930472817751,-0.020835425704717636,0.09473321458472861,0.015972627326846123,0.02666484160921123,0.9705048025288975,0.10327292754570441,right,-0.0034003257751464844,-0.4357882347058814,1.9183274844542144,-8.680659180411697,-0.22007989452013216,0.0006691040471196175,-0.0007866621017456055,4.13963283033818,-0.0009987950325012207
1746739253469532700,12.27753271484375,0.21749558047557194,-0.014225224032998085,0.09482062392034747,0.0020635444670915604,0.02628008677081439,0.9705129994702414,0.10248303136105147,right,-0.004295766353607178,-0.43580833695482385,1.9183315761074422,-8.680573255693911,-0.22005223467401722,0.0006310446769930422,-0.003925785422325134,4.1398114017754795,-0.0050279200077056885
1746739253509532700,12.31753271484375,0.21732049703608808,0.004736222326755524,0.09477259852273076,0.002007224364206195,0.02609470237156655,0.9705065822174075,0.10208420464043669,right,-0.0011317133903503418,-0.4359987631490364,1.9166415771938858,-8.680138955929875,-0.220123218503912,-0.002810342703014612,-0.003127753734588623,4.1415044694289564,-0.00740581750869751
1746739253549532700,12.35753271484375,0.21785370937080756,0.008448274806141853,0.09499078385159587,0.013874796219170094,0.026202804552577553,0.9704709714956917,0.10243451409465575,right,-0.0019843578338623047,-0.4360533621985717,1.921220867808163,-8.678895093348622,-0.22017324188868398,-0.005666435230523348,-0.0030514001846313477,4.1419896225973964,-0.0048888325691223145
1746739253589532700,12.39753271484375,0.21928885947297622,-0.0032429592683911324,0.0956298403311053,0.024207497015595436,0.02625150574617282,0.9703749491865541,0.10288569609623471,right,-0.0006502270698547363,-0.4362608300241218,1.9334873519241809,-8.675289762333035,-0.22031397762738616,-0.0048054177314043045,-0.0010747015476226807,4.143833789159357,-0.0028587281703948975
1746739253629532700,12.43753271484375,0.22011061703604165,-0.008189047686755657,0.09604673069337424,0.024652037769556046,0.02602879077062382,0.9703141206031218,0.10264191316619342,right,-0.005965590476989746,-0.4364964316705353,1.940402538140118,-8.67274475402534,-0.22042705012258,-0.009774587117135525,0.00044386088848114014,4.145927838829159,-0.002403944730758667
1746739253669532400,12.477532470703125,0.22084939222088473,0.0031625591218471527,0.09638080159894578,0.005451364442706108,0.025885445992151722,0.970198943792423,0.10260760099069302,right,-0.0073830485343933105,-0.4372606430243671,1.9461146321766076,-8.668215293902158,-0.22080479217996582,-0.01437317579984665,0.000012859702110290527,4.152718229621649,-0.0026552975177764893
1746739253709532700,12.51753271484375,0.2211963636614625,0.0027336422353982925,0.09651728014231327,0.003220642451196909,0.02591010372874459,0.9701435585078613,0.10277989565408102,right,-0.0046713948249816895,-0.4376080443985651,1.94880547869578,-8.666131473365425,-0.22098568018384998,-0.0037971995770931244,0.00020304322242736816,4.155804212938249,-0.0030316412448883057
1746739253749532700,12.55753271484375,0.22138903110390917,0.006819095928221941,0.09658295190722171,-0.0030088876374065876,0.026042532761875885,0.9701453823181893,0.10307926028177067,right,-0.004649937152862549,-0.43746484794991003,1.9506058061160145,-8.666336056026816,-0.22093335335393013,0.0013072188012301922,-0.003354385495185852,4.154532293306291,-0.004050016403198242
1746739253789532700,12.59753271484375,0.22141884223381383,0.011535478755831718,0.09655915050053043,-0.005651877261698246,0.02622241054452119,0.9701463060837855,0.10344850735060222,right,-0.0047016143798828125,-0.43739653905658654,1.9509264163725077,-8.66655525173545,-0.22091851676534713,-0.004123251885175705,-0.003993704915046692,4.153925559584796,-0.0031013190746307373
1746739253829532700,12.63753271484375,0.2214839455808049,0.018186358734965324,0.096480750180019,-0.009234484285116196,0.026663670007587417,0.9701144580172459,0.10439196170507022,right,-0.002034783363342285,-0.4375509826581001,1.9513497563511133,-8.665801803019642,-0.22103963901792045,-0.006125914864242077,-0.005025550723075867,4.155297432459891,-0.0031158626079559326
1746739253869532700,12.67753271484375,0.2214084529478031,0.007279902696609497,0.09638721361600064,-0.006631465628743172,0.02692217980129983,0.9701113176495252,0.10490751227052554,right,-0.00111466646194458,-0.43754937335795724,1.9506969915308057,-8.66595553227663,-0.22106271710188247,-0.004191834479570389,-0.004719257354736328,4.155283111673593,0.0018796920776367188
1746739253909532700,12.71753271484375,0.2212632683152697,-0.006697782315313816,0.09631577264182646,0.005490181967616081,0.026895734563247932,0.9700971166441816,0.10484566233699485,right,-0.0020200014114379883,-0.43775944460149535,1.9492470849834382,-8.665386792477966,-0.22115941330033206,-0.002828102558851242,-0.0030122995376586914,4.157148905545473,-0.000572502613067627
1746739253949532700,12.75753271484375,0.2213109439355151,-0.0036911359056830406,0.09635469964981778,0.0018403923604637384,0.026791983428947046,0.9700836279715037,0.10465864469473225,right,-0.004076719284057617,-0.4378900477643114,1.9495410994939504,-8.664764276665448,-0.22121422845714514,-0.004266096279025078,-0.005980923771858215,4.158308889235556,-0.003274083137512207
1746739253989532700,12.79753271484375,0.22121928711753716,0.0028282729908823967,0.09630115833140085,-0.006168882362544537,0.0268145936880057,0.970074651529015,0.10469937613092083,right,-0.00216519832611084,-0.4380125824604906,1.9486350905649363,-8.664445712235569,-0.22127423797730789,-0.0014466429129242897,-0.005319803953170776,4.1593972689941525,-0.0003172755241394043
1746739254029532700,12.83753271484375,0.2209953494949908,-0.010725900530815125,0.09618831645172098,-0.01344360876828432,0.026823449002818738,0.9700694219406776,0.1046854501494494,right,-0.001948714256286621,-0.43816690426856736,1.9465540465071796,-8.664255742621421,-0.22134521975585184,0.003202911000698805,-0.003973975777626038,4.160767680564523,-0.0031966865062713623
1746739254069532700,12.87753271484375,0.22088340732922307,-0.012928677722811699,0.09619799580949272,0.009837082587182522,0.026562008352899603,0.9700854507959603,0.10411729163548829,right,-0.006212830543518066,-0.43813740458269573,1.9456109204381704,-8.664593011751771,-0.22130213605168064,-0.004700750578194857,-0.0014691799879074097,4.160505814757943,0.002617359161376953
1746739254109532700,12.91753271484375,0.22092988769375357,-0.013798639178276062,0.0962622116742711,0.004854222293943167,0.026290881044961772,0.9700504147681522,0.10361483345233863,right,-0.003503561019897461,-0.4385128086188226,1.9456712723232805,-8.662977977770566,-0.22146018692664496,-0.004118881653994322,-0.002153560519218445,4.1638390508338805,0.0008023679256439209
1746739254149532700,12.95753271484375,0.22061576484219028,-0.0007121218368411064,0.09618891882673664,-0.0006474645342677832,0.025973823996072364,0.9700724405472874,0.10289245306960165,right,-0.0035898685455322266,-0.43853748805104054,1.9429275265730916,-8.663488849902153,-0.2214332507700856,0.00751188350841403,-0.002872362732887268,4.164058246542513,-0.00570109486579895
1746739254189532700,12.99753271484375,0.22066355769167567,0.0023449305444955826,0.09619787046199585,0.001903563505038619,0.026085684266393617,0.9700933486855152,0.10310373071898729,right,-0.003510713577270508,-0.4382897054685241,1.9435672857813535,-8.664402457615733,-0.2213241778087867,0.0049311257898807526,-0.0029071569442749023,4.161858106149733,-0.003184765577316284
1746739254229532700,13.03753271484375,0.22071384821943602,-0.0006380381528288126,0.09622110294858587,0.0015583294443786144,0.02615517369383694,0.9701226756059657,0.10321984237955086,right,0.0011470913887023926,-0.43797351272270774,1.9442910700112581,-8.665588452529907,-0.22117743152817868,0.007912324741482735,-0.0030339211225509644,4.1590503552526235,-0.005526632070541382
1746739254269532700,13.07753271484375,0.22078308213934073,-0.0031954857986420393,0.09626992576318484,0.004331039264798164,0.026120337248942083,0.9701392317974155,0.10314190535118267,right,-0.003030240535736084,-0.43779425201618255,1.9450543094687163,-8.666181157726049,-0.22108784396948722,0.0024574161507189274,-0.003571838140487671,4.157458117625117,-0.004301607608795166
1746739254309532700,13.11753271484375,0.22085234024317849,-0.005752933211624622,0.09631876320904437,0.007103749550879002,0.026085474879679486,0.9701557322871113,0.10306391310059593,right,-0.007207632064819336,-0.4376149908484084,1.945817695056647,-8.666773278400301,-0.2209982592340714,-0.0029974919743835926,-0.0041097551584243774,4.155865879997611,-0.003076612949371338
1746739254349532700,13.15753271484375,0.22085647282763893,-0.0012112706899642944,0.09631615591386174,-0.00026240432634949684,0.026035095153545174,0.9701229607373788,0.10299975256133978,right,-0.004149019718170166,-0.43793214106531353,1.9455645970784126,-8.665478562414645,-0.2211486970496637,-0.004826487507671118,-0.003715217113494873,4.15868269098401,-0.0038317739963531494
1746739254389532700,13.19753271484375,0.22114493708850547,0.0023827499244362116,0.09644927460608399,0.005644474644213915,0.026038509339925988,0.9701107681425051,0.10306952554339313,right,-0.0006884932518005371,-0.4379074205484174,1.9480868090324102,-8.665017374643682,-0.2211438497043647,0.005662236828356981,-0.004162043333053589,4.158463203014433,-0.002686411142349243
1746739254429532400,13.237532470703124,0.22149979865047753,0.002449424471706152,0.09662640526668513,0.006424918305128813,0.02604186836647194,0.9701235356111495,0.10312166397933159,right,-0.005495011806488037,-0.43761620863794193,1.9514274977624415,-8.66550661946535,-0.22101009110171968,0.007345050573348999,-0.003927543759346008,4.15587669365257,-0.003405749797821045
1746739254469532700,13.27753271484375,0.2216025003669137,0.005591071210801601,0.09667400252907592,-0.00279636075720191,0.026130203432546285,0.9701590601167874,0.10327749250609634,right,-0.0040509700775146484,-0.4372109536449073,1.9526874346956609,-8.666948634967207,-0.22082288239376732,0.005850492510944605,-0.003881216049194336,4.15227662333399,-0.0034521520137786865
1746739254509532700,13.31753271484375,0.22155106588394763,0.0031687826849520206,0.09664736539591931,0.0034063453786075115,0.026183623606527144,0.9701795897716029,0.10335365770787289,right,-0.00016993284225463867,-0.43702938584646994,1.9524073025800286,-8.66778391674757,-0.22073803786131277,0.004557046107947826,-0.002969399094581604,4.1506636351794,-0.0034447014331817627
1746739254549532700,13.35753271484375,0.2219467499731129,0.006348608992993832,0.09682682460114177,0.006442612502723932,0.026216961137849343,0.9701690290190795,0.10350017723737662,right,-0.0024101734161376953,-0.43692974188687306,1.955927877921611,-8.667414498913288,-0.2207020828987642,-0.002371246460825205,-0.0024660974740982056,4.149778084516525,-0.004196196794509888
1746739254589532700,13.39753271484375,0.22203619998448332,0.00033613061532378197,0.09686382331938054,0.0017593763768672943,0.026230899679265257,0.9701619080065971,0.10355164411453714,right,-0.0004941225051879883,-0.4369491152388817,1.9566854182906448,-8.667160816413164,-0.2207151409042786,-0.002346649533137679,-0.003319859504699707,4.149950226213038,-0.002175748348236084
1746739254629532700,13.43753271484375,0.22239596238925066,0.0022863121703267097,0.0970312776059551,0.007482629269361496,0.02624038115377658,0.9701518226829197,0.10364301343574864,right,0.000755012035369873,-0.4368676127326449,1.959878076852113,-8.666786137881875,-0.22068485204585955,-0.0033457744866609573,-0.004151523113250732,4.149226295852661,-0.00256502628326416
1746739254669532400,13.477532470703125,0.22226050865058358,-0.0033375369384884834,0.09699236104028097,0.010649921372532845,0.02615912831536864,0.9701713257582899,0.1034327804138837,right,-0.0019190311431884766,-0.43677067466674424,1.9587927658334374,-8.667443725007772,-0.22062597171563253,0.01783285290002823,-0.0008396804332733154,4.148364710587263,-0.0043149590492248535
1746739254709532700,13.51753271484375,0.22276416715922975,-0.002404724480584264,0.09728631012921928,0.0191660039126873,0.02593960266860805,0.9701772026824366,0.1030647107020786,right,-0.0035530924797058105,-0.4365266266470866,1.963381554928422,-8.667443725007772,-0.2204965737241347,0.0004890095442533493,-0.001368403434753418,4.146196134376526,0.0027124881744384766
1746739254749532700,13.55753271484375,0.2230722240548298,-0.0048897527158260345,0.09746967533050235,0.006432130001485348,0.025799689191843448,0.9701857466138237,0.10282226942574377,right,-0.0038937926292419434,-0.4363317216994339,1.9662302223578094,-8.667626095837354,-0.22039444611122427,0.010694483295083046,-0.0033170580863952637,4.1444639037564395,-0.002073228359222412
1746739254789532700,13.59753271484375,0.22289840598707344,-0.000001030508428812027,0.0974603828379732,-0.005264786072075367,0.025660608010173638,0.9702806333872807,0.10240062886565121,right,-0.0026360750198364258,-0.4355564082723271,1.9654333728916942,-8.671098740383982,-0.21999651274729162,0.019178207963705063,-0.00414644181728363,4.137571806155145,-0.004810899496078491
