time,seconds_elapsed,roll,rotationRateZ,quaternionY,rotationRateY,quaternionZ,quaternionW,yaw,devicelocation,accelerationZ,pitch,gravityX,gravityZ,quaternionX,rotationRateX,accelerationX,gravityY,accelerationY
1746739464797889800,0.560889892578125,0.3330861847520862,0.012284113094210625,0.14331860961211101,-0.005675476975739002,-4.5789339133133616e-18,0.9439387558380467,0.10319203134148013,right,-0.00035059452056884766,-0.5961143842014256,2.6533655143007633,-7.6692007489323615,-0.2973875574048017,0.00010693306103348732,0.0004604160785675049,5.505760147517919,-0.0006584525108337402
1746739464837889800,0.600889892578125,0.333443987099224,0.016206491738557816,0.14339135070819026,-0.01043836958706379,0.000368973863608594,0.9439811154056561,0.103997504590219,right,-0.001867055892944336,-0.595629862306589,2.656982243493199,-7.67077077472806,-0.29721785159007713,0.012014871463179588,0.0008190572261810303,5.5018274842441075,-0.0005350708961486816
1746739464877889500,0.6408896484375,0.33380116405020366,0.020128872245550156,0.14346405608810386,-0.015201262198388577,0.0007379516405997407,0.9440232937350623,0.10480249812907669,right,-0.0033835172653198242,-0.5951450546842127,2.6605954655542967,-7.672340800523758,-0.29704808038827,0.023922808468341827,0.001178056001663208,5.4978913138389585,-0.0004113912582397461
1746739464917889500,0.6808896484375,0.3328816041961787,0.01499372348189354,0.14305389769376764,-0.008849973790347576,0.0011395299913731602,0.9442859979169153,0.10510558806521508,right,0.0016461014747619629,-0.5937383848626772,2.656063667343557,-7.6820853649467224,-0.2964088918342131,0.005078568588942289,0.0032168924808502197,5.486462741851806,0.006268918514251709
1746739464957889800,0.720889892578125,0.3330306506062519,0.002267278730869293,0.14312952627551084,-0.003000170923769474,0.0011608202995465515,0.9443099609697267,0.10515196955695036,right,0.0011414885520935059,-0.5934906885482512,2.6576526901006696,-7.682973253697156,-0.29629597324139506,0.009942349046468735,0.0014183521270751953,5.484449648463726,0.005671024322509766
1746739464997889800,0.760889892578125,0.33317968290382977,-0.010459165088832378,0.14320515485725402,0.0028496314771473408,0.0011821253555929214,0.9443339218906746,0.10519833712309459,right,0.0006369352340698242,-0.5932430061779489,2.6592420051187275,-7.68386114244759,-0.29618305464857697,0.014806129038333893,-0.0003802180290222168,5.482435386031866,0.005073249340057373
1746739465037889800,0.800889892578125,0.33318684879540056,-0.005225553642958403,0.14328600219181195,0.00025923841167241335,0.0006840857887560032,0.9441893493747242,0.10433524920325468,right,-0.0006353855133056641,-0.5942746673468935,2.657445477090776,-7.678492308890819,-0.2966057412987389,0.010620251297950745,-0.001010209321975708,5.49082093706131,-0.0003134012222290039
1746739465077889800,0.840889892578125,0.33310256744734984,0.0036887438036501408,0.1432768672711515,-0.00004582348628900945,0.0006591187018105149,0.9442303576751726,0.10421022871080647,right,-0.0036174654960632324,-0.5940261007059848,2.6572446938216685,-7.680006220585107,-0.29647999767573513,0.013375177048146725,-0.001062154769897461,5.488801413932443,0.0012053251266479492
1746739465117889500,0.8808896484375,0.3330157359396532,0.00724355224519968,0.14323483470983556,-0.0009563287021592259,0.0007610130945022072,0.944286150938376,0.10433377120009575,right,-0.00224149227142334,-0.5936719478567558,2.65721342190057,-7.682073674508929,-0.2963224880275109,0.007526718080043793,-0.0006893277168273926,5.485922643625736,0.0009151101112365723
1746739465157889500,0.9208896484375,0.3329287836674826,0.010798361152410507,0.14319278118022732,-0.0018668340053409338,0.0008629051801577823,0.9443418240867318,0.10445727984194736,right,-0.0008655786514282227,-0.5933176288291994,2.657180396413803,-7.68414112843275,-0.2961649151240677,0.0016782586462795734,-0.00031638145446777344,5.48304211975336,0.0006251335144042969
1746739465197889800,0.960889892578125,0.33290073013575144,0.0005381677765399218,0.1432178369904924,0.007153509184718132,0.0009095248203453031,0.9444387308272375,0.1044225399743855,right,-0.0001951456069946289,-0.5926380621259899,2.658181682410836,-7.687735353532433,-0.29584326630149,0.01393082831054926,0.00008445978164672852,5.477516049808264,-0.0001977086067199707
1746739465237889800,1.000889892578125,0.33278360141602337,-0.0023352012503892183,0.1432668899074749,0.004943179897964001,0.0006940605679369518,0.9445054092993572,0.10385342072184967,right,-0.0008684396743774414,-0.5922227438121325,2.6580241537615654,-7.690196190688013,-0.295607352572777,0.008513815701007843,0.0009017288684844971,5.474136928763985,-0.0006344318389892578
1746739465277889800,1.040889892578125,0.33280346570782343,0.0000425002072006464,0.14331996754961449,0.004224503878504038,0.0006155432010998466,0.9445410296360653,0.10364481530606098,right,-0.0017238259315490723,-0.5919578090491903,2.6586507612273094,-7.6915137030273675,-0.2954679577352943,0.004719405435025692,0.0014453232288360596,5.471981212034821,-0.0014199018478393555
1746739465317889800,1.080889892578125,0.3328234184051421,0.002420201664790511,0.1433730537192084,0.0035058273933827877,0.0005370405821354445,0.9445766478409098,0.10343625857208179,right,-0.002579212188720703,-0.59169277673538,2.6592779532149433,-7.692831215366721,-0.2953285039063195,0.0009249956347048283,0.001988828182220459,5.469824326261878,-0.0022052526473999023
1746739465357889500,1.1208896484375,0.33288124717838,0.003010418964549899,0.1433958005656321,-0.0058713629841804504,0.0006206345378139777,0.9446170794779938,0.10357258866322294,right,-0.002330780029296875,-0.5913721863060977,2.6602956058248877,-7.694334021145105,-0.29518770572744824,0.0013287108158692718,0.0013779401779174805,5.4672144360244275,-0.0021885037422180176
1746739465397889500,1.1608896484375,0.33269045680112674,-0.003584390738978982,0.14332246325160705,-0.007920453324913979,0.0006258076086223658,0.9446484913967385,0.10350065112951728,right,-0.0021170973777770996,-0.5912451709294947,2.659054373592138,-7.695497804227471,-0.29512281243874683,0.00527173699811101,0.0008960366249084473,5.4661804168015715,-0.003455817699432373
1746739465437889500,1.2008896484375,0.33249970203218626,-0.010179201140999794,0.143249125937582,-0.009969543665647507,0.0006309806794307538,0.944679903315483,0.10342875155617291,right,-0.0019033551216125488,-0.5911181583906362,2.657812849098444,-7.696661002787947,-0.29505791915004537,0.009214762598276138,0.00041416287422180176,5.465146397578716,-0.0047231316566467285
1746739465477889800,1.240889892578125,0.3321703885432512,-0.008999907411634922,0.14319624299928368,0.005258076824247837,0.0003460561628111518,0.9447009151888783,0.10272630458231921,right,-0.0014328956604003906,-0.591137926801353,2.655242998610437,-7.697433740726113,-0.2950168201866845,-0.011380581185221672,-0.000020444393157958984,5.465307141098379,0.0009867548942565918
1746739465517889800,1.280889892578125,0.3322743494974565,-0.003852470777928829,0.14322113221408894,-0.00035461410880088806,0.0003090360572948006,0.9446360452109581,0.10275569140672365,right,-0.0020653605461120605,-0.591549685453122,2.6553087573230263,-7.695029602193832,-0.2952124126738956,-0.011002402752637863,-0.0013711154460906982,5.468659374135732,-0.00194472074508667
1746739465557889800,1.320889892578125,0.3323023684686571,0.0036897999234497547,0.14318015268019807,0.0013046481180936098,0.00041102462121458,0.9445951048460821,0.10303143790492185,right,-0.0011690855026245117,-0.591828874023718,2.655026433250308,-7.693512183368205,-0.29536331265628923,-0.010008808225393295,-0.0008911192417144775,5.470931995242834,-0.0013893842697143555
1746739465597889500,1.3608896484375,0.33263524794036875,0.004385374486446381,0.14325630622087368,0.0044802892953157425,0.0005444387818715889,0.9445267968257184,0.10347615352138866,right,-0.0005493760108947754,-0.5921461905464293,2.657019945155084,-7.69098646428287,-0.2955443337826188,-0.01754213310778141,-0.0013518929481506348,5.473514412951469,-0.0010821819305419922
1746739465637889500,1.4008896484375,0.33292245684618066,0.0011974174994975328,0.14333935720457847,0.00904919020831585,0.0005920018987202284,0.9444610823748739,0.10372590744464251,right,-0.0002797245979309082,-0.5924688564610627,2.658651638010144,-7.6885530996561045,-0.2957138855590883,-0.011961959302425385,-0.0006883442401885986,5.476139500758052,-0.0005511045455932617
1746739465677889500,1.4408896484375,0.33320989100644627,-0.0019905392546206713,0.14342242719988338,0.01361809205263853,0.0006395650155687272,0.9443953679240293,0.10397583794729849,right,-0.000010073184967041016,-0.5927914573399375,2.660283623126149,-7.68611915050745,-0.29588340997167534,-0.006381785962730646,-0.00002485513687133789,5.478763419520854,-0.00001990795135498047
1746739465717889800,1.480889892578125,0.3334281008253126,-0.003682147478684783,0.1435160148415584,0.005356461741030216,0.0004598880112201396,0.9442771642871404,0.10379840812245132,right,-0.003545105457305908,-0.5935249638288144,2.6606445653930306,-7.681738743466139,-0.29621525328539877,-0.018933258950710297,-0.0005128979682922363,5.4847278808832165,0.0001576542854309082
1746739465757889800,1.520889892578125,0.33396428420210655,0.0007057336624711752,0.14366889795534313,0.007072269916534424,0.0005422783030339243,0.944147516192308,0.10426082308320399,right,-0.0021345019340515137,-0.59417544153682,2.66359289380461,-7.676938649708032,-0.29655404194111945,-0.013483406975865364,0.00005361437797546387,5.490014881375432,0.0005767941474914551
1746739465797889800,1.560889892578125,0.33438761054315747,-0.005621497519314289,0.14380633603000206,0.009325802326202393,0.0005624780291935161,0.94405040564069,0.10452433380825703,right,-0.0013878345489501953,-0.5946516963906501,2.6659841728553175,-7.673340332955122,-0.2967966783631761,-0.01233440451323986,0.0010797083377838135,5.493884416285157,0.00199735164642334
1746739465837889800,1.600889892578125,0.33484874906442824,-0.005865604616701603,0.1439918448424726,0.008155915886163712,0.0004332274203899835,0.9439231661667117,0.10451933873575164,right,-0.0017827749252319336,-0.595322887733954,2.66830998545438,-7.668625579392909,-0.29711151648960654,-0.014954646117985249,0.0015192031860351562,5.499335082906485,-0.00037992000579833984
1746739465877889500,1.6408896484375,0.3352568255863553,0.0012047337368130684,0.1441259561282027,0.003960850182920694,0.00039670976382258214,0.9438005288032932,0.10469323604602869,right,-0.0014670491218566895,-0.5959876239014797,2.6702359850808977,-7.664082675266266,-0.2974361188993825,-0.01666315272450447,-0.0002015829086303711,5.504731388992071,-0.0014770030975341797
1746739465917889500,1.6808896484375,0.3355490499511838,0.009059890173375607,0.144162039159659,0.0010155453346669674,0.0005546298468707996,0.9437091657241213,0.10521240795771891,right,-0.002928495407104492,-0.5964870560832943,2.6715698640331627,-7.660704723265766,-0.2977080074663517,-0.02509893663227558,0.0007077455520629883,5.508783879253268,0.0010747313499450684
1746739465957889800,1.720889892578125,0.3359683132143596,0.004825680050998926,0.14418775714212173,-0.000766269164159894,0.0008114504785967293,0.943548521511996,0.10606059301278964,right,-0.0013456940650939941,-0.5974127716773107,2.6730989732965824,-7.654765980866551,-0.29820366622965316,-0.027198851108551025,-0.0004807114601135254,5.516292062926292,0.0009580850601196289
1746739465997889800,1.760889892578125,0.3360985933234866,-0.007680769544094801,0.14417243333591476,0.008448842912912369,0.0008613980997155596,0.9434391009706107,0.1063393374284222,right,-0.0016333460807800293,-0.5981226098388224,2.6728040820032355,-7.650719335824251,-0.2985568339362885,-0.010898781940340996,0.0009019970893859863,5.522046096408367,0.005648910999298096
1746739466037889800,1.800889892578125,0.33624121222328357,-0.013531610369682312,0.14426415174154647,0.0067576332949101925,0.0006355498132398521,0.9433555155901648,0.10600242951571404,right,-0.004312574863433838,-0.5986439488184275,2.6729449517786503,-7.647619616243243,-0.29877714289170254,-0.0030775563791394234,0.0011851489543914795,5.526270436105132,0.00609356164932251
1746739466077889800,1.840889892578125,0.33607380040386614,-0.009678533300757408,0.14422422573707946,0.001137950923293829,0.00047199849538658603,0.943330014660669,0.1056523095139685,right,-0.002955019474029541,-0.5989117241981058,2.6711767730623484,-7.646669768172502,-0.298877426192476,-0.0005877162329852581,0.0010517239570617676,5.528439596837758,0.0034101009368896484
1746739466117889500,1.8808896484375,0.33590622510510676,-0.005825456231832504,0.14418429973261188,-0.004481731913983822,0.00030843012262463224,0.9433043957481894,0.10530204230245954,right,-0.001597583293914795,-0.5991794250353571,2.669407425302267,-7.645719920101762,-0.29897770949324975,0.0019021243788301945,0.0009183883666992188,5.530607588526606,0.0007267594337463379
1746739466157889500,1.9208896484375,0.3357150192768013,0.016615919768810272,0.14403834729292647,-0.010975753888487816,0.0005194084982781603,0.943321776201901,0.1056838676566232,right,0.0015300512313842773,-0.5991530107787478,2.667993466851115,-7.646367570355534,-0.2989928062133669,0.0033246467355638742,-0.002158254384994507,5.530393653514981,-0.003107309341430664
1746739466197889800,1.960889892578125,0.335831670569687,0.007043708115816116,0.14403054921634464,-0.003989463206380606,0.0007338195391253375,0.9433326982566312,0.10614984114819898,right,0.0021956562995910645,-0.5990149814378323,2.669136791667342,-7.646777320200204,-0.29896165722086493,-0.0011381793301552534,-0.0005599558353424072,5.5292760476619005,-0.0027518272399902344
1746739466237889800,2.000889892578125,0.3359481633916645,-0.002528504468500614,0.14402271542359812,0.00299682654440403,0.0009482453278450746,0.943343618179498,0.10661573840241184,right,0.0028613805770874023,-0.5988768155899051,2.6702795319616794,-7.6471870700448745,-0.2989304428412801,-0.00560100469738245,0.0010383427143096924,5.5281566882431505,-0.002396225929260254
1746739466277889800,2.040889892578125,0.33604748815669017,-0.009962784126400948,0.1440951388419778,0.0012671643635258079,0.0007709420861137091,0.943289330594147,0.10633342444794,right,-0.0036129355430603027,-0.5992115556615485,2.6704285850435494,-7.645174561178684,-0.2990671719061138,-0.002193960826843977,-0.000497281551361084,5.530868285289406,0.000973045825958252
1746739466317889800,2.080889892578125,0.3359700858893708,-0.00027333013713359833,0.14407500786720173,0.002467487473040819,0.0006738619104978652,0.9432620501390707,0.10614636934382332,right,-0.0018782615661621094,-0.5994451301489453,2.669410932433605,-7.644161584743857,-0.29916321020468634,-0.002953265095129609,-0.0010795295238494873,5.532759213602542,-0.0004386305809020996
1746739466357889500,2.1208896484375,0.335984223479575,0.004544295370578766,0.144064109546522,0.0004709551576524973,0.0007244043584926845,0.9432594415128722,0.1062600827305371,right,-0.0009868144989013672,-0.5994562839081583,2.669498610717058,-7.644065723153949,-0.2991766306270953,0.0009536331053823233,-0.00013568997383117676,5.532849814495444,-0.000038683414459228516
1746739466397889500,2.1608896484375,0.33599840122443964,0.00936192087829113,0.14405322597371528,-0.0015255773905664682,0.0007749468064875147,0.9432568328866736,0.10637380960966693,right,-0.00009542703628540039,-0.5994674450948523,2.669586873522401,-7.64396927704215,-0.29919005318136793,0.004860531538724899,0.0008081197738647461,5.5329398308664555,0.0003612041473388672
1746739466437889500,2.2008896484375,0.3360545913579035,-0.0012061265297234058,0.1440795222195544,0.002155615482479334,0.0008329465199014021,0.9432906057159823,0.10646468794778143,right,0.0006421208381652832,-0.5991983037851925,2.6705069109767674,-7.645224245539307,-0.2990704249725255,0.0022575717885047197,0.0017116963863372803,5.530760733261704,0.0015319585800170898
1746739466477889800,2.240889892578125,0.33609299704643625,-0.004841304384171963,0.14414138912987648,0.0021280094515532255,0.0006823214834248944,0.9432840135788341,0.10616271865309525,right,-0.001363992691040039,-0.5992264499709579,2.6707494875609874,-7.6449752392143004,-0.2990618729595939,0.0005707559175789356,0.0008309781551361084,5.530988696798682,-0.00048345327377319336
1746739466517889800,2.280889892578125,0.3360440200838806,0.0031967880204319954,0.1441071772419258,-0.00917650107294321,0.0006695311791228584,0.9432556299355105,0.1061620122267783,right,-0.0017148852348327637,-0.5994524932430685,2.6699624288365245,-7.643925437900424,-0.29916783030346406,-0.011221561580896378,-0.0015401840209960938,5.5328188348352905,-0.0015447139739990234
1746739466557889800,2.320889892578125,0.33606783660249123,0.010361619293689728,0.1440387941553139,-0.012426079250872135,0.0008789700140289059,0.9432317384830764,0.10664252097339869,right,-0.0015014410018920898,-0.5996080305374195,2.669860722027719,-7.643049239587783,-0.2992754124982256,-0.0035861055366694927,-0.002209395170211792,5.534078479507565,-0.0021739602088928223
1746739466597889500,2.3608896484375,0.3360918736152972,0.017526451498270035,0.14397041728912088,-0.015675658360123634,0.0010884321242626866,0.9432079038902708,0.10712318918377059,right,-0.0012881159782409668,-0.5997638141078234,2.669760184262693,-7.642171287709474,-0.2993830558163425,0.0040493495762348175,-0.0028787553310394287,5.535339293223619,-0.002803325653076172
1746739466637889500,2.4008896484375,0.33627129580462256,-0.003380141220986843,0.14398025882435475,0.007822128012776375,0.001347149245549506,0.9432233821238644,0.10769084048559757,right,-0.003734290599822998,-0.59955989479003,2.671503813059628,-7.64275756316483,-0.2993284097462502,-0.012958593666553497,0.0020543932914733887,5.533688603407144,0.008432328701019287
1746739466677889500,2.4408896484375,0.33642634199819244,-0.016376648098230362,0.1440485502674143,0.005514176096767187,0.0011646954034142422,0.9431119034277842,0.10748544931550444,right,-0.002251148223876953,-0.6002713696089271,2.6713883699864147,-7.638624993404745,-0.29964735198403597,-0.01951831579208374,0.00014510750770568848,5.539447313064336,0.0024512410163879395
1746739466717889800,2.480889892578125,0.33618884044211017,0.003090732730925083,0.1439262027445372,-0.00513440603390336,0.0009923166993063655,0.9429902358272428,0.10722698331828635,right,-0.0012913346290588379,-0.6012538946970022,2.667777193751931,-7.634117160591483,-0.30008929702596426,-0.011211692355573177,-0.002407848834991455,5.5473956417202945,-0.004723727703094482
1746739466757889800,2.520889892578125,0.3366471500189709,0.01262711826711893,0.14396495325522526,-0.0031840717419981956,0.0013963963711501983,0.9429080961842289,0.10829377424554806,right,-0.0014019608497619629,-0.6015970531175125,2.6706469039693475,-7.631096935987472,-0.30032721329771556,-0.013828862458467484,-0.0021923482418060303,5.550170367130637,-0.0010630488395690918
1746739466797889800,2.560889892578125,0.3369309310475436,0.0030563129112124443,0.14395512597631144,-0.00023597548715770245,0.0017372759394562766,0.9428482814602991,0.10915819788695726,right,0.000702977180480957,-0.6018703837920303,2.6723107455283404,-7.628906732466817,-0.30051778737598744,-0.007071587257087231,0.00008556246757507324,5.5523798598736525,0.0005385279655456543
1746739466837889800,2.600889892578125,0.33703523698544463,-0.0021751224994659424,0.14396059993088062,0.0030275853350758553,0.0017540326801823174,0.9427805762077969,0.10930618816775894,right,-0.0020488500595092773,-0.602294916653637,2.6723265276193615,-7.626402640691399,-0.3007274963015886,-0.011443202383816242,-0.001155763864517212,5.555811003366112,-0.0007762312889099121
1746739466877889500,2.6408896484375,0.3371691351443755,0.0005170439835637808,0.14396989783648598,-0.0002092642243951559,0.0017798869950803754,0.9427002939452324,0.10949662732205853,right,-0.0020431876182556152,-0.6027924641547006,2.6724329106032845,-7.623435023057461,-0.3009744947378123,-0.015561889857053757,-0.0005533397197723389,5.559831344923377,-0.0007590055465698242
1746739466917889500,2.6808896484375,0.33730311897016324,0.003209210466593504,0.1439791472347448,-0.003446113783866167,0.0018057327825240835,0.9426199526911762,0.10968718753780454,right,-0.0020377635955810547,-0.6032900975241605,2.672538416804373,-7.620465067335963,-0.30122151627419136,-0.019680576398968697,0.000049173831939697266,5.563850517436862,-0.0007416605949401855
1746739466957889800,2.720889892578125,0.33782279276539606,0.012452827766537666,0.1440683295496644,0.005247746128588915,0.002009070414716614,0.9424639682258517,0.11044021936264688,right,0.0010572075843811035,-0.6041209395180015,2.6749653516903518,-7.614711618375778,-0.3016654925357766,-0.02154645137488842,-0.0000013113021850585938,5.5705579061210155,-0.000006794929504394531
1746739466997889800,2.760889892578125,0.33836496057626647,-0.002178503666073084,0.1442271267628157,0.006095320917665958,0.0021026796523631423,0.9423517292251912,0.1109082546548089,right,-0.0025547146797180176,-0.6046317358713135,2.67814836564064,-7.610574372440576,-0.30193910029618914,-0.004195997957140207,-0.000021904706954956055,5.574679954487085,0.002755403518676758
1746739467037889800,2.800889892578125,0.33866717696340487,0.0005526943132281303,0.14434018003735383,0.008308352902531624,0.002051943476987988,0.9422745688309976,0.11097054417198983,right,-0.0013412237167358398,-0.6050213905326643,2.679726574742794,-7.6077160604000085,-0.3021263889011286,-0.00546108465641737,-0.00001150369644165039,5.577823513209819,0.0014466047286987305
1746739467077889800,2.840889892578125,0.33896959290033646,0.0032838922925293446,0.14445326707136483,0.01052138488739729,0.002001198774158373,0.9421973494453117,0.11103300087331874,right,-0.00012791156768798828,-0.6054110094518158,2.681304199323058,-7.604855410271883,-0.3023136522740494,-0.00672617182135582,-0.0000011622905731201172,5.580965318366885,0.00013786554336547852
1746739467117889500,2.8808896484375,0.33919250514804306,0.0016622270923107862,0.1445137503700992,-0.00035516172647476196,0.0020518075074972266,0.9421496835585021,0.11125324658657479,right,-0.0012868046760559082,-0.6056304161383057,2.6825916087850925,-7.603101844602823,-0.302432575492771,-0.007587166037410498,-0.0004885196685791016,5.582734666126966,0.0010631680488586426
1746739467157889500,2.9208896484375,0.3395568763677647,-0.0035314285196363926,0.1445671111717135,-0.003076583845540881,0.0021632898666718993,0.9420074589310099,0.11175957346095249,right,-0.0003300905227661133,-0.6064412225745259,2.683853591544926,-7.597853422555327,-0.3028491810064145,-0.018668223172426224,-0.0016441047191619873,5.5892696208536625,0.00019305944442749023
1746739467197889800,2.960889892578125,0.3394837755105991,-0.00411722157150507,0.14453576064299245,0.003137246472761035,0.0020937183019523156,0.9419721669778082,0.11164217354662315,right,-0.0022763609886169434,-0.6067269822316081,2.682766088569164,-7.596543509000539,-0.302974402136452,-0.02006036788225174,-0.0007947683334350586,5.5915720525771375,0.0022029876708984375
1746739467237889800,3.000889892578125,0.3394106601907205,-0.004703014623373747,0.14450442912587164,0.009351076558232307,0.0020241319893596404,0.9419368771564699,0.11152469733071234,right,-0.0042226314544677734,-0.6070127103385916,2.6816785855934024,-7.595233010923862,-0.30309959590260716,-0.021452512592077255,0.00005456805229187012,5.593873899778723,0.004212915897369385
1746739467277889800,3.040889892578125,0.33978274085523863,-0.007743466179817915,0.14459709121054695,0.0016280912095680833,0.0019267198806735305,0.9417390898365585,0.1116630963744183,right,-0.001883387565612793,-0.608209094463646,2.682272167572379,-7.587918888518214,-0.3036700039185922,-0.0196145661175251,0.001042008399963379,5.603506235998869,0.0011222362518310547
1746739467317889800,3.080889892578125,0.3398040638660894,0.0018242192454636097,0.1445800913417826,0.0009058797149918973,0.001924353586990028,0.9416898071786272,0.11172787928517136,right,-0.0016219615936279297,-0.6085428986806608,2.6818103952795265,-7.58609810283184,-0.3038309346917973,-0.007922769524157047,0.00008794665336608887,5.606192698603868,0.0011626482009887695
1746739467357889500,3.1208896484375,0.34008376037482346,0.003418262116611004,0.1446706715169963,0.005671818740665913,0.0019841779817639654,0.9416549618108847,0.11196421263428606,right,-0.0008711814880371094,-0.6086437516236906,2.68374340916872,-7.584814492762089,-0.3038954899682483,-0.006207156926393509,-0.0005228817462921143,5.607004014986753,0.0018468499183654785
1746739467397889500,3.1608896484375,0.34036547100523934,0.0005566191393882036,0.1447690595826333,0.005831172689795494,0.0020355453005947146,0.9416275420363812,0.11217327981641816,right,0.0004404783248901367,-0.6086916731225411,2.6857904048264025,-7.583805023458599,-0.3039333202279328,0.0030533624812960625,0.00008746981620788574,5.607389799433946,0.00012743473052978516
1746739467437889500,3.2008896484375,0.3404720932864784,-0.0008963110158219934,0.14484949484152418,0.0022970265708863735,0.0019696503688651328,0.9416450772242299,0.1120344023500398,right,-0.0029567480087280273,-0.608515134757738,2.6869293457284567,-7.584451504668593,-0.3038407897632362,0.005173848941922188,0.0006968677043914795,5.6059694112420075,0.00017178058624267578
1746739467477889800,3.240889892578125,0.3404410447384042,0.004915036726742983,0.14483181777347648,-0.00007497682236135006,0.0019915398873034643,0.9416517295471126,0.11206503304160845,right,-0.0017411112785339355,-0.6084842291578999,2.686751651073992,-7.584698172906041,-0.3038285082693871,0.0017394861206412315,0.0006018280982971191,5.605720404917001,-0.0009383559226989746
1746739467517889800,3.280889892578125,0.3406618358550493,0.013593882322311401,0.14487232027489985,-0.0006762560806237161,0.002209354559794234,0.9416666161815713,0.11255740968200997,right,-0.0019099116325378418,-0.6082648879298928,2.688837225176394,-7.585263990095258,-0.3037617327173031,0.0025456699077039957,0.0007870495319366455,5.603955733332038,-0.0017194747924804688
1746739467557889800,3.320889892578125,0.3407069082891199,0.004639497026801109,0.14485938887501326,-0.0011583640007302165,0.0024195561543024053,0.9417263260636352,0.11293424991510564,right,-0.0016509294509887695,-0.6078200080029642,2.690011821913719,-7.587491018494963,-0.3035809073115084,0.005862373858690262,0.0013580322265625,5.600374952235818,0.00224381685256958
1746739467597889500,3.3608896484375,0.340530679588056,-0.0028234561905264854,0.14479489455287295,-0.0016823348123580217,0.002429206238825314,0.9417621496424178,0.1128674743467174,right,-0.0009881854057312012,-0.60765890399239,2.6889757568642496,-7.588815545096993,-0.30350045965700745,-0.00109168142080307,0.0014679133892059326,5.599077898162603,0.0016116499900817871
1746739467637889500,3.4008896484375,0.34035571706668,0.0013743368908762932,0.14470283129918474,-0.0020961242262274027,0.002451941853670048,0.9417554905661901,0.11288496627456909,right,-0.00012409687042236328,-0.6077943586772165,2.687394917413592,-7.588570630425214,-0.3035649009508064,-0.004251830745488405,-0.0007656216621398926,5.600168031486868,-0.0023236870765686035
1746739467677889500,3.4408896484375,0.3404742618141059,0.00871291384100914,0.14469778900169347,-0.0038594703655689955,0.002621507925990814,0.9417457340388979,0.1132842162604668,right,-0.000008881092071533203,-0.6077993033392943,2.688285144251585,-7.588226347032189,-0.3035962414360471,0.0005147242918610573,-0.0015186965465545654,5.600207778975367,-0.0011925697326660156
1746739467717889800,3.480889892578125,0.3404929390799987,0.005477795377373695,0.1446524178251973,-0.0036456589587032795,0.002842076179586,0.941775399123392,0.11371679925930062,right,-0.002163529396057129,-0.6075780823568645,2.688840732307732,-7.58934395288527,-0.3035240083944285,0.0013657327508553863,0.00010213255882263184,5.598426740777493,0.002035796642303467
1746739467757889800,3.520889892578125,0.34026346604240343,-0.005865651182830334,0.144520715887959,0.000513163860887289,0.0028800769015658685,0.9417519591667217,0.11377652223515361,right,-0.00005525350570678711,-0.6078583231431378,2.6865754177242516,-7.588481783097982,-0.3036591442300947,-0.013070122338831425,-0.0015025734901428223,5.600682995271683,0.0004353523254394531
1746739467797889800,3.560889892578125,0.33946471641456333,-0.022229831665754318,0.14421513407254524,0.0032358686439692974,0.002566241779862422,0.9416868139310723,0.11301602451967266,right,-0.0004996061325073242,-0.6087253309341408,2.6788953846156596,-7.58604315777421,-0.3040089275714758,-0.02412344515323639,-0.0001818239688873291,5.6076604330688715,-0.0003781318664550781
1746739467837889800,3.600889892578125,0.3395038808342236,-0.01875569485127926,0.14425389381427942,0.01239650696516037,0.0021494269494081943,0.9414847296889918,0.11240686828957475,right,-0.0037350058555603027,-0.6101229174969367,2.676579801149666,-7.578540819320082,-0.304619030549028,-0.029047023504972458,0.0004210174083709717,5.618899035441875,0.00047969818115234375
1746739467877889500,3.6408896484375,0.339620771884453,-0.011413405649363995,0.14433216432949625,0.005090796854346991,0.0018177823378601346,0.941337001908485,0.11192387655921143,right,-0.004533648490905762,-0.6110972451682076,2.6756404744729396,-7.57306209564805,-0.3050401703375753,-0.009204952046275139,-0.00006109476089477539,5.626726952588558,0.0004127621650695801
1746739467917889500,3.6808896484375,0.33968809942231554,0.0072779180482029915,0.1443821589662329,0.004048550501465797,0.001719940673249009,0.9413143483418825,0.11176142440261881,right,-0.0037789344787597656,-0.6112224904959637,2.675915492022037,-7.5722180460393425,-0.30508708498898174,-0.0006277067586779594,-0.0008352100849151611,5.627732914760709,0.00016254186630249023
1746739467957889800,3.720889892578125,0.340124405271146,0.010671626776456833,0.14451752873137433,0.006082778796553612,0.001908041199197823,0.9413048033449749,0.11227304012537116,right,-0.0028269290924072266,-0.6110665310025455,2.679512055209279,-7.571877269777655,-0.3050514577737329,-0.002209955360740423,0.0004968345165252686,5.62648028435111,0.005100905895233154
1746739467997889800,3.760889892578125,0.3401681102267105,-0.0012418581172823906,0.1445117611878115,-0.007227938622236252,0.002008262328945084,0.9413162123755936,0.11248069481874716,right,0.002129077911376953,-0.6109635785922033,2.680036079083383,-7.572305724322796,-0.3050183438970722,0.010835954919457436,0.0011591911315917969,5.625653185877203,0.0010355710983276367
1746739468037889800,3.800889892578125,0.3397248390948628,-0.007013996597379446,0.1443978547862609,-0.00477165263146162,0.001931329193729774,0.9414339301453142,0.11206134235370648,right,0.00011444091796875,-0.6103683298506846,2.67779472989738,-7.576648721963167,-0.3047091586992602,0.014814255759119987,0.00014409422874450684,5.620871212297677,0.0007243156433105469
1746739468077889800,3.840889892578125,0.33884164989189886,-0.0120283467695117,0.1441034882161518,-0.01641520857810974,0.0017382215057937514,0.9415258026972494,0.11132925207907451,right,-0.0024613142013549805,-0.610176727299047,2.6714599739179015,-7.5800266739636655,-0.30456588192039563,0.007831474766135216,-0.001171708106994629,5.619330997118354,0.0011438727378845215
1746739468117889500,3.8808896484375,0.33801496626455174,-0.0032767271623015404,0.14378289112649734,-0.010062020272016525,0.0016596252751504591,0.9415900409166594,0.11088916772252083,right,0.00033223628997802734,-0.61014609103015,2.6652497211009263,-7.5823951566606755,-0.3045191769935885,0.00010569766163825989,-0.0018423199653625488,5.619084913402795,-0.001345992088317871
1746739468157889500,3.9208896484375,0.3381039467905608,0.013297074474394321,0.14376624869280316,0.004112408496439457,0.0018083452196452114,0.9415725176537154,0.11124803252213292,right,-0.0017704367637634277,-0.6102217706971621,2.66578338958621,-7.581756858757138,-0.30458045832215247,-0.007389988284558058,-0.0020254552364349365,5.619693400689959,-0.002225041389465332
1746739468197889800,3.960889892578125,0.3387653527224968,0.011435729451477528,0.14394941121685065,0.005917804315686226,0.0020695153181530907,0.941504351273008,0.11204284000537935,right,-0.002004683017730713,-0.6103603740923697,2.6705387674197554,-7.579257443156838,-0.3047031131894963,-0.011682499200105667,-0.0007863938808441162,5.620806914889812,-0.00028258562088012695
1746739468237889800,4.000889892578125,0.3393477425473368,-0.00006149057298898697,0.14411980526771048,0.010354901663959026,0.0021907238081024295,0.9413980596786844,0.11257267529829271,right,-0.0005775094032287598,-0.6108052342613579,2.67411984077692,-7.575342315539717,-0.30495003173489266,-0.014876401983201504,-0.0008610785007476807,5.624381266245246,-0.00036346912384033203
1746739468277889800,4.040889892578125,0.3396764807474252,-0.004173719324171543,0.14424298180623618,0.007622594945132732,0.002102943998319517,0.941296382901007,0.11259513293756071,right,-0.002095460891723633,-0.6113481931797909,2.6755919591560957,-7.571582086223364,-0.30520602398321794,-0.007991882041096687,-0.001503974199295044,5.628742384064197,-0.0007660984992980957
1746739468317889800,4.080889892578125,0.33979006883698776,-0.0002539488486945629,0.14427860899048522,0.002056943718343973,0.002070120954019293,0.9412475280917648,0.11261569450832097,right,-0.0015448331832885742,-0.611631512879991,2.6759204604580997,-7.569774160018563,-0.30534014409320015,-0.00526918051764369,-0.0029574334621429443,5.631017343258858,-0.0013957619667053223
1746739468357889500,4.1208896484375,0.3400545038286334,0.0028191080782562494,0.14434355831583526,0.0006183022633194923,0.0021724413021167737,0.9412046125920733,0.112949783141971,right,-0.0015574097633361816,-0.6117949560965033,2.677614989416301,-7.568198873525858,-0.3054409831768373,-0.009052176959812641,-0.002684473991394043,5.632329594901204,0.0019295215606689453
1746739468397889500,4.1608896484375,0.3402678102517995,-0.0028354108799248934,0.1443845079758835,-0.004695757757872343,0.0022482438452560666,0.9411458370432471,0.11323677269074062,right,-0.0035091638565063477,-0.612094704576792,2.678665667513013,-7.5660355580121275,-0.305602130409152,-0.0035743960179388523,-0.0025950968265533447,5.634735486999154,0.0028078556060791016
1746739468437889500,4.2008896484375,0.34018365441839815,-0.004939205013215542,0.14437653164317185,0.0025424049235880375,0.002169493620923437,0.9411554741998617,0.11303770395855928,right,-0.004221320152282715,-0.6120714667037281,2.6780726700559256,-7.56638451758027,-0.3055767973949591,-0.0013587626162916422,-0.0008423030376434326,5.634549024516343,0.0059664249420166016
1746739468477889800,4.240889892578125,0.3401699923399151,0.0015886626206338406,0.14439429409784807,-0.0012133761774748564,0.002089790953093253,0.9411524815119902,0.11286940852356477,right,-0.0022145509719848633,-0.6121006727740359,2.6779145568847653,-7.566265859636664,-0.30557828099366435,0.0020368716213852167,-0.00024300813674926758,5.634783417794108,0.0017039775848388672
1746739468517889800,4.280889892578125,0.33997445169674845,0.006595822051167488,0.14432978239398636,-0.004935587756335735,0.002113844294142244,0.941212119435514,0.11279717285280283,right,-0.0011143684387207031,-0.6117836853364039,2.6770301752656698,-7.568472429770231,-0.3054246283485254,0.008783753961324692,0.00012922286987304688,5.632238994008302,0.00003129243850708008
1746739468557889800,4.320889892578125,0.3397879254185064,0.007226099725812674,0.14422661507544815,-0.009673402644693851,0.002258466573517081,0.9412649883186467,0.11299182902601251,right,-0.0018117427825927734,-0.611507642077071,2.676136441296339,-7.570437007841467,-0.3053093515238889,0.00029624439775943756,-0.00015345215797424316,5.6300230715245005,0.0003800392150878906
1746739468597889500,4.3608896484375,0.33956523536206673,-0.0037018717266619205,0.1440769103274415,-0.0041620307601988316,0.0023788862554118845,0.9412508332817955,0.11321485277467047,right,0.0013217926025390625,-0.6117163682056798,2.674059050500393,-7.569924966666102,-0.30542279391964333,-0.006978295743465424,-0.0008476376533508301,5.631698895782232,0.0019896626472473145
1746739468637889500,4.4008896484375,0.33930812136592364,-0.008292922750115395,0.14400715544107448,0.007266645785421133,0.002238031079250181,0.9412570417772697,0.11284892175408555,right,0.004064321517944336,-0.6118054556535617,2.671946003869176,-7.570139486199617,-0.30543779394116555,0.010649535804986954,-0.0016298890113830566,5.632413766053318,-0.004647433757781982
1746739468677889500,4.4408896484375,0.33918637697394544,-0.009485091082751751,0.1440619759448353,0.006701671052724123,0.0019438865106210749,0.9412854088619877,0.11215954379514731,right,-0.002609074115753174,-0.6116733033157422,2.6712717578694223,-7.571165906637907,-0.30532623371196005,0.007011556066572666,-0.002583622932434082,5.631352858823537,-0.003573775291442871
1746739468717889800,4.480889892578125,0.3391222853552368,-0.006871103309094906,0.14409148743047978,0.005331008695065975,0.0017532759912607266,0.9412809231109841,0.11174621884786454,right,-0.00109177827835083,-0.6117395232372845,2.670662393799424,-7.570985873895883,-0.3053273680585472,0.0004928698763251305,-0.002285093069076538,5.6318847737431526,-0.004420101642608643
1746739468757889800,4.520889892578125,0.33925458493597427,-0.011730343103408813,0.14422229726025107,0.021094560623168945,0.0015364965246340355,0.9412802804086872,0.11131731395500498,right,0.004504561424255371,-0.6116799720213465,2.671775615738332,-7.570948464494943,-0.305268708409662,0.013925625942647457,0.00015941262245178223,5.631406634837389,-0.009759485721588135
1746739468797889800,4.560889892578125,0.3391229853109775,-0.043719518929719925,0.14439784952722964,0.011430948041379452,0.0008721966596568016,0.9413187332839618,0.10982648572196622,right,-0.006754696369171143,-0.6114848855675935,2.6711446243584156,-7.572336119461059,-0.3050697802711489,0.0085976030677557,-0.00041538476943969727,5.629840116173028,-0.007242262363433838
1746739468837889800,4.600889892578125,0.33846217350750185,-0.04105096310377121,0.14435097282245127,0.017358114942908287,-0.00008465950911952989,0.9412241637797136,0.1077651618354447,right,-0.005498766899108887,-0.6124762353335959,2.664285844504833,-7.5688307416886085,-0.30538469146338737,-0.02986113168299198,-0.0033928751945495605,5.637797797179222,-0.010185658931732178
1746739468877889500,4.6408896484375,0.3390826784432252,0.0005800537765026093,0.14458659081049902,0.021745026111602783,-0.0004637385389771062,0.940909004086773,0.10751256636552661,right,-0.0036848783493041992,-0.6143499825538391,2.6654633638516065,-7.5572005096495145,-0.30624288862784,-0.05615749955177307,-0.004062294960021973,5.652822932353615,-0.01139533519744873
1746739468917889500,4.6808896484375,0.34093035667302135,0.012557297945022583,0.14513238887920935,0.023089148104190826,-0.00018605764647277565,0.9405212503052751,0.10903628090843491,right,0.0004691481590270996,-0.6161072963415866,2.6760964015468955,-7.542889075702428,-0.3071746504799367,-0.05248761549592018,-0.0023612678050994873,5.6668964658915995,0.0023403167724609375
1746739468957889800,4.720889892578125,0.34250066272980095,-0.02678564563393593,0.1457048116208169,0.044722046703100204,-0.0003297789598823672,0.9401661065254783,0.10955915619037564,right,0.004191875457763672,-0.6177699169413333,2.6847695373460647,-7.529792278242111,-0.30798951157662874,-0.040886860340833664,0.000980466604232788,5.680195507925749,0.015292167663574219
1746739468997889800,4.760889892578125,0.34349658813652373,-0.051197588443756104,0.14630521987566866,0.04862954467535019,-0.0013501275434582864,0.9398191615320098,0.10807265121382821,right,0.0005230903625488281,-0.6196524262091623,2.688661284087598,-7.517033334434032,-0.30876002797472496,-0.030371300876140594,-0.0022172629833221436,5.695234087103605,0.010362565517425537
1746739469037889800,4.800889892578125,0.3439349477548825,-0.023357829079031944,0.14667821509653864,0.030691951513290405,-0.0022928476393242023,0.9395674111404783,0.10649522285190051,right,-0.0024476051330566406,-0.6211500973593308,2.6890774636730552,-7.507816008755564,-0.30934352715374225,-0.017968744039535522,-0.0011892616748809814,5.707184052616357,0.0075490474700927734
1746739469077889800,4.840889892578125,0.3448724850116577,0.003651876002550125,0.14709639486198284,0.020516209304332733,-0.0025697408004167997,0.9393794284396076,0.10636977970412424,right,-0.0021424293518066406,-0.6219645930963124,2.6945427433416245,-7.500914558804035,-0.3097134988194822,-0.01026913896203041,0.00022917985916137695,5.713678090810776,0.01089257001876831
1746739469117889500,4.8808896484375,0.3453561424767773,-0.005549103021621704,0.14732952781987213,0.007691599428653717,-0.002629778094681326,0.9393635356063549,0.10637570822331106,right,-0.001594841480255127,-0.6218299811591884,2.698430690690875,-7.500334128567576,-0.30965044898625355,0.012345921248197556,0.00047203898429870605,5.71260490862131,0.01238638162612915
1746739469157889500,4.9208896484375,0.34500301112402826,-0.01204456016421318,0.14733658344420067,0.0005983742885291576,-0.002950450885525755,0.9394775218725665,0.10546000544421025,right,-0.002490103244781494,-0.6212183415439203,2.696962956225872,-7.504572496789693,-0.3092979229196491,0.0221458338201046,-0.0006206631660461426,5.707728242495656,0.005476891994476318
1746739469197889800,4.960889892578125,0.34473863333258953,0.007913922891020775,0.14732751554364285,-0.002358823549002409,-0.003081395345934166,0.9396028062963645,0.10495520736691105,right,-0.0040152668952941895,-0.6204882734764231,2.696386325381696,-7.509205417287349,-0.3089201809481392,0.018527589738368988,-0.003678351640701294,5.701905235430598,-0.0005531907081604004
1746739469237889800,5.000889892578125,0.34483746901389534,0.020102158188819885,0.147347713604841,-0.008752435445785522,-0.002827939141826639,0.9397089597005608,0.10537978400684284,right,-0.0009935498237609863,-0.61971437766293,2.698619199000299,-7.513089565244317,-0.3085898502151179,0.018476134166121483,-0.0032830238342285156,5.69572859262228,-0.0052953362464904785
1746739469277889800,5.040889892578125,0.34513627500916,0.017768215388059616,0.14742903325259113,-0.00396618340164423,-0.0024392310625969056,0.9398394051040212,0.10610666938580512,right,-0.002597510814666748,-0.618673399410362,2.7028686731383202,-7.5178580948203795,-0.30815675946342014,0.0109128188341856,-0.0016553699970245361,5.687415522307157,-0.003612816333770752
1746739469317889800,5.080889892578125,0.345551203142407,0.014053567312657833,0.14750081617382088,-0.0028311102651059628,-0.00210190289184715,0.9398249105298552,0.10694070624371713,right,-0.003512442111968994,-0.6185693800397741,2.7061881729498505,-7.517292862153053,-0.3081691835897157,-0.022325566038489342,0.00004857778549194336,5.686584332180023,-0.004146754741668701
1746739469357889500,5.1208896484375,0.34632006033643115,0.016433419659733772,0.1476106121067028,0.0024792789481580257,-0.0017115540114163855,0.9396176827303485,0.10822348807633274,right,-0.0013131499290466309,-0.6196125820081745,2.7099519093975424,-7.509625688526034,-0.30875031908020567,-0.04066319018602371,-0.0007009208202362061,5.694916107195615,-0.006318509578704834
1746739469397889500,5.1608896484375,0.347261572106118,0.0134869534522295,0.1477758499749421,0.0030009611509740353,-0.001280963056720667,0.9393928338418323,0.10965611987568823,right,-0.0027858614921569824,-0.6206867622561236,2.714937588855624,-7.50131437177658,-0.30935693393151203,-0.029671069234609604,0.0012199580669403076,5.703488705229759,-0.0019641518592834473
1746739469437889500,5.2008896484375,0.3479823465476476,-0.001004774123430252,0.1479484663365833,0.007610816042870283,-0.0011183531910290972,0.9392056988723382,0.11041740334226585,right,-0.0023246407508850098,-0.621607866896353,2.7185511031776666,-7.49441350634694,-0.30984272165574395,-0.024060893803834915,0.0008064806461334229,5.71083439181745,0.000028192996978759766
1746739469477889800,5.240889892578125,0.34826196026489287,-0.006027907133102417,0.14802065293159877,0.001615249551832676,-0.0011708285084050972,0.9390749494712473,0.11054370254707396,right,-0.0021361112594604492,-0.6223630551337969,2.7191739112511275,-7.489597045975923,-0.3102042935349166,-0.013126815669238567,0.0010661780834197998,5.716853213715553,-0.0002244710922241211
1746739469517889800,5.280889892578125,0.34845501090128617,0.0017540231347084045,0.14806657824036418,0.00371919316239655,-0.001189460751925597,0.9389880292723426,0.1106639128384613,right,-0.0015677809715270996,-0.6228604553430304,2.7196485430255533,-7.486397957673669,-0.3104451741278163,-0.011336682364344597,0.0007224678993225098,5.7208156876057386,-0.000987410545349121
1746739469557889800,5.320889892578125,0.348778807381483,0.010287611745297909,0.1481309793560754,-0.0024058951530605555,-0.0010112541031512608,0.9389430572837201,0.1111788016980128,right,-0.001426398754119873,-0.6230065564545942,2.7217867240980267,-7.484732070288062,-0.31055126380418147,-0.0032193632796406746,-0.0003899037837982178,5.721979470688105,-0.0006272196769714355
1746739469597889500,5.3608896484375,0.3488708203222734,0.011259755119681358,0.1480797033415877,-0.009525173343718052,-0.000715133658757768,0.9389509606488353,0.11182082507600163,right,-0.0034402012825012207,-0.6229075432155606,2.7226690598905083,-7.4850138098388905,-0.310552584155752,-0.002856441540643573,-0.0012725889682769775,5.721190950658917,0.002276778221130371
1746739469637889500,5.4008896484375,0.34878424571249345,-0.0030726902186870575,0.1479925843859409,-0.005888183601200581,-0.0005778642319526608,0.938947860127929,0.11209742694166894,right,-0.002505481243133545,-0.6229740365334968,2.7218913535162805,-7.484892229285836,-0.31060406928040984,0.00031730695627629757,-0.004054605960845947,5.721720527490973,0.0005633831024169922
1746739469677889500,5.4408896484375,0.3482587749017367,-0.013762546703219414,0.14785243391913694,0.005857027135789394,-0.0008015838082558267,0.9389962795345522,0.11143410679397382,right,-0.001783132553100586,-0.622906780070847,2.7180890386238694,-7.486683204355836,-0.3105238267023597,0.002373435301706195,-0.0010161995887756348,5.721184520918131,0.0012717247009277344
1746739469717889800,5.480889892578125,0.34815020071150976,-0.006196457892656326,0.1478774250224074,0.002352670533582568,-0.001071334902801596,0.93897071281658,0.11086770197532697,right,-0.004366874694824219,-0.6231348714615362,2.716830855256319,-7.485751476463675,-0.31058841623851663,-0.0025063727516680956,-0.0002950727939605713,5.723001214951276,0.00019848346710205078
1746739469757889800,5.520889892578125,0.34798390054819783,-0.0017249160446226597,0.14782507509288767,-0.002762505551800132,-0.0011563466856067655,0.9389634889767717,0.11065723761702324,right,-0.0017774105072021484,-0.6232675919557492,2.7153268804341555,-7.485489026135205,-0.3106348699287907,0.0007828043308109045,-0.0011288821697235107,5.7240580305278295,-0.0009481906890869141
1746739469797889800,5.560889892578125,0.3477564333754373,0.0026498138904571533,0.14771104176946812,-0.007262525148689747,-0.001093761136383284,0.9389834700373978,0.11071113542854692,right,-0.0010036826133728027,-0.6232460357158438,2.7136662537455556,-7.486222601106762,-0.3106289251884685,-0.0027673598378896713,-0.0030091702938079834,5.723886765614152,-0.0009791254997253418
1746739469837889800,5.600889892578125,0.3477113359386453,0.008540047332644463,0.1476336599657642,-0.004047670401632786,-0.0009232436119056698,0.9389832118414121,0.11106436426083122,right,-0.002321004867553711,-0.6232716895005354,2.7132784234717486,-7.486206819015741,-0.31066700271124426,-0.005827158689498901,-0.0010778605937957764,5.724090763753653,0.0016202926635742188
1746739469877889500,5.6408896484375,0.3478389696368437,0.0056533971801400185,0.14761957233890902,-0.004266681615263224,-0.0007439836250735809,0.9389595876173984,0.11150742895130714,right,0.0007950067520141602,-0.6233701966883706,2.714041809059679,-7.485330036181211,-0.310745606450824,-0.001876430120319128,-0.003231227397918701,5.724875192129612,-0.0012379884719848633
1746739469917889500,5.6808896484375,0.34804984262483507,-0.0004441346973180771,0.14769261046240634,0.0038212635554373264,-0.0006950653066728644,0.9389459518454536,0.1116789205136426,right,-0.002688765525817871,-0.6233572524534973,2.7156454448640344,-7.484827347356081,-0.3107521594940441,-0.0029014938045293093,-0.0029938220977783203,5.7247723162770265,0.0006684064865112305
1746739469957889800,5.720889892578125,0.3481101023218085,-0.0029586071614176035,0.1477073190353465,-0.00029423972591757774,-0.0007403522007511151,0.9388964897685294,0.11166190614357524,right,-0.0027960538864135742,-0.6236652389198105,2.71549493047744,-7.483005977147817,-0.3108945477675462,-0.006208197679370642,-0.0035427212715148926,5.727223801082372,0.0010289549827575684
1746739469997889800,5.760889892578125,0.34821840718845837,0.004541307687759399,0.1477360464552258,0.005431543570011854,-0.000749771309780492,0.9388538274704548,0.11172360536430129,right,-0.0008168220520019531,-0.6239027622870076,2.7158412596970796,-7.4814330287426705,-0.3110098441349193,-0.0042711347341537476,-0.0035605132579803467,5.7291147293955085,-0.0007821917533874512
1746739470037889800,5.800889892578125,0.34879209325951194,0.008715782314538956,0.14793488317488665,0.008390018716454506,-0.0006202697596677339,0.9388151130820842,0.11218487256739328,right,-0.001787424087524414,-0.6238786726274557,2.720179873423278,-7.480003872722387,-0.31103250413042177,-0.001213745679706335,-0.0026788711547851562,5.728923006215691,0.0015920400619506836
1746739470077889800,5.840889892578125,0.34929458472396707,-0.0005434378981590271,0.14815149517577259,0.010095103643834591,-0.000586098032325189,0.9388094507318705,0.11238228788967813,right,-0.0021871328353881836,-0.6236626829146533,2.724361543022096,-7.479798121017217,-0.31094625867623493,0.005105941090732813,0.000291287899017334,5.727203927338123,0.004568934440612793
1746739470117889500,5.8808896484375,0.34946663044280274,-0.00511914724484086,0.14830698438140286,0.007034699432551861,-0.0007842797118018827,0.9388281014671257,0.11197514057112842,right,-0.0021282434463500977,-0.6234464613156753,2.726072146332264,-7.480491948500275,-0.31081519373925987,0.008615648373961449,-0.00009804964065551758,5.725482510372996,0.0017697811126708984
1746739470157889500,5.9208896484375,0.3494721453265713,-0.0007284972816705704,0.14838789303798064,0.0051879179663956165,-0.0009619791747104714,0.9388625211337005,0.11155208690990424,right,-0.0006549358367919922,-0.6232077244535532,2.7265815571591254,-7.4817615300446745,-0.3106724144130749,0.011681847274303436,-0.000030219554901123047,5.7235816451877355,0.0005446076393127441
1746739470197889800,5.960889892578125,0.3496378847090055,0.005399039946496487,0.14850837932220887,0.005088203586637974,-0.000983432950922591,0.9389278339279233,0.11145799748958338,right,-0.0011913180351257324,-0.622675440103237,2.7288646996602415,-7.484170344752073,-0.31041707592049994,0.015462284907698631,-0.0010113120079040527,5.719342107921839,0.0007166862487792969
1746739470237889800,6.000889892578125,0.34978055362566285,0.003736879676580429,0.14861624245650673,-0.0008233017288148403,-0.0009681702293876759,0.9390110255117964,0.11141290984843898,right,-0.0027546286582946777,-0.6220323735588483,2.731192265824973,-7.48723440849781,-0.31011366053915684,0.013258222490549088,-0.0017296373844146729,5.7142181890368455,-0.000013828277587890625
1746739470277889800,6.040889892578125,0.3496220434446595,-0.006600102409720421,0.14861312727507187,0.0021082295570522547,-0.0010474851404787687,0.9390878942444397,0.11110485066080908,right,0.0020175576210021973,-0.6215847544466104,2.730881007918715,-7.49006992418468,-0.3098820096411956,0.010291378945112228,-0.0005456507205963135,5.710650267422199,0.00014072656631469727
1746739470317889800,6.080889892578125,0.3491857396566112,-0.013272433541715145,0.14854959536587686,-0.0026086706202477217,-0.00130155860509354,0.9391821356538116,0.11033707097975201,right,-0.0021653175354003906,-0.6211572719188276,2.7284479355528948,-7.493553674647211,-0.30962575619760746,0.020698407664895058,-0.001618415117263794,5.707241335761546,-0.0017986297607421875
1746739470357889500,6.1208896484375,0.34896977434362064,-0.00649245036765933,0.14858557723224866,0.009378007613122463,-0.0015923217552295508,0.9392518095144129,0.1095748057890505,right,-0.002689957618713379,-0.6207852985187969,2.7275550783663984,-7.496137261399626,-0.3093956918027854,0.010676339268684387,-0.00003123283386230469,5.704274887171388,0.0016444921493530273
1746739470397889500,6.1608896484375,0.3489291528785057,-0.006858230102807283,0.14865448306972723,0.005068344529718161,-0.0017870728863614786,0.9392931506558748,0.10909539138287108,right,-0.003260016441345215,-0.6205195604467802,2.727769013378024,-7.497672215881943,-0.3092360611550007,0.011107916943728924,0.0010426342487335205,5.702154826277494,0.001370847225189209
1746739470437889500,6.2008896484375,0.34867066762001153,-0.0028342250734567642,0.14862282208401223,-0.002851983066648245,-0.001949881917159493,0.9393528800731359,0.10860935791317572,right,-0.002390265464782715,-0.6202382830712975,2.726378728063404,-7.499884631234407,-0.3090688791771281,0.005365476943552494,-0.000713646411895752,5.699910262221097,-0.0006369948387145996
1746739470477889800,6.240889892578125,0.3485371005803743,0.010752365924417973,0.14855554457725423,-0.00323700625449419,-0.0018537691527650468,0.9393990903126161,0.10872213075924579,right,-0.00013148784637451172,-0.619989932960557,2.7258602571472523,-7.5015785756707185,-0.308961440230981,0.0043875472620129585,0.00013306736946105957,5.697928148493171,-0.0026277899742126465
1746739470517889800,6.280889892578125,0.348786547173784,0.01495244912803173,0.14859139525651477,-0.003905191319063306,-0.0015594398128744372,0.9394311615835028,0.10936436938131457,right,-0.001509249210357666,-0.6196458586027991,2.7284014660626648,-7.502740605187416,-0.3088483122066092,0.00285117095336318,-0.0023894309997558594,5.695181480133533,-0.00039643049240112305
1746739470557889800,6.320889892578125,0.3488361656763484,0.006537310779094696,0.14856187551436345,-0.0007455155719071627,-0.0012969453017942392,0.9394916232523765,0.10985469837540705,right,-0.0004639625549316406,-0.6192068357817564,2.729628085248172,-7.504954189583659,-0.30867975347506543,0.01107364147901535,-0.0007346868515014648,5.6916761023610825,-0.00012189149856567383
1746739470597889500,6.3608896484375,0.34862201578477575,-0.0026918258517980576,0.14850800598791938,-0.000985190737992525,-0.0012927165869152841,0.9395735793107926,0.10970546797135962,right,-0.0036014914512634277,-0.618751770079981,2.7289053239315746,-7.507972660622,-0.3084563337823944,0.014022473245859146,-0.001182854175567627,5.688041545251012,0.001974940299987793
1746739470637889500,6.4008896484375,0.3482170756695546,-0.0005522321444004774,0.14838515773310468,-0.0055368635803461075,-0.0013495980002592918,0.9396534685066342,0.1093849021324574,right,-0.0035642385482788086,-0.6184064712396068,2.7265347954079506,-7.510922158077359,-0.3082716040698973,0.006647630129009485,-0.0009360611438751221,5.685282601931691,0.0017951130867004395
1746739470677889500,6.4408896484375,0.34814227229443945,0.011665506288409233,0.1483608866178162,-0.007193881552666426,-0.0012329840488382621,0.9397395346019918,0.10950157889905268,right,-0.0029733777046203613,-0.6178513664380305,2.72704888240993,-7.514091435763239,-0.3080211162642994,0.016541030257940292,-0.0021319687366485596,5.68084608078897,-0.0003688931465148926
1746739470717889800,6.480889892578125,0.3479466693225751,0.0077843512408435345,0.14829114732074938,-0.008090359158813953,-0.0010360397263639689,0.9398905335423952,0.10967523797290657,right,-0.001972496509552002,-0.6169100886412674,2.727401349109411,-7.5196484853684895,-0.30759449470299816,0.019620660692453384,-0.0008116662502288818,5.673319776937365,0.0018576383590698242
1746739470757889800,6.520889892578125,0.34755847180311217,-0.002212731633335352,0.14818089946609556,-0.004989090841263533,-0.0010009111539354854,0.9400332456790674,0.10947138002421618,right,-0.0010392069816589355,-0.6161225194446002,2.7260031727492806,-7.524905675244331,-0.3072116722974078,0.017428336665034294,-0.0012884140014648438,5.667018046444654,-0.0004388093948364258
1746739470797889800,6.560889892578125,0.3468456708704562,-0.005990976467728615,0.1479680630883532,-0.008995018899440765,-0.0010956737818518649,0.9401843755478435,0.10890568847570219,right,-0.0021395087242126465,-0.6154390945030489,2.7219544818803665,-7.530486690247058,-0.30685090761794775,0.017467893660068512,-0.002469182014465332,5.661546921557187,-0.002203524112701416
1746739470837889800,6.600889892578125,0.3464997610550293,0.0038578882813453674,0.14784164436364772,-0.0028347759507596493,-0.0010996231146778476,0.9402413162624923,0.10874273838494031,right,-0.0024212002754211426,-0.6152219067561665,2.719766908708215,-7.532584539309144,-0.30673753932582015,-0.004858706146478653,-0.003061145544052124,5.65980796893537,-0.0038934946060180664
1746739470877889500,6.6408896484375,0.34684356728895743,0.012753607705235481,0.14788043776657125,-0.0034942880738526583,-0.000832069236930579,0.9401836696741751,0.1094673716798825,right,-0.0030303001403808594,-0.6154476507360256,2.7219223331764337,-7.530447527280449,-0.3068964175761146,-0.013445652090013027,-0.0021999478340148926,5.661615310618281,-0.003451526165008545
1746739470917889500,6.6808896484375,0.3469519129974334,0.014043210074305534,0.14779143962726493,-0.012064172886312008,-0.000466002418435441,0.9401493625315279,0.11031683077829378,right,-0.003775298595428467,-0.6156317122568113,2.7223838132083413,-7.529172100517154,-0.30704516409856364,-0.006467592436820269,-0.0018986165523529053,5.663089474824071,-0.0017563700675964355
1746739470957889800,6.720889892578125,0.34672714872878435,0.017241204157471657,0.14756993665560164,-0.01267854031175375,-0.00003450984229435978,0.9401905139149783,0.11112880688437997,right,0.0003387331962585449,-0.6154625092729163,2.7210169087693092,-7.530685427689552,-0.30702609315877794,0.002231788355857134,-0.002867281436920166,5.661734553083777,-0.0020034313201904297
1746739470997889800,6.760889892578125,0.34624266378798596,0.002512110397219658,0.14732854906766846,-0.0045578358694911,0.00022088270887224984,0.9403066255228978,0.1114068964739458,right,0.00037676095962524414,-0.6149054229722902,2.718437998192012,-7.534968219575285,-0.30678628688667764,0.011293914169073105,0.00022548437118530273,5.6572728974998,0.0035611987113952637
1746739471037889800,6.800889892578125,0.3460758831020838,-0.008238098584115505,0.14730643929841644,0.006015912629663944,0.000120338940897586,0.9403457912088127,0.11110294672902367,right,-0.00043082237243652344,-0.6147194497555984,2.7175384190037843,-7.536411404120922,-0.3066769758456922,0.00001197122037410736,-0.0005120038986206055,5.655782951202989,0.0023795366287231445
1746739471077889800,6.840889892578125,0.34583003678651925,-0.01000862754881382,0.14727516395784818,-0.0010234145447611809,-0.00011050261326818273,0.9403579613643424,0.11053953725858912,right,-0.002475440502166748,-0.6147596183367197,2.7156080354630947,-7.536864993107319,-0.30665429728513466,0.008552143350243568,-0.0011872351169586182,5.656105022764206,-0.0003752708435058594
1746739471117889500,6.8808896484375,0.34531698805378785,0.0019989721477031708,0.14712593825057885,-0.005630944389849901,-0.00024343815933948926,0.9404365587566093,0.11003525618138078,right,-0.0016611814498901367,-0.6144759334802309,2.712283859476447,-7.539766559767723,-0.3064846649967564,0.0065658544190227985,-0.0034497082233428955,5.653831817135215,-0.0015382766723632812
1746739471157889500,6.9208896484375,0.34524306941812,0.01391799096018076,0.14706230379969468,0.000141095370054245,-0.0000875833676248415,0.9404744341697602,0.1102996341504544,right,-0.00042068958282470703,-0.6142512541025301,2.712156433704495,-7.541162398040294,-0.30639910213656535,-0.00005821464583277702,-0.0031428933143615723,5.65203148971498,-0.002445042133331299
1746739471197889800,6.960889892578125,0.34566895757235533,0.012830052524805069,0.14715906383359,0.0013511503348127007,0.0001861691822870828,0.9404553985932181,0.1110041993454879,right,-0.0014731884002685547,-0.6141658215840083,2.715531463095546,-7.54046038725078,-0.306411011448386,-0.000447461090516299,-0.004472076892852783,5.651347014582157,-0.0029098987579345703
1746739471237889800,7.000889892578125,0.34589901313270954,0.0008480390533804893,0.1472306438715865,0.004633342381566763,0.00030751388024136947,0.9404639950244037,0.11130324084441738,right,-0.0028530359268188477,-0.6139887134202494,2.7176056390210985,-7.5407771981149905,-0.3063502639944177,-0.0020694322884082794,-0.0021758973598480225,5.649927210912108,-0.0008539557456970215
1746739471277889800,7.040889892578125,0.34606400441154805,-0.007709801197052002,0.1473083317775373,0.006464607082307339,0.0002118795924722229,0.9404115125297691,0.1112073352131472,right,-0.006632983684539795,-0.6142688027392902,2.718312910507619,-7.53884009257257,-0.306474113287036,-0.011905640363693237,-0.0022667348384857178,5.652172359490394,-0.00022989511489868164
1746739471317889800,7.080889892578125,0.3461266479436929,-0.0016703377477824688,0.14732394895145845,0.00649435305967927,0.00011513630723964446,0.9403320894695023,0.11112149423529881,right,-0.001423954963684082,-0.614787292318188,2.7177903479382395,-7.535911637905239,-0.3067101008136673,-0.01009498443454504,-0.0009620487689971924,5.656326556560397,-0.0027780532836914062
1746739471357889500,7.1208896484375,0.3465455471985997,0.007872942835092545,0.1474403454980004,0.005790610332041979,0.00021043671626040034,0.9402509225714007,0.11152787195363975,right,-0.0017796754837036133,-0.6151362656034445,2.720276611796021,-7.532915963220596,-0.3069031122038456,-0.012046145275235176,-0.0009412169456481934,5.659121740236878,-0.0027852654457092285
1746739471397889500,7.1608896484375,0.34700734634154085,0.00526178814470768,0.1475618688748324,0.0022475405130535364,0.0003804541584898134,0.9401868990439645,0.1120800900378684,right,-0.0015482902526855469,-0.6153431127539543,2.723356749893725,-7.5305580019176,-0.30704055509887807,-0.005340683739632368,-0.0006739199161529541,5.66077827527225,-0.00003170967102050781
1746739471437889500,7.2008896484375,0.3470610300240518,-0.004027457907795906,0.14756629660461248,-0.0017990863416343927,0.0003948836944337584,0.9401593383737973,0.11215979533634253,right,-0.0029793977737426758,-0.615506627836542,2.7234461817428466,-7.529540933829545,-0.307122829006414,-0.00655790651217103,-0.0011687278747558594,5.662087604305148,0.002051055431365967
1746739471477889800,7.240889892578125,0.3468575474538266,-0.004971315618604422,0.14746604148492667,-0.002945954678580165,0.0003262540444218863,0.9401087939971231,0.11203474756838493,right,-0.0018488764762878418,-0.6159609856162256,2.7210391206011173,-7.527675139957666,-0.30732580620705313,-0.006940978579223156,-0.0015906095504760742,5.665725084024667,0.000032067298889160156
1746739471517889800,7.280889892578125,0.34676238532142106,0.0013147583231329918,0.14740833365193604,-0.00043732719495892525,0.000307102621345956,0.9400733802886088,0.11201930718035853,right,-0.001956343650817871,-0.616254135296269,2.7197581408798692,-7.526371071621775,-0.3074616108603523,-0.003771456889808178,-0.001523345708847046,5.66807135488987,-0.0010489821434020996
1746739471557889800,7.320889892578125,0.3468730724759237,0.0015155442524701357,0.14740039800470506,-0.0037085162475705147,0.00042806614451045043,0.9400390317640233,0.11234765120346174,right,-0.0035595297813415527,-0.6164348682983483,2.7202427095264197,-7.525106750774383,-0.3075702523913257,-0.006954191252589226,-0.0012328624725341797,5.669517462044954,0.0012781620025634766
1746739471597889500,7.3608896484375,0.34664856065707567,0.002920993138104677,0.14724668069119295,-0.012425513938069344,0.0005649268685685298,0.9400296667854089,0.11259981591623215,right,-0.0045310258865356445,-0.6166139360696516,2.7182082810893653,-7.524762467381358,-0.3076723948525571,-0.008920758031308651,-0.0025721192359924316,5.670950125196576,0.0018555521965026855
1746739471637889500,7.4008896484375,0.3463769822596615,0.004494390916079283,0.14705423510100557,-0.018319394439458847,0.000746394884552773,0.9400159012677035,0.11294168096177547,right,-0.004192471504211426,-0.6168461091734853,2.7157176333174107,-7.524261532121896,-0.307805916627444,-0.005111044738441706,-0.004484981298446655,5.6728077357619995,-0.0012250542640686035
1746739471677889500,7.4408896484375,0.3459952234621479,0.006206689402461052,0.14681490284059026,-0.006671402603387833,0.0009656765177917172,0.9400309371939674,0.1133003409909807,right,-0.001495361328125,-0.6169352639971182,2.712673443315923,-7.524822088614106,-0.3078737313979905,-0.006932755000889301,-0.0010681748390197754,5.673520852467417,0.003958642482757568
1746739471717889800,7.480889892578125,0.34594149368082655,-0.0008964128792285919,0.1467384841344995,-0.004158046096563339,0.001066146222206978,0.939997925080091,0.11354545958414484,right,-0.0024771690368652344,-0.6171899923446316,2.7117791248247025,-7.523608036649227,-0.3080106555544404,-0.004189060069620609,-0.00047728419303894043,5.675558495774864,0.0031369924545288086
1746739471757889800,7.520889892578125,0.3455628075281682,-0.005795731674879789,0.14660122598591,-0.00571077223867178,0.0009845729002391154,0.9400168835044976,0.11325974467620693,right,-0.0012350082397460938,-0.6172521263010917,2.7088103381469844,-7.524302448654175,-0.3080185174624629,0.003577582072466612,-0.001579374074935913,5.676055339381098,0.0008168220520019531
1746739471797889800,7.560889892578125,0.3451522820956981,0.0003395816311240196,0.14644966181631075,-0.0051467809826135635,0.0009419226179581708,0.9400588821535403,0.1130188419273676,right,-0.0012670159339904785,-0.6171705082034152,2.7058777918264267,-7.525849678096175,-0.3079625514923768,0.0026430003345012665,-0.0013265907764434814,5.675402428430319,-0.001228630542755127
1746739471837889800,7.600889892578125,0.3450502462154183,0.006019679829478264,0.1463804532392323,-0.004684639163315296,0.0010594146363365588,0.9400874879123069,0.1132071668572875,right,-0.002842724323272705,-0.6170232495173453,2.7053926386579867,-7.526912338891625,-0.30790752955050954,-0.00216523464769125,-0.0015992522239685059,5.6742246168226,0.0005434155464172363
1746739471877889500,7.6408896484375,0.3449480797739429,0.003184537636116147,0.14629340083461273,-0.008714142255485058,0.0012155466970604008,0.940107075322088,0.1134896226294717,right,-0.00022494792938232422,-0.6169385314187982,2.704786197197437,-7.527640653166174,-0.3078885620170292,0.00409651780501008,-0.001994490623474121,5.673547155952453,-0.0031068921089172363
1746739471917889500,7.6808896484375,0.34471042195739554,-0.003833296475932002,0.14620097028022971,-0.0031206337735056877,0.001228114143462836,0.9401446452548966,0.11341187305963264,right,-0.004241228103637695,-0.616799425115739,2.7032638099357484,-7.529026554566621,-0.3078177469556895,-0.001606261357665062,-0.004345715045928955,5.67243422627449,-0.004412233829498291
1746739471957889800,7.720889892578125,0.3444949591092516,-0.002956489799544215,0.14609479431347125,-0.004817519802600145,0.0011971730351578126,0.9401148503634603,0.11333588718441875,right,-0.003439009189605713,-0.6171148879625858,2.7010370737969875,-7.527924146282673,-0.30795940320805476,-0.013680427335202694,-0.0049086809158325195,5.674957607272267,-0.006742358207702637
1746739471997889800,7.760889892578125,0.3446044829078466,0.0046480633318424225,0.14608198732627822,0.001976176630705595,0.0012462978873412738,0.9400315053733461,0.11357578094849811,right,-0.002817511558532715,-0.6176344115174413,2.7008652243614195,-7.52485248375237,-0.30821964749240627,-0.016007203608751297,-0.0038055479526519775,5.67911180434227,-0.005281686782836914
1746739472037889800,7.800889892578125,0.3449865233855058,0.0023138709366321564,0.14614514005733784,0.00015648966655135155,0.0013901797022080648,0.9399153116020128,0.11412347322971146,right,-0.004217922687530518,-0.6182404924458944,2.7025752431496977,-7.520579044216871,-0.30854299607379315,-0.02251211740076542,-0.0025777816772460938,5.683956321763992,-0.0018883943557739258
1746739472077889800,7.840889892578125,0.34538735783305863,0.006497961934655905,0.1461773448231848,-0.0021362423431128263,0.0015668021680350036,0.9397489760164767,0.11481187786467198,right,-0.0017396211624145508,-0.6191823565532065,2.703775851111114,-7.514454423856734,-0.30903335932627807,-0.02660452574491501,-0.0034610331058502197,5.691480872049928,-0.0012649297714233398
1746739472117889500,7.8808896484375,0.3458045440349172,0.011641360819339752,0.14620693033947216,-0.0022775381803512573,0.001841420135458606,0.9396217731817792,0.11566085965194339,right,-0.0015237927436828613,-0.6198436218368257,2.7056343384593724,-7.509783509436249,-0.30940446144484135,-0.01760111190378666,-0.0020584464073181152,5.696760273757577,0.00016838312149047852
1746739472157889500,7.9208896484375,0.346264791099179,0.010044441558420658,0.14627268494711934,0.0030280803330242634,0.002115913388790484,0.9395234959758485,0.11648144079853312,right,-0.0016303658485412598,-0.6202828337689626,2.70824101382643,-7.506183439117669,-0.3096699192532066,-0.014325488358736038,-0.0009423494338989258,5.700265651530027,0.004066050052642822
1746739472197889800,7.960889892578125,0.34664765709131073,0.0031347833573818207,0.14634660968342536,-0.001294093206524849,0.00227551551566385,0.9394361656662845,0.11702545309321061,right,-0.003951430320739746,-0.6206867633293778,2.7103321408867833,-7.502979674640297,-0.3098986469720279,-0.009317015297710896,-0.0024915337562561035,5.703488705229759,0.0027042031288146973
1746739472237889800,8.000889892578124,0.34657013961574035,0.0002870259340852499,0.14626222278816647,-0.006490368861705065,0.002386758841332795,0.9394150863965837,0.11727188925618327,right,-0.0027905702590942383,-0.620868820981109,2.7093977826461195,-7.5022127819210285,-0.3100015368985226,-0.004592652898281813,-0.0027402937412261963,5.70494065760374,0.003543078899383545
1746739472277889800,8.040889892578125,0.3465466347328948,-0.0026540549006313086,0.14623664263351743,-0.004290181212127209,0.0024204805108792673,0.9394087061913592,0.1173465720854196,right,-0.004166841506958008,-0.6209239182256788,2.7091145817905664,-7.501980726730823,-0.3100326788674602,0.005553493741899729,-0.004740983247756958,5.705380218064785,-0.0003173947334289551
1746739472317889800,8.080889892578124,0.3462055744135624,-0.008721099235117435,0.14616128112847696,0.003387715667486191,0.0022946500554419523,0.9394791700621813,0.11690638877306299,right,-0.003781616687774658,-0.620614393398297,2.707154972155392,-7.504565482527017,-0.3098556566919077,0.008397722616791725,-0.0024038851261138916,5.702911197602749,0.0019778013229370117
1746739472357889500,8.1208896484375,0.3459192283123095,-0.013353580608963966,0.1461523937022565,0.0035827099345624447,0.0020049920715702746,0.9395278466044614,0.11615955641173968,right,-0.0029777884483337402,-0.6204287398564657,2.705364873868227,-7.506335999330878,-0.3097141400020793,0.007176878862082958,-0.0028150975704193115,5.701430019134283,-0.0014837980270385742
1746739472397889500,8.1608896484375,0.3455285631705061,-0.009720219299197197,0.14608179335127253,-0.0009645982645452023,0.001740016131052362,0.9395668726187502,0.11545367728664517,right,-0.0036145448684692383,-0.6203608264127572,2.702563260450959,-7.507756387522816,-0.30963052117983353,0.0029831216670572758,-0.0015296339988708496,5.700888167342543,-0.0040610432624816895
1746739472437889500,8.2008896484375,0.3453104888882124,0.0031040189787745476,0.14600738557991777,-0.0057289330288767815,0.001677593699278903,0.9395765584953308,0.11525741127655734,right,-0.003349483013153076,-0.6204048840960306,2.700840674442053,-7.508109438744187,-0.30963656778465537,-0.002534654922783375,-0.0013386011123657227,5.7012394649982445,-0.004377603530883789
1746739472477889800,8.240889892578124,0.34538300751476253,0.01068867277354002,0.1459543845248183,-0.005025677848607302,0.001891303111200212,0.9395482555912904,0.11576613874550222,right,-0.0030188560485839844,-0.6205604923023732,2.701085004591942,-7.507078926652669,-0.30974637351312573,-0.014040948823094368,-0.001801818609237671,5.7024809894919395,0.00005918741226196289
1746739472517889800,8.280889892578125,0.3456782950725374,0.003342845942825079,0.1459704818478202,-0.004288747441023588,0.002101706722405335,0.9394594836944733,0.11639960369611786,right,-0.0003178119659423828,-0.6210184857935689,2.702416545456648,-7.503823139727115,-0.3100066405617588,-0.010469240136444569,-0.0024487078189849854,5.70613483582437,-0.002383887767791748
1746739472557889800,8.320889892578125,0.345897139531591,-0.004200329072773457,0.1460280767016267,0.005360397044569254,0.0021063652166771448,0.9393867219600713,0.11655674989348737,right,-0.004027128219604492,-0.6214075815271451,2.703305603250861,-7.501141937819122,-0.31019991455091034,-0.013677953742444515,-0.002128422260284424,5.709237478014827,0.0005657672882080078
1746739472597889500,8.3608896484375,0.34633856238465377,0.0053853243589401245,0.1461327787220012,0.0015632356517016888,0.0021469606326007863,0.9392381224505745,0.11694268347005232,right,-0.005055904388427734,-0.6222037796318949,2.7050726129233835,-7.495670228409766,-0.3106000627587554,-0.026371177285909653,-0.0012474656105041504,5.715584216693044,-0.0003012418746948242
1746739472637889500,8.4008896484375,0.3470180861619598,0.014797045849263668,0.14626775862814118,0.006069933995604515,0.0024075270188816254,0.9390780810332132,0.11786745788292136,right,-0.002513587474822998,-0.6229536261203971,2.708707170033455,-7.489797536984086,-0.31101822852845556,-0.020666025578975677,-0.0020097196102142334,5.721558030405641,0.00018537044525146484
1746739472677889500,8.4408896484375,0.3477538289194018,0.0060213832184672356,0.1464723732900847,0.008966530673205853,0.0026148668814275026,0.9389641567404274,0.11863148122929747,right,-0.002365410327911377,-0.6233592322668461,2.7134260152488947,-7.485620543560385,-0.3112642219420955,-0.009384604170918465,-0.0019725263118743896,5.724788098368048,0.0030612945556640625
1746739472717889800,8.480889892578125,0.3481879807456164,-0.0012782556004822254,0.14664054542388533,0.006861473433673382,0.0026075635013724768,0.9389049883030037,0.11879590018208573,right,-0.00415414571762085,-0.623544580824616,2.7163132611230014,-7.483443784043192,-0.31136330019815317,-0.00025712698698043823,-0.0011676549911499023,5.7262634316176175,0.002072751522064209
1746739472757889800,8.520889892578126,0.34819915658068246,-0.00017571740318089724,0.14666920583434537,-0.0015320638194680214,0.0025532226989642536,0.9389146502065404,0.11867012430699034,right,-0.0032517313957214355,-0.6234739717148607,2.7165347949191925,-7.483793328133225,-0.31132116090033246,0.006003787741065025,-0.0023717880249023438,5.725701121559739,0.001733541488647461
1746739472797889800,8.560889892578125,0.34807036835833477,-0.0001861463242676109,0.14665555839330596,0.0028572450391948223,0.0025187883161195096,0.9389740102578669,0.11848795098357955,right,-0.0006194710731506348,-0.6231336783429606,2.716235519711673,-7.485974763825535,-0.3111489343816817,0.009281907230615616,-0.0016995668411254883,5.722991862601042,0.0027452707290649414
1746739472837889800,8.600889892578126,0.348054097533646,0.00095974444411695,0.1467076857932289,0.0009493804536759853,0.0024909752175655453,0.9390612605527661,0.11830893399524008,right,-0.0036121010780334473,-0.6225447562847722,2.7172628169327973,-7.4891855425655836,-0.3108611302774576,0.014716914854943752,-0.0017082691192626953,5.718301074436306,0.0017015933990478516
1746739472877889500,8.6408896484375,0.34773732029452237,-0.003460453124716878,0.14664353714939954,-0.001207459019497037,0.0024219673627497353,0.9391634993392513,0.11795242279869436,right,-0.0034987330436706543,-0.6220051103325672,2.715941505201161,-7.492946356403827,-0.310582896195882,0.011015957221388817,-0.001945793628692627,5.714000746893882,0.00027889013290405273
1746739472917889500,8.6808896484375,0.34739938306934076,-0.0021217851899564266,0.14655055574465709,0.002125698374584317,0.002346355312081275,0.9392291129072321,0.11762581215310727,right,0.00007355213165283203,-0.6217272235947426,2.713949746862054,-7.495356340155005,-0.310428922265629,0.006678914185613394,-0.004164993762969971,5.7117859934538595,-0.0035622715950012207
1746739472957889800,8.720889892578125,0.34688594301579617,-0.007233317941427231,0.14640029210694064,-0.0018769449088722467,0.002225462643595177,0.939309884024744,0.11714201683325672,right,-0.0022338032722473145,-0.6214340885120635,2.7106699945390225,-7.498322788745164,-0.3102561588438314,0.008989259600639343,-0.002135723829269409,5.709449074938893,-0.0042269229888916016
1746739472997889800,8.760889892578126,0.3468815896777031,-0.0073266299441456795,0.1464364484794635,0.004883618094027042,0.0020734065156062203,0.9392892256296834,0.1168451023274614,right,-0.0035399794578552246,-0.6215803692382491,2.7103531836748123,-7.497548881763219,-0.31030266905997234,-0.005764078348875046,-0.001876920461654663,5.710615196108818,-0.0019782185554504395
1746739473037889800,8.800889892578125,0.346787260361565,-0.003980609588325024,0.14639554934903035,-0.0020401766523718834,0.001983711383101466,0.9392422081450736,0.11669471759223417,right,-0.00293731689453125,-0.6219516297990024,2.7089251966983077,-7.4958099291414015,-0.3104647823615133,-0.004684198182076216,-0.0007888972759246826,5.713574630436301,-0.0018513798713684082
1746739473077889800,8.840889892578126,0.34652014676767207,0.002942290622740984,0.14625966963100798,-0.006707516964524984,0.002000449756964403,0.9392293697663434,0.11668502734937401,right,-0.0022065043449401855,-0.6221740609658637,2.706491247549653,-7.495338219976425,-0.31056757614519004,-0.006090693641453981,-0.0027559399604797363,5.715347485327721,-0.0033360719680786133
1746739473117889500,8.8808896484375,0.34645941845678646,0.008540315553545952,0.14616596445829116,-0.000987107865512371,0.00218600722350235,0.939221396863602,0.11707606276742426,right,-0.0016645193099975586,-0.6222569133848754,2.705875453738868,-7.495057064947486,-0.3106347310765433,-0.005150972865521908,-0.0018428266048431396,5.7160074105411764,-0.00045484304428100586
1746739473157889500,8.9208896484375,0.3468241679915057,0.0023690355010330677,0.1462622141922758,0.003314991481602192,0.0022924846418254288,0.9391577655702856,0.117471999948713,right,-0.0019941329956054688,-0.6225080056315215,2.708121186839044,-7.492720146432519,-0.3107811977541539,-0.007643821649253368,-0.0023831725120544434,5.718008228969573,0.000554203987121582
1746739473197889800,8.960889892578125,0.346837623020681,-0.0054046763107180595,0.14628938167425512,0.007647006306797266,0.002182324914110857,0.9391309304360089,0.11727628853297807,right,-0.001496434211730957,-0.6226858310278067,2.7078759799063206,-7.491726459220051,-0.31084989601634916,-0.0008986080065369606,-0.0015684962272644043,5.719424525508284,-0.0013145804405212402
1746739473237889800,9.000889892578124,0.34696418560220077,-0.006588944233953953,0.14638167426456916,0.004246484488248825,0.0019858272727186444,0.93907749030376,0.11695886686545949,right,-0.005747854709625244,-0.6229917611654836,2.708229323388636,-7.489738500273227,-0.3109694727126343,-0.007190531585365534,-0.0018903017044067383,5.721861397266387,-0.0007795095443725586
1746739473277889800,9.040889892578125,0.3470344307146532,0.0029331855475902557,0.14637883726136225,-0.0014735804870724678,0.0019622524418757216,0.9390027271678745,0.11702416571601572,right,-0.004544436931610107,-0.6234685005550497,2.707827464589476,-7.486982479563355,-0.3111966798611199,-0.011304234154522419,-0.0020332634449005127,5.725657866939902,-0.0020923614501953125
1746739473317889800,9.080889892578124,0.3473007561077071,0.009571686387062073,0.14641036901242324,-0.0007892818539403379,0.002142180916969785,0.9389476897430931,0.11754206381497533,right,-0.002301514148712158,-0.6237078917648338,2.7093545280262825,-7.4849717242628335,-0.31134652870880763,-0.007582409307360649,-0.0024776458740234375,5.727563408300281,-0.0015117526054382324
1746739473357889500,9.1208896484375,0.34745463028099716,0.0028668581508100033,0.14643410649796157,0.00031602144008502364,0.0022632421740704524,0.9389353691362985,0.11785190785330418,right,-0.0027486085891723633,-0.6237128012057075,2.71049668379873,-7.484528072148561,-0.3113716708690552,-0.001042928546667099,-0.0025382041931152344,5.727602571266889,0.001807868480682373
1746739473397889500,9.1608896484375,0.34734734493866015,-0.0009198605548590422,0.14641167483520315,-0.0024123380426317453,0.0022278364629027417,0.9389618667524738,0.11771638470139885,right,-0.004028677940368652,-0.6235862437683444,2.7099405112206933,-7.485500716572999,-0.3113026032661125,0.0037548975087702274,-0.002884000539779663,5.726595440050959,-0.0032100677490234375
1746739473437889500,9.2008896484375,0.34719231515948196,0.01068629790097475,0.14633166282858098,-0.007458815351128578,0.0023251602785157146,0.9390026022029072,0.1178330870141356,right,-0.003945648670196533,-0.6233838922126155,2.709174203023314,-7.48700995209217,-0.31121660013893715,0.001337029505521059,-0.003809720277786255,5.724983913201093,-0.004537463188171387
1746739473477889800,9.240889892578124,0.3473412167734109,0.01771444082260132,0.1462917307906905,-0.0028562485240399837,0.0026611221447547296,0.9390066735056999,0.1185768871310576,right,-0.003083348274230957,-0.623274905064396,2.710501359973848,-7.487192907443642,-0.3112203733334508,-0.005041245371103287,-0.003009200096130371,5.7241164827167985,-0.002297818660736084
1746739473517889800,9.280889892578125,0.34782257496930236,0.015795676037669182,0.14636794069312448,0.0018569338135421276,0.003046918285244761,0.9389751152578992,0.11955145098087887,right,-0.002010166645050049,-0.6232403041041018,2.714172449702024,-7.486073548024892,-0.3112762266696078,-0.008516570553183556,-0.0033261477947235107,5.723841172906756,0.00134354829788208
1746739473557889800,9.320889892578125,0.34814512244134094,0.002764909528195858,0.1464190398494496,0.0016679049003869295,0.0032556677790780315,0.9389257281798854,0.12013619425602266,right,-0.0016623139381408691,-0.6234107899589646,2.716253932151198,-7.484280234867334,-0.311399032875221,-0.0045897215604782104,-0.0017830431461334229,5.725198432734608,0.002116382122039795
1746739473597889500,9.3608896484375,0.34814788110919026,-0.0012795394286513329,0.14640212610586248,0.003925920929759741,0.0032531393966388246,0.9388930305989694,0.12017501513163219,right,0.0009655356407165527,-0.6236333021344324,2.7158400906533,-7.48307553525269,-0.31150562378523683,-0.0029439907521009445,-0.003233402967453003,5.726970118582249,0.00004184246063232422
1746739473637889500,9.4008896484375,0.34781410560722303,-0.007076968438923359,0.14630974890429732,0.0008773971349000931,0.0031376772066215833,0.9389331483190733,0.11979824514225057,right,-0.001179814338684082,-0.6235299790407636,2.7135437964096663,-7.484538009020686,-0.3114293360374941,0.011080107651650906,-0.004049420356750488,5.72614711176157,0.00015056133270263672
1746739473677889500,9.4408896484375,0.3477643524708425,-0.0062614926137030125,0.14636844626549766,0.005809558555483818,0.0029671984432468757,0.938977003210415,0.11936596835056726,right,-0.0038911104202270508,-0.6232590270284953,2.7137001560151575,-7.486131415691971,-0.3112712710343609,0.006772759836167097,-0.002577841281890869,5.723990225988626,0.002955794334411621
1746739473717889800,9.480889892578125,0.3476842831781188,-0.0117768794298172,0.1464222177947207,0.006447941996157169,0.0027159725257690525,0.938990433729297,0.11879525696215833,right,-0.002687394618988037,-0.6232122489339217,2.713191914232075,-7.4866002022475,-0.3112075879466364,0.004255486652255058,-0.0013583898544311523,5.7236173010230065,0.0021377205848693848
1746739473757889800,9.520889892578126,0.34752208817381985,-0.0025358032435178757,0.14643862784462802,0.001109830103814602,0.00248428256820358,0.9390157951692646,0.11823099251487995,right,-0.0040357112884521484,-0.6231243780510379,2.712148834919929,-7.487512640917301,-0.31112510423093515,0.0016694539226591587,-0.004168659448623657,5.722917628321051,-0.0027896761894226074
1746739473797889800,9.560889892578125,0.34763773916294244,0.011677103117108345,0.14646050981252703,0.0018467193003743887,0.0025962112020937633,0.9390253913851835,0.11848326134878877,right,-0.0016370415687561035,-0.6229984015130854,2.7132603032931684,-7.487876798054575,-0.3110849661778648,0.00005610834341496229,-0.0035525858402252197,5.721914588758349,-0.002415478229522705
1746739473837889800,9.600889892578126,0.3480896641802031,0.008007558062672615,0.14659748426686306,0.00696859136223793,0.002789616758241018,0.9390125501099993,0.11901697402972432,right,-0.0010106563568115234,-0.6228546144371515,2.7169246710196138,-7.4874232090681785,-0.31105761085340555,-0.002756713889539242,-0.003526836633682251,5.720769510376453,-0.0002611875534057617
1746739473877889500,9.6408896484375,0.3483019314203673,-0.005686427466571331,0.14670418303050808,0.008754136972129345,0.00275404512694353,0.9390076949177564,0.1189972905480135,right,-0.00130385160446167,-0.6227814282599466,2.7186569016397,-7.4872396691948175,-0.3110223258328277,-0.003935868386179209,-0.0020720362663269043,5.720186157530546,0.00047641992568969727
1746739473917889500,9.6808896484375,0.3484225100662426,-0.009830497205257416,0.14679654717506058,0.00892846379429102,0.0025065479541808515,0.9389303706264969,0.11860211607881391,right,-0.005596637725830078,-0.6232547456169413,2.7186349820688367,-7.484366159585118,-0.31121421198825033,-0.01460166648030281,-0.0018803179264068604,5.723955739197135,-0.0022812485694885254
1746739473957889800,9.720889892578125,0.34861990410790955,-0.005164408590644598,0.1468768819056155,0.007413860876113176,0.002331844691354222,0.938812411602271,0.11843358720050702,right,-0.0030248165130615234,-0.6239649978372959,2.7187226603522894,-7.480006795331835,-0.3115332690784568,-0.012513677589595318,-0.0018409788608551025,5.729609819436073,-0.0029140114784240723
1746739473997889800,9.760889892578126,0.34897285649888293,0.003137372899800539,0.1470013764739609,0.0051146820187568665,0.0023253969265145872,0.9387431222705089,0.11859461211627599,right,-0.0028274059295654297,-0.6242609700679728,2.72078280775249,-7.477453019195795,-0.31168348742666435,-0.004957749042659998,-0.0011678040027618408,5.73196544265151,-0.001250147819519043
1746739474037889800,9.800889892578125,0.34932053974880084,0.0018602507188916206,0.14712132021692131,0.002465273952111602,0.0024120621780765513,0.9387232471150733,0.11888661678422537,right,-0.0033316612243652344,-0.6242194936687033,2.7234637173995373,-7.476729965618253,-0.31168604073688533,-0.0018851801287382841,-0.0009287893772125244,5.731635187783837,0.0008256435394287109
1746739474077889800,9.840889892578126,0.34931204216114803,-0.001302479300647974,0.14711467215784155,-0.0005666017532348633,0.0024348331511986833,0.938731518521013,0.11892205448754894,right,-0.003482997417449951,-0.6241669154609029,2.723503464888036,-7.477036255088448,-0.3116641217224641,0.0014792776200920343,-0.0008571147918701172,5.731216670110822,0.001448512077331543
1746739474117889500,9.8808896484375,0.34907855248331765,-0.0002975462703034282,0.1470283064186122,-0.0019341359147801995,0.0024078057526010534,0.9387526495516072,0.1187819406168681,right,-0.0014706850051879883,-0.6241412339840675,2.721807766886055,-7.477810162070393,-0.3116415496637101,0.0012301959795877337,-0.0019319355487823486,5.731012671971321,-0.0008649826049804688
1746739474157889500,9.9208896484375,0.3489799181742359,0.0068374332040548325,0.14698306099258396,-0.0029810555279254913,0.002462754672703926,0.9387842737464016,0.11883365641970225,right,-0.0018107891082763672,-0.6239738593021193,2.7213983093023297,-7.478979790371656,-0.31156719684265244,0.006051926873624325,-0.0034991204738616943,5.729680546584725,-0.0021635890007019043
1746739474197889800,9.960889892578125,0.34910605158322017,0.010863837786018848,0.14701587634353572,-0.002085200510919094,0.0026461482567038575,0.9388449680723913,0.11917209234181228,right,-0.0015217065811157227,-0.6234908464975251,2.723287776310742,-7.481236044865846,-0.311367057806507,0.009987423196434975,-0.003311842679977417,5.725835561594367,-0.0006488561630249023
1746739474237889800,10.000889892578124,0.34907894628155145,0.003467082977294922,0.14700755682128083,-0.004251299425959587,0.0027780801384471978,0.9389270131749621,0.1193367703712194,right,-0.00432199239730835,-0.6229399023585324,2.7241633901014923,-7.484273220604658,-0.31112224842042546,0.009101983159780502,-0.003866851329803467,5.7214487248122685,-0.0006195902824401855
1746739474277889800,10.040889892578125,0.348818786125988,0.00545746274292469,0.1468807592395338,-0.012127703987061977,0.0028959997445103507,0.9389821159830956,0.11945347842069937,right,-0.0046326518058776855,-0.6226922249747426,2.7227006240725515,-7.486313201999664,-0.3110149381155816,0.0016435650177299976,-0.005088537931442261,5.719475963434577,-0.0015838146209716797
1746739474317889800,10.080889892578124,0.34873984883052805,0.009825806133449078,0.14676088124414347,-0.012525975704193115,0.003169349472959434,0.9389933109459977,0.12000117083220949,right,-0.0036439895629882812,-0.6226491419358352,2.7221938435941935,-7.486759776723384,-0.3110349482590473,-0.0013958143536001444,-0.005921810865402222,5.719132264563441,-0.00414508581161499
1746739474357889500,10.1208896484375,0.3487003758602761,0.0009152917191386223,0.1466950917427148,-0.0020817480981349945,0.003335418010969681,0.9390054998056914,0.12032868900907945,right,-0.0041762590408325195,-0.6225818294922018,2.7220298852041362,-7.487228563278913,-0.31102751585840227,-0.001195924123749137,-0.0033334195613861084,5.7185962579905985,0.0021435022354125977
1746739474397889500,10.1608896484375,0.3485990931225715,-0.010568596422672272,0.14666381573267606,0.0026970435865223408,0.003235908058974984,0.9389756798243879,0.12013341994748868,right,-0.002758204936981201,-0.6228396653588895,2.7207679024443028,-7.486118556210398,-0.31113326524174983,-0.0035264012403786182,-0.0022063255310058594,5.720650267910957,0.0016141533851623535
1746739474437889500,10.2008896484375,0.3483142699927272,-0.0030422965064644814,0.1465932376707152,-0.0010560126975178719,0.0030408145962625734,0.9389695535828568,0.11966060944788945,right,-0.002565145492553711,-0.6230303970279023,2.718262933886051,-7.485867211797833,-0.3111870811957995,0.004271257668733597,-0.005490630865097046,5.7221694403022525,-0.003884732723236084
1746739474477889800,10.240889892578124,0.3482292784973641,0.016682326793670654,0.14652861769570238,-0.0025078216567635536,0.003204417593215787,0.9390185344684872,0.1199233045604643,right,-0.001240551471710205,-0.6227343390797956,2.718204773958027,-7.487690920093655,-0.31106813213260603,0.008560406044125557,-0.003712683916091919,5.719811478999257,-0.0015795230865478516
1746739474517889800,10.280889892578125,0.3488051990429497,0.01912081241607666,0.14669470515819888,0.007279898971319199,0.0035725083100201214,0.9390557219710214,0.12078975398010613,right,-0.0025374889373779297,-0.6221785102241599,2.723602833609283,-7.489110723763704,-0.3108734366614883,0.002235997002571821,-0.003070056438446045,5.715382556641101,0.003845810890197754
1746739474557889800,10.320889892578125,0.34928455414612136,0.0008192453533411026,0.14687275270536856,0.004290478304028511,0.0037336301756807503,0.9390725404612612,0.12122067352556769,right,-0.0016454458236694336,-0.6218151427403272,2.7279028688907623,-7.4897548668861385,-0.3107365086588316,0.013130983337759972,-0.0023956000804901123,5.712486835199594,-0.0006176233291625977
1746739474597889500,10.3608896484375,0.349169113258262,-0.007630869746208191,0.14690403732649646,0.003770526498556137,0.0035727781171767782,0.9391267474873221,0.12077954910721064,right,-0.004729628562927246,-0.6215058335428593,2.727642464388907,-7.4917293818295,-0.3105596658895482,0.005673748441040516,-0.002606689929962158,5.710020737347007,-0.0028435587882995605
1746739474637889500,10.4008896484375,0.3492262301185186,0.0056646037846803665,0.1469379375243992,-0.003033402841538191,0.00352927587219201,0.9391151493310963,0.12071583690297902,right,-0.007448077201843262,-0.6215572524835047,2.727970088908076,-7.491297420153021,-0.3105790803228121,-0.003810879774391651,-0.004375368356704712,5.7104310717135665,-0.00648730993270874
1746739474677889500,10.4408896484375,0.34946779020898017,0.0162197295576334,0.1469406433679547,-0.0014178011333569884,0.0038166304894477116,0.9390905340721919,0.12141520059815832,right,-0.004089653491973877,-0.6215955928087299,2.729704365354776,-7.490432327756285,-0.31064878948080754,-0.011148901656270027,-0.002154618501663208,5.710736192139983,-0.0034753084182739258
1746739474717889800,10.480889892578125,0.3500432299662135,0.008446380496025085,0.1470482319331317,0.003598974086344242,0.004111074316535789,0.9389861208262503,0.12231406682424018,right,-0.00266188383102417,-0.6220113158760726,2.733200098516047,-7.486630012863874,-0.31090981554824565,-0.01855183020234108,-0.002710789442062378,5.714050431254506,-0.0015042424201965332
1746739474757889800,10.520889892578126,0.3502702665084819,-0.0014701196923851967,0.14707853037365018,0.002742856042459607,0.004178076512793478,0.9388968792655259,0.1226288563666439,right,-0.002800464630126953,-0.6225056714500946,2.7339298740953204,-7.48335493671596,-0.31116391482640626,-0.010849458165466785,-0.0028398334980010986,5.717989524269104,0.000664055347442627
1746739474797889800,10.560889892578125,0.35039083750929734,-0.0005317549221217632,0.14710546348669898,0.0025863463524729013,0.0041553794803777565,0.9388354794540438,0.1226911629426463,right,-0.0018051862716674805,-0.6228662637331919,2.734124519884586,-7.481088745349645,-0.3113368272465139,-0.004024813883006573,-0.0037407279014587402,5.720861864835023,-0.00008088350296020508
1746739474837889800,10.600889892578126,0.35057392668532933,0.005697759333997965,0.14715292589806833,0.0004111621528863907,0.004227237986732549,0.9388127460668315,0.1229168242017734,right,-0.0035820603370666504,-0.6229267195538434,2.7353753967285153,-7.480262815919518,-0.31138199069792366,0.0020650834776461124,-0.0022845864295959473,5.721343510872125,0.0024812817573547363
1746739474877889500,10.6408896484375,0.35090457925137125,0.008315680548548698,0.14724666486296942,0.0036789001896977425,0.004413110029674372,0.9388165316267338,0.1233831286273278,right,-0.0036513805389404297,-0.6227264196400266,2.7382424765974283,-7.480434080833196,-0.31132366349028573,0.0006517840083688498,-0.002049475908279419,5.719748350635171,0.0037134289741516113
1746739474917889500,10.6808896484375,0.35124995958373695,0.006326879374682903,0.1473565110885769,0.0018478792626410723,0.004584861112743258,0.9388281399475426,0.12381222834389971,right,-0.003106236457824707,-0.6224655452855744,2.741339273568988,-7.480888838863373,-0.31123442090966963,0.0014292665291577578,-0.002016603946685791,5.717669790795445,0.0024974942207336426
1746739474957889800,10.720889892578125,0.3512210711082786,-0.0028222575783729553,0.14735789685688755,-0.0018916691187769175,0.004584006045406588,0.9388525338909873,0.12377080955428792,right,-0.0032562613487243652,-0.6223128937736193,2.7414234447211023,-7.48178783352971,-0.31116015404245845,0.0074373530223965645,-0.004152357578277588,5.716453400743007,-0.0014969110488891602
1746739474997889800,10.760889892578126,0.3510362112758827,-0.0010962424566969275,0.14731030054444305,0.004193595610558987,0.004512619966682277,0.9388767648153038,0.12354381092275128,right,0.001673579216003418,-0.6222433680009383,2.740176951791346,-7.482667538973689,-0.3111106049828289,-0.0014138035476207733,-0.0059015750885009766,5.715899273991584,-0.005047142505645752
1746739475037889800,10.800889892578125,0.35106576230994024,-0.0024740113876760006,0.1473413791915847,0.0052483114413917065,0.004446635537781821,0.9388696210313859,0.12342017958790673,right,-0.0012930631637573242,-0.622279727191418,2.7403265893951056,-7.482391644641757,-0.31111850019057874,-0.0007361058960668743,-0.004089564085006714,5.716189196848869,-0.00476384162902832
1746739475077889800,10.840889892578126,0.35154420828904165,-0.0064038364216685295,0.14756287599996054,0.01646972820162773,0.0042998363985012195,0.9387888819101743,0.12332781819808142,right,-0.003941714763641357,-0.6225938602033885,2.743287777288258,-7.479393047347664,-0.31125916283609606,-0.011464155279099941,-0.002580612897872925,5.718692119580507,0.001514434814453125
1746739475117889500,10.8808896484375,0.3519136529068798,-0.009061893448233604,0.14774703265043077,0.011862464249134064,0.00409569228123937,0.9386980638618307,0.12310193553685246,right,-0.003156304359436035,-0.6230331805657372,2.745184258559346,-7.476019771522283,-0.3114480574367248,-0.0036258678883314133,-0.001151740550994873,5.72219165213406,0.001237332820892334
1746739475157889500,10.9208896484375,0.3520766167164942,-0.005805716384202242,0.14788001828756248,0.007705171592533588,0.0038646884631776406,0.9386671369672637,0.12269057981651325,right,-0.0033982396125793457,-0.6231691295286644,2.7461343988910314,-7.474841959914564,-0.3114813132712399,0.0015176539309322834,-0.002805382013320923,5.72327418667376,0.000735938549041748
1746739475197889800,10.960889892578125,0.3523411630600233,0.000750475563108921,0.14804544942580453,0.01142861694097519,0.003731396962946804,0.9386659887882985,0.12246988938261692,right,-0.004451394081115723,-0.6230448728413229,2.748357043376565,-7.474782338681816,-0.3114076036210976,0.003945803735405207,-0.0026637613773345947,5.722284591114521,0.0008172988891601562
1746739475237889800,11.000889892578124,0.35287588287175686,0.004702902399003506,0.14828473243263998,0.01095547154545784,0.003710552303412778,0.9386413590714979,0.12258222678603643,right,-0.0017720460891723633,-0.6229401930442077,2.752560632546246,-7.4738739916652435,-0.311368147313544,0.0008906782604753971,-0.004123300313949585,5.721451062899828,-0.0007354617118835449
1746739475277889800,11.040889892578125,0.3532453964530843,0.0020672965329140425,0.14847171662412453,0.00986552331596613,0.003667787794826161,0.9386450716588158,0.12257142928615429,right,-0.0027899742126464844,-0.6227262929845144,2.755745400062203,-7.474004340046644,-0.31126834452017377,0.007862376049160957,-0.0027331113815307617,5.719747181591392,-0.003674447536468506
1746739475317889800,11.080889892578124,0.35353448707782104,0.0015546581707894802,0.14861586294707463,0.0028376919217407703,0.003620533660293136,0.938636786164182,0.12254888319153583,right,-0.007079482078552246,-0.6226367658231348,2.7580834876209495,-7.473688113704323,-0.311225434160348,-0.005140824243426323,-0.0024658143520355225,5.719034064885974,-0.002689361572265625
1746739475357889500,11.1208896484375,0.35375230936650426,0.005260131321847439,0.14865133375827191,0.0010496708564460278,0.0036747535354361514,0.9385569203597858,0.12282255691571406,right,-0.004928410053253174,-0.623071023665081,2.758850672601163,-7.470756736427545,-0.3114485429879913,-0.013569977134466171,-0.0022048354148864746,5.722492680907249,-0.00266873836517334
1746739475397889500,11.1608896484375,0.3541994972004483,0.006178358104079962,0.14876646766451035,0.00499159237369895,0.0038256593740974097,0.9384865054168456,0.12334176721932558,right,-0.002904951572418213,-0.6233193904261766,2.7616978787258266,-7.468188347244262,-0.311603731752313,-0.006016458384692669,-0.002727687358856201,5.724470702981948,-0.0012584924697875977
1746739475437889500,11.2008896484375,0.35455406441483334,-0.004306636285036802,0.14888717543268956,0.0066021159291267395,0.003849304038522792,0.9384270790088927,0.1235543843771096,right,-0.00286179780960083,-0.6235436945525943,2.763899772684276,-7.466004573464393,-0.3117247359987092,-0.008686155080795288,-0.003473520278930664,5.726256417354941,0.00046515464782714844
1746739475477889800,11.240889892578124,0.35468928374580055,-0.008240137249231339,0.14896422534806059,0.004367503337562084,0.0036813548094938057,0.938358551291688,0.12332175013602048,right,-0.0037737488746643066,-0.6239489497261292,2.7641034785628316,-7.463454304459691,-0.3118964315065116,-0.008284608833491802,-0.0032941102981567383,5.729482393664122,0.000038623809814453125
1746739475517889800,11.280889892578125,0.354629468992977,-0.0013991501182317734,0.14895533315366435,-0.0005682553164660931,0.003538112490554173,0.9383105417606927,0.12306866278388913,right,-0.003974318504333496,-0.6243124349283353,2.7629335580006242,-7.461666251999139,-0.3120467905639197,-0.009133245795965195,-0.004102081060409546,5.7323746079742905,-0.001534104347229004
1746739475557889800,11.320889892578125,0.3547603677430623,0.008205901831388474,0.1489536272678385,0.001454461133107543,0.0035909639069584645,0.9382352701370049,0.1233133979713641,right,-0.003535449504852295,-0.6247584887404951,2.7630218208059665,-7.45890555511415,-0.3122730470723881,-0.01682329922914505,-0.0035168230533599854,5.735923240366578,-0.002138674259185791
1746739475597889500,11.3608896484375,0.3551147178688819,0.008434252813458443,0.14898209978174873,-0.0037506248336285353,0.0038295859239832293,0.9381407931049854,0.12403103156140961,right,-0.004956305027008057,-0.6252163647616884,2.7647511288166045,-7.455463305705785,-0.3125404027307716,-0.015054205432534218,-0.0026733875274658203,5.739564811739325,-0.000500023365020752
1746739475637889500,11.4008896484375,0.3551406218830186,0.007696462795138359,0.1488946598218643,-0.008098558522760868,0.00404459964126981,0.9380933912695986,0.12455863049732878,right,-0.004345834255218506,-0.6255209731128631,2.7643364105358716,-7.453751825612783,-0.31272159442568026,-0.008774995803833008,-0.0026617050170898438,5.7419864859282965,-0.0011343955993652344
1746739475677889500,11.4408896484375,0.3551489500423301,0.007148877717554569,0.14879738368351472,-0.0033967033959925175,0.004291809094663059,0.9380610287160824,0.12513013427168396,right,-0.0014473199844360352,-0.6257304346209441,2.763980144444108,-7.45260090201199,-0.312861676534105,-0.012604239396750927,-0.003627091646194458,5.743651788792014,0.002658069133758545
1746739475717889800,11.480889892578125,0.3549454529703367,-0.002260650508105755,0.1486514856908141,-0.010459210723638535,0.004429002303667414,0.938050110071169,0.1253895347718571,right,-0.00388944149017334,-0.6259052394641931,2.7621146428331733,-7.452222131827473,-0.3129619079886488,0.0019193803891539574,-0.0022769272327423096,5.745041197323799,0.0016643404960632324
1746739475757889800,11.520889892578126,0.3545249000177094,-0.0036311601288616657,0.14850216931361918,-0.002343403175473213,0.004354987857357076,0.9380841761316229,0.12508849504534705,right,-0.004193902015686035,-0.6258904710329781,2.759009662555158,-7.453462487277388,-0.3129317417697158,0.00018359790556132793,-0.0024750232696533203,5.744923708423972,0.002728283405303955
1746739475797889800,11.560889892578125,0.3542583174852153,-0.0010338446591049433,0.1484096317444467,-0.002465131925418973,0.0043109571525396465,0.9381108967144377,0.12489683198073002,right,-0.002728581428527832,-0.6258458124628937,2.7571117199793456,-7.454438638833165,-0.31289614237838104,0.00083218450890854,-0.0021854639053344727,5.744568903636932,0.0006603002548217773
1746739475837889800,11.600889892578126,0.35417064215173644,-0.0012483479222282767,0.1483818126230073,-0.0011336226016283035,0.004270306323297648,0.9381095460530431,0.12479190057768469,right,-0.002615690231323242,-0.6259011113505892,2.7563477498695255,-7.454381940209865,-0.3129139221634746,0.0018814331851899624,-0.005206078290939331,5.745008464097976,-0.0029529333114624023
1746739475877889500,11.6408896484375,0.3539489917871147,-0.0003866563783958554,0.1482974737749699,-0.0003511219983920455,0.004243819400527743,0.9381249378838205,0.12466326826255712,right,-0.002567768096923828,-0.6259099943029441,2.754677770830691,-7.454944834789633,-0.3129080541860623,0.0005827447166666389,-0.003906965255737305,5.745079191246629,-0.004120230674743652
1746739475917889500,11.6808896484375,0.35412208820562,0.0013920030323788524,0.14835479243473298,0.0070415157824754715,0.004235169487904608,0.938082284843506,0.12474285194016912,right,-0.002077817916870117,-0.6261130397402647,2.7555636137545108,-7.453373639950156,-0.31300887426231466,-0.00740210572257638,-0.0049324631690979,5.746692471662163,-0.004570960998535156
1746739475957889800,11.720889892578125,0.3542723089486922,0.0004069374408572912,0.14839590419244114,0.0027189836837351322,0.004264066191569509,0.9380510670581976,0.12488151790485343,right,-0.002299010753631592,-0.626248749187493,2.7564126317992805,-7.45222856156826,-0.3130826596568599,-0.0010464005172252655,-0.0036596357822418213,5.747770914548635,-0.006639599800109863
1746739475997889800,11.760889892578126,0.3547050909298564,0.0006982696941122413,0.14852324716693532,0.006272786296904087,0.004289747545903754,0.9379440702659829,0.12518169016977132,right,-0.0059258341789245605,-0.6267565885785595,2.75862358584702,-7.448296482816338,-0.31334232561211517,-0.023444658145308495,-0.004383563995361328,5.751805284631252,-0.0032480955123901367
1746739476037889800,11.800889892578125,0.35521702187703463,0.0030472474172711372,0.1486194678616766,0.0014906618744134903,0.0043859172521735785,0.9377634078288931,0.1257503892493913,right,-0.004655122756958008,-0.6277236123775115,2.7605004856348034,-7.441665081977844,-0.3138358298685108,-0.02028939686715603,-0.003188401460647583,5.759483564174175,-0.0019693374633789062
1746739476077889800,11.840889892578126,0.3557094340964374,0.0044774264097213745,0.14874614424804583,0.005431816913187504,0.0044744327823937734,0.9376446782437501,0.1262143566727136,right,-0.003457784652709961,-0.6282766718079082,2.7630545540317892,-7.437317408162355,-0.31412885399161583,-0.0143126817420125,-0.0033740103244781494,5.763872154521942,0.0013648271560668945
1746739476117889500,11.8808896484375,0.35625948403362856,-0.0000224187970161438,0.1489088229690274,0.009116118773818016,0.0045178427535549045,0.9375171116828747,0.12660823307570915,right,-0.003054499626159668,-0.6288619469306967,2.765968103390932,-7.432633049738406,-0.31443174976849547,-0.018103094771504402,-0.002424269914627075,5.768515011891722,0.0017930865287780762
1746739476157889500,11.9208896484375,0.3567106189425559,-0.005157977808266878,0.149052038432848,0.008860213682055473,0.004462208212121795,0.9373785682485494,0.12678360910721392,right,-0.0023616552352905273,-0.6295751453603962,2.767883581623435,-7.427527835553884,-0.31477763253565205,-0.01723664253950119,-0.0027867555618286133,5.7741696766525505,0.00009000301361083984
1746739476197889800,11.960889892578125,0.35693540996113127,-0.0006786216981709003,0.1491024779686063,0.003188446629792452,0.004417032119099284,0.9372651923114256,0.12689425877222177,right,-0.0021486878395080566,-0.6302318429901347,2.7682275727555155,-7.4233508421301835,-0.31509185625065483,-0.011411195620894432,-0.0028981566429138184,5.77937367503643,-0.0004335641860961914
1746739476237889800,12.000889892578124,0.3573255976260625,0.005316819995641708,0.1491962976859184,0.004857433494180441,0.004490560444796231,0.9371630829869264,0.12728088099821,right,-0.0035051703453063965,-0.6307230417984366,2.770130776028335,-7.419609902036189,-0.31535001872714596,-0.009575402364134789,-0.0021126866340637207,5.783264252734184,-0.0008284449577331543
1746739476277889800,12.040889892578125,0.3576640309145969,0.00552176870405674,0.14925947282651797,0.00003304891288280487,0.004651578181066661,0.9370982525571442,0.1277908745577825,right,-0.0049127936363220215,-0.6309842120493353,2.772112597495317,-7.417256616908311,-0.3155103136090497,-0.006666302680969238,-0.0028747618198394775,5.785332875701784,-0.0003999471664428711
1746739476317889800,12.080889892578124,0.3577707055006974,0.0039404029957950115,0.1492192783546059,-0.007694778963923454,0.004826822438019347,0.9370472648085926,0.12825822759509864,right,-0.005379855632781982,-0.6312699387987653,2.7723250712022183,-7.41541245034635,-0.315678280178605,-0.014882166869938374,-0.00411677360534668,5.787594975414872,0.0003299117088317871
1746739476357889500,12.1208896484375,0.357908152263904,0.0005396164488047361,0.14916182290170527,-0.00933665968477726,0.0050048195195467665,0.9369459532923875,0.1288071969278113,right,-0.005340874195098877,-0.6318800978558676,2.7721067522764202,-7.411722948178649,-0.316003255317607,-0.01777832582592964,-0.005803614854812622,5.7924242952674625,-0.003168642520904541
1746739476397889500,12.1608896484375,0.3579087601801947,-0.001944450894370675,0.14906012155176893,-0.0008254945278167725,0.005105915857732289,0.9368335353657768,0.12917561744320713,right,-0.005077838897705078,-0.6326374299559441,2.7705735513597727,-7.407610252162813,-0.3163827813963997,-0.024185799062252045,-0.003973901271820068,5.79841564463675,0.0004939436912536621
1746739476437889500,12.2008896484375,0.3582066187760341,-0.0007214471697807312,0.14908220539700068,0.0006816546665504575,0.005138209518179919,0.9366615644475546,0.12954849813440605,right,-0.003983020782470703,-0.6336464479471781,2.770726988355815,-7.401300922885537,-0.31688035391078057,-0.02414054237306118,-0.0036469995975494385,5.8063926148653024,0.0005150437355041504
1746739476477889800,12.240889892578124,0.35823308627692135,-0.000014321703929454088,0.14902500084874892,-0.0038399077020585537,0.005179913916731288,0.9365703187125511,0.1297676758883954,right,-0.0036017298698425293,-0.6342475396875425,2.7696988143518566,-7.3979574576765295,-0.31717609637339095,-0.007065610960125923,-0.00315701961517334,5.811141855219006,-0.0003527402877807617
1746739476517889800,12.280889892578125,0.3580930350306703,0.0029802792705595493,0.14891757894612598,-0.003556793089956045,0.005274211936281023,0.936551688954241,0.1299606175544006,right,-0.0030645132064819336,-0.6344410620676084,2.7682684892877933,-7.397292271766066,-0.31728002275048806,-0.005500119645148516,-0.004213511943817139,5.812670379960537,0.00044220685958862305
1746739476557889800,12.320889892578125,0.3582513418468246,0.004579300060868263,0.1489305314158197,0.0020546438172459602,0.005393663144591322,0.9365190646448459,0.13029661968334652,right,-0.003972172737121582,-0.6345763544458306,2.7691636845618484,-7.396117382767796,-0.3173683167639616,-0.004498297348618507,-0.004073441028594971,5.813739470496773,0.0029376745223999023
1746739476597889500,12.3608896484375,0.3583442419176804,-0.0004911809228360653,0.14896176880040451,0.0004346148343756795,0.005394154710547425,0.9365003843186365,0.13034503793636187,right,-0.0025037527084350586,-0.6346550855903144,2.7696903387844563,-7.395431738591194,-0.3174087559690036,0.003133073914796114,-0.004989504814147949,5.81436081726551,-0.0024178028106689453
1746739476637889500,12.4008896484375,0.35842275101956117,-0.005215849261730909,0.14903795269441972,0.005369548220187426,0.005280936843376389,0.936503741989696,0.13011806858197578,right,-0.0040749311447143555,-0.6345966260165653,2.770390011486411,-7.39553227635622,-0.3173649044355704,0.0015067938948050141,-0.00542113184928894,5.813899044972658,-0.0021247267723083496
1746739476677889500,12.4408896484375,0.358491231876366,-0.0006350576877593994,0.1490884888624354,0.0014591100625693798,0.0052103512830620115,0.9364961190582507,0.12999447133726555,right,-0.004964768886566162,-0.6346162024395045,2.770856752215326,-7.395235923758149,-0.3173649526272469,-0.0024147219955921173,-0.0049652159214019775,5.814053943273425,-0.0033728480339050293
1746739476717889800,12.480889892578125,0.358802950378822,0.004280501045286655,0.14922307673329457,0.007273141294717789,0.005212906526228176,0.9364828617147014,0.13009155881161125,right,-0.003365159034729004,-0.6345468349692774,2.773303268584609,-7.3947496015459295,-0.3173407754275626,0.0022492697462439537,-0.005225479602813721,5.813506246262788,-0.0027809739112854004
1746739476757889800,12.520889892578126,0.3592726642457044,0.0036734140012413263,0.14941724039103949,0.011997259221971035,0.005248537130200752,0.9364661481278167,0.130300946954414,right,-0.0025221705436706543,-0.6344188481614974,2.7770380711987612,-7.394142867824435,-0.31729816949215744,-0.0036239302717149258,-0.00279197096824646,5.81249502339363,0.00011736154556274414
1746739476797889800,12.560889892578125,0.3598545743689634,-0.0031350695062428713,0.14964821565348127,0.011117479763925076,0.005190791663720497,0.9363736199797377,0.1304414800735629,right,-0.0036013126373291016,-0.6347480381959805,2.780666198568046,-7.390733936163783,-0.31746314769395256,-0.007473589386790991,-0.0033183693885803223,5.815094976758957,-0.0012139678001403809
1746739476837889800,12.600889892578126,0.36007677016497974,-0.0029655946418642998,0.1497566896274167,0.005040323361754417,0.0050820479181401925,0.9363238756474161,0.13033037635637731,right,-0.003930270671844482,-0.6349742002766409,2.781844886958599,-7.388885093426704,-0.31756046189981774,-0.003047814592719078,-0.003478795289993286,5.816880691131949,-0.001619577407836914
1746739476877889500,12.6408896484375,0.3604503466828234,0.005306311883032322,0.1499091530552935,0.011515471152961254,0.005038992891106253,0.9362681889758131,0.13040296764947581,right,-0.0035164952278137207,-0.6351608699195651,2.784222137483954,-7.386829329940676,-0.31765353550174485,-0.005258085206151009,-0.003955155611038208,5.818354270815849,-0.0024332404136657715
1746739476917889500,12.6808896484375,0.36106726411541024,0.004354571923613548,0.15014053312342646,0.0062781767919659615,0.005085048597725008,0.9362071490146148,0.1307298020656044,right,-0.004910588264465332,-0.6352549620195237,2.78858530112952,-7.384597625365853,-0.31772332769528927,-0.002785459626466036,-0.004058867692947388,5.819097198137641,-0.0011624693870544434
1746739476957889800,12.720889892578125,0.36127956282272883,0.0011829969007521868,0.15020939937223207,0.004311005584895611,0.005119406013487631,0.9361788155358246,0.13089180254338317,right,-0.005310654640197754,-0.6353364102366809,2.789985523316264,-7.383562437099218,-0.31777384356292976,-0.004894444718956947,-0.0024575889110565186,5.819740172216296,-0.0011003613471984863
1746739476997889800,12.760889892578126,0.36134890610332293,0.0023241625167429447,0.15021072021280293,0.00030151428654789925,0.005151535714071672,0.9361465281665404,0.1310208647355115,right,-0.004748046398162842,-0.6355177679035179,2.7901243472650648,-7.382381702882051,-0.3178679239756909,-0.003980334848165512,-0.005963951349258423,5.821171666324139,-0.0054607391357421875
1746739477037889800,12.800889892578125,0.36119217549416666,0.0004269776400178671,0.15012347611486537,0.0048923855647444725,0.005195449941711794,0.9361460821597614,0.13107808008068597,right,-0.0038563013076782227,-0.6355994717805233,2.788799236141145,-7.382374104097485,-0.31790975514390235,-0.00930020585656166,-0.0026213228702545166,5.821816393968462,-0.0016230344772338867
1746739477077889800,12.840889892578126,0.36154431475051585,-0.003052961314097047,0.15022178374017256,0.006469703745096922,0.005197963788859711,0.9360432774611929,0.1313073608158925,right,-0.004613995552062988,-0.6361118551288281,2.790342958451807,-7.378600430777668,-0.31816582616596917,-0.0125392135232687,-0.0036205649375915527,5.825858947357535,0.000698089599609375
1746739477117889500,12.8808896484375,0.3615037546512765,-0.00575060211122036,0.1501939065860434,0.0020506936125457287,0.005115248962180665,0.9359827845426113,0.1312045162059772,right,-0.003713548183441162,-0.63654240651689,2.7891560867547986,-7.3763663881152866,-0.3183579465329888,-0.0054261405020952225,-0.0046187639236450195,5.829255019536614,-0.0020038485527038574
1746739477157889500,12.9208896484375,0.36154072756782507,0.0030905455350875854,0.1501823469090243,-0.0004658857360482216,0.005130733662417902,0.9359447127872933,0.13129842205185993,right,-0.0024467110633850098,-0.6367793472372145,2.7889403981775045,-7.374971134364604,-0.3184750978220308,-0.00702980300411582,-0.006789147853851318,5.831123151496052,-0.003606259822845459
1746739477197889800,12.960889892578125,0.3618627976765285,0.008340923115611076,0.15024638965224962,0.005507208406925201,0.005312434122144942,0.9359072455688835,0.13181277885385145,right,-0.003168761730194092,-0.6368602268844971,2.7911484296157956,-7.373631410193443,-0.3185521076445424,-0.004519676323980093,-0.005123049020767212,5.8317608648777,-0.0010080933570861816
1746739477237889800,13.000889892578124,0.36230165443397433,0.0034273602068424225,0.1503820781034678,0.00315224751830101,0.005432522735164619,0.9358650739248019,0.1322299408647132,right,-0.0038341283798217773,-0.636914857909034,2.794271237811446,-7.3721081461489195,-0.31860999440797344,-0.0005277334712445736,-0.005039393901824951,5.8321916575104,-0.0009567141532897949
1746739477277889800,13.040889892578125,0.36247972034630394,-0.003283490426838398,0.1504801772770321,0.010086508467793465,0.005383357068340669,0.9358642916503129,0.13216831854764344,right,-0.004082798957824707,-0.6368307814247414,2.795757969237864,-7.37206898318231,-0.31856681151185096,-0.0028107455000281334,-0.005405008792877197,5.831528809687495,-0.00006413459777832031
1746739477317889800,13.080889892578124,0.36280166473188175,-0.0030848539900034666,0.1506336622288881,0.005466262344270945,0.005256467371296621,0.9358033790523178,0.13205783772921903,right,-0.0069577693939208984,-0.6370808569405373,2.797613533976674,-7.369805129903554,-0.31867542005485017,-0.00940267089754343,-0.0040992796421051025,5.833500402021408,-0.001416623592376709
1746739477357889500,13.1208896484375,0.3631274123680161,0.0025353149976581335,0.15074616892641854,0.008873078972101212,0.005218905369832913,0.9357218450880413,0.13216670973502134,right,-0.004457414150238037,-0.6374630486717546,2.7992218459561466,-7.366807701653242,-0.3188619069598244,-0.006002570502460003,-0.002901524305343628,5.836512443318963,-0.0018195509910583496
1746739477397889500,13.1608896484375,0.3636619392547594,0.005063947290182114,0.15095044188935897,0.012588847428560257,0.005227353828787841,0.9356585327102935,0.13239790518078726,right,-0.002841055393218994,-0.6376142357020269,2.8028452971503137,-7.364485980707406,-0.318950906794951,-0.006148334592580795,-0.002703428268432617,5.837704283452034,0.00013816356658935547
1746739477437889500,13.2008896484375,0.36425514902496015,0.0002515967935323715,0.15118341961370427,0.009914305992424488,0.005222560628345113,0.9355906904807049,0.13262095446730102,right,-0.004225730895996094,-0.6377655590126516,2.806898664194345,-7.3619959174573415,-0.31903953920466654,-0.0046000974252820015,-0.002242952585220337,5.838896123585105,-0.00024253129959106445
1746739477477889800,13.240889892578124,0.3645148171602176,0.0000723098055459559,0.15129971535359524,0.0025496436282992363,0.005149514323731294,0.9355454218085938,0.1325889709759881,right,-0.0040850043296813965,-0.6379389509997767,2.808449108506739,-7.3603206777215,-0.3191182606621784,-0.007150445133447647,-0.0021398961544036865,5.840262735763192,-0.001927018165588379
1746739477517889800,13.280889892578125,0.3649364912419864,0.00845540501177311,0.15140299601245988,0.0041336738504469395,0.00523639096157726,0.9354460804177028,0.13301075007439875,right,-0.0026015043258666992,-0.6383873976512325,2.810617684717476,-7.356689043220877,-0.3193593019352479,-0.0169219933450222,-0.0035546422004699707,5.843794417020678,-0.002479255199432373
1746739477557889800,13.320889892578125,0.3655755393596093,0.012079047039151192,0.1515595003361197,0.0030384291894733906,0.005448566691525958,0.9353394668958331,0.13376073989212456,right,-0.004567205905914307,-0.6387664825679656,2.8145263825938103,-7.3528224309206,-0.3195936734353266,-0.011713249608874321,-0.0047897398471832275,5.846779570311307,-0.002605915069580078
1746739477597889500,13.3608896484375,0.3659920456771281,0.01567855291068554,0.151619868585085,-0.008290885016322136,0.005762524813163053,0.9352985998156077,0.13458414670331123,right,-0.0056539177894592285,-0.6388136442626001,2.8174899085745215,-7.351391521334648,-0.3196791254956761,-0.006687503773719072,-0.0031000375747680664,5.847150741711259,-0.002277553081512451
1746739477637889500,13.4008896484375,0.3661176616184135,0.012965559959411621,0.15153579256217392,-0.013023706153035164,0.006177764204491789,0.9352958484987955,0.1355017418064685,right,-0.0066724419593811035,-0.6387493869389732,2.818547893194854,-7.351388598725199,-0.31971924654971057,-0.007635870482772589,-0.004348874092102051,5.84664513027668,0.0017511844635009766
