time,seconds_elapsed,z,y,x
1746738805980211700,0.025211669921875,0.22607670031785965,-0.015501561613683587,0.04882186204250902
1746738805990290700,0.035290771484375,-0.1697112544953823,0.025328322144097182,-0.07725723540741018
1746738806000369700,0.04536962890625,0.04861760817468166,0.011492155867320253,-0.04607523934864439
1746738806010449700,0.05544970703125,0.19734861848354338,-0.008163065672715311,0.013841670144023373
1746738806020528600,0.065528564453125,-0.10925532448887824,0.018265789604542077,0.048147177651338274
1746738806030607600,0.075607666015625,0.04173486292362213,0.0001703578772692708,0.08302648472492583
1746738806040686600,0.0856865234375,0.17221008557379244,0.005200939347935491,0.050878410979826
1746738806050766600,0.0957666015625,-0.08651157776117324,0.015943734156922438,-0.03503954826975241
1746738806060845600,0.105845458984375,0.03125847709476948,0.007131582612707279,-0.05281331543200649
1746738806070924800,0.1159248046875,0.1357002638220787,0.004641212260321481,0.015558283069869502
1746738806081004500,0.126004638671875,-0.056284197279810905,0.007631329991258098,0.04781117802946828
1746738806091083800,0.136083740234375,0.026168460479378697,0.007465236726330477,0.081617385111982
1746738806101162800,0.146162841796875,0.10741758766770362,0.004772311843681382,0.03242138339430094
1746738806111242800,0.15624267578125,-0.04566051193475723,0.003088829435879597,-0.043420898048114026
1746738806121321700,0.16632177734375,0.053252866759896274,-0.00041227516189683224,-0.05976522606229409
1746738806131400700,0.176400634765625,0.09245441181361674,0.007961929635514389,-0.008942472526151686
1746738806141479700,0.186479736328125,-0.024262334597110746,0.015817102969414555,0.04784444097825326
1746738806151559700,0.1965595703125,0.05205459688603878,0.009962792017217725,0.08939906109729781
1746738806161638700,0.206638671875,0.09230418968796729,0.0013273310512915487,0.0366336673270911
1746738806171717600,0.216717529296875,0.017335165682435035,0.020843146403925494,-0.03038882725392468
1746738806181797600,0.226797607421875,0.03993102837204933,0.008631644448978477,-0.04378606896554119
1746738806191876600,0.236876708984375,0.05594166745245456,0.0020737500922230535,0.003899820450134575
1746738806201955600,0.24695556640625,0.012247487154603004,0.02606995255794609,0.052637365210056304
1746738806212034800,0.257034912109375,0.04516892902553081,-0.00018418832733295857,0.08846980829001404
1746738806222114600,0.267114501953125,0.07075345213711261,0.011117042369546833,0.061902137626288455
1746738806232193800,0.27719384765625,0.012992168042063712,0.023332915109756866,-0.014622125597763805
1746738806242272500,0.2872724609375,0.040377018573880194,0.008239401719890883,-0.053599707436189054
1746738806252352800,0.297352783203125,0.05399345599412918,0.006705412497842917,-0.025453069618484005
1746738806262431700,0.307431640625,0.014788988330960273,0.011040230256691574,0.049339364844281225
1746738806272510700,0.3175107421875,0.05055179110765457,0.0031998971572524165,0.08392070275144652
1746738806282589700,0.327589599609375,0.06177344234585762,0.006281805374467512,0.055913993994239714
1746738806292669700,0.337669677734375,0.019874913293123245,0.018776403724512784,-0.017670754312351346
1746738806302748700,0.347748779296875,0.024065935242176054,0.004105928919152939,-0.0649627581727691
1746738806312827600,0.35782763671875,0.04052607165575027,0.004436700380878756,-0.02017089143185876
1746738806322907400,0.367907470703125,0.02885492308437824,0.012969001795607619,0.03662511869445443
1746738806332986400,0.377986328125,0.035737083813548086,0.015200041933439205,0.07325010039159097
1746738806343065300,0.3880654296875,0.0545896683216095,0.009283832738906494,0.059647152640577406
1746738806353145300,0.398145263671875,0.024812369695305824,0.017330887941183756,-0.01418300352813676
1746738806363224300,0.408224365234375,0.045911271825432774,0.006738169127373839,-0.05429437516946345
1746738806373303300,0.41830322265625,0.043217210435867306,0.019869047524628695,-0.012328489102097228
1746738806383382300,0.42838232421875,0.0471083726555109,0.005016719625383848,0.045973121547885236
1746738806393462500,0.438462646484375,0.05294423920214176,0.007010658505134051,0.07587446667896583
1746738806403541200,0.448541259765625,0.041273090630769727,0.01016212768133264,0.056687225122749804
1746738806413620500,0.458620361328125,0.04351707016527653,0.01294319835078204,-0.006291172566078603
1746738806423700200,0.4687001953125,0.0441150360584259,0.008805754911113763,-0.05516134899603203
1746738806433779500,0.478779541015625,0.03364157283902168,0.02231671238809358,-0.036284744291566313
1746738806443858400,0.4888583984375,0.02182137118577957,0.011332767479459289,0.030799079422093926
1746738806453937400,0.4989375,0.05653671073615551,-0.00518670818071696,0.08979973258636892
1746738806464017400,0.509017333984375,0.03992576767504215,0.004128947893492295,0.06948076532017439
1746738806474096400,0.519096435546875,0.03768061909675598,0.025860508775059132,0.004298025987483561
1746738806484175400,0.52917529296875,0.02810556602180004,0.0011306097526598022,-0.054681739652389656
1746738806494255400,0.53925537109375,0.040376434051990505,0.009339966248269774,-0.042625692549813535
1746738806504334300,0.549334228515625,0.03424070777595043,0.0018538956548203713,0.03908305150689557
1746738806514413300,0.559413330078125,0.03977671459317207,0.012218033872899832,0.08747942727948538
1746738806524493600,0.56949365234375,0.04351765468716621,0.0032998515420331383,0.07150873661697842
1746738806534572300,0.579572265625,0.02975041061937809,0.013979589910525827,0.014701611441606656
1746738806544651300,0.5896513671875,0.035438393127918244,0.02364091704642633,-0.061948515784973276
1746738806554730500,0.59973046875,0.04022796549201012,0.015683940434776014,-0.056082518961559975
1746738806564810200,0.609810302734375,0.01733282759487629,0.007015675461079809,0.022946694554435088
1746738806574889500,0.619889404296875,0.02496317634284496,0.01329804537866148,0.085051560811745
1746738806584968400,0.629968505859375,0.02496317634284496,0.003013304526990396,0.10361420419621281
1746738806595048400,0.64004833984375,0.05848141506314277,0.015451009603380224,0.0025084026243537665
1746738806605127400,0.65012744140625,0.05219605118334293,0.010327086151810362,-0.057285419344762334
1746738806615206400,0.660206298828125,0.0327431626945734,0.018064306507469152,-0.052230008251871914
1746738806625285400,0.670285400390625,0.023317747223377226,0.01641889337102184,0.02122035481901839
1746738806635365000,0.680365234375,0.03304536051154137,0.0024362404287967365,0.07168595634740776
1746738806645444400,0.6904443359375,0.029303251373767852,0.005713408069097204,0.08376885492429137
1746738806655523300,0.7005234375,0.05189794501960277,0.008047216744947945,0.019830005572317167
1746738806665603300,0.710603271484375,0.05429156215786934,0.0033570918755605815,-0.06227966570178978
1746738806675682300,0.720682373046875,0.024664485657215116,0.006157301641142112,-0.05298853500159457
1746738806685761500,0.730761474609375,0.030201076996326445,0.0017185251800750847,0.009410994220199063
1746738806695841300,0.74084130859375,0.03244388748705387,0.01628801070008194,0.07288072822308167
1746738806705920500,0.75092041015625,0.038728666844964024,0.0006220306136819999,0.07008602860379032
1746738806715999500,0.76099951171875,0.047557285466790195,0.009898620190226939,0.02265241518244147
1746738806726078200,0.771078125,0.024812369695305824,0.0029062782264954873,-0.04427867478807457
1746738806736158500,0.781158447265625,0.041723172485828394,0.021247688067227134,-0.05807419510227628
1746738806746237200,0.7912373046875,0.0228700034558773,0.010969932366302237,-0.0023403891136869787
1746738806756316400,0.80131640625,0.025861586487293243,0.008178848334559006,0.05984576221890747
1746738806766396200,0.811396240234375,0.019426000481843946,0.008637269330522394,0.10560008078380487
1746738806776475400,0.821475341796875,0.03349076619148254,0.018099615282868034,0.04229371151593513
1746738806786554400,0.831554443359375,0.008800561571121215,0.008735664229167741,-0.03936157618733123
1746738806796633600,0.841633544921875,0.03139525521695614,0.022527140268380753,-0.06550539541579782
1746738806806713300,0.85171337890625,0.033490181669592854,0.02103143095106352,-0.007023450629692524
1746738806816792300,0.861792236328125,0.04830488896369934,0.00766202937773196,0.06938645636653527
1746738806826871300,0.871871337890625,0.040674540215730665,0.005601030881694168,0.10802412959295324
1746738806836951300,0.881951416015625,0.05593699127733707,0.0060576326674403385,0.053365779949305574
1746738806847030500,0.892030517578125,0.03633388066291809,-0.0039018913929234258,-0.038916727629816156
1746738806857109200,0.902109130859375,0.031245033091306683,-0.00030807043532840903,-0.06606439927173778
1746738806867189500,0.912189453125,0.018827450066804884,0.01753277403870015,-0.030522253508400172
1746738806877268200,0.922268310546875,0.046209962511062616,0.01557877216040506,0.029021100830985233
1746738806887347500,0.932347412109375,0.035136195310950274,0.012339656666794326,0.08427124235532246
1746738806897426400,0.942426513671875,0.048452773001790045,0.005149451760115335,0.06988379316311329
1746738806907506400,0.95250634765625,0.032740240085124966,0.01411865588792134,0.0013914543583989141
1746738806917585400,0.96258544921875,0.03288987768888473,0.007506778308871435,-0.06489993120278231
1746738806927664400,0.972664306640625,0.033040099814534186,0.004641759107948746,-0.033999839091626925
1746738806937744400,0.982744384765625,0.033190321940183634,0.003801222909623175,0.03792604522518813
1746738806947823400,0.9928232421875,0.03528466387093067,0.01484282599360449,0.08587495122491381
1746738806957902300,1.00290234375,0.03393792543709278,0.00406468073920114,0.0655595915547572
1746738806967981300,1.012981201171875,0.02690437353849411,0.015106876907404511,0.0062020786436740305
1746738806978061300,1.023061279296875,0.04171908083260059,0.011248144236195367,-0.05417868550107814
1746738806988140300,1.033140380859375,0.03363865022957325,0.014992235268501098,-0.03171954613472335
1746738806998219300,1.04321923828125,0.027202479702234265,-0.007428383876994484,0.024110514169419183
1746738807008299300,1.05329931640625,0.04695347435474395,0.016055336738657205,0.09142284940932877
1746738807018378200,1.063378173828125,0.02779927655160427,0.02072405235219048,0.07007238367092795
1746738807028457500,1.07345751953125,0.038273908814787864,0.012537332380074076,-0.009673124888259917
1746738807038537200,1.083537109375,0.029593758752942085,0.011796740862552542,-0.06477818625294603
1746738807048616400,1.093616455078125,0.01986731450855732,0.012956219945847988,-0.04684136488293297
1746738807058695400,1.1036953125,0.03542904077768325,-0.0010208566347166196,0.03910604878999293
1746738807068774400,1.1137744140625,0.038273324292898175,0.0003329160405730363,0.09424623626698739
1746738807078854400,1.1238544921875,0.033784196180105204,0.00432513490258425,0.06411346613336354
1746738807088933400,1.133933349609375,0.04560556687712669,0.011460364498058333,0.019414090848341583
1746738807099012400,1.144012451171875,0.03782324243783951,-0.004020895254757488,-0.04155739659802057
1746738807109092400,1.15409228515625,0.02824760484099388,0.007425885388409369,-0.035058618296403436
1746738807119171300,1.16417138671875,0.032438042268157004,0.016547369455744046,0.022485945174889638
1746738807129250300,1.174250244140625,0.04695288983285427,0.009030724485873361,0.08396802162504755
1746738807139329500,1.18432958984375,0.03647767304778099,0.00796403825256566,0.05922980401134118
1746738807149409300,1.1944091796875,0.026900281885266303,0.015019591349596156,0.004516993367252871
1746738807159488500,1.204488525390625,0.03198737589120865,0.01624021576080122,-0.048416879704501474
1746738807169567200,1.214567138671875,0.03453121515512466,0.00280649908411724,-0.03224293982116505
1746738807179647500,1.2246474609375,0.04979366621673107,-0.005670469684735871,0.03228721735430881
1746738807189726500,1.2347265625,0.04335983377695083,0.010210588199249469,0.07443419560962357
1746738807199805200,1.24480517578125,0.035278818652033805,0.011180980159452883,0.05428705037953332
1746738807209885400,1.254885498046875,0.03228606657683849,0.022496073843259363,0.0023812691133469344
1746738807219964200,1.264964111328125,0.021811434313654898,0.007827798415673897,-0.029663188993651418
1746738807230043400,1.27504345703125,0.04889584059417248,0.03187536688409746,-0.03294025616925209
1746738807240122400,1.285122314453125,0.028994623816013334,0.01129252337568323,0.0338685134626925
1746738807250202400,1.295202392578125,0.04605272612273693,0.02058327390832128,0.0831897124626208
1746738807260281300,1.30528125,0.033332360759377476,0.0214938882305054,0.07509347236910835
1746738807270360600,1.315360595703125,0.04575286639332771,0.00476734226597473,0.015323542732233181
1746738807280440300,1.3254404296875,0.0345294615894556,0.001078766542635276,-0.03717569264876656
1746738807290519600,1.33551953125,0.027348025652766225,0.00848610021091299,-0.04162162094064988
1746738807300598300,1.345598388671875,0.022111878564953804,0.008831833492219448,0.024256425446132195
1746738807310678500,1.355678466796875,0.03572948502898216,0.00876424415296933,0.08076760901538654
1746738807320757500,1.365757568359375,0.06490998680591582,0.006649307529587531,0.07378453606185503
1746738807330836000,1.3758359375,0.048447512304782864,0.002078062082803808,0.006671942911436781
1746738807340915200,1.385915283203125,0.039618309161067004,0.0027419642142340306,-0.06107655525603331
1746738807350995000,1.395994873046875,0.044857378858327863,0.010110311870771693,-0.03567610174077563
1746738807361074200,1.40607421875,0.03483107488453388,0.007181175641785375,0.01943786444957368
1746738807371153200,1.416153076171875,0.032736732953786846,0.01528233850558754,0.0713235893084202
1746738807381233200,1.426233154296875,0.042163317468762396,0.006513237226876662,0.05282413822012022
1746738807391312100,1.43631201171875,0.048598318952322,0.013358284240984357,0.013107510650577022
1746738807401391000,1.44639111328125,0.02495674660205841,0.009704216429556253,-0.022421492503397165
1746738807411470000,1.456469970703125,0.052041737404465674,0.0021779730851005296,-0.026246667681587857
1746738807421550000,1.466550048828125,0.03228957370817661,-0.005889789832598762,0.023427509474474934
1746738807431629000,1.476629150390625,0.04441197317838669,0.0023243672773591243,0.0689181082024239
1746738807441708000,1.4867080078125,0.033787703311443325,-0.0029329413294908587,0.06203565521230921
1746738807451788300,1.496788330078125,0.04785188449919223,0.013585484017914859,0.012199985617911442
1746738807461867000,1.506866943359375,0.03079378219246864,0.01165367913005175,-0.060714306948054575
1746738807471946000,1.516946044921875,0.050396308284997936,0.012698474333604099,-0.04323325738837011
1746738807482025200,1.527025146484375,0.036031682845950125,-0.017717883672995958,0.018666094625787808
1746738807492105000,1.53710498046875,0.032440380355715746,-0.004802793176090926,0.08149457158306612
1746738807502184200,1.54718408203125,0.03977379198372364,0.0059298284403979775,0.07107234536055475
1746738807512263200,1.55726318359375,0.044562195304036135,0.012494390570779796,0.019856062462180853
1746738807522343200,1.56734326171875,0.05518588064908981,0.0181739340445376,-0.04758853912157938
1746738807532422100,1.577422119140625,0.030945173361897466,0.006721386385109508,-0.038347850833833214
1746738807542501000,1.587501220703125,0.035734745725989336,0.00693561137439101,0.0315652688884642
1746738807552581000,1.5975810546875,0.03289338482022285,0.007532378541008801,0.07460832833382301
1746738807562660000,1.60766015625,0.032146365845203397,0.021064618551323654,0.06871391826667822
1746738807572739000,1.617739013671875,0.05099953487515449,0.012924016442988066,0.019403870848426593
1746738807582819300,1.6278193359375,0.03723229080736637,0.0008143896893830969,-0.03260916105136275
1746738807592898000,1.63789794921875,0.03469020510911942,0.013506771067273802,-0.05578465939299203
1746738807602977000,1.64797705078125,0.03528934004604816,0.0055859868637227915,-0.0017049864201340824
1746738807613056300,1.65805615234375,0.0339414325684309,0.014782894233602564,0.08578901737397536
1746738807623136000,1.668135986328125,0.054441784283518785,0.01372120611910941,0.07891745110405608
1746738807633215200,1.67821533203125,0.04351590112149715,0.017522385075426427,0.018828253784403205
1746738807643294200,1.688294189453125,0.052344519743323326,0.037589111738267816,-0.04441500538568943
1746738807653374200,1.698374267578125,0.044563364347815514,0.02516267183716409,-0.03652377721183002
1746738807663453200,1.708453125,0.04411328249275684,0.0013227165249671087,0.012054293536907061
1746738807673532000,1.718531982421875,0.03857610663175583,0.010095715948194264,0.05746951634055003
1746738807683611100,1.728611083984375,0.02376023029386997,0.007341441954125184,0.07739489031243138
1746738807693691100,1.738691162109375,0.03782558052539825,0.0060869335396273525,0.038139468780159946
1746738807703770000,1.74877001953125,0.03842354641854763,0.019313934392516965,-0.024786404136987402
1746738807713849000,1.75884912109375,0.05323942275643349,0.021154616656026335,-0.054446268662391224
1746738807723929000,1.76892919921875,0.025556466060876845,0.012834733007627074,-0.01718693458447233
1746738807734008000,1.779008056640625,0.027950083199143407,0.016475683325866703,0.056650144515372806
1746738807744087300,1.78908740234375,0.02346095508635044,0.004776609563708189,0.08010867931577377
1746738807754167000,1.7991669921875,0.0424637617200613,0.007572229348318069,0.025155164384143426
1746738807764246300,1.809246337890625,0.040966801160573954,0.012371612432837718,-0.042821580448094754
1746738807774325200,1.8193251953125,0.040218028619885444,0.007657076353867887,-0.05264061661306768
1746738807784404000,1.829404052734375,0.043211949738860125,-0.002777749626134755,0.016933160752803086
1746738807794484200,1.839484130859375,0.047402387166023255,0.012824748186441137,0.06492069086302071
1746738807804563000,1.84956298828125,0.03917173443734646,0.005112110287012183,0.08550299437367356
1746738807814642200,1.85964208984375,0.054582654058933255,0.013229385747865308,0.04914996148571372
1746738807824722200,1.86972216796875,0.028544541960954663,0.01835812465515919,-0.02648158154916018
1746738807834801200,1.87980126953125,0.04695055174529552,0.027006532438448628,-0.05614083415321074
1746738807844880100,1.889880126953125,0.047100189349055285,-0.00421957732750161,-0.0022870514912530777
1746738807854960000,1.899960205078125,0.05473112261891365,0.02453063242776552,0.06079313520477153
1746738807865039000,1.9100390625,0.042160394859313964,0.007812514081574044,0.07284538291506469
1746738807875118000,1.9201181640625,0.02854337291717529,0.01157035279473057,0.0558325810547918
1746738807885197000,1.930197021484375,0.02824409770965576,0.009867145056440494,-0.013326724625518545
1746738807895277000,1.940277099609375,0.04350771781504154,0.012626044993277174,-0.038660770974215115
1746738807905356300,1.950356201171875,0.0420107572555542,0.012456565611308906,-0.007333968750433996
1746738807915435000,1.96043505859375,0.03602525310516357,0.02427759609832428,0.05701305954363197
1746738807925515300,1.970515380859375,0.03707213180959224,0.009875103458965894,0.08488330983906052
1746738807935594000,1.980593994140625,0.04096154046356678,0.006204403602323145,0.040142963222833346
1746738807945673200,1.990673095703125,0.039165304696559905,0.023306627607741392,-0.027442690799431874
1746738807955753000,2.0007529296875,0.04096154046356678,0.003323679942192393,-0.05604636080279014
1746738807965832200,2.010832275390625,0.03707213180959224,0.0037441886428947325,-0.003962245561322197
1746738807975911200,2.0209111328125,0.035576340293884276,0.016929087365884332,0.07184705606009811
1746738807985990100,2.030990234375,0.011785130339860915,0.01136593453012174,0.09088343616984784
1746738807996070100,2.041070068359375,0.04306114309132099,0.018044903120677917,0.06454232253730297
1746738808006149000,2.051149169921875,0.05368365939259529,0.012024771756544941,-0.016875813675532116
1746738808016228000,2.06122802734375,0.04320844260752201,0.013090463617653585,-0.05510486956844106
1746738808026308000,2.07130810546875,0.02285831301808357,0.013095864736911607,-0.0074050520921126
1746738808036387300,2.08138720703125,0.031389409998059274,0.00907406529985601,0.03461754173170775
1746738808046466000,2.091466064453125,0.03737549867033958,0.005793761562620056,0.08046395902684889
1746738808056546300,2.10154638671875,0.05129238034188747,0.009156067898593027,0.05586680298480205
1746738808066625000,2.111625,0.03139174808561802,0.020122981186502145,-0.010538089420832692
1746738808076704000,2.1217041015625,0.035282325783371926,0.009216548218688694,-0.052287236598134036
1746738808086784000,2.131783935546875,0.039921676021814345,0.00408742457726039,-0.009562440188555047
1746738808096863000,2.141863037109375,0.028847908821702,0.002780023781611817,0.04931655022427439
1746738808106942200,2.151942138671875,0.030194062733650207,0.010648061734484508,0.076303578811232
1746738808117021200,2.162021240234375,0.04500701646208763,0.00938822926171997,0.04768904035398736
1746738808127101200,2.17210107421875,0.05114157369434833,0.017954438083450076,-0.012248902793554589
1746738808137180200,2.18218017578125,0.03153904760181904,0.01116746879897546,-0.06148569317935034
1746738808147259000,2.1922587890625,0.0412654918462038,0.002786969545629108,-0.025679763646982608
1746738808157339100,2.202339111328125,0.05144026437997818,-0.004112815888487966,0.04424473598585464
1746738808167418000,2.212418212890625,0.0512912112981081,-0.0005145761965686688,0.09131590016982517
1746738808177497000,2.2224970703125,0.030492168897390363,0.01154726646337658,0.06614036885108798
1746738808187577000,2.2325771484375,0.04994564190804958,0.02183179439838277,0.0006863930952735245
1746738808197656000,2.242656005859375,0.02061784061491489,0.0003057272103702416,-0.04911063412232324
1746738808207735000,2.252735107421875,0.038424715462327,0.013599646115652285,-0.04809968524780124
1746738808217814300,2.262814208984375,0.034385084682703015,0.001706658358234563,0.04733521281448193
1746738808227894000,2.27289404296875,0.027052257576584814,0.00977421064255759,0.07612545489850453
1746738808237973200,2.28297314453125,0.053237669190764426,0.0192493013412226,0.061128833432542155
1746738808248052200,2.29305224609375,0.03183773828744888,0.022653910736495163,-0.0015558511398732662
1746738808258132200,2.30313232421875,0.02600187174081802,0.010630548910680226,-0.044527315786899994
1746738808268211200,2.313211181640625,0.04111526972055435,0.02636175456177443,-0.017894434399856253
1746738808278290000,2.3232900390625,0.029745149922370907,0.01662980987507617,0.05670413059177808
1746738808288370200,2.3333701171875,0.05353635987639427,0.020764720006007698,0.06382245643069036
1746738808298449200,2.34344921875,0.04216273294687271,-0.01387335077378666,0.03478973822714761
1746738808308528000,2.353528076171875,0.04440788152515888,-0.003550535513361683,-0.02270855668331496
1746738808318607000,2.363607177734375,0.03243628870248794,0.02363976855224464,-0.04928796345060691
1746738808328687600,2.3736875,0.02974164279103279,-0.0005079175560967997,-0.031849638787796716
1746738808338766600,2.3837666015625,0.0500929414242506,-0.0001368660287989769,0.04309873515535146
1746738808348845800,2.393845703125,0.02659925311207771,0.004328261295543052,0.08461669479212723
1746738808358925600,2.403925537109375,0.025250761112570762,0.014863690685119944,0.049312842163536694
1746738808369004800,2.4140048828125,0.030340193206071852,0.018427228385594206,-0.01268853631983511
1746738808379083500,2.42408349609375,0.05278641829192638,0.018808835556235862,-0.03413036100296304
1746738808389163800,2.434163818359375,0.04096563211679458,0.013134250243741553,-0.01755409652958624
1746738808399242800,2.44424267578125,0.03093991266489029,0.011053315783839206,0.040793663950217884
1746738808409321500,2.454321533203125,0.0291442614197731,0.011257630158815299,0.08226137297078967
1746738808419400700,2.464400634765625,0.02121229937672615,0.02401325520686805,0.05016244473019615
1746738808429480400,2.47448046875,0.03557750933766365,0.008363533847991492,-0.006850578280817717
1746738808439559700,2.4845595703125,0.03737432962656021,0.00006136224032961763,-0.03880193301057443
1746738808449638700,2.494638671875,0.02450432665944099,0.022678855664795262,-0.02899907166226767
1746738808459718700,2.50471875,0.03901975874602794,0.021920233016950078,0.032910966142686085
1746738808469797600,2.514797607421875,0.037674189355969424,0.003332938677593483,0.08367965140403248
1746738808479876600,2.524876708984375,0.0619137275993824,0.016562564741587266,0.06169512554579414
1746738808489956600,2.53495654296875,0.045154315978288645,0.004074879618696286,-0.00368109053238295
1746738808500035600,2.54503564453125,0.04889642511606216,0.003791793498396873,-0.05122725181696005
1746738808510114600,2.555114501953125,0.03782324243783951,0.0017056725483678746,-0.014616563506657257
1746738808520193500,2.565193603515625,0.0369260013371706,0.006764091874030418,0.025315907903807236
1746738808530273800,2.575273681640625,0.038272155249118804,0.016007547507598065,0.06258320609247311
1746738808540352500,2.5853525390625,0.03512859652638435,0.011043981699913274,0.0753123849499505
1746738808550431700,2.595431640625,0.049342999839782714,0.014349689306464278,0.0053583121627569195
1746738808560511500,2.605511474609375,0.04066284977793693,-0.00171816270800482,-0.03819801230067387
1746738808570590700,2.6155908203125,0.05338321514129638,0.004579889977542916,-0.020511539829382672
1746738808580669700,2.625669677734375,0.025699673923850058,0.012821060675301123,0.016799122576974333
1746738808590749400,2.63574951171875,0.03781973530650139,0.007589495576950139,0.06894613785366527
1746738808600828700,2.64582861328125,0.033629297879338264,0.011433599788718857,0.06316962767830119
1746738808610907600,2.65590771484375,0.045001171243190766,0.012796305259957444,0.0021568766397889703
1746738808620986600,2.665986572265625,0.038865444967150685,-0.002111652683507418,-0.05987187390769831
1746738808631066600,2.676066650390625,0.028989947640895842,0.016475733558216597,-0.028328524590097368
1746738808641145600,2.6861455078125,0.04126198471486568,0.010418626617983682,0.02610037281238474
1746738808651224600,2.696224609375,0.023006781578063965,0.0053127719709998925,0.0805099901256617
1746738808661304800,2.706304931640625,0.04230944794118404,0.0058428151647589395,0.07308181288628839
1746738808671383600,2.716383544921875,0.04170972848236561,0.012348990750720257,0.004979404980922118
1746738808681462500,2.726462646484375,0.030935821011662482,0.002888298470166046,-0.06119770655082538
1746738808691542500,2.73654248046875,0.028691256955265997,0.012383096233010291,-0.030520609540585428
1746738808701621500,2.74662158203125,0.030786767929792402,0.014018972072843462,0.026458209806727244
1746738808711700700,2.75670068359375,0.0451519778907299,0.009943102077703225,0.06127838883791119
1746738808721780500,2.766780517578125,0.025997780087590214,0.0059050382049026665,0.06839296095031314
1746738808731859700,2.776859619140625,0.04290682931244373,0.010783633138629374,-0.0007162767768837511
1746738808741938700,2.786938720703125,0.043506548771262164,-0.004223493167504784,-0.05700061105401255
1746738808752017400,2.797017333984375,0.03811959503591061,0.0012049764633906305,-0.019414081715187055
1746738808762097700,2.80709765625,0.04171089752614498,0.022457618696126155,0.0087280534573365
1746738808772176400,2.81717626953125,0.04649930084645748,0.008738300856715068,0.0901435958542861
1746738808782255600,2.827255615234375,0.05023907189667225,0.002070536934296251,0.060896129788365214
1746738808792335600,2.837335693359375,0.03273088773488998,0.009548456758153042,0.012360866134893149
1746738808802414600,2.84741455078125,0.02285480588674545,0.0026013969745632493,-0.04126995795876719
1746738808812493600,2.85749365234375,0.02854337291717529,0.006939069985845708,-0.034129612084291876
1746738808822572800,2.86757275390625,0.036623803520202634,0.004494333440050831,0.015963466337276622
1746738808832652500,2.877652587890625,0.04036474361419678,0.004441507845092564,0.07539423628081567
1746738808842731800,2.887731689453125,0.029889526829123495,0.014621107251034117,0.08214817665359005
1746738808852810500,2.897810546875,0.03273088773488998,0.014415812203590757,0.011552572826156392
1746738808862890800,2.907890869140625,0.03871697640717029,0.010863120124116539,-0.0550703645106405
1746738808872969700,2.9179697265625,0.04620002563893795,0.0028897985907969993,-0.0474059034305159
1746738808883048400,2.92804833984375,0.030638299369812008,0.018941568832611663,0.027312799075758083
1746738808893128700,2.938128662109375,0.024055413848161695,0.006657075848334352,0.08919213121519423
1746738808903207400,2.94820751953125,0.04679974509775638,0.0010314910515182418,0.07336457535042427
1746738808913286700,2.95828662109375,0.03841945476531982,0.02175851681632921,0.01598849118067883
1746738808923365600,2.96836572265625,0.03482815227508545,0.0042243151514121564,-0.03515991411325522
1746738808933445600,2.978445556640625,0.0390174206584692,0.009058717033674474,-0.05770580931445583
1746738808943524600,2.988524658203125,0.03348024479746818,0.009656169186881744,0.009339198492467404
1746738808953603600,2.998603515625,0.03737082249522209,0.014867974134592805,0.07891016284674406
1746738808963683600,3.00868359375,0.04096154046356678,0.004981052944491966,0.07211052930187434
1746738808973762600,3.018762451171875,0.03901625161468982,0.003060013762526796,0.011510076258145272
1746738808983841500,3.028841552734375,0.04709785126149654,0.020658254823694003,-0.049182813442545006
1746738808993921500,3.038921630859375,0.02809387558400631,0.00813437729270372,-0.04472629069141112
1746738809004000800,3.049000732421875,0.04171206656992435,0.008743377748987403,0.023710427202237767
1746738809014079500,3.05907958984375,0.04156359800994396,0.011178846426226664,0.0668299128846731
1746738809024158700,3.06915869140625,0.03482990584075451,0.010728650406736415,0.07761469794241711
1746738809034238500,3.079238525390625,0.031088965746760365,0.01653172550368472,0.03454976459196769
1746738809044317700,3.089317626953125,0.04724865790903568,0.008855348511014017,-0.030468477494549003
1746738809054396700,3.099396728515625,0.04500467837452888,0.007360323609464103,-0.04529362398427911
1746738809064476700,3.1094765625,0.024502573093771934,0.014634574087383225,0.006758534349501133
1746738809074555600,3.1195556640625,0.039166473740339276,0.016158629291417308,0.07296844303915277
1746738809084634600,3.129634521484375,0.009988310050964355,0.021700948260060977,0.090365540642431
1746738809094714600,3.139714599609375,0.0643061756938696,0.027789682172774336,0.022537109106546268
1746738809104793600,3.149793701171875,0.033631051445007325,0.010836375964374747,-0.028855653736740348
1746738809114872600,3.15987255859375,0.04290858287811279,0.005505954743074835,-0.026168140818970276
1746738809124951600,3.16995166015625,0.03153787855803966,-0.003318247427715687,0.01791675582951866
1746738809135031800,3.18003173828125,0.025251930156350133,0.013285246404237113,0.07684348524105734
1746738809145110500,3.190110595703125,0.031684593552350995,0.010958835583552717,0.07463537160437554
1746738809155189500,3.200189453125,0.033629297879338264,0.011617194461007601,0.03218983052759431
1746738809165269500,3.21026953125,0.041858781564235684,0.007709981293106102,-0.034786843017162755
1746738809175348500,3.220348388671875,0.04589899686574936,0.019375085428648162,-0.052435266766697165
1746738809185427700,3.230427734375,0.02240706211924553,0.000664321685716277,0.013588581298943608
1746738809195507500,3.240507568359375,0.05398118103444576,0.0011293887640640606,0.06694171182923019
1746738809205586700,3.250586669921875,0.04171148204803467,0.014139963537431322,0.07915681281788274
1746738809215665700,3.260665771484375,0.042458501023054124,0.01321929018718074,0.04725109646129422
1746738809225744600,3.27074462890625,0.0459013349533081,0.00713919338453852,-0.023030719576077534
1746738809235824600,3.28082470703125,0.03647475043833256,0.01808144943851512,-0.059341027567163106
1746738809245903600,3.290903564453125,0.036925416815280915,0.011156779583246679,-0.006998992041870951
1746738809255982600,3.300982666015625,0.045755204480886456,0.0256064609487541,0.058767721191234884
1746738809266062600,3.3110625,0.0412654918462038,0.011243622183060506,0.08095492088156751
1746738809276141600,3.3211416015625,0.05398293460011482,0.008907013624525279,0.03204485083264298
1746738809286220500,3.331220458984375,0.028695348608493803,0.0036769406552950384,-0.019510016370331867
1746738809296300500,3.341300537109375,0.04455751912891864,0.015665072479168884,-0.07091212243069894
1746738809306379500,3.351379638671875,0.0465028079777956,0.0048377611706615425,-0.002525235028145835
1746738809316458800,3.361458740234375,0.03527940317392349,0.007858682177704758,0.06918478718143888
1746738809326538000,3.3715380859375,0.03228665109872818,0.010678273068013368,0.07999421349009499
1746738809336618000,3.381617919921875,0.03857201497852802,0.008711862657649908,0.04176230805297382
1746738809346697200,3.391697265625,0.043511224946379656,0.011731636312155751,-0.014444750603707507
1746738809356776000,3.40177587890625,0.032438042268157004,0.006918319458761834,-0.06925966991540045
1746738809366856200,3.411856201171875,0.03947159416675567,0.0005432354646502062,-0.025140240809647364
1746738809376935000,3.421934814453125,0.03483282845020294,0.014747074001550209,0.03886834931029007
1746738809387014000,3.432013916015625,0.043811084675788876,0.009600053943827515,0.07782718078247271
1746738809397094000,3.442093994140625,0.02720072613656521,0.011800435223558451,0.060960710324021054
1746738809407172900,3.4521728515625,0.03453296872079372,0.01604850285578286,-0.0182093455679249
1746738809417252000,3.462252197265625,0.041266076368093485,0.02016397306730505,-0.06063177976375445
1746738809427331000,3.4723310546875,0.03408347138762474,0.014643130711530101,-0.04703146236124448
1746738809437411000,3.4824111328125,0.030343115815520284,0.016995874700002606,0.0486354360923171
1746738809447490000,3.492489990234375,0.05862520744800567,0.009622895963297923,0.09963898042230866
1746738809457568800,3.50256884765625,0.03528115673959255,0.013675635102955856,0.07320755815780722
1746738809467649000,3.51264892578125,0.02974456540048122,0.00954359049925697,-0.0018870375893078742
1746738809477728000,3.52272802734375,0.03318623028695583,0.008732477329060202,-0.05758689564252272
1746738809487807000,3.532806884765625,0.039620062726736065,-0.001383992000328726,-0.034030919216480104
1746738809497887000,3.542886962890625,0.05084171396493911,0.0011496814917773008,0.020683188335550946
1746738809507966000,3.552966064453125,0.052936640417575835,0.009152601295628119,0.08085037366170436
1746738809518045000,3.563044921875,0.03737316058278083,0.01570457565578399,0.08035913781234993
1746738809528125000,3.573125,0.03527940317392349,0.010333201940410071,0.003196512752678245
1746738809538204000,3.583203857421875,0.03513151913583278,0.0180926592440519,-0.04677253743042238
1746738809548283100,3.593283203125,0.05189093075692653,0.021819124429766086,-0.04664390608207322
1746738809558362000,3.603362060546875,0.022861235627532003,0.01578552965421695,0.003173917328380048
1746738809568442000,3.613442138671875,0.01657645626962185,0.013902088244503829,0.0725781833462417
1746738809578521000,3.62352099609375,0.034682606324553486,0.006713203078653896,0.0956616012239363
1746738809588599800,3.633599853515625,0.034681437280774115,0.008596312269871122,0.018246024316502733
1746738809598680000,3.64368017578125,0.02450666474699974,0.011404426209873053,-0.05195628761071711
1746738809608759000,3.653759033203125,0.040219782185554505,0.006904052329747355,-0.05296078847814351
1746738809618838000,3.663838134765625,0.030193478211760518,0.00602657708793995,0.01471342061040923
1746738809628917000,3.6739169921875,0.02570435009896755,0.015144300008076242,0.07797591420393436
1746738809638997000,3.6839970703125,0.02570435009896755,-0.0029605896715307607,0.09445978768612258
1746738809649076000,3.694075927734375,0.0502455016374588,-0.004448306336993118,0.04938961546048522
1746738809659155000,3.704155029296875,0.022262100690603255,0.0024259091185609575,-0.03595215133633464
1746738809669235000,3.71423486328125,0.04635433941781521,0.013454935848759486,-0.07402650985787622
1746738809679314000,3.72431396484375,0.031689854249358176,0.002241837809770368,-0.0035715566101483997
1746738809689393200,3.73439306640625,0.04635609298348427,0.00437708028977504,0.07260857848450541
1746738809699473000,3.744472900390625,0.04979834239184856,0.00798974351598008,0.10483438450777903
1746738809709552000,3.75455224609375,0.032739655563235284,0.010252373522851849,0.03045238487627357
1746738809719630800,3.764630859375,0.0447118329077959,0.014865674862940794,-0.046836195517471056
1746738809729710000,3.7747099609375,0.051745384806394575,0.01358473738253233,-0.06323303917017765
1746738809739790000,3.7847900390625,0.035733576682209965,0.019567904587008522,-0.004237071314174681
1746738809749869000,3.794869140625,0.03363806570768356,0.011421972141362494,0.06110316013516858
1746738809759948000,3.804947998046875,0.04844985039234161,0.017918447746394665,0.11619991032923571
1746738809770027800,3.81502783203125,0.039920506978034974,0.004986704654677305,0.06999317182172089
1746738809780107000,3.82510693359375,0.048749710121750826,0.005514627244119765,-0.022549712859792632
1746738809790186000,3.83518603515625,0.04635550846159458,0.007848940526758087,-0.05828977408171631
1746738809800266000,3.845265869140625,0.03558218551278114,0.0011962257597100687,-0.029183396986918523
1746738809810345000,3.855344970703125,0.021517419803142545,0.0005630407102406024,0.054486198813980445
1746738809820424200,3.865424072265625,0.04635726202726364,0.017327692478743845,0.10522750287805684
1746738809830504000,3.87550390625,0.04381225371956825,0.02450092684266856,0.06345329432473518
1746738809840583200,3.885583251953125,0.04396072227954864,0.024601252261851912,-0.027972450294578448
1746738809850662000,3.895661865234375,0.03258943343758583,0.03164410171175841,-0.08060050882017239
1746738809860740900,3.905740966796875,0.03079261314868927,-0.0033481984663405453,-0.05147635860666632
1746738809870821000,3.915821044921875,0.051591655549407,0.013551774686202406,0.03340683250138536
1746738809880899800,3.92589990234375,0.037226445588469506,0.005189370495261391,0.08710962585271335
1746738809890979000,3.93597900390625,0.0616173750013113,0.015486667721939738,0.060338066647341475
1746738809901058800,3.946058837890625,0.033336452412605286,0.025797496858693193,0.0058517491023521865
1746738809911138000,3.956137939453125,0.022862404671311377,0.012971471172262682,-0.05276861777375452
1746738809921217000,3.966217041015625,0.03453472228646278,0.005925284125198959,-0.04353013057624921
1746738809931297000,3.976297119140625,0.026903789016604424,0.012444404816057067,0.023457338357158002
1746738809941376000,3.9863759765625,0.046805005794763564,0.016477258795022497,0.0934225444597192
1746738809951455000,3.996455078125,0.04336041829884052,0.005074053002923028,0.0838152696155943
1746738809961534000,4.006533935546875,0.045754035437107085,0.019095500160643132,0.015195441106846555
1746738809971614000,4.016614013671875,0.028546880048513412,0.0008509839562815614,-0.0639265469928272
1746738809981693000,4.02669287109375,0.06460954255461693,0.004170725796406623,-0.06079696199651807
1746738809991772000,4.03677197265625,0.026302900514006612,0.003252057744396734,0.013408301961747929
1746738810001852200,4.04685205078125,0.04859890347421169,-0.00026939609248656776,0.1088628545725718
1746738810011931000,4.056930908203125,0.049046062719821926,0.01355743039214285,0.0916586309265811
1746738810022010000,4.067010009765625,0.04246025458872318,0.01286010491090128,0.004151438857335597
1746738810032089900,4.07708984375,0.042160394859313964,-0.0026188298832654252,-0.07629748699716292
1746738810042169000,4.087169189453125,0.05054068519175052,0.009542915216644177,-0.053295418126834554
1746738810052248000,4.097248046875,0.02420505145192146,0.00739947401798563,0.011562381834117695
1746738810062326800,4.107326904296875,0.03931844943165779,0.01587468750870321,0.07828846901813521
1746738810072407000,4.117406982421875,0.05278524924814701,0.0024558641529409215,0.10094503065273165
1746738810082486000,4.127486083984375,0.04440437439382076,0.0051388989708822915,0.04854433287591673
1746738810092565000,4.13756494140625,0.030637130326032637,0.008775632625841535,-0.04622760776560753
1746738810102645000,4.14764501953125,0.04335632664561272,0.020538121875631622,-0.06513509166552685
1746738810112724000,4.157723876953125,0.025548867276310918,0.0065781585433607685,0.008240726598119363
1746738810122803000,4.167802978515625,0.028391981747746466,0.006614587842655601,0.07484140643733553
1746738810132883000,4.177883056640625,0.03647124330699444,0.007633379242804949,0.088707197242463
1746738810142962000,4.1879619140625,0.04380348589122295,0.011326527251629158,0.032444389810552816
1746738810153041000,4.198041015625,0.03647124330699444,0.02061238812166266,-0.05309834291846491
1746738810163120000,4.2081201171875,0.05008884977102279,0.01207339781288756,-0.04781899600974284
1746738810173200000,4.218199951171875,0.03288110986053944,0.010352704650256781,-0.02583572139367461
1746738810183279000,4.228279052734375,0.04125964662730693,0.010857316004415042,0.05924691954292357
1746738810193357800,4.23835791015625,0.020160744497179982,0.007125919486078783,0.08081321998909115
1746738810203438000,4.24843798828125,0.035573417684435844,0.02564237251235172,0.03425728445141576
1746738810213517000,4.25851708984375,0.04111000902354717,0.010634471600549296,-0.03354793973881751
1746738810223596000,4.268595947265625,0.037818566262722016,0.010097785749338799,-0.07835837418287991
1746738810233676000,4.278676025390625,0.03781798174083233,0.007830808360912487,-0.006119624524610116
1746738810243755000,4.288755126953125,0.030784429842233656,0.010484199242549948,0.055403706384543325
1746738810253834000,4.298833984375,0.04111000902354717,0.01853008368858136,0.08935751437735744
1746738810263913000,4.308912841796875,0.04455167391002178,0.010555759791552554,0.053460490761743855
1746738810273993000,4.318992919921875,0.04844108256399631,0.016130472917656877,-0.032638478477392346
1746738810284072000,4.329072021484375,0.027792846810817718,0.017808466299588325,-0.05598046509288251
1746738810294151200,4.339151123046875,0.03512625843882561,0.008647890047592227,-0.01166070937574841
1746738810304231000,4.34923095703125,0.03542553364634514,0.012620713514322415,0.07107306687976234
1746738810314310100,4.35931005859375,0.04634849419891834,0.005400792747747619,0.094771155190235
1746738810324388900,4.369388916015625,0.03288110986053944,0.0017554870564432349,0.06843415147722698
1746738810334468000,4.379468017578125,0.036623218998312945,0.011634956163272727,-0.007069636992132291
1746738810344547300,4.38954736328125,0.031387071910500525,0.012381682877347339,-0.07154108625031076
1746738810354626300,4.399626220703125,0.023308394873142242,-0.005707046826969599,-0.02724614531402476
1746738810364705300,4.409705322265625,0.030641221979260443,0.010361924569751135,0.04312028940003365
1746738810374785300,4.419785400390625,0.02585340318083763,0.009712044684629655,0.0963514192521572
1746738810384864300,4.4298642578125,0.040519057393074036,0.006112923072476405,0.06541769886603578
1746738810394943200,4.439943115234375,0.03228840466439724,0.011212728146230802,-0.03002929149284027
1746738810405023200,4.450023193359375,0.036029344758391375,0.016598960362374782,-0.0766788144649472
1746738810415102200,4.460102294921875,0.03169043877124786,0.005935240976099158,-0.056434538136469196
1746738810425181200,4.47018115234375,0.03288929316699505,0.00717749098475615,0.03827820139741525
1746738810435261200,4.48026123046875,0.03722819915413856,0.01667439451054088,0.09341464428105391
1746738810445340200,4.490340087890625,0.03618015140593052,0.0055130472083867055,0.09063176296371966
1746738810455419400,4.50041943359375,0.05024608615934849,0.005997682641129359,0.02115109810824506
1746738810465498000,4.510498046875,0.04695405887663364,0.012148873060249024,-0.05407335282992571
1746738810475578400,4.520578369140625,0.02765022346973419,0.009163340172884636,-0.06749224011776968
1746738810485657000,4.530656982421875,0.04441021961271763,0.022766572764154988,0.019232331940112635
1746738810495736000,4.540736083984375,0.036329789009690285,0.011030650719237745,0.09630970813543535
1746738810505816300,4.55081640625,0.037974633607268334,0.004578250005483278,0.09222221049293876
1746738810515895000,4.56089501953125,0.03378302713632583,0.021193845838005654,0.011149654581071809
1746738810525974300,4.570974365234375,0.033034254595637316,0.013876767715223831,-0.0565626671613194
1746738810536054000,4.581053955078125,0.03872223710417747,0.009417744192216195,-0.05076354329534806
1746738810546133200,4.59113330078125,0.019719430470466613,-0.0002825621055584634,0.020665616146242245
1746738810556212200,4.601212158203125,0.043809331110119816,0.01579215347453719,0.08380416369969025
1746738810566291500,4.61129150390625,0.029143676897883414,0.010012370204919716,0.10731168874097056
1746738810576371200,4.62137109375,0.05173953958749771,0.007020305399602512,0.004923537474684417
1746738810586450400,4.631450439453125,0.02570259653329849,0.0070694777327502374,-0.03969726528194733
1746738810596529200,4.641529052734375,0.038870705664157866,0.01049267024337314,-0.06423426123512908
1746738810606609400,4.651609375,0.02600187174081802,0.010076851417520082,-0.012600182182947173
1746738810616688000,4.661688232421875,0.023009704187512397,0.003471823704364942,0.07785556662674062
1746738810626767000,4.67176708984375,0.04066694143116474,0.015238494797283782,0.08520994797754101
1746738810636847400,4.681847412109375,0.031688685205578805,0.002974117015028605,0.03151008636881597
1746738810646926000,4.691926025390625,0.04725099599659443,0.006015967216491116,-0.03887387486877851
1746738810657005300,4.70200537109375,0.04141571397185325,0.0076313499700336246,-0.06123285092944279
1746738810667085000,4.7120849609375,0.03124094143807888,0.004908704090089304,-0.01760796387498267
1746738810677164300,4.722164306640625,0.031840076375007624,0.0035326716339302944,0.06703357309745624
1746738810687243300,4.7322431640625,0.046055064210295676,0.002136738034058362,0.09207918529305606
1746738810697322200,4.742322265625,0.04141512944996357,0.015047879012452903,0.05017587960050441
1746738810707402200,4.75240234375,0.04290975192189216,-0.0019361305781756526,-0.028525115741277113
1746738810717481200,4.762481201171875,0.033632805010676385,0.019038638282206373,-0.040990136370388786
1746738810727560200,4.772560302734375,0.02630173147022724,0.00554499726620852,-0.016689679986285046
1746738810737640200,4.78264013671875,0.04455810365080833,0.010563875740993534,0.06196072681257501
1746738810747719200,4.79271923828125,0.04785013093352317,0.019000961736496538,0.0888998520040419
1746738810757798100,4.802798095703125,0.04889700963795185,0.010133856001496314,0.04556407495611347
1746738810767878400,4.81287841796875,0.027048165923357008,0.018571306181536056,-0.03285874276510439
1746738810777957000,4.82295703125,0.03572597789764404,0.009987821427197195,-0.04722374266348779
1746738810788036400,4.833036376953125,0.04126256923675537,0.010934221732104196,-0.013571529699442907
1746738810798115300,4.843115234375,0.04171148204803467,-0.00980000038765138,0.06317605741908773
1746738810808195300,4.8531953125,0.029590251621603964,-0.004514166085104807,0.09452651451309212
1746738810818274300,4.8632744140625,0.04485270268321037,0.013861167145648504,0.04655846542147919
1746738810828353300,4.873353271484375,0.02495090138316154,0.013910317216732073,-0.032762826376268636
1746738810838433300,4.883433349609375,0.0551776973426342,0.024263752519350965,-0.06957441668668761
1746738810848512300,4.89351220703125,0.04096212498545646,0.01852591440354008,-0.016875631012441588
1746738810858591200,4.90359130859375,0.03512684296071529,0.019287160550022962,0.04785543729630299
1746738810868670200,4.913670166015625,0.04724807338714599,0.0184066057226737,0.0835437317983713
1746738810878750200,4.923750244140625,0.04365677089691162,0.015934497112763346,0.041810056184837595
1746738810888829200,4.9338291015625,0.04395604610443115,0.00953831952745095,-0.018357448801724238
1746738810898908200,4.943908203125,0.05353577535450458,0.003236885862261988,-0.06950216430122964
1746738810908988200,4.95398828125,0.03842296189665794,0.006642228193185292,-0.02720264409901574
1746738810919067100,4.964067138671875,0.023010288709402082,0.0011814340451324823,0.058685760262515395
1746738810929146400,4.974146484375,0.03902034326791763,0.0012117081690987107,0.08481589802550152
1746738810939226000,4.98422607421875,0.031686347118020056,0.007033619255613303,0.04309869862273335
1746738810949305300,4.994305419921875,0.04829612113535404,0.006553171374220982,-0.003726674106623977
1746738810959384300,5.00438427734375,0.041562428966164584,0.009677991717978148,-0.06584057305376045
1746738810969464300,5.01446435546875,0.028545711004734037,0.000495267566255643,-0.029344962490489703
1746738810979543300,5.024543212890625,0.031389994519948956,0.00924731952875445,0.04161807727669366
1746738810989622300,5.034622314453125,0.016275427496433258,0.0015031225846818415,0.08363547433558852
1746738810999701200,5.044701171875,0.047399464556574816,0.02619133674817858,0.05267307584425434
1746738811009781200,5.05478125,0.03572890050709247,0.005830572741938522,-0.019092740806331856
1746738811019860200,5.064860107421875,0.04231353959441185,0.009347847018981701,-0.04087086650542915
1746738811029939200,5.074939208984375,0.03528174126148224,0.0004344196366902906,-0.021944467842485754
1746738811040019200,5.085019287109375,0.052040568360686296,0.013447784588765352,0.031519867977313695
1746738811050098200,5.09509814453125,0.04620470181405544,0.0037514489299210253,0.09121644925018772
1746738811060177400,5.105177490234375,0.041565936097502705,0.00871545883724466,0.06575666676312684
1746738811070257200,5.115257080078125,0.045008185505867,0.010878582554729654,-0.007173581423796713
1746738811080336400,5.12533642578125,0.046803252229094504,0.014836663397587834,-0.055259740469744426
1746738811090415400,5.135415283203125,0.04336158734261989,0.007496362516956287,-0.03447909224224276
1746738811100494000,5.145494140625,0.023908698853850364,-0.0005368428273039172,0.037644543136376885
1746738811110574300,5.15557421875,0.038573184022307395,0.005735446370969293,0.09273600523397325
1746738811120653000,5.165653076171875,0.03288753960132599,0.02070836159271421,0.08176604546820744
1746738811130732300,5.175732177734375,0.05383680412769317,0.02543637421200983,0.007990779558196664
1746738811140812000,5.18581201171875,0.028847908821702,0.029127191553963348,-0.05570471689142287
1746738811150891300,5.195891357421875,0.04575695804655552,0.004193477625976084,-0.022609809016576034
1746738811160970200,5.20597021484375,0.04231529316008091,-0.0013209452638111541,0.03450903072278015
1746738811171050200,5.21605029296875,0.04770283141732216,0.011722682395786978,0.09462341728261671
1746738811181129200,5.226129150390625,0.040222704795002936,0.013965757747995666,0.08056382093844003
1746738811191208200,5.236208251953125,0.047106034567952156,0.019356746054359244,0.026674245443893595
1746738811201288200,5.2462880859375,0.0397755455493927,0.008204084382159634,-0.05355539337042719
1746738811211367200,5.2563671875,0.027655484166741368,0.014887685765349306,-0.031479499434307216
1746738811221446400,5.2664462890625,0.03289221577644348,0.00264555463505385,0.02183356394707225
1746738811231525000,5.276525146484375,0.03857786019742489,0.002472284423134988,0.07205036921300925
1746738811241605400,5.28660546875,0.03543488599658012,0.00005965205714455805,0.07659002193664201
1746738811251684000,5.29668408203125,0.04411386701464653,0.010418518161773681,-0.004071706418320537
1746738811261763300,5.306763427734375,0.042916766184568404,0.014044985580223147,-0.05823681091861799
1746738811271843000,5.316843017578125,0.025710195317864417,0.012045340762182603,-0.052415329090366135
1746738811281922300,5.32692236328125,0.026756489500403404,-0.01051302804481238,0.021431586416903882
1746738811292001300,5.337001220703125,0.03259352509081363,0.00620238289188419,0.08865280930725856
1746738811302081300,5.347081298828125,0.03319090646207332,0.013269957503559998,0.06181552792191505
1746738811312160300,5.35716015625,0.044563948869705196,-0.0009442608634592034,0.013303371149394661
1746738811322239200,5.3672392578125,0.02825461910367012,-0.002133377604014822,-0.043957206015056
1746738811332318200,5.377318115234375,0.031098902618885038,0.009709325287869433,-0.052329495704127475
1746738811342398200,5.387398193359375,0.02436754853725433,0.008277876274977461,0.029562660361779854
1746738811352477400,5.3974775390625,0.03349661141037941,0.019556376262707634,0.07795916399853303
1746738811362556200,5.40755615234375,0.03634031040370464,0.012204915238067042,0.08373310775747522
1746738811372636400,5.417636474609375,0.04277355832159519,0.01395127827313845,0.020512754538934676
1746738811382715100,5.427715087890625,0.04157587296962738,0.010161212082591372,-0.03638703562226146
1746738811392794400,5.43779443359375,0.030203999605774877,0.012448311522905714,-0.0725307000758592
1746738811402874000,5.4478740234375,0.029904724398255346,0.015643673498113637,0.013374573222082107
1746738811412953300,5.457953369140625,0.04247369859218597,0.01263685179837048,0.08478129250300116
1746738811423032300,5.4680322265625,0.040677462825179096,0.004027459138751146,0.07796872641132213
1746738811433111300,5.478111328125,0.049206806239485736,0.011336292877106462,0.008220076535735279
1746738811443191300,5.48819140625,0.04860942486822605,0.018883959177148062,-0.04124721640399657
1746738811453270300,5.498270263671875,0.04846037178635597,0.015484060206322463,-0.04177067402251996
1746738811463349200,5.508349365234375,0.057737903219461435,0.0015577182991517475,0.0011945070141926408
1746738811473429200,5.51842919921875,0.045616672793030735,0.010408995706535642,0.059408366315485905
1746738811483508200,5.52850830078125,0.04651449841558933,0.0029635961918364046,0.0787626076022163
1746738811493587200,5.538587158203125,0.05608896696865558,0.010155914852966089,0.038119585902756076
1746738811503667500,5.54866748046875,0.036785716083645816,0.009773854449531064,-0.035676457933802155
1746738811513746200,5.55874609375,0.04980360308885574,0.020421865951665674,-0.05882682183417491
1746738811523825200,5.5688251953125,0.0316974530339241,0.011306865853222553,-0.006146539930999279
1746738811533904400,5.578904296875,0.029903555354475975,0.00769370372845151,0.04128889098810032
1746738811543984000,5.588984130859375,0.04082651590704918,0.0035729893737647214,0.08486743641649372
1746738811554063400,5.5990634765625,0.019578560695052146,0.017775123435701243,0.026605911181727424
1746738811564142300,5.609142333984375,0.030801380977034568,0.007115363271912792,-0.03532881353991106
1746738811574222300,5.619222412109375,0.05818623150885105,0.00736429539003875,-0.0541755162964575
1746738811584301300,5.62930126953125,0.03364741805791854,0.017582210662506984,0.002787886286014691
1746738811594380300,5.63938037109375,0.02257598894536495,0.005669678525225026,0.0708539168369025
1746738811604460300,5.649460205078125,0.03185352037847042,0.008045070453634253,0.07938367124316283
1746738811614539300,5.659539306640625,0.0665671063631773,0.004503531668303185,0.028758586570434272
1746738811624618200,5.6696181640625,0.03649111705124378,0.00899975338805234,-0.04826613698904402
1746738811634698500,5.679698486328125,0.03110416331589222,0.02241175427738344,-0.03556411099997349
1746738811644777200,5.689777099609375,0.019133155015110967,0.017397604493354445,-0.009813072215067222
1746738811654856200,5.699856201171875,0.03305062120854854,0.0045887868116959,0.06233861108110286
1746738811664935400,5.709935302734375,0.045920039653778076,-0.00615397717289452,0.09609696956705302
1746738811675015200,5.72001513671875,0.0694119744002819,0.017231881121185143,0.026603070770669725
1746738811685094400,5.730094482421875,0.047864159458875656,0.01072407241303008,-0.027716173978568983
1746738811695173400,5.74017333984375,0.03963409125208855,0.019899563677189872,-0.04968810521671548
1746738811705253400,5.75025341796875,0.03948386912643909,0.0011214691774453966,-0.009248469735402613
1746738811715332400,5.760332275390625,0.03364741805791854,-0.006205097722067148,0.049293708204803985
1746738811725411000,5.7704111328125,0.02646598212122917,0.003912129659147467,0.07316162752369418
1746738811735491300,5.7804912109375,0.026765257328748703,0.015657119784865062,0.03752640578257851
1746738811745570300,5.7905703125,0.03439677512049675,0.018333494820690247,-0.032799212863901625
1746738811755649300,5.800649169921875,0.06222995394170284,0.02366442350288853,-0.06408398431055247
1746738811765728300,5.810728271484375,0.02646773568689823,0.020627074234141035,-0.0030317415118683126
1746738811775808300,5.820808349609375,0.028563246661424634,0.017113954971585188,0.052452546695061025
1746738811785887200,5.83088720703125,0.03275251504480839,0.010143249450926668,0.08223470415957272
1746738811795966500,5.840966552734375,0.04786474398076534,-0.001367451857481501,0.032120382020575926
1746738811806046200,5.851046142578125,0.03319850524663925,0.011598738638998475,-0.03982684647836722
1746738811816125400,5.86112548828125,0.04127835132777691,0.02987323328144848,-0.05727867907672189
1746738811826204400,5.871204345703125,0.031551907083392144,0.013091839299054117,-0.018099574183672664
1746738811836284400,5.881284423828125,0.04157762653529644,0.00036167177759925835,0.03905444646691903
1746738811846363400,5.89136328125,0.028558570486307142,0.014628525655798148,0.08955467178411781
1746738811856442000,5.901442138671875,0.042025370302796364,0.01171400361569831,0.05204084235532209
1746738811866521300,5.911521240234375,0.054445875936746595,0.008879311625202535,-0.010655523521732537
1746738811876601300,5.921601318359375,0.044270518881082535,0.013107316571043338,-0.046327150016790254
1746738811886680300,5.931680419921875,0.04068096995651722,0.009843066636176082,-0.00592569112139754
1746738811896759300,5.94175927734375,0.04876081603765487,0.014537456688727251,0.04232465464347042
1746738811906839300,5.95183935546875,0.03334755832850933,0.003736773092241492,0.09549778896435164
1746738811916918300,5.961918212890625,0.04816109657883644,0.013788928459922316,0.04929135185093619
1746738811926997200,5.971997314453125,0.02287234154343605,0.004964857578228111,-0.01637127995318733
1746738811937077200,5.9820771484375,0.047263270956277845,0.007261740910328808,-0.036998883910290895
1746738811947156200,5.99215625,0.033795302096009255,0.0061066274748969585,-0.017680654651857912
1746738811957235500,6.0022353515625,0.04816051205694675,0.01616040454832837,0.03737788242367096
1746738811967314200,6.012314208984375,0.05369593435227871,0.014626294882805086,0.08569107342483476
1746738811977394400,6.02239453125,0.021373627418279646,0.017683452822075924,0.07171767579307779
1746738811987473200,6.03247314453125,0.05923252569139004,0.001356977841706248,-0.021739711651159448
1746738811997552400,6.042552490234375,0.0427729737997055,0.015253343023255001,-0.06426893068971112
1746738812007632100,6.052632080078125,0.0293055894613266,0.003043249857393675,-0.022202625588327644
1746738812017711400,6.06271142578125,0.03140051591396332,-0.004178393079631496,0.0417840997596737
1746738812027790300,6.072790283203125,0.043971243673563004,-0.004422735216785804,0.08599804788162
1746738812037870000,6.0828701171875,0.052798108729720114,0.003278418882470578,0.073466720550647
1746738812047949300,6.09294921875,0.04890636198818683,0.006365390863048378,-0.006066469565266743
1746738812058028300,6.1030283203125,0.03723579793870449,0.013230723755003417,-0.07678265843191184
1746738812068108300,6.1131083984375,0.04247545215785503,0.009749634465371491,-0.05352107097571716
1746738812078187300,6.123187255859375,0.03110240975022316,-0.005302732350886799,0.04453108777971938
1746738812088266500,6.1332666015625,0.04097907612025738,0.01562839144730242,0.08428380957595072
1746738812098345200,6.14334521484375,0.04322364017665386,0.01897235441323137,0.08113864341801963
1746738812108425500,6.153425537109375,0.03603928163051605,0.017073093238234287,0.015163639462785794
1746738812118504200,6.163504150390625,0.044270518881082535,0.015461259286047423,-0.06527449100306257
1746738812128583200,6.173583251953125,0.037387773630023,-0.005300906290803686,-0.07569338362417183
1746738812138663200,6.1836630859375,0.023621114084124564,0.005950855245406273,0.02768935903687961
1746738812148742100,6.1937421875,0.04666472054123878,0.006199601846330915,0.05503280897922814
1746738812158821400,6.2038212890625,0.03634031040370464,0.004901241161196958,0.07697727682171389
1746738812168901000,6.213901123046875,0.03529284717738628,0.013193809827696532,0.022470327480649574
1746738812178980400,6.22398046875,0.03798632404506206,0.009305319626574054,-0.044670414052018895
1746738812189059300,6.234059326171875,0.04142798893153667,0.012425796013709623,-0.07131106775356456
1746738812199138000,6.244137939453125,0.030804303586483,0.013100265775748993,0.01629154751417227
1746738812209218300,6.25421826171875,0.04083002303838729,0.00395902269941871,0.07689175396272913
1746738812219297300,6.26429736328125,0.029758009403944012,0.009164635368360905,0.0730147572657559
1746738812229376300,6.274376220703125,0.04771510637700557,-0.0013117904180428013,0.041695389429759235
1746738812239456300,6.284456298828125,0.027214754661917685,0.014557355549151543,-0.049312476837355644
1746738812249535200,6.29453515625,0.04322597826421261,0.015374639306875177,-0.06829787567853927
1746738812259614200,6.3046142578125,0.04771452185511589,0.007088013469861471,0.00957104362011887
1746738812269694200,6.314694091796875,0.030955694755911825,0.0000019042627187445758,0.07847136957067996
1746738812279773200,6.324773193359375,0.03903729440271854,0.008115684008676908,0.09321103886719792
1746738812289852400,6.334852294921875,0.05100713365972042,0.015465124893700702,0.02309621342718601
1746738812299931400,6.344931396484375,0.030207506737112998,0.008275589561412925,-0.0410985469146166
1746738812310011400,6.355011474609375,0.03604454232752323,0.001178607904628734,-0.07304311571056023
1746738812320090400,6.36509033203125,0.02317687744796276,0.008753517833800288,-0.028419682605424896
1746738812330169600,6.375169677734375,0.035896073767542835,0.016363086371932876,0.07467138363267295
1746738812340249600,6.38524951171875,0.054448798546195026,0.022223398948297834,0.10060176103985868
1746738812350328600,6.39532861328125,0.051156771263480186,0.006317145545085077,0.04720353099252097
1746738812360407600,6.405407470703125,0.04547112684249878,0.015536726541898678,-0.04070762050142512
1746738812370487800,6.41548779296875,0.023026655322313308,0.012715214264206588,-0.0683494871347677
1746738812380566500,6.42556640625,0.030808395239710806,0.018129834607907104,-0.02322738379249349
1746738812390645500,6.4356455078125,0.04218085312545299,0.008818306148721602,0.06279992671622894
1746738812400724700,6.445724853515625,0.025720716711878776,0.016530217391543554,0.09830821587573736
1746738812410804500,6.455804443359375,0.03858896611332893,0.023383339255896862,0.06215640464830212
1746738812420883700,6.4658837890625,0.047566053295135496,0.021687543072504922,-0.023488665077183394
1746738812430962700,6.475962646484375,0.05085808057785034,0.010145562422310466,-0.08585542454053648
1746738812441042700,6.486042724609375,0.0321551336735487,0.020982312846020795,-0.025900511991884558
1746738812451121700,6.49612158203125,0.036495793226361276,0.01179084312801715,0.05253993271756917
1746738812461200600,6.50620068359375,0.03739537241458893,0.0043608306954061845,0.10264882062962279
1746738812471280600,6.51628076171875,0.04248246642053127,0.009835980449907947,0.07052115948488935
1746738812481359600,6.526359619140625,0.0580447772115469,0.018842551737814208,-0.014161860275408252
1746738812491438600,6.5364384765625,0.030661095723509786,0.017295981024584035,-0.06250731871151365
1746738812501518800,6.546518798828125,0.015249007058143615,-0.0006885371032985859,-0.04711669295928441
1746738812511597600,6.55659765625,0.025424364113807676,0.017437148769164922,0.024669481492741032
1746738812521676500,6.566676513671875,0.0215326173722744,0.01752262253744411,0.0792947691170033
1746738812531755800,6.576755859375,0.03574643616378307,0.011965224730677437,0.07408111698878929
1746738812541835500,6.58683544921875,0.03499824814498424,0.01662587691040826,0.008072137698717416
1746738812551914800,6.596914794921875,0.022279636347293852,0.008427448805011227,-0.07440962742394767
1746738812561993500,6.606993408203125,0.03829085994958877,0.02029565945584327,-0.06304264943092129
1746738812572073700,6.61707373046875,0.032006080591678615,0.006661562510495423,0.0371879402089864
1746738812582152700,6.627152587890625,0.032905075258016586,0.006496367148822173,0.09965247009154408
1746738812592231400,6.6372314453125,0.020934066957235334,0.013294230003358097,0.08783711814335547
1746738812602311700,6.647311767578125,0.04891571433842182,0.011471058280364377,0.013329446305567398
1746738812612390400,6.657390380859375,0.03709375911951065,0.034256894009059756,-0.054091957065695896
1746738812622469600,6.6674697265625,0.04741816925704479,0.012212986663379706,-0.0619367431487888
1746738812632548600,6.677548583984375,0.048315994879603384,0.013423695893702096,0.016025864049000665
1746738812642628600,6.687628662109375,0.013150573474168776,0.015313071570568717,0.08175640999018215
1746738812652707600,6.69770751953125,0.028113164806365967,0.005545804979561944,0.08843738559144548
1746738812662786800,6.707786865234375,0.0340980844348669,0.008286056156500125,0.0268476018499583
1746738812672866600,6.717866455078125,0.04606967725753784,0.014995639651850797,-0.06071666330192238
1746738812682945800,6.72794580078125,0.046967502880096434,0.01014623485081247,-0.07254050908382051
1746738812693024500,6.7380244140625,0.03170563634037971,0.009250952240967308,-0.002744202407915145
1746738812703104800,6.748104736328125,0.034249475604295726,0.010717651805398054,0.06769459428945555
1746738812713183700,6.758183837890625,0.0426291814148426,-0.006913715778058395,0.08370833864239975
1746738812723262500,6.768262451171875,0.04262859689295292,0.004751559033308876,0.03273242210485041
1746738812733342700,6.7783427734375,0.031256723529100416,-0.007393745246808975,-0.037181693131290376
1746738812743421400,6.78842138671875,0.04068447708785534,0.013069147976633394,-0.06674196060658433
1746738812753500700,6.798500732421875,0.030659342157840726,0.011599878000025637,-0.013055990525893867
1746738812763579600,6.80857958984375,0.029013328516483305,0.021598905807826668,0.07178732522949575
1746738812773659600,6.81865966796875,0.023625790259242056,0.010208328885148511,0.09486148208850063
1746738812783738600,6.828738525390625,0.05400163930058479,0.015062254597677382,0.03043793622581288
1746738812793817600,6.838817626953125,0.022726795592904088,0.011888807626755442,-0.050879068566951895
1746738812803897600,6.848897705078125,0.03724164315760135,0.01722434398541227,-0.07531870509288273
1746738812813976600,6.8589765625,0.03410042252242565,0.019403484972647857,-0.0359533843121957
1746738812824055600,6.8690556640625,0.04726794713139534,0.02811945298325736,0.052094983695354306
1746738812834135600,6.879135498046875,0.03679273034632206,0.004012385438027559,0.09402771641178988
1746738812844214800,6.88921484375,0.043376200389862056,0.002713249005581019,0.03948863663310185
1746738812854293500,6.89929345703125,0.020782091265916822,0.01629008164287079,-0.03227864132220857
1746738812864372700,6.909372802734375,0.0346995574593544,0.011368824031885013,-0.048276101260632275
1746738812874452500,6.919452392578125,0.03305412833988666,-0.00413645991309022,-0.02094419562560506
1746738812884531500,6.929531494140625,0.01988601920902729,0.004033932262021699,0.0511703613974154
1746738812894610700,6.939610595703125,0.04038695544600487,0.013524626384372821,0.09819044384812005
1746738812904690400,6.9496904296875,0.040537177571654315,0.017363784422143362,0.06881525061614811
1746738812914769700,6.959769775390625,0.05505260965824127,0.004544247271181666,-0.0243199191363994
1746738812924848600,6.9698486328125,0.04263268854618072,0.009537449023660155,-0.06800479274978861
1746738812934928600,6.9799287109375,0.033955461093783376,0.017562129138992168,-0.037960806011315434
1746738812945007600,6.990007568359375,0.029018589213490483,0.00121221049259766,0.030177385593485085
1746738812955086600,7.000086669921875,0.04502981281578541,0.0183867205619812,0.09540797352273948
1746738812965166600,7.01016650390625,0.03709901981651783,0.0114225943375146,0.07952245865934528
1746738812975245800,7.020245849609375,0.05700140563845634,0.018311922309699,-0.006265444469777867
1746738812985324500,7.030324462890625,0.03216156341433525,0.007923701104777865,-0.05726035796874202
1746738812995403500,7.040403564453125,0.04069207587242126,0.01891596517554135,-0.0503638216543477
1746738813005483500,7.0504833984375,0.027825580036640166,0.014693989824154414,0.03873401887351647
1746738813015562500,7.0605625,0.0360544791996479,0.014165379964833845,0.08764985194294712
1746738813025641700,7.070641845703125,0.025129180559515952,0.008886879014549777,0.06614223201461136
1746738813035721500,7.080721435546875,0.02004325559735298,0.008120768892459454,0.01478343537300825
1746738813045800700,7.09080078125,0.048176878669857974,0.003633299018035177,-0.05229559343452565
1746738813055879700,7.100879638671875,0.03695522743165493,0.010356919601070694,-0.049415489687258375
1746738813065959700,7.110959716796875,0.03979834190309047,0.010857269196998094,0.018944820235623046
1746738813076038700,7.12103857421875,0.03560848899781704,0.016961714418785412,0.07207424327894113
1746738813086117600,7.13111767578125,0.03126958301067352,0.008130776546531706,0.0771240557481069
1746738813096196600,7.141196533203125,0.024685528445243833,0.009208811865982715,0.013107382786413654
1746738813106276600,7.151276611328125,0.04967500827312469,0.011280619450402445,-0.05005304780527949
1746738813116355600,7.16135546875,0.03486263906657695,0.013988892028410919,-0.06037943983734585
1746738813126434600,7.1714345703125,0.035760464689135546,0.005898134681725059,0.007376008660718798
1746738813136514600,7.1815146484375,0.04728022209107875,0.006027864862728165,0.08030059429183602
1746738813146593500,7.191593505859375,0.037703415450453755,0.0012135165336949285,0.08617288385871798
1746738813156672800,7.2016728515625,0.036654783180356025,0.01623760367860668,0.02093476107697934
1746738813166752500,7.21175244140625,0.050123336562514303,0.014211526369722558,-0.0655241366488859
1746738813176831700,7.221831787109375,0.05610942523479461,0.002992760637527681,-0.058598191576916724
1746738813186910700,7.23191064453125,0.034113866525888444,0.011944837246485986,-0.0016973602361045777
1746738813196990700,7.24199072265625,0.036359015104174615,0.0059444260754418785,0.06919585656472481
1746738813207069700,7.252069580078125,0.036059155374765395,0.009492945444941869,0.08226209448999725
1746738813217148400,7.2621484375,0.0421937126070261,0.009818666272214614,0.034924041264457625
1746738813227227600,7.2722275390625,0.04593289913535118,0.0039162087542878,-0.03539123865109868
1746738813237307600,7.2823076171875,0.03156885821819305,0.007654690317247878,-0.07665920558217912
1746738813247386600,7.29238671875,0.037405309286713595,0.006806619837260223,-0.017330498640472067
1746738813257465600,7.302465576171875,0.031869302469491954,0.010528053225652548,0.07018996390230021
1746738813267545600,7.312545654296875,0.03156944274008274,0.015081540395104093,0.10776551518938504
1746738813277624600,7.32262451171875,0.0439887793302536,0.014542779034527484,0.0403208770730067
1746738813287703600,7.33270361328125,0.03546060495972633,-0.003633126629743492,-0.05492480029379949
1746738813297783600,7.342783447265625,0.04833060792684555,0.014262464255804661,-0.07000176612013019
1746738813307862500,7.352862548828125,0.04354220460653305,0.007103916575180482,-0.027198999970359725
1746738813317941800,7.362941650390625,0.03202127816081047,-0.004860036934551317,0.041230320068122814
1746738813328020700,7.373020751953125,0.02723229031860828,0.0017927748722635442,0.0852632125347387
1746738813338100000,7.383099853515625,0.04698386949300766,0.0013744975153764244,0.053008783205179495
1746738813348179000,7.393178955078125,0.045187633726000785,0.008714272668800548,-0.012795211564702912
1746738813358258000,7.4032578125,0.040700259178876874,0.005447455746689229,-0.0676077927888371
1746738813368338000,7.413337890625,0.04249649494588375,0.0008527763378573582,-0.0445769453485962
1746738813378417000,7.4234169921875,0.025886136406660078,0.01591303077469347,0.0434549555813428
1746738813388496000,7.433495849609375,0.03426642673909664,-0.0021357442326814633,0.09005562530988827
1746738813398576000,7.443576171875,0.049528877800703044,0.01102455319694709,0.06812156926356255
1746738813408654800,7.45365478515625,0.029328385815024373,0.009664682428544619,-0.03368849898697808
1746738813418733800,7.46373388671875,0.03336801659464836,0.0065140266739210344,-0.06804817523378878
1746738813428813800,7.473813720703125,0.038754385808110234,0.013822835296101402,-0.04763002190943807
1746738813438892800,7.483892822265625,0.04743219778239727,0.014153212319716111,0.044950043844152236
1746738813448972000,7.493971923828125,0.039950902116298675,0.01569577586139785,0.08632171774487941
1746738813459051000,7.504051025390625,0.044589667832851405,0.014163608132855733,0.06835369751900434
1746738813469131000,7.514131103515625,0.029326632249355316,0.01906886445711134,-0.016013315094681457
1746738813479210000,7.5242099609375,0.028578444230556485,0.023650748887273948,-0.06105988724902272
1746738813489288700,7.534288818359375,0.03187047151327133,0.004357078110540169,-0.05732771498337388
1746738813499369000,7.544368896484375,0.044290977147221564,0.006730572626096545,0.020284096882212905
1746738813509448000,7.554447998046875,0.04234510377645492,0.02050174908773042,0.09722944419570266
1746738813519527000,7.56452685546875,0.04174596883952617,0.0059363392379309515,0.08335434670611284
1746738813529607000,7.57460693359375,0.03426350412964821,0.0117036157940689,0.005509602867485955
1746738813539686000,7.584685791015625,0.05296937364339828,0.0230294592007529,-0.057483380469121034
1746738813549764900,7.594764892578125,0.04309270727336406,0.019183108803792856,-0.08452076013698243
1746738813559844000,7.604843994140625,0.03396598248779774,0.0026939546458219408,0.010555469813896342
1746738813569923800,7.614923828125,0.03172024938762188,0.01608173840510426,0.0781560382775031
1746738813580003000,7.625003173828125,0.04084814321696758,0.006594118160073412,0.08310439053303562
1746738813590082000,7.63508203125,0.06284370192587375,0.013780474583763861,0.00854071419169195
1746738813600161800,7.645161865234375,0.03545943591594696,0.014656973148859106,-0.06142134097255766
1746738813610241000,7.655240966796875,0.040997780820727345,0.020560077979112974,-0.08462570921564475
1746738813620319700,7.66531982421875,0.028729250878095625,0.013392910313082393,-0.008678926219139248
1746738813630400000,7.67539990234375,0.04907938046753406,0.0179501534923329,0.06607803507144562
1746738813640479000,7.68547900390625,0.033517069676518435,0.007360295068356208,0.0933204449252691
1746738813650558000,7.695557861328125,0.03980126451253891,0.013076996781304478,0.03245882019470445
1746738813660638000,7.705637939453125,0.029028526085615156,0.008751218562148277,-0.03456001199134625
1746738813670717000,7.715717041015625,0.039352351701259614,-0.0011803957196272676,-0.06019081279691308
1746738813680796000,7.7257958984375,0.03486322358846664,-0.0070451812584215075,-0.023381259179953484
1746738813690875000,7.735875,0.046834231889247895,0.01114912714139791,0.060896001924201845
1746738813700955000,7.745954833984375,0.039351767179369924,0.015050484244781545,0.09040721522653475
1746738813711033900,7.756033935546875,0.0333662630289793,0.017038845050404778,0.03524171977834776
1746738813721113000,7.766113037109375,0.04354220460653305,0.014240738764475099,-0.036629593940172345
1746738813731192800,7.77619287109375,0.04219488165080547,0.01831419418188743,-0.05609044653968885
1746738813741272000,7.78627197265625,0.03396539796590805,0.007682281006249831,-0.01783003652729094
1746738813751350800,7.796350830078125,0.03127250562012195,0.011393703886459116,0.06232861941005103
1746738813761431000,7.80643115234375,0.03696107265055179,0.010806816509750206,0.10623337371866218
1746738813771509800,7.816509765625,0.0499795441776514,0.0275489847350982,0.06043908846955746
1746738813781588700,7.826588623046875,0.03202186268270016,0.010513208424614276,-0.01696981210191734
1746738813791668000,7.83666796875,0.03860591724812984,0.01940337309150491,-0.07248541789571754
1746738813801747700,7.846747802734375,0.05192483302652835,0.004952761285880115,-0.025762299964437258
1746738813811827000,7.856826904296875,0.03591360942423343,0.012525922786782029,0.04399288924979046
1746738813821906000,7.866906005859375,0.03696165717244148,0.0027611495469609506,0.08968810717174783
1746738813831986000,7.87698583984375,0.045640638190507885,0.012807768510532332,0.05694241459337063
1746738813842065000,7.88706494140625,0.021699206110835072,0.006727217333452426,-0.017475578800123185
1746738813852144000,7.89714404296875,0.029330139380693433,0.010194601753895404,-0.06697646348220296
1746738813862224000,7.907223876953125,0.04833528410196304,0.0049052437661681325,-0.04524323637075722
1746738813872303000,7.91730322265625,0.03861059342324733,0.006681541856843978,0.03990490755010396
1746738813882381800,7.9273818359375,0.036516251492500304,0.00890642168194754,0.07875512754865921
1746738813892460800,7.937460693359375,0.02574234402179718,0.011432615691318641,0.054075599585939195
1746738813902540800,7.947540771484375,0.046541386422514916,0.012293454321334139,-0.020970380379632114
1746738813912619800,7.957619873046875,0.03142915748655796,0.014345710676023736,-0.07032423954014666
1746738813922699000,7.967698974609375,0.0438490785986185,0.003730183521250728,-0.04130506580476649
1746738813932778800,7.97777880859375,0.024545243191719055,0.008323939339831122,0.024410711825545876
1746738813942858000,7.98785791015625,0.03247545166909695,0.006727827542339218,0.07652792561901733
1746738813952937000,7.99793701171875,0.031876316732168196,0.0035923510905384315,0.07211635625446215
1746738813963017000,8.008016845703125,0.05237666844725609,0.019698661677073685,0.0018351978042162953
1746738813973096000,8.018095947265625,0.03202595433592796,0.0014016994744888505,-0.06510208444506861
1746738813983175000,8.0281748046875,0.045942251485586165,0.02122868653923506,-0.07048543058438227
1746738813993255000,8.0382548828125,0.029631168153882025,0.0018509188172669382,0.011149280121736228
1746738814003334000,8.048333984375,0.037412323549389837,0.009226203104667366,0.09179675162248313
1746738814013412900,8.058412841796875,0.035465865656733514,0.009692964383179787,0.08520897986316121
1746738814023491800,8.068491943359374,0.04145078528523445,0.01842450213896809,0.008372910743579268
1746738814033571800,8.07857177734375,0.050279988428950304,0.0037250135849666547,-0.06215028543476946
1746738814043650800,8.08865087890625,0.029030279651284217,0.012239930610876762,-0.06385924477712251
1746738814053730000,8.09872998046875,0.03202361624836921,0.013785530926438513,0.000568621067656204
1746738814063809800,8.108809814453124,0.041301147681474686,0.006512069324741606,0.10038743330258876
1746738814073889000,8.118888916015624,0.034717093116045,-0.003531072761066025,0.07138426998709328
1746738814083968000,8.128968017578124,0.02229717200398445,0.0036468823021044952,0.027936967989243566
1746738814094048000,8.139048095703124,0.049233109724521634,0.015098323708190581,-0.05567103381752968
1746738814104127000,8.149126953125,0.042050504744052884,0.0148888707921491,-0.058512586519541214
1746738814114206000,8.1592060546875,0.04414660024046898,-0.0059596299236174665,0.012744686953863129
1746738814124286000,8.169285888671874,0.03591594751179218,0.012187817972793709,0.08085972601193935
1746738814134365000,8.179364990234374,0.040405075624585146,-0.008159580232619191,0.08551046529407612
1746738814144444000,8.18944384765625,0.038161680611968035,0.01278689240257372,0.04152579588335938
1746738814154523000,8.19952294921875,0.0413046548128128,0.013783960023859981,-0.046171183136943725
1746738814164603000,8.209602783203126,0.03801262753009796,0.008242698217852739,-0.07434270880073308
1746738814174681900,8.219681884765626,0.031130466800928114,0.01330566242953646,-0.028046785039268433
1746738814184760800,8.2297607421875,0.046243280258774756,0.008349492193729383,0.06180238531255163
1746738814194840800,8.2398408203125,0.03786298992633819,0.01334510509900283,0.09238094471860676
1746738814204919800,8.249919921875,0.046243280258774756,0.009551555751648266,0.0260508345822338
1746738814214999000,8.2599990234375,0.040705519875884055,0.006883343472681008,-0.0494117542270571
1746738814225078800,8.270078857421876,0.03771218327879906,0.005234420350784785,-0.06924297450892627
1746738814235158000,8.280157958984375,0.04190378974974155,0.0054223521298292325,-0.01657088504536077
1746738814245237000,8.290237060546875,0.028735680618882178,0.01420294348775642,0.05985616488191299
1746738814255316000,8.30031591796875,0.03591711655557155,0.0039047808946867006,0.08961525199809112
1746738814265396000,8.31039599609375,0.05387245996296405,-0.003976012650126358,0.061287695522373536
1746738814275475000,8.320474853515625,0.0362158072412014,0.003983902553992811,-0.03344250660296529
1746738814285554000,8.330553955078125,0.02394552373290062,0.011188712516403757,-0.07550865644072181
1746738814295634000,8.340634033203125,0.02978255932331085,0.015793400150130036,-0.04329775572563521
1746738814305713000,8.350712890625,0.04624211121499538,0.008670303379622055,0.030654181925533337
1746738814315792000,8.3607919921875,0.034869653329253195,0.0020286157550202916,0.08720828218790702
1746738814325871900,8.370871826171875,0.03142857296466827,0.019032826170994666,0.07042803784133866
1746738814335951000,8.380951171875,0.045645314365625377,0.008169813932265969,-0.013034335816511883
1746738814346030000,8.391030029296875,0.030382863304018973,0.008732706799567676,-0.08207525754785165
1746738814356110000,8.401110107421875,0.05432546442747116,0.013774708138324786,-0.052984872606629506
1746738814366189000,8.41118896484375,0.03876373815834522,0.0032440542469208593,0.04120818130155094
1746738814376268000,8.42126806640625,0.03711830903887749,0.01743575367981102,0.08947418129327707
1746738814386347000,8.431346923828125,0.033228315863013266,0.016988194858690256,0.07459372441973537
1746738814396427000,8.441427001953125,0.037268531164526934,0.01925351629203651,0.00008309343988075851
1746738814406506000,8.451506103515625,0.03382745079994202,0.011048066503275186,-0.06772522688973695
1746738814416585000,8.4615849609375,0.050437224817276,0.008930240948952268,-0.05264021475426853
1746738814426665000,8.4716650390625,0.031732524347305294,0.0031190105158340883,0.02488482301016338
1746738814436744000,8.481743896484375,0.04953881467282772,0.014581074351456481,0.10097043908862396
1746738814446823200,8.4918232421875,0.05073533098101616,0.0021822023064683887,0.08859860403514466
1746738814456903000,8.50190283203125,0.04594634313881397,0.0010925633141916477,0.007136363819101825
1746738814466982100,8.511982177734374,0.04744213465452194,0.015242104676610324,-0.06345744991004466
1746738814477061000,8.52206103515625,0.04609539622068405,0.025447987017990087,-0.05195020492980256
1746738814487139800,8.532139892578124,0.036220483416318894,0.011270717969251564,0.005107351342681795
1746738814497220000,8.54222021484375,0.012577742022275924,-0.0015036774238193175,0.08079856127607636
1746738814507299000,8.552299072265624,0.03217909907102585,-0.0026033583194977833,0.08542935374872758
1746738814517378000,8.5623779296875,0.04639408690631389,0.006894650317984633,0.03326715003605932
1746738814527458000,8.5724580078125,0.0263426480025053,0.018412391576066146,-0.050353437257651235
1746738814537537000,8.582537109375,0.04190554331541061,0.006142390624733525,-0.06274611416975967
1746738814547616000,8.592615966796876,0.025595629027485845,-0.005743819190381328,-0.0024723540634382516
1746738814557696000,8.602696044921874,0.035920623686909674,0.016721603786287596,0.07426725067803636
1746738814567775000,8.61277490234375,0.025595629027485845,-0.0000697247849428095,0.08521124488548375
1746738814577854000,8.62285400390625,0.04385024764239788,0.01936792731878813,0.044342342008277774
1746738814587934000,8.632933837890626,0.030382863304018973,0.029852222459460606,-0.05650148415914737
1746738814598013000,8.643012939453126,0.040407413712143896,0.006294693397148512,-0.06315486850058659
1746738814608092200,8.653092041015626,0.05148059639036655,0.009655449950962793,-0.01617297176895663
1746738814618171000,8.6631708984375,0.04115735529661178,0.0028612603370129362,0.05325049213971943
1746738814628251100,8.673251220703126,0.024847441008687018,0.01565378390017431,0.09116911211027763
1746738814638329900,8.683329833984375,0.03038520139157772,0.020727940792730076,0.03180389994992874
1746738814648409000,8.6934091796875,0.04594809670448303,0.01254567780002253,-0.03561291857776232
1746738814658489000,8.703489013671875,0.040859249132871624,0.006261576578835956,-0.056595254256669426
1746738814668568000,8.713568115234375,0.034276948133110996,0.02419714214010164,-0.023544349920330568
1746738814678647000,8.72364697265625,0.019462825360894203,0.021936919290269724,0.040463655677717175
1746738814688727000,8.73372705078125,0.05253332031369209,0.015799138054461218,0.08277941462867892
1746738814698806000,8.743805908203125,0.03277940305173397,0.011165982378076296,0.04911672593639232
1746738814708885000,8.753885009765625,0.028139468291401862,0.00903856415738992,-0.029165733466064554
1746738814718965000,8.763965087890625,0.04549743032753467,-0.00503362166947918,-0.07059691900168545
1746738814729044000,8.7740439453125,0.04385141668617725,0.020167101172730326,-0.04847128590601496
1746738814739123200,8.784123291015625,0.04250409373044967,0.00611581257423968,0.047205248025571925
1746738814749202000,8.794201904296875,0.0448994644343853,0.012731692758260759,0.08005622760932891
1746738814759282200,8.8042822265625,0.04220481852293014,0.00434462962092075,0.052491189071862024
1746738814769361000,8.81436083984375,0.03157937961220741,0.0014774412957980528,-0.011772782314941286
1746738814779439900,8.82443994140625,0.026942367461323738,-0.0026447674712981096,-0.07192467874041758
1746738814789520100,8.83452001953125,0.043103228667378424,0.023848760243982543,-0.022576719597727057
1746738814799598800,8.844598876953125,0.05477496176064014,-0.0067280084929632715,0.02756294704508036
1746738814809678000,8.854677978515625,0.05372516044676304,0.0035136364274309015,0.08105642676097341
1746738814819757800,8.8647578125,0.02753916431069374,0.02144646432562731,0.05931425829124637
1746738814829837000,8.874837158203125,0.03756429924070835,0.02407803210534621,0.0007121759905014186
1746738814839916000,8.884916015625,0.05178045611977577,0.008373071715427794,-0.054833824941562484
1746738814849995300,8.894995361328125,0.0338239436686039,0.009641821001120843,-0.05484904077700339
1746738814860075000,8.905074951171875,0.04609422717690467,0.004831774387869518,0.02756578745613806
1746738814870154200,8.915154296875,0.032926118046045304,0.013057262317661661,0.07774206891544162
1746738814880233000,8.92523291015625,0.029035540348291394,0.01668576757121482,0.06902743206210434
1746738814890313200,8.935313232421874,0.06464812099933624,0.023209754520969,0.0031509109121281654
1746738814900392000,8.945391845703124,0.03232698310911655,0.007740597910367068,-0.07051735095945187
1746738814910471000,8.955470947265624,0.03951017261147499,0.005215754466221551,-0.06056327197165228
1746738814920551200,8.96555126953125,0.038162265133857724,-0.003009067884934484,0.00943288639159873
1746738814930630000,8.9756298828125,0.02589081258177757,0.012345348905352875,0.08632330691376701
1746738814940709000,8.985709228515624,0.049233109724521634,0.02340293672222178,0.07667695130142382
1746738814950788900,8.995788818359374,0.04938216280639171,0.01599571093933191,0.004668905126489699
1746738814960868000,9.0058681640625,0.024092238727211952,0.015609362519846763,-0.05460550521155819
1746738814970947000,9.015947021484376,0.025140870997309682,0.007729131234859232,-0.05232321209381334
1746738814981026000,9.026026123046876,0.031576457002758976,0.005290382613500696,0.011436992755625396
1746738814991106000,9.03610595703125,0.05267535913288593,0.009976970097975572,0.08503764188424684
1746738815001185000,9.04618505859375,0.03172551008462906,0.014284354143915698,0.08223879581280052
1746738815011264000,9.056263916015626,0.04190145166218281,0.017841285148734457,0.03850078550637699
1746738815021344000,9.066343994140626,0.036814357656240464,0.01713436186373001,-0.0405615356947761
1746738815031423000,9.076423095703126,0.036816111221909524,0.005429662078383262,-0.07066136254002339
1746738815041502000,9.086501953125,0.05058218624591827,0.0068074224132142255,-0.007913010747404768
1746738815051582200,9.096582275390626,0.045344285592436785,0.02328438380989246,0.08325524284634739
1746738815061661000,9.106660888671875,0.03905833719074726,0.012575972473586444,0.07813434703550301
1746738815071740200,9.116740234375,0.04938333185017109,-0.0029841903136490146,0.04341290653790347
1746738815081819100,9.126819091796875,0.05102934549152851,0.012849944276490714,-0.06044767363481223
1746738815091899000,9.13689892578125,0.026639585122466086,0.010097990103671326,-0.0581818475946784
1746738815101978000,9.14697802734375,0.024096914902329444,0.0036949672190414273,-0.008036070871492848
1746738815112057000,9.15705712890625,0.026491116562485692,0.011086333279096288,0.05799179578213952
1746738815122137000,9.16713720703125,0.03756313019692897,0.010133766953239682,0.10102832502201199
1746738815132216000,9.177216064453125,0.053124271944165226,0.018082049943425226,0.05223091243417002
1746738815142295000,9.187294921875,0.0441454311966896,0.013451628505176632,-0.032541319979541
1746738815152375000,9.197375,0.042050504744052884,0.012001241325552109,-0.04738997520902194
1746738815162454000,9.2074541015625,0.030080665487051007,0.005262388353233109,-0.02938604341954924
1746738815172533000,9.217532958984375,0.03756313019692897,0.010277412065985845,0.06045446870177984
1746738815182613200,9.22761328125,0.03337269276976585,0.004640220742233214,0.09866813522931188
1746738815192692000,9.23769189453125,0.054770870107412335,0.015063983047171495,0.044176922313496465
1746738815202771000,9.24777099609375,0.029184593430161474,0.010293963625276228,-0.04095503765754401
1746738815212850200,9.25785009765625,0.04130640837848186,0.022547991260164418,-0.059820664310269056
1746738815222930000,9.267929931640625,0.03831482534706592,0.013908193758304696,-0.02162626873878762
1746738815233009200,9.278009033203125,0.03831540986895561,0.00927721862256294,0.056458768395427614
1746738815243088100,9.288088134765625,0.026193010398745536,0.008587964566634037,0.09164897718224674
1746738815253168000,9.298168212890625,0.038462124863266944,0.01238677689428441,0.059292694913409646
1746738815263247000,9.3082470703125,0.025293431210517883,0.00897889040900336,-0.019355940053472295
1746738815273325800,9.318325927734374,0.02948445315957069,0.0075582681799802225,-0.06391425376683474
1746738815283406000,9.328406005859375,0.038763153636455536,0.0007936654201184865,-0.03621304902853444
1746738815293484800,9.33848486328125,0.03502221354246139,-0.003434857832241687,0.04054929726771079
1746738815303564000,9.34856396484375,0.04250467825233936,0.009104212130481027,0.08722025575349107
1746738815313644000,9.35864404296875,0.04220481852293014,0.009391814024871563,0.055388664079038426
1746738815323723000,9.368722900390624,0.04609714978635311,0.012457998374925228,-0.030169430615892633
1746738815333802500,9.378802490234374,0.04938976159095764,0.005841245974646881,-0.0686882632356137
1746738815343881700,9.3888818359375,0.02859013466835022,0.014348674384667538,-0.030431241623545064
1746738815353961500,9.39896142578125,0.02140752968788147,-0.0008248077645868761,0.027941525433352217
1746738815364040400,9.40904052734375,0.050437224817276,0.003665182860486675,0.07652152327769436
1746738815374119400,9.419119384765626,0.05013561152219772,0.017976387337065535,0.0806545405623503
1746738815384199400,9.429199462890624,0.02215337961912155,0.012530331817129627,0.01724384327032603
1746738815394278400,9.4392783203125,0.03337678442299366,0.015409845334285636,-0.06799102908591739
1746738815404357400,9.449357421875,0.034275779089331625,0.015066704727220348,-0.0513396626828704
1746738815414437600,9.459437744140626,0.04654664711952209,0.020767348071222658,0.01482390438071452
1746738815424516400,9.469516357421876,0.023951368951797485,0.00934013863656146,0.08997428543567657
1746738815434595600,9.479595703125,0.029487375769019126,0.023029685246327425,0.07700020103957504
1746738815444674600,9.489674560546876,0.044749242308735844,0.020117499010497704,0.00008537672851234674
1746738815454754600,9.499754638671876,0.04205634996294975,0.011294784973072819,-0.04576099490085617
1746738815464833500,9.50983349609375,0.04355331052243709,0.017440609093086094,-0.05558445151261985
1746738815474912500,9.51991259765625,0.03966273282468319,0.007908289477336803,0.006255516730807722
1746738815484992500,9.529992431640625,0.04624620286822319,0.009700517501973082,0.08769001955655403
1746738815495071500,9.540071533203125,0.03382686627805233,0.008646645655288011,0.10332880225041881
1746738815505150500,9.550150390625,0.052829088389873505,0.01816073891953565,0.02350868495190516
1746738815515230500,9.56023046875,0.00988309611082077,0.012660355971544048,-0.04922275272728875
1746738815525309400,9.570309326171875,0.045944005051255225,0.008929754037651581,-0.0666053012154065
1746738815535388400,9.580388427734375,0.01601823786497116,0.002047360413041315,-0.00359997898703441
1746738815545468700,9.59046875,0.02574409758746624,0.004519765279651619,0.06123568220734596
1746738815555547400,9.60054736328125,0.03891220671832561,0.0073258990375878056,0.09623656070083379
1746738815565626400,9.61062646484375,0.041754152145981785,0.020386698740161954,0.03920772819933481
1746738815575705600,9.62070556640625,0.0321767609834671,0.016710898587538395,-0.021466283270949498
1746738815585785300,9.630785400390625,0.04684066163003445,0.011816016385180409,-0.07229734797771088
1746738815595864600,9.640864501953125,0.0408557420015335,0.019269581510848365,-0.007537035308172926
1746738815605943600,9.650943603515625,0.04280044632852077,0.013190078934072516,0.05564362522079609
1746738815616023600,9.6610234375,0.028882980135083197,0.009009165103791747,0.08851610425030812
1746738815626102500,9.6711025390625,0.02633797182738781,0.0018869137208996107,0.054669893950968974
1746738815636181500,9.681181396484375,0.028581951361894606,0.017420387147320433,-0.02799696368132718
1746738815646261500,9.691261474609375,0.0441454311966896,0.01563870277876267,-0.059062429821491236
1746738815656340500,9.701340576171875,0.04280044632852077,0.011349175191565882,-0.022753382205730303
1746738815666419500,9.71141943359375,0.0317278481721878,0.013833554194582393,0.04347656462495215
1746738815676499700,9.721499755859375,0.050283495560288424,0.011605192354315659,0.096973788934201
1746738815686578400,9.731578369140625,0.03292436448037624,0.0037643946056399725,0.059582855232711875
1746738815696657400,9.741657470703124,0.025142040041089057,0.0024421353092213393,-0.01332611270416528
1746738815706736600,9.751736572265624,0.05581891785562038,0.003825994307987275,-0.06973034703391603
1746738815716816400,9.76181640625,0.04414660024046898,0.008111215042002731,-0.01954042977490462
1746738815726895600,9.7718955078125,0.024543489626049995,0.0013288003475259757,0.06284976634047926
1746738815736974600,9.781974609375,0.016462474501132963,0.009294479142973431,0.09988152960706502
1746738815747054600,9.7920546875,0.026036943054199218,0.013425547640782314,0.06016061858804896
1746738815757133600,9.802133544921874,0.03306932590901852,0.01137172951666871,-0.025795937372557816
1746738815767212300,9.81221240234375,0.024838088658452034,0.0005277639008825645,-0.08377355849887244
1746738815777292500,9.82229248046875,0.043693011254072184,0.01373032100732671,-0.03878880866752006
1746738815787371500,9.83237158203125,0.02887888848185539,0.012477414319803938,0.03964126077839173
1746738815797450500,9.842450439453126,0.03291910378336906,0.000609121470581158,0.08974835859215818
1746738815807529500,9.852529541015626,0.03680909695923328,0.01343575736589846,0.08115239794873633
1746738815817609500,9.862609375,0.05820610525310039,0.004024885301641188,-0.0038632786988746374
1746738815827688400,9.8726884765625,0.04833002340495586,0.013268327235477044,-0.06595602526012807
1746738815837767700,9.882767578125,0.02842939114868641,0.005278689892418333,-0.06007721462091431
1746738815847847400,9.892847412109376,0.043542789128422736,0.004658449947845656,0.02221939406003803
1746738815857926700,9.9029267578125,0.04518821824789047,0.010608338220516452,0.09112193936714902
1746738815868005600,9.913005615234376,0.035760464689135546,0.006196026216333848,0.09431494498848915
1746738815878085400,9.92308544921875,0.02812777785360813,0.02102907459719572,0.007780306012136861
1746738815888164600,9.93316455078125,0.04279167850017547,-0.0058204337987699546,-0.06292938004848547
1746738815898243300,9.943243408203125,0.04219312808513641,0.01516400707225548,-0.05094226999627426
1746738815908323600,9.953323486328125,0.03755377784669399,0.021325118951301555,0.017053910188795998
1746738815918402600,9.963402587890625,0.0387514631986618,0.012975769463111646,0.07626139277047478
1746738815928481500,9.9734814453125,0.024535890841484068,0.009970219555136281,0.1027408097620122
1746738815938560500,9.983560546875,0.030969723281264305,0.012530822724185417,0.02856516462387517
1746738815948640500,9.993640625,0.0218418294519186,0.009193331739882704,-0.05685341200251132
1746738815958719500,10.003719482421875,0.03755319332480431,0.018907136840047314,-0.08600903506651521
1746738815968798500,10.013798583984375,0.04279167850017547,0.011328246567968743,-0.007229768590442836
1746738815978878500,10.02387841796875,0.051769350203871724,0.019781773383263496,0.05189433742356486
1746738815988957400,10.03395751953125,0.0475789127767086,0.00999585175331449,0.0914894027063623
1746738815999036700,10.04403662109375,0.03815115921795368,0.02108023852885235,0.033767793034575874
1746738816009116400,10.054116455078125,0.03396130631268024,0.00970918486561859,-0.037872077415091916
1746738816019195600,10.064195556640625,0.0359065951615572,0.01752637740559876,-0.0818737436263822
1746738816029274400,10.0742744140625,0.04638122742474079,0.014177795346768107,-0.03579294218663126
1746738816039353600,10.084353515625,0.03052022594809532,0.002721311868561315,0.06842673535575158
1746738816049433300,10.094433349609375,0.036057401809096334,-0.0009635974640579661,0.10445155920265242
1746738816059512300,10.10451220703125,0.04862579148113727,0.0146605796032527,0.05036645200285129
1746738816069591600,10.114591552734375,0.029770868885517117,0.020155671029840595,-0.012720776355313136
1746738816079671300,10.12467138671875,0.034710078853368756,0.013394567980628925,-0.0698217607775703
1746738816089750500,10.13475048828125,0.028127193331718443,0.009310354278006706,-0.04498989179735072
1746738816099829500,10.14482958984375,0.040698505613207814,0.01112359312463086,0.04985305912061594
1746738816109909500,10.154909423828125,0.028727497312426565,-0.0019218377621640682,0.09847060336321592
1746738816119988500,10.164988525390624,0.03830547299683094,0.019674570698721798,0.06933653454389423
1746738816130067700,10.175067626953124,0.039652795952558516,0.018051022334210572,-0.010145719969226048
1746738816140147500,10.1851474609375,0.037706338059902186,0.01659463695535087,-0.0739563946305774
1746738816150226700,10.195226806640624,0.04548749345541,0.005394077595882118,-0.04010258554667234
1746738816160305400,10.205305419921874,0.03321662542521953,0.005695286748872604,0.05059388581686653
1746738816170384400,10.21538427734375,0.04458908331096172,0.01830990844912594,0.1039869738982059
1746738816180464400,10.22546435546875,0.0465332031160593,0.017160395920707377,0.08110413836021907
1746738816190543400,10.23554345703125,0.045187633726000785,0.020731918281526304,0.010060114911850541
1746738816200622600,10.24562255859375,0.042643794462084765,0.01870501328051323,-0.06748289690068923
1746738816210702300,10.255702392578126,0.04384147981405258,0.01540840572080342,-0.04701088536409661
1746738816220781600,10.265781494140626,0.030074820268154143,0.01285406561247073,0.026152934116683898
1746738816230860500,10.275860595703126,0.053716977140307424,0.00916307588222553,0.09277298537665046
1746738816240940500,10.2859404296875,0.03231763075888157,0.0008614665343891828,0.08317797635905444
1746738816251019500,10.29601953125,0.030071313136816023,0.007081788654229603,0.011822128748847171
1746738816261098500,10.306098388671876,0.040246670192480086,0.02044790914179757,-0.04606079983133823
1746738816271178500,10.316178466796876,0.030220950740575788,0.011668479406961705,-0.06687664723638445
1746738816281257500,10.326257568359376,0.03321253377199173,0.009674605600937502,0.00502522601718083
1746738816291336400,10.33633642578125,0.05446107350587844,0.020612075311120134,0.08078905366221442
1746738816301415400,10.34641552734375,0.043537528431415555,0.020990564651135354,0.10138397005926818
1746738816311495400,10.356495361328125,0.03186637986004352,0.019821087046922183,0.015166516406461595
1746738816321574400,10.366574462890625,0.026629648250341413,0.02206558260465972,-0.05507230987255461
1746738816331654000,10.37665380859375,0.036356092494726176,0.018454331021651157,-0.06270614748555235
1746738816341734000,10.38673388671875,0.030522564035654065,0.012078455297206529,-0.027331366778910158
1746738816351812900,10.396812744140625,0.04099719629883766,0.00020705945873341987,0.07406353566632605
1746738816361892000,10.40689208984375,0.03875321676433086,0.009595671171299181,0.09302666787677444
1746738816371971800,10.416971923828125,0.04608604387044906,0.015526650389167479,0.03552337713078595
1746738816382050800,10.42705078125,0.05162263520956039,0.01262285638070316,-0.05307552829845808
1746738816392129800,10.4371298828125,0.030074820268154143,0.02565449220840819,-0.07986158182006328
1746738816402208800,10.447208740234375,0.01915185971558094,0.012661123156524262,-0.015876390842022373
1746738816412289000,10.4572890625,0.046236850517988204,0.011443196450837422,0.06429285955457016
1746738816422367700,10.46736767578125,0.024838088658452034,-0.00605343598293548,0.09772850715848616
1746738816432447000,10.477447021484375,0.03441372625529766,0.02005724302351009,0.04753479964034631
1746738816442526700,10.487526611328125,0.01795242079794407,0.025773522328061516,-0.0458264065535739
1746738816452606000,10.49760595703125,0.052368485140800475,0.019110093799931928,-0.07335175240146927
1746738816462685000,10.507684814453125,0.029624153891205787,0.021914536211814266,-0.016879147276934237
1746738816472765000,10.517764892578125,0.04608545934855938,0.018004148701892698,0.0539254322592169
1746738816482844000,10.527843994140625,0.038005028745532035,0.017928991973295342,0.11588966620313003
1746738816492923000,10.5379228515625,0.03815408182740211,0.0109299428492086,0.060595219746185466
1746738816503003000,10.5480029296875,0.051173722398281093,0.012300267654610796,-0.029123693555779755
1746738816513081900,10.558081787109375,0.03052373307943344,0.01069686588734039,-0.07535068940003402
1746738816523160800,10.568160888671875,0.03261865953207016,0.01745142388968961,-0.045140972439525646
1746738816533239800,10.57823974609375,0.026333880174160003,-0.0017358153832377865,0.056622589788166804
1746738816543320000,10.588320068359375,0.033517069676518435,0.011443553785508265,0.07852985829226672
1746738816553398800,10.598398681640624,0.027531565526127812,0.010308625763223972,0.08021888909144327
1746738816563477800,10.608477783203124,0.02947451628744602,0.005425540171581087,-0.004073807043861597
1746738816573557800,10.618557861328124,0.036507483664155,0.005846744133671746,-0.07170750145893544
1746738816583636700,10.62863671875,0.0339630598783493,0.011781720248289638,-0.05432543702800758
1746738816593716000,10.638716064453124,0.0465332031160593,0.009482176314110984,0.017917650878662244
1746738816603795700,10.648795654296874,0.03785422209799289,0.009996426000405335,0.09453706330657005
1746738816613875000,10.658875,0.040996027255058284,0.0006634049453306943,0.08919899934739806
1746738816623954000,10.668953857421876,0.03695522743165493,0.007985067340862588,0.017767995008593423
1746738816634034000,10.679033935546874,0.054013914260268206,0.023662386809429153,-0.06166031909389421
1746738816644113000,10.68911279296875,0.0414443555444479,0.020999049351690335,-0.06185215187156572
1746738816654191900,10.69919189453125,0.036059155374765395,0.0007762028286640997,0.010847548095649107
1746738816664270800,10.709270751953126,0.03695815004110336,0.022598698534094727,0.08330812381105497
1746738816674351000,10.71935107421875,0.03172141843140125,0.005658865441087982,0.1006431524961721
1746738816684429800,10.729429931640626,0.039054245537519454,0.01711587635896867,0.031403429390257226
1746738816694508800,10.7395087890625,0.04608721291422844,0.02163982462339336,-0.06765108394129202
1746738816704588800,10.7495888671875,0.03172258747518063,0.0005901210842333966,-0.06979174923179671
1746738816714667800,10.759667724609375,0.029030279651284217,0.005565497773187235,-0.007384265032410621
1746738816724747000,10.7697470703125,0.04533902489542961,0.018118450130790005,0.0691023147960659
1746738816734826800,10.77982666015625,0.015709610307216643,0.006467536063271108,0.09586827537771314
1746738816744906000,10.789906005859375,0.032169746720790864,0.009494994125666562,0.02750966422157362
1746738816754985000,10.79998486328125,0.029025603476166725,0.00602114286099677,-0.04696443414017558
1746738816765065000,10.81006494140625,0.040697921091318125,0.0074387294577842105,-0.0804214350593742
1746738816775144000,10.82014404296875,0.03471358598470688,0.016806165380758464,-0.018893939431756733
1746738816785222700,10.83022265625,0.020498013627529142,0.0038385643827263264,0.05625150971976108
1746738816795302000,10.840302001953125,0.034712416940927505,0.005922312425044947,0.09957280158461071
1746738816805382000,10.8503818359375,0.04204349048137664,0.00603421525923477,0.047490613438747824
1746738816815460900,10.8604609375,0.04024783923625946,0.02281585754926782,-0.03256344047980383
1746738816825539800,10.870539794921875,0.026480595168471333,0.009141410898044705,-0.071690020601172
1746738816835619800,10.880619873046875,0.032167408633232114,0.013242635671794414,-0.02159616586146876
1746738816845698800,10.89069873046875,0.027229952231049535,0.009077582705992971,0.045682842497574164
1746738816855778000,10.900778076171875,0.0357581266015768,0.00801137710494222,0.09468836314445361
1746738816865857800,10.91085791015625,0.050123921084403986,0.011221614705584942,0.05303161609149538
1746738816875937000,10.92093701171875,0.041295886984467504,0.014504766845388803,-0.045902430931851264
1746738816886016000,10.93101611328125,0.043991117417812343,0.01425497278580442,-0.06760219416511244
1746738816896094700,10.9410947265625,0.025737083324789998,0.01066310403998941,-0.039356014096224676
1746738816906175000,10.951175048828125,0.044592005920410155,0.011859197939781005,0.043894881368568166
1746738816916253700,10.961253662109375,0.027830840733647343,0.012625662542431382,0.08853454408929683
1746738816926333000,10.9713330078125,0.048480830052495,0.021804970323538873,0.07045537337283603
1746738816936413000,10.981412841796875,0.034414310777187346,0.02185791522032814,-0.0029658732014242557
1746738816946492000,10.991491943359375,0.04204758213460445,0.011701553984434575,-0.07167096884083002
1746738816956571000,11.00157080078125,0.03037643356323242,0.010847355157759739,-0.06085391634814441
1746738816966651000,11.01165087890625,0.03800795135498047,0.021293235108850058,0.030904238563310354
1746738816976729900,11.021729736328124,0.032170915764570235,0.0025413487668411107,0.08685477430881
1746738816986808800,11.031808837890624,0.04129822507202625,0.002809804715233622,0.08079405863089487
1746738816996888800,11.041888916015624,0.03052373307943344,0.011434118095238227,0.0031571579898241903
1746738817006967800,11.0519677734375,0.04144786267578601,0.011254177826404338,-0.06796109060538001
1746738817017047000,11.062047119140624,0.042344519254565234,0.013919336206826846,-0.05186320249978452
1746738817027125800,11.072125732421876,0.028577275186777114,0.012629958549991716,0.017779036992415783
1746738817037206000,11.0822060546875,0.036360184147953986,0.007672452019513002,0.07524346616589464
1746738817047284700,11.09228466796875,0.030523148557543754,0.016279418684961272,0.07547437971178442
1746738817057363700,11.10236376953125,0.0230400993257761,0.025885102076909968,0.018918571549514308
1746738817067444000,11.11244384765625,0.032165655067563054,0.007398415713704889,-0.06300107531151734
1746738817077522700,11.122522705078126,0.03740121763348579,0.010293798086850438,-0.035558813770348204
1746738817087602000,11.132601806640626,0.02079085909426212,0.009581592413596808,0.007992597055947407
1746738817097681700,11.142681640625,0.03455868768393993,0.00954632359574898,0.06970618984019383
1746738817107761000,11.152760986328126,0.03844984990358352,0.0158399187310657,0.0862482049840968
1746738817117840000,11.16283984375,0.04757774373292923,0.010285528015426825,0.026249681622581556
1746738817127918800,11.1729189453125,0.0180991357922554,0.006438657028658781,-0.05437935003917664
1746738817137998800,11.182998779296875,0.04563245488405227,0.00824989913937461,-0.0678442592926789
1746738817148078000,11.193078125,0.018249357917904854,0.011766224709991365,0.0028540377242490646
1746738817158156800,11.20315673828125,0.03575637303590774,0.004237450910909683,0.08117764198784716
1746738817168237000,11.213237060546875,0.03066752546429634,0.014228401014354313,0.09805073398333042
1746738817178315800,11.223315673828125,0.02453063014447689,0.01279388497400796,0.0430085361212492
1746738817188394800,11.233394775390625,0.045779169878363606,0.014816680055484175,-0.049589905539248136
1746738817198475000,11.24347509765625,0.0375491016715765,-0.00308258007489494,-0.0586070233373437
1746738817208553700,11.2535537109375,0.027373744615912434,0.004281596584134967,-0.007584518578555435
1746738817218633000,11.263633056640625,0.027673604345321654,0.005365489680570317,0.05818540039178915
1746738817228712700,11.273712646484375,0.037249826464056966,-0.0013218528710422105,0.08398242460973561
1746738817238792000,11.2837919921875,0.05086684840619564,0.00485143692792044,0.027303510657604783
1746738817248871000,11.293870849609375,0.05086567936241627,0.0139897436950705,-0.03977219368168153
1746738817258949600,11.30394970703125,0.02931727989912033,0.011594532821339088,-0.05559753018990159
1746738817269030000,11.31402978515625,0.04562953227460384,0.01547684387260233,-0.0038167270102538167
1746738817279108900,11.32410888671875,0.0436836589038372,0.012035785199259408,0.06058784015732817
1746738817289187800,11.334187744140625,0.0338064080119133,0.010072163825959433,0.10259866134496405
1746738817299267800,11.344267822265625,0.05221183327436447,0.01058598824974615,0.043931587516609576
1746738817309346800,11.354346923828125,0.04173778553307056,0.006862799012396135,-0.03036967502888292
1746738817319425800,11.36442578125,0.03590308803021908,0.004411331331715337,-0.07613056033188477
1746738817329506000,11.374506103515625,0.024832243439555167,0.008804217687042546,-0.018129905389854685
1746738817339584500,11.38458447265625,0.026778116810321807,0.016372104220383335,0.06395559955737554
1746738817349663500,11.39466357421875,0.02917173394858837,0.019503634578606578,0.10293673419291154
1746738817359743500,11.404743408203124,0.03725158002972603,0.009997966078587342,0.05736842145309783
1746738817369822500,11.414822509765624,0.023185645276308058,0.006635693421121686,-0.024929082276998086
1746738817379901700,11.424901611328124,0.04009586354494095,0.018874405897513498,-0.0696477467843797
1746738817389980700,11.434980712890624,0.04413607884645462,0.0020017625682463404,-0.03013740064296871
1746738817400060400,11.445060302734374,0.04009586354494095,0.0016464577409962657,0.047929050521785393
1746738817410139600,11.4551396484375,0.03979658833742142,0.02472324609014904,0.09076178255155683
1746738817420218400,11.46521826171875,0.05116670813560485,0.010716441662423313,0.06283023052294738
1746738817430298600,11.475298583984374,0.033360417810082435,0.013517222820984897,-0.018909666723851113
1746738817440377600,11.485377685546876,0.04533201063275337,0.011812670225690818,-0.062072151297796516
1746738817450456600,11.49545654296875,0.02932195607423782,0.017884821754717267,-0.020310564764030276
1746738817460536600,11.50553662109375,0.026481179690361022,0.011863694876740919,0.04264099058364518
1746738817470615600,11.515615478515626,0.02618190448284149,0.015046732801559846,0.08528214556407183
1746738817480694500,11.525694580078126,0.05281681343019008,0.021422775206074583,0.06094525702656246
1746738817490773500,11.5357734375,0.05131985287070274,0.015828172352700492,-0.012632915408769622
1746738817500853500,11.545853515625,0.045483401802182195,-0.0035469176425249314,-0.05711781682604924
1746738817510932500,11.555932373046875,0.0528162289083004,0.0029828420317120617,-0.029968446417385712
1746738817521011700,11.56601171875,0.03291442760825157,0.004100603719241917,0.03575132240145467
1746738817531091500,11.576091552734376,0.05221709397137165,0.01002648663688451,0.08430186582244932
1746738817541170700,11.586170654296875,0.04308920014202595,0.007558919488062383,0.06511239577652886
1746738817551249400,11.59624951171875,0.05535889912843704,0.027446787019236942,-0.020578166191652415
1746738817561329700,11.60632958984375,0.04503331994712353,0.023099654343153815,-0.056391794973285864
1746738817571408400,11.616408447265625,0.03351297802329063,0.011174903186759911,-0.0398345000618603
1746738817581487400,11.6264873046875,0.02258943294882774,0.010233569499326403,0.04080755547825247
1746738817591567600,11.636567626953125,0.04772855038046837,0.009285774105065502,0.08450451225508004
1746738817601646300,11.646646240234375,0.03156827369630336,-0.0007824459106050199,0.06098514151237905
1746738817611725600,11.6567255859375,0.04039630779623985,0.013622099976055324,0.004288655370939523
1746738817621804500,11.666804443359375,0.04294073158204555,0.025881620061746796,-0.05110955285457894
1746738817631884500,11.676884521484375,0.017052841609716415,0.021885753075324463,-0.03966329908026382
1746738817641963500,11.686963623046875,0.03575695755779743,0.021594789038423913,0.012716301109595223
1746738817652042800,11.697042724609375,0.04907470429241657,0.018955158966546877,0.08533220438403077
1746738817662122500,11.70712255859375,0.04293897801637649,0.016873037196556105,0.07219389673639089
1746738817672201700,11.71720166015625,0.03650456105470657,0.00746251047970436,0.005470165906241164
1746738817682280400,11.727280517578125,0.041591655060648915,0.00458589331417752,-0.05969205122822895
1746738817692360700,11.737360595703125,0.03485854741334915,0.014334997485764323,-0.05168271310003474
1746738817702439400,11.747439453125,0.03530746022462845,0.003059382433220162,0.022809870766475795
1746738817712518400,11.757518310546875,0.039048400318622584,0.013796627709188032,0.06743048172686249
1746738817722598700,11.7675986328125,0.023036007672548292,0.00007843210613937116,0.09088243152284994
1746738817732677400,11.777677490234375,0.04682780214846134,0.009877305690851062,0.01969236893360503
1746738817742756600,11.787756591796875,0.03156476656496525,0.006662383352758479,-0.043596455544419585
1746738817752835600,11.797835693359374,0.040245501148700714,0.002590525095743942,-0.04196877214419655
1746738817762915600,11.80791552734375,0.04039630779623985,0.0056920878614997485,0.005489610392227768
1746738817772994600,11.81799462890625,0.024236615633964537,0.00947912355721055,0.09234818409332074
1746738817783073500,11.828073486328124,0.04398819480836391,0.007493297772790538,0.08415517822760157
1746738817793153500,11.838153564453124,0.04623217434287071,0.0014226092609547776,0.006541859391517937
1746738817803232500,11.848232421875,0.05162029712200165,-0.00020830328021547755,-0.054761125031532715
1746738817813311500,11.8583115234375,0.04518646468222141,0.01246953925731359,-0.04735483083040453
1746738817823391500,11.8683916015625,0.032168577677011485,0.01910767123069381,0.004225983664579689
1746738817833470500,11.878470458984374,0.04503741160035133,0.01610518549606204,0.06665298541518859
1746738817843549400,11.888549560546876,0.04039806136190891,0.0035756494050205216,0.08044747368292883
1746738817853629700,11.898629638671874,0.019448796835541723,0.010259587573283352,0.027932428811443966
1746738817863708400,11.90870849609375,0.03082125472128391,0.012114252696372568,-0.04419011972178705
1746738817873787600,11.91878759765625,0.031122868016362187,0.003735945970934699,-0.06267452850458212
1746738817883866600,11.92886669921875,0.03636076866984367,0.012631262307800352,0.006371781787928193
1746738817893946600,11.938946533203126,0.041598669323325156,0.0014021304452180629,0.05885070503326133
1746738817904025600,11.949025634765626,0.036361937713623046,0.009397876727010588,0.08485088714049198
1746738817914104600,11.9591044921875,0.03920505218505859,0.007486991900412249,0.04008120483192615
1746738817924184600,11.9691845703125,0.03396832057535648,0.006198726775962859,-0.044062337756808845
1746738817934263600,11.979263671875,0.038458033210039134,0.016829307652683926,-0.055954289472009984
1746738817944342500,11.989342529296875,0.032472529059648515,0.022440393566689452,0.008370508723938836
1746738817954422500,11.999422607421875,0.022746669337153434,0.0035813062526052816,0.0608543638727162
1746738817964501500,12.00950146484375,0.04459259044229984,0.007331710007155197,0.0882144726889208
1746738817974580500,12.01958056640625,0.03785714470744133,-0.0035458131016494004,0.03753064356627874
1746738817984659500,12.029659423828125,0.043244682964682576,0.01823420715618995,-0.031217670160345733
1746738817994739500,12.039739501953125,0.03681085052490234,0.014807403053774032,-0.07173789659719913
1746738818004818400,12.049818359375,0.04174947597086429,-0.004170101887788041,-0.009524647195124998
1746738818014897700,12.059897705078125,0.05372106879353523,0.0039926030253234785,0.07453924515298567
1746738818024977400,12.069977294921875,0.03995382472574711,0.015143799967865924,0.0882093855218496
1746738818035056600,12.080056640625,0.0480319172412157,0.013714634814427699,0.040099297611042854
1746738818045135600,12.090135498046875,0.029627076500654218,0.00005709420305502135,-0.037954147941665725
1746738818055215600,12.100215576171875,0.04159983836710453,0.0093191831843229,-0.05499896150855347
1746738818065294600,12.110294677734375,0.02783493238687515,-0.003091814264943241,-0.018978603774216025
1746738818075373600,12.12037353515625,0.04908288759887218,0.028302540765469893,0.06113816751646809
1746738818085453600,12.13045361328125,0.020202245551347732,0.021673564779502337,0.08389336721994914
1746738818095532500,12.140532470703125,0.04160159193277359,0.007916810139687732,0.03789017019420862
1746738818105611500,12.150611572265625,0.027685294783115384,0.008425789995820377,-0.03647721639005467
1746738818115690500,12.1606904296875,0.03591711655557155,0.007468427051370963,-0.07498709851833991
1746738818125770500,12.1707705078125,0.0339718277066946,0.008538981746442732,-0.017070249402243644
1746738818135849500,12.180849365234375,0.028885318222641943,0.007848813233416876,0.03744795198519714
1746738818145928700,12.1909287109375,0.028436405411362647,0.00030526027784508186,0.07678241183673963
1746738818156008400,12.201008544921875,0.03636602936685085,0.01389268794520758,0.05086326820962131
