time,seconds_elapsed,z,y,x
1746575958221476000,0.02647607421875,0.009726444244384765,0.03782616504728794,-0.005121288536489009
1746575958231555000,0.03655517578125,0.0023287352085113525,0.016487608942389487,0.02974469326464459
1746575958241633000,0.046633056640625,-0.025636253298819064,-0.0024298574954271317,0.03842579317456111
1746575958251711200,0.056711181640625,-0.09424129523038864,-0.0028945523977279663,0.03671624931031838
1746575958261789200,0.0667890625,-0.11373100859820842,0.009601941081881523,0.011551686910167336
1746575958271867100,0.0768671875,-0.09506751692146062,-0.001952303111553192,-0.015108593940455465
1746575958281945000,0.086945068359375,-0.07920505414009094,-0.0072188453376293175,0.003327135128714144
1746575958292023000,0.09702294921875,-0.11356734246909618,0.01803074673116207,-0.0368622336522676
1746575958302101200,0.107101318359375,-0.08144786463081836,0.03293371683061123,-0.07181262406753376
1746575958312179200,0.11717919921875,-0.02448825230747461,0.05240121836662292,-0.047688309701625256
1746575958322257200,0.127257080078125,0.03736176240593195,0.029418986707925796,-0.006791614635195582
1746575958332335000,0.137335205078125,0.07414952431619166,0.0015209259569644927,0.007592774950247258
1746575958342413000,0.1474130859375,0.030849896293878555,-0.014477438163757324,0.005011398421227931
1746575958352492000,0.157491943359375,0.01163549273610115,0.004533551776409149,-0.010828012278117239
1746575958362570000,0.167570068359375,0.011754150679707526,0.029503742381930348,-0.034599878210853786
1746575958372648000,0.17764794921875,0.013624620726704596,0.038412440502643586,-0.015274305896181612
1746575958382726000,0.187725830078125,0.06550853722095488,0.042806291547417635,0.0031719628333114086
1746575958392803800,0.197803955078125,0.14083821123242377,0.02960311110317707,-0.0021386925291270015
1746575958402882000,0.207882080078125,0.07071107430011034,-0.004969020584225654,0.019189470045920462
1746575958412960000,0.2179599609375,0.04033405621498823,-0.01575637205839157,0.023809037871658802
1746575958423038000,0.228037841796875,-0.0379541753411293,0.005348959812521934,-0.015035017247591168
1746575958433116000,0.238115966796875,-0.10643325280547142,0.007434533914923667,-0.020853512534312904
1746575958443193900,0.24819384765625,-0.06984627416431903,0.02039630681872368,0.016859346597921102
1746575958453272000,0.25827197265625,-0.08120499578565359,0.010143792873620987,0.022129195025935768
1746575958463350000,0.26835009765625,0.025909809543192386,0.01017068088054657,0.016476046368759125
1746575958473429000,0.278428955078125,0.056038405825197694,-0.01267243456840515,0.0061008376257494085
1746575958483507000,0.2885068359375,-0.005665770676732063,-0.01671148082613945,0.017806582586467265
1746575958493585200,0.298585205078125,-0.04575461995899677,0.008557400465011597,-0.02982413344271481
1746575958503663000,0.3086630859375,-0.06360270359963179,0.03845277251303196,-0.045141529561951756
1746575958513741000,0.318740966796875,-0.05122165319323539,0.033488428103923794,-0.041042825538851316
1746575958523819000,0.328819091796875,-0.02968377512395382,0.020270050090551377,-0.03870331320799887
1746575958533897000,0.33889697265625,0.0006447276443243027,-0.0004284545451402664,-0.028577202121540902
1746575958543975200,0.34897509765625,0.029517186385393142,0.015719547179341316,0.010706797051243484
1746575958554053000,0.35905322265625,0.013684241959452628,0.03140753017663955,0.027510760200116783
1746575958564131000,0.369131103515625,-0.04061082732975483,0.04420739051699638,0.009750610571261495
1746575958574209000,0.379208984375,-0.029036124870181083,0.0024421324551105496,-0.03900839710179716
1746575958584287000,0.389286865234375,-0.022638532787561415,0.01771218230128288,-0.02373767140218988
1746575958594366000,0.399365966796875,-0.025525194139778613,0.017637948021292687,0.0020129289912991224
1746575958604444000,0.40944384765625,0.005272971966862678,0.031924247527122494,0.012307364115677772
1746575958614521900,0.41952197265625,0.019362872117757796,0.025326748958230016,0.01123982621571049
1746575958624599800,0.429599853515625,0.011676701529324054,0.01412029528915882,-0.008171689083054661
1746575958634678000,0.439677978515625,0.007127659922838211,-0.02289922955036163,-0.034336697230022396
1746575958644756000,0.449755859375,-0.05157236632704734,-0.024091654205322263,-0.012151881293021142
1746575958654834000,0.459833984375,-0.10638473748862742,-0.004444119927287101,-0.03767490174202248
1746575958664912000,0.469911865234375,-0.11254852081537246,0.021128712746500966,-0.02908816558467224
1746575958674989800,0.47998974609375,-0.050237026070058345,0.050123921084403986,0.011168569344095885
1746575958685068000,0.490068115234375,0.007504384280741214,0.04250467825233936,0.016386614519637077
1746575958695146000,0.50014599609375,0.11306436138302087,0.031736616000533104,-0.018044391664024443
1746575958705225000,0.510224853515625,0.1284101068139076,0.009675590839982031,0.016542079075984657
1746575958715303000,0.520302978515625,0.09713877023756504,0.007976970228552817,0.038047516180388624
1746575958725381000,0.530381103515625,0.03221650847196579,0.02393850947022438,0.01452730518747121
1746575958735459000,0.540458984375,-0.01250292322039604,-0.0009369885891675948,-0.04889690004009753
1746575958745537000,0.550537109375,-0.022086451862752435,-0.002087327668070793,-0.05753903791280463
1746575958755615000,0.560614990234375,-0.03345160322487354,-0.0054985974162817,-0.012372739235777407
1746575958765693000,0.57069287109375,-0.0352051688939333,-0.007122399225831032,0.01591969112763181
1746575958775771000,0.58077099609375,-0.043402211613953114,0.007069207733869552,0.029070867389999328
1746575958785849000,0.59084912109375,-0.05024433259367943,0.005629530319571495,0.040399504400324075
1746575958795927000,0.600927001953125,-0.07051964338123798,0.0015004676908254623,0.0338482743922621
1746575958806005000,0.6110048828125,-0.1054819434300065,0.010586860466003418,0.005271620259992778
1746575958816084000,0.621083984375,-0.10795651684999465,0.006819032365083694,-0.041657139778602865
1746575958826162200,0.631162109375,-0.031385610605776305,0.014466332247853278,-0.05373107873089611
1746575958836240100,0.641240234375,0.0487204840272665,0.01644143171310425,-0.014688231370225548
1746575958846318000,0.651318115234375,0.10192834260165691,0.02234685636460781,0.017697276993095874
1746575958856396000,0.66139599609375,0.12501315785199402,0.023742110115289688,-0.0022586291143670677
1746575958866474000,0.671473876953125,0.0769040837213397,0.01490939984023571,-0.01547289720820263
1746575958876552200,0.68155224609375,0.007697276504337787,0.03225041074156761,-0.062340044986363495
1746575958886630100,0.691630126953125,-0.018546879559755324,0.02360299390554428,-0.05792202761471271
1746575958896708000,0.7017080078125,-0.014882511833310127,0.043166357031464576,-0.01556086775260046
1746575958906786000,0.7117861328125,0.0068257543668150894,0.025507950744032858,0.030926596525590867
1746575958916864000,0.721864013671875,0.03231792301982641,-0.004290975192189217,0.06281434796722606
1746575958926943000,0.73194287109375,-0.020091770914196967,-0.019154197803139685,0.03956919105602428
1746575958937017600,0.742017578125,-0.09259498932808637,-0.0038917467415332794,0.026151892937067895
1746575958947095600,0.752095458984375,-0.1368742760375142,0.005009937116503715,-0.0021074754069559274
1746575958957173500,0.762173583984375,-0.12881985665857792,0.020701427245140073,-0.05563448293311521
1746575958967251500,0.77225146484375,-0.09288695801198482,0.01768704786002636,-0.08117385172871873
1746575958977329400,0.782329345703125,-0.04012275155186653,0.016354922473430632,-0.045339938210882245
1746575958987407600,0.79240771484375,0.007872340810298918,0.019566285735368727,-0.015565543927717952
1746575958997485600,0.802485595703125,0.04155599922537803,0.03971709336042404,0.0002968640547245741
1746575959007563500,0.8125634765625,0.04881751466095447,0.0270440742701292,0.017873492076527327
1746575959017641500,0.822641357421875,0.005175356811285018,0.02411269699335098,-0.013522110200300813
1746575959027719400,0.832719482421875,-0.012779986596107483,0.02419160744845867,-0.04401247073309496
1746575959037797600,0.842797607421875,0.00627981092184782,0.04242927492856979,-0.03039006022978574
1746575959047876600,0.852876708984375,0.026658289822936058,0.018034838384389875,-0.009883735431637614
1746575959057954600,0.86295458984375,0.056577627268433565,-0.003590717968344688,-0.00646066564777866
1746575959068032500,0.873032470703125,0.028857261171936988,-0.006150339323282242,0.010729027149360627
1746575959078110700,0.88311083984375,0.00020487492233514784,0.0076233344852924345,0.0014710954658687114
1746575959088188700,0.893188720703125,-0.024863223099708554,0.02664952199459076,-0.0149967675964348
1746575959098266600,0.9032666015625,-0.06135375562906265,0.02849894925355911,-0.02704122472591698
1746575959108344600,0.913344482421875,-0.039355274310708045,0.029466917502880094,-0.009163494865689426
1746575959118422500,0.923422607421875,0.021102993783354757,0.019427754047513006,0.017864596384018657
1746575959128500700,0.933500732421875,0.023418869510293004,0.016758827099204062,0.03463918730793521
1746575959138578700,0.94357861328125,0.02725976284742355,0.0051554830670356745,0.058062367667164654
1746575959148656600,0.95365673828125,-0.012912673065066337,0.0058253451526165,0.0230093936602585
1746575959158735600,0.963735595703125,-0.01943944448530674,0.0015063129097223282,-0.018035587303061037
1746575959168813800,0.973813720703125,-0.0026718495577573776,-0.006758242088556289,-0.03181203759061173
1746575959178891800,0.983891845703125,-0.03412555696368217,0.004613046753406525,-0.06169690651092678
1746575959188969700,0.9939697265625,-0.02931727989912033,0.0053583121627569195,-0.05026575897419825
1746575959199047700,1.004047607421875,0.017090251010656355,0.00789630620777607,-0.04121009013084694
1746575959209125600,1.014125732421875,0.020052607947587966,-0.002069207489490509,-0.0170517273648642
1746575959219203600,1.02420361328125,-0.04520283129513263,0.02282441074848175,0.01605714510325342
1746575959229281500,1.034281494140625,-0.08768295962810516,0.04856617024838924,-0.009356295757740735
1746575959239359700,1.04435986328125,-0.067556117400527,0.03733808926939964,-0.02303187948670238
1746575959249437700,1.054437744140625,-0.03913023338317871,0.020755787780880927,-0.009298318492807447
1746575959259515600,1.064515625,0.008569675424695014,0.03228957370817661,0.012365761505719273
1746575959269593600,1.074593505859375,0.038974750560522076,0.03764437873959541,0.0168589995380491
1746575959279672600,1.084672607421875,-0.009838087925314903,0.0021750059515237806,0.012790599321667104
1746575959289750500,1.09475048828125,-0.05732610754817724,-0.01083119061589241,-0.01113497760174796
1746575959299828500,1.104828369140625,-0.10863894615620374,-0.009692541974782943,-0.06092924660667777
1746575959309906700,1.11490673828125,-0.07461947991549968,-0.0021218144595623015,-0.048359395629912615
1746575959319984600,1.124984619140625,-0.01665653576850891,0.00614215601682663,-0.004890603319462388
1746575959330062600,1.1350625,0.04772533551007509,0.02182137118577957,0.02681647605933249
1746575959340140500,1.145140625,0.09541735327243804,0.021633739659190177,0.013971424870379268
1746575959350218500,1.155218505859375,0.13303250591754912,0.038787119033932685,0.022701058363448826
1746575959360296400,1.16529638671875,0.10008183795213699,0.04951952545046806,0.05174516561068594
1746575959370374700,1.175374755859375,0.034091070172190666,0.02289279980957508,0.0249975352701731
1746575959380452600,1.18545263671875,-0.03361643839776516,0.013119593814015387,-0.031636260898597536
1746575959390531600,1.195531494140625,-0.08595920457541942,0.009897709158062934,-0.048844603597279636
1746575959400609500,1.205609619140625,-0.11935001752376556,0.009812368962168694,-0.02854317198777571
1746575959410687700,1.215687744140625,-0.08465425945669412,-0.010073650246858596,-0.031154486997332424
1746575959420765700,1.225765625,-0.06880027224272489,-0.01677636275589466,-0.039438586946297434
1746575959430843600,1.23584375,-0.06641220806241036,-0.024141338565945625,-0.025989596781134605
1746575959440921600,1.245921630859375,-0.0684627108514309,-0.003007365122437477,-0.027908198552485552
1746575959450999600,1.25599951171875,-0.04288227939307689,0.01555938818156719,-0.008870558067411183
1746575959461077800,1.266077880859375,-0.020433716219663618,0.026358430093526838,-0.01384290311988443
1746575959471155700,1.27615576171875,0.044055707086622715,0.03347732218801975,0.0025653569759801027
1746575959481233700,1.286233642578125,0.14856851322352885,0.037010757011175156,0.03598835516087711
1746575959491311600,1.2963115234375,0.15501403610110281,0.03347498410046101,0.0668935070396401
1746575959501389600,1.3063896484375,0.16095628563165665,0.0021656536012887953,0.06761544637233019
1746575959511468500,1.316468505859375,0.048529929891228674,0.02964052050411701,0.04267258216515183
1746575959521546500,1.32654638671875,-0.005509118810296058,0.03091244013607502,-0.026037344912998375
1746575959531624400,1.33662451171875,-0.08038023539930582,0.0030301614761352536,-0.06281306932559237
1746575959541702400,1.346702392578125,-0.1532324133813381,-0.01198971300125122,-0.04686097376570105
1746575959551780600,1.356780517578125,-0.17650982859432696,0.027355039915442466,-0.08017948866281657
1746575959561858600,1.366858642578125,-0.12293547479510307,0.00923603037893772,-0.09497943677920848
1746575959571936500,1.3769365234375,-0.09497370115816593,0.015252514189481734,-0.02187355803074315
1746575959582014500,1.387014404296875,-0.047345104020833965,0.031933015355467796,-0.003347556862235069
1746575959592092400,1.397092529296875,0.05323650014698505,0.02682897021472454,0.03340489627262577
1746575959602170600,1.407170654296875,0.09373714510053395,0.022469605961441992,0.036854068612121045
1746575959612248600,1.41724853515625,0.13186755379140377,0.00877425808608532,0.045340340069681406
1746575959622326500,1.427326416015625,0.1468999954894185,0.004188099339604377,0.03019126798836514
1746575959632405500,1.437405517578125,0.12460808418244122,0.013669628912210463,0.013167798603605478
1746575959642483700,1.447483642578125,0.025644436605274677,0.009105097475647925,-0.032977263711392875
1746575959652561700,1.457561767578125,-0.039618309161067004,0.014027356308698653,-0.07656370931845158
1746575959662639600,1.4676396484375,-0.10952040516585111,-0.0002694645911455154,-0.06458336693374439
1746575959672717600,1.477717529296875,-0.14710107101947067,-0.004866144731640816,-0.05390323869371787
1746575959682795500,1.48779541015625,-0.14961363836228847,0.007031213811039924,-0.02419526071026921
1746575959692873700,1.497873779296875,-0.1429459971666336,0.0015887304961681365,-0.02996962459431961
1746575959702951700,1.50795166015625,-0.07703764697313309,-0.0005436053574085235,-0.023921083411388096
1746575959713029600,1.518029541015625,-0.015737082836031913,0.02723229031860828,0.00041146687772125004
1746575959723107600,1.528107666015625,0.05425999797582626,0.037867666101455685,0.008796780445147305
1746575959733185500,1.538185546875,0.10618833813369273,0.02975333322882652,0.014849760341178625
1746575959743263700,1.548263671875,0.1259048459947109,0.0026940613895654678,0.010602898285351693
1746575959753342700,1.5583427734375,0.11421674628853798,0.002664250773191452,0.03547298951726407
1746575959763420700,1.568420654296875,0.05049859961569309,0.013738017973303793,0.047767567216604946
1746575959773498600,1.57849853515625,0.03267740398198366,0.009255904123187065,0.01575980612449348
1746575959783576600,1.58857666015625,-0.025698797141015528,0.007698153287172317,0.00650110725602135
1746575959793654800,1.59865478515625,-0.05972469312250614,0.014921090278029441,0.0226954688728787
1746575959803732700,1.608732666015625,-0.07834113078713417,-0.015462357547879219,0.018652330961916593
1746575959813810700,1.618810791015625,-0.086230422732234,-0.00884089358150959,0.014408464580774306
1746575959823888600,1.628888671875,-0.08144464976042509,-0.015180033475160597,0.01538068888010457
1746575959833966600,1.638966552734375,-0.11376841799914836,-0.004946224230527877,-0.019618582178186624
1746575959844044800,1.649044921875,-0.0829454097121954,0.00838905816078186,-0.052770033412706106
1746575959854122800,1.659122802734375,-0.024921675288677215,0.013356325179338454,-0.04251311728712171
1746575959864200700,1.66920068359375,0.04010141650289297,0.03649930035769939,-0.028363851631805298
1746575959874279400,1.679279541015625,0.09949965415000915,0.049985973918437954,-0.011925470392312855
1746575959884357600,1.689357666015625,0.11400748745203018,0.03214052062630653,0.002644377028942108
1746575959894435600,1.699435546875,0.07116144841611385,0.03312485548853874,0.0035277540010400115
1746575959904513500,1.709513427734375,0.025936405289173126,0.037382512933015824,0.018580379970557986
1746575959914591500,1.719591552734375,-0.041920740884542465,0.022442133432626722,0.012811404647678135
1746575959924669400,1.72966943359375,-0.08869505928009748,0.007924947780370712,-0.003937741307727992
1746575959934747600,1.73974755859375,-0.09972790994793176,-0.013358078745007515,-0.011395400369912385
1746575959944826400,1.749826416015625,-0.06909750162363051,-0.005171849679946899,-0.019574560373369604
1746575959954904300,1.759904296875,-0.042241643401980396,-0.0009252981513738632,-0.005626772106904536
1746575959964982500,1.769982421875,-0.042970542198419566,0.012349193963408469,-0.011965711071155965
1746575959975060500,1.780060546875,-0.04275952979624271,0.015133856245875358,-0.03775848837224766
1746575959985138400,1.790138427734375,-0.04093991315364837,0.018013211074471472,-0.03421124421944841
1746575959995217400,1.800217529296875,-0.001980944684147835,0.013925649499893188,0.013218852937407792
1746575960005295400,1.81029541015625,0.016125789892673492,0.019370470902323723,0.041014001303166146
1746575960015373600,1.82037353515625,0.03463701361715794,-0.0033148236364126202,0.018116580117400735
1746575960025451500,1.830451416015625,0.020310966622829437,0.007520458632707595,0.0022806034841574728
1746575960035529500,1.840529541015625,0.03123129682689905,0.0034019173979759213,0.007042630254197865
1746575960045607400,1.850607421875,0.03274140912890434,-0.015233809489011764,-0.017658954276703297
1746575960055685400,1.860685302734375,-0.0511953497081995,0.021429741519689557,-0.018186996738798915
1746575960065763600,1.870763671875,-0.047424014475941655,0.021892098334431648,-0.051458768151048564
1746575960075841500,1.880841552734375,-0.021388824987411497,0.008829203143715858,-0.030923071127943694
1746575960085919500,1.89091943359375,-0.005532499685883522,0.0059475102275609966,0.003815831961110234
1746575960095997400,1.90099755859375,-0.004149813155829906,0.018448095360398292,0.017689678208529947
1746575960106075400,1.911075439453125,-0.0005441898792982101,0.007233458384871483,-0.019363127846084533
1746575960116154400,1.921154296875,-0.014618015678226947,0.01659457644820213,-0.024017310327477753
1746575960126232300,1.931232421875,-0.018194997382164,0.015399229183793066,-0.015302052419632672
1746575960136310300,1.941310302734375,0.012027122402191162,0.01847965954244137,0.004700651971623301
1746575960146388200,1.95138818359375,-0.008032792069017887,0.03114683341383934,0.016862397071532906
1746575960156466400,1.961466552734375,0.0010249591335654258,0.017817980763316154,0.004971614400111139
1746575960166544400,1.97154443359375,0.02196136417835951,-0.004155366113781929,-0.012224398539960383
1746575960176622300,1.981622314453125,-0.03963876742720604,0.012642039430141448,0.006993092024046927
1746575960186700300,1.9917001953125,-0.03739244980514049,0.021483517533540726,-0.014204831767454743
1746575960196778200,2.0017783203125,-0.039265842461585994,0.05485562578141689,-0.042258393607381727
1746575960206856400,2.0118564453125,-0.010557634371519088,0.032682372418045995,-0.056600003497023134
1746575960216934400,2.021934326171875,0.013799392771720886,0.024399697241187093,-0.03776738406475633
1746575960227012400,2.032012451171875,0.04122515983581543,0.03235504015982151,0.0023497049313038585
1746575960237091300,2.04209130859375,0.03664455404728651,0.02609656428694725,0.013906049750279634
1746575960247169500,2.05216943359375,0.020564649122953412,0.004584989702701568,0.011602595113497228
1746575960257247500,2.06224755859375,0.0016115268498659134,0.001689268261194229,-0.006644844841957092
1746575960267325400,2.072325439453125,-0.008424421735107898,0.0018880057036876677,0.003263330911193043
1746575960277403400,2.0824033203125,-0.013095628416538238,0.005467033234238625,0.00852643907116726
1746575960287481300,2.0924814453125,-0.018743278914690017,0.02653612474799156,0.0019919044695794583
1746575960297559600,2.1025595703125,-0.04747194527089595,0.018314239847660063,-0.02304205382084474
1746575960307637500,2.112637451171875,-0.05922054299265146,0.017225860089063644,-0.019300364808179437
1746575960317715500,2.122715576171875,-0.07319353876560926,0.017252748095989225,-0.012482812014129012
1746575960327793400,2.13279345703125,-0.0717909784913063,0.021883915027976035,-0.031527485028188675
1746575960337871400,2.142871337890625,-0.06568506283164025,0.014158873733878134,-0.015092757050506769
1746575960347949600,2.152949462890625,-0.026522096222639083,0.021419804647564888,-0.007006353364419192
1746575960358028300,2.1630283203125,0.023315701396763325,0.019162381109595297,0.00010289411889389157
1746575960368106200,2.173106201171875,0.06548895573765039,0.01563654507100582,-0.0030444457298144695
1746575960378184200,2.18318408203125,0.06389554906636476,0.006733107647299766,-0.01533045653020963
1746575960388262400,2.193262451171875,0.062919689771533,0.00040039749443531033,-0.01591108769606799
1746575960398340400,2.20334033203125,0.053019350264966486,0.019678513938188553,0.01986320458902046
1746575960408418300,2.213418212890625,0.019846856242418286,0.02972644522190094,0.015175412098970264
1746575960418496300,2.223496337890625,-0.00792377873659134,0.018214286604523656,-0.006054897858481854
1746575960428574200,2.23357421875,-0.026417466804385184,-0.00033960721790790555,-0.023753599623683837
1746575960438652200,2.243652099609375,-0.0472217699021101,-0.005844049853086471,-0.01123469338286668
1746575960448730400,2.25373046875,-0.07006430082917213,-0.014727029010653495,-0.002729370164964348
1746575960458808300,2.263808349609375,-0.08612228618264198,-0.020375848552584647,0.011639328661002217
1746575960468886300,2.27388623046875,-0.09988134694397449,-0.01606266152858734,0.01652123721735552
1746575960478965200,2.28396533203125,-0.0512649078130722,-0.007898059773445128,-0.013295407038647681
1746575960489043500,2.29404345703125,-0.01617196712195873,-0.007032382854819297,-0.015480495992768555
1746575960499121400,2.304121337890625,0.03405716790258884,0.0253144739985466,0.0157164236404933
1746575960509199400,2.314199462890625,0.08320318386554718,0.047261517390608784,-0.0077087842790409915
1746575960519277300,2.32427734375,0.09112988521158695,0.0518576130092144,-0.012752459268365055
1746575960529355300,2.334355224609375,0.0860164877206087,0.031140988194942473,-0.03376079703820869
1746575960539433500,2.34443359375,0.09761837044805288,0.027379005312919615,-0.021447715567797423
1746575960549511400,2.354511474609375,0.04209668197333812,0.03229834153652191,-0.0020448584995232523
1746575960559589400,2.36458935546875,-0.010894026719033717,0.019488544324040413,0.005079586552921682
1746575960569667300,2.374667236328125,-0.05010083246976137,0.013946107766032218,-0.03382686627805233
1746575960579745300,2.384745361328125,-0.10070201567709446,0.007765373304486275,-0.01964062961321324
1746575960589823500,2.394823486328125,-0.1229930502012372,0.00452478394806385,-0.02490017584292218
1746575960599902500,2.40490234375,-0.11944354102611542,-0.008756137907505035,-0.03260523379491642
1746575960609980400,2.41498046875,-0.08232990816235541,0.01013794765472412,-0.008158756536245346
1746575960620058400,2.425058349609375,-0.036943536993861194,0.006738368344306946,0.01090842057056725
1746575960630136600,2.435136474609375,0.017631518280506134,0.018265724530816076,0.0021011369977146387
1746575960640214500,2.445214599609375,0.06070844346284866,0.022356208714842795,0.033531938452087344
1746575960650292500,2.45529248046875,0.07883797439336776,0.022060440638661385,0.038370099198259414
1746575960660370400,2.465370361328125,0.0701309363245964,0.010614332994818686,0.022305263978894797
1746575960670448400,2.475448486328125,0.03474398112297058,0.02087327668070793,-0.007149926553573459
1746575960680526600,2.485526611328125,-0.0037906244546175,0.018928572353720665,-0.0013096760927699506
1746575960690604500,2.4956044921875,0.00013005612045526504,0.03900339213311672,-0.025513978626020253
1746575960700682500,2.5056826171875,0.00964168857038021,0.013709376400709152,-0.03637373774927109
1746575960710761200,2.51576123046875,-0.019604279658198356,-0.011132803910970688,-0.013582589949574321
1746575960720839400,2.52583935546875,-0.08741144921034574,-0.009420154774188994,-0.023151450745761394
1746575960730917400,2.53591748046875,-0.10148527500927447,-0.01681961737573147,-0.014961330956872552
1746575960740995300,2.545995361328125,-0.09587707973867654,-0.0025976152777671814,-0.019355985719244927
1746575960751073300,2.5560732421875,-0.02658113293349743,-0.0017184943556785583,-0.018832199307158588
1746575960761151200,2.566151123046875,0.005656710587441921,0.005330255112051963,0.0067430262531153855
1746575960771229400,2.5762294921875,0.05228314494490623,0.011390578064322471,0.02822809642292559
1746575960781307400,2.586307373046875,0.09904460385888815,0.00007540332376956939,-0.0073314023340120904
1746575960791385300,2.59638525390625,0.08065174581706523,0.022877602240443228,0.03155146869197488
1746575960801463300,2.60646337890625,0.052440673594176763,0.021714403679966927,-0.000853292361088097
1746575960811541200,2.616541259765625,0.011665887874364853,0.010600888991355896,-0.007349650376755744
1746575960821619500,2.626619384765625,0.020088848304748535,0.012510522004961966,-0.02234197926009074
1746575960831698400,2.636698486328125,0.023743571420013904,0.012975801429152488,-0.03660245020492002
1746575960841776400,2.6467763671875,-0.010540390975773334,0.02761982833147049,-0.037624212734401224
1746575960851854300,2.656854248046875,-0.03890665376037359,0.021127543702721595,-0.049316696354746815
1746575960861932300,2.666932373046875,-0.046803252229094504,0.02339431959092617,-0.06749180172635241
1746575960872010500,2.677010498046875,-0.020280863745510577,0.04287292704284191,-0.02449868236994371
1746575960882088400,2.68708837890625,-0.008535188633203506,0.01641220561861992,0.024261165553331375
1746575960892166400,2.69716650390625,0.007895137163996696,0.012293664383888243,0.061951191799249496
1746575960902244400,2.707244384765625,-0.005823591586947441,-0.009468670091032982,0.07522513592476025
1746575960912322300,2.717322265625,-0.022578911554813383,0.005691489639878273,0.06897475202679634
1746575960922400500,2.727400390625,-0.03225742500424385,0.032309447452425956,0.01324868182009086
1746575960932478500,2.737478515625,-0.01888297964632511,0.022270283997058868,-0.030465226091537623
1746575960942556200,2.74755615234375,0.00005377601385116577,-0.008221884900331497,-0.06203938153935596
1746575960952635400,2.757635498046875,0.021425065344572065,0.016976269242167472,-0.04007646472472697
1746575960962713300,2.76771337890625,-0.001312251642346382,0.039841596522927285,-0.009896284385956824
1746575960972791300,2.777791259765625,-0.015070727881789207,0.012519289833307266,-0.009195004248805344
1746575960982869200,2.787869140625,-0.10530629460215568,0.01925122843682766,-0.015832889627013354
1746575960992947500,2.797947509765625,-0.1390852300852537,-0.006337970849871635,-0.016645247189514337
1746575961003025400,2.808025390625,-0.1323126672104001,-0.007362637722492218,-0.021970807860139756
1746575961013103400,2.818103271484375,-0.1085989064067602,0.022835516664385793,-0.0050832763473503285
1746575961023181300,2.828181396484375,-0.028800562548637387,0.02958908257782459,-0.012281973946094512
1746575961033259300,2.83825927734375,0.03251403011381626,0.02178396178483963,-0.0019137794657610356
1746575961043337500,2.84833740234375,0.11051613820493221,0.020700842723250387,0.00033001740565523504
1746575961053415400,2.85841552734375,0.11501461866796016,0.028940263280272483,0.035769086387008424
1746575961063493400,2.868493408203125,0.11246347288042306,0.031116438275575635,0.023944062428176403
1746575961073572000,2.878572021484375,0.09299918621480464,0.018832710763812065,0.009324567178916186
1746575961083650000,2.888650146484375,0.043840895292162896,-0.00587502951323986,-0.0012472783810459076
1746575961093728300,2.898728271484375,0.01229687925428152,0.006388239732384681,-0.007511636005435139
1746575961103806200,2.90880615234375,-0.025939327898621557,0.017744331005215642,-0.015944021851290017
1746575961113884200,2.91888427734375,-0.02684066065251827,0.02662672564089298,-0.010259235946834087
1746575961123962000,2.928962158203125,0.008456862699985504,0.007170330020785332,-0.025099095948506144
1746575961134040000,2.9390400390625,0.010837912617623806,-0.010062544330954552,-0.025295367439277468
1746575961144118300,2.9491181640625,-0.012508476178348063,0.00192015440762043,0.032831754293479024
1746575961154196200,2.9591962890625,-0.023994915832579136,0.0253624047935009,0.009041421122290193
1746575961164274200,2.969274169921875,-0.07521803033053874,0.02895955250263214,-0.03530972524695098
1746575961174352100,2.97935205078125,-0.0826902659073472,0.008303133442997932,-0.04900726507939398
1746575961184430000,2.98943017578125,-0.05096797069311142,-0.00044949733316898343,-0.023758549793437122
1746575961194509300,2.99950927734375,-0.02169160732626915,0.009753916773200035,0.006890252704080194
1746575961204587300,3.009587158203125,-0.017326105593144892,0.0186567696750164,0.011205412489455193
1746575961214665200,3.019665283203125,-0.006536708292365074,0.019717676904797553,-0.02453629270028323
1746575961224743200,3.0297431640625,-0.004911737439036369,0.012782324683666229,-0.0053795010812580585
1746575961234821400,3.0398212890625,-0.016173136165738105,0.033086861565709114,0.010211177287716418
1746575961244899300,3.0498994140625,-0.018786825795471668,0.03607259937822819,0.01361364267496392
1746575961254977300,3.059977294921875,-0.005322656327486038,0.02794774511158466,0.018195307909417896
1746575961265055200,3.07005517578125,-0.022420213861763474,-0.007329904496669769,-0.012622567544691264
1746575961275133200,3.08013330078125,-0.023321838876605033,0.00907528685927391,-0.02216013815347105
1746575961285211400,3.09021142578125,-0.007854220631718634,0.034276948133110996,-0.021960432596597818
1746575961295289300,3.100289306640625,-0.00858516525477171,0.006833060890436172,-0.009951594769768417
1746575961305368000,3.1103681640625,-0.022350948017835617,0.01613280415534973,0.00012954466380178927
1746575961315446000,3.120446044921875,0.0002034136176109314,0.006753565913438796,0.004504837138578296
1746575961325524200,3.130524169921875,0.016159984423220156,0.006363105291128158,0.007387626033276319
1746575961335602200,3.140602294921875,0.004854746554791927,0.010458850172162056,0.027945133029390126
1746575961345680100,3.15068017578125,0.021563304771482942,0.022843699970841406,0.018723898360785095
1746575961355758000,3.160758056640625,0.032960020315647126,0.012743161717057227,0.003136197400186211
1746575961365836000,3.1708359375,0.04955167415440082,0.003781272104382515,0.010773596943449228
1746575961375914200,3.180914306640625,0.038766660767793656,0.01710661762356758,-0.0017357742840424179
1746575961385992200,3.1909921875,0.013342881175875662,-0.01867956602871418,-0.04212072043605149
1746575961396070100,3.201070068359375,-0.006867547681927681,-0.0013332944303750991,-0.015856325301527977
1746575961406148000,3.211148193359375,-0.0357452671200037,0.017286650365591048,-0.005122402781341224
1746575961416226000,3.22122607421875,-0.03917757965624332,0.013988777863979339,-0.03270125978160649
1746575961426305300,3.23130517578125,-0.04153028026223182,0.007231120297312736,0.0022731690963730213
1746575961436383200,3.24138330078125,-0.01509147840887308,0.023352234014868734,0.00935949236182496
1746575961446461200,3.251461181640625,0.003047404871881008,0.01384323191344738,0.016423932589031756
1746575961456539100,3.2615390625,-0.006314005452394485,0.02967500729560852,0.004185176730155945
1746575961466617300,3.271617431640625,-0.008497779232263565,0.008919804036617279,0.002450553223583847
1746575961476695300,3.2816953125,-0.039272272202372546,0.020644728621840476,0.010621146328095346
1746575961486773200,3.291773193359375,-0.005709317557513713,0.0024567455023527143,-0.002237494994793087
1746575961496851200,3.301851318359375,-0.022796353697776793,-0.0063338791966438285,-0.0060788815222680564
1746575961506929200,3.31192919921875,-0.017191081036627292,0.03631225335299969,-0.018923457787185908
1746575961517007000,3.322007080078125,0.02226619234383106,0.03779518538713455,-0.041192901534028346
1746575961527085300,3.332085205078125,0.03323533012568951,0.006513911938667297,-0.02457943772226572
1746575961537164300,3.342164306640625,0.04868775080144405,0.01626665966808796,-0.02340917010018602
1746575961547242200,3.3522421875,0.05339695140570402,0.015516133561730384,0.01250588236246258
1746575961557320200,3.3623203125,-0.008660568578541278,0.02855214074552059,0.047988772219233214
1746575961567398400,3.3723984375,0.02343874325454235,0.03493745786845684,0.04138809531256556
1746575961577476400,3.382476318359375,0.0040606735676527025,0.03099894937574863,0.028064211098104714
1746575961587554300,3.39255419921875,0.014141338077187537,0.006396423038840294,0.018721140148118137
1746575961597632300,3.40263232421875,0.013568506625294685,0.005659340935945511,-0.003944445043150335
1746575961607710200,3.412710205078125,-0.025743805326521395,0.003801730370521545,-0.035334658758807924
1746575961617788400,3.422788330078125,-0.045889352254569526,0.032923195436596865,-0.040984482947736975
1746575961627866400,3.432866455078125,-0.04720540328919887,0.01577858389019966,-0.03794591896943748
1746575961637944300,3.4429443359375,-0.059545829424262044,-0.004231938481330871,-0.027613051530811936
1746575961648023000,3.45302294921875,-0.021157938840985296,-0.006049801558256149,0.0049930955795571205
1746575961658101200,3.463101318359375,-0.01731879906952381,0.0023047698110342024,0.047448491330072284
1746575961668179200,3.47317919921875,-0.03075724957436323,0.02439560558795929,0.038869025163725014
1746575961678257200,3.483257080078125,-0.011928045941889285,0.019816461104154585,-0.012911430956050752
1746575961688335000,3.493335205078125,-0.0032779987573623654,0.0372352134168148,0.0005137034094892442
1746575961698413000,3.5034130859375,-0.00068710548132658,0.024897709891200066,-0.025767898588161912
1746575961708491300,3.5134912109375,0.01611672980338335,-0.010057283633947372,-0.044525991479493675
1746575961718569200,3.5235693359375,-0.0030202246040105817,0.029210312393307684,-0.010317341075930743
1746575961728647200,3.533647216796875,0.03853840496987104,0.019728782820701597,-0.0452012603925541
1746575961738725000,3.54372509765625,0.014523323132097721,0.016304653590917588,-0.025388014158792792
1746575961748803000,3.553802978515625,0.0538727522239089,0.005050853648781776,-0.021639000356197355
1746575961758882300,3.56388232421875,0.06685439887195825,-0.010239654463529587,0.023774697210639715
1746575961768960300,3.573960205078125,0.062470192438364026,-0.000689151307940483,0.06363145477008074
1746575961779038200,3.5840380859375,0.007072714865207672,0.007431026783585548,0.07866734880050644
1746575961789116200,3.5941162109375,-0.009884265154600143,-0.01989770964682102,0.05928516919407993
1746575961799194400,3.6041943359375,-0.06860884132385253,0.01821019495129585,0.017655447145365176
1746575961809272300,3.614272216796875,-0.06788140383213757,0.028012042519450185,-0.02410763722574338
1746575961819350300,3.624350341796875,-0.05693535466492176,0.003203764477372169,-0.036720925485435874
1746575961829428200,3.63442822265625,-0.07804799305945634,0.03669453066885471,-0.026307960281614213
1746575961839506200,3.644506103515625,-0.08365063537210225,0.033822774624824525,-0.0351815688226372
1746575961849584400,3.65458447265625,-0.07582359500825404,0.01857493661046028,-0.08766513171046972
1746575961859662300,3.664662353515625,-0.03881342251896858,-0.01007306572496891,-0.08562441966310143
1746575961869741300,3.6747412109375,0.002244271795451641,0.03017126637995243,-0.027218535787891594
1746575961879819300,3.6848193359375,0.054474225248396395,0.03887713540494442,-0.012275599004235117
1746575961889897500,3.6948974609375,0.050608489730954165,0.029614217019081113,0.01260937926955521
1746575961899975400,3.704975341796875,0.05732815337479114,0.028049451920390128,-0.006836129630357027
1746575961910053400,3.715053466796875,0.049481531527638435,0.01120937627851963,0.0017735490111634134
1746575961920131300,3.72513134765625,0.07882219230234623,0.017957681494951246,0.058242455208115274
1746575961930209300,3.735209228515625,0.056064417049288745,0.014311433947086333,0.07515451837396249
1746575961940287200,3.745287353515625,0.013407763105630873,0.004752747485041618,0.044264143939223136
1746575961950365200,3.755365234375,-0.014529460611939429,-0.007375497204065323,-0.00495353075414896
1746575961960443100,3.765443115234375,-0.07209083822071552,0.026441432201862333,-0.02261805625511333
1746575961970522000,3.775522216796875,-0.0982052304252982,0.024293314257264137,-0.03642460941998288
1746575961980600000,3.78560009765625,-0.07237959203422069,0.029790158107876778,-0.05485204558484256
1746575961990678000,3.795677978515625,-0.05021978267431259,0.017448562929034232,-0.03329995632711798
1746575962000756000,3.805755859375,-0.008259002040326594,0.007613397613167762,-0.011095558906812221
1746575962010834200,3.815834228515625,0.009558978722989558,-0.0005406827479600906,0.016571871426049618
1746575962020912000,3.825912109375,0.0017816227197647093,0.000886135184764862,0.009063815617188812
1746575962030990000,3.835989990234375,-0.01196048690676689,-0.004578559961915016,0.02027317362939939
1746575962041068000,3.846068115234375,-0.019900632256269455,0.00890928264260292,0.009500179474148898
1746575962051146000,3.85614599609375,0.014205343224108219,0.014105682241916656,0.01775468800244853
1746575962061224200,3.86622412109375,0.03459142090976238,-0.001311082598567009,0.006066022040694952
1746575962071302100,3.87630224609375,0.045915071217715736,-0.00825403360426426,0.012309062882419675
1746575962081381000,3.886381103515625,0.050635962259769435,0.013080430847406387,0.011022731132619082
1746575962091459000,3.896458984375,0.036673780141770834,0.015017536389827727,0.011200882444810122
1746575962101537000,3.906537109375,0.03828618377447128,-0.0028138883769512177,0.0035987186117097734
1746575962111615200,3.916615234375,0.028801731592416762,0.039894788014888764,-0.006077000092435628
1746575962121693200,3.926693115234375,0.012841653655469416,0.014845686954259871,-0.023967699032090603
1746575962131771100,3.936771240234375,-0.012089666244387625,0.022625088784098624,-0.027625947545003145
1746575962141849000,3.94684912109375,-0.020104338134825227,0.02612520585954189,-0.014636683846078812
1746575962151927000,3.956927001953125,-0.06366203257143498,0.015372341176867484,-0.0024615860742516816
1746575962162005200,3.967005126953125,-0.06586655687838792,0.017854221120476722,-0.0033724173088558016
1746575962172083200,3.977083251953125,-0.10253069240897893,0.01298749186694622,-0.01551516544735059
1746575962182161200,3.9871611328125,-0.1051464278653264,-0.004541150560975074,0.0014949512654915452
1746575962192239900,3.997239990234375,-0.061530281239748,-0.010999532920122146,0.026133334367070344
1746575962202318000,4.007318115234375,-0.01640168422460556,0.01173310789167881,0.052806840025447305
1746575962212396000,4.01739599609375,-0.02741962958425283,0.014162380865216255,0.0671065104695037
1746575962222474000,4.027473876953125,0.027181436914205548,0.016631985849142075,0.04315479445783421
1746575962232552000,4.037552001953125,0.06584171469807625,0.003777180451154709,0.002570690738223493
1746575962242630000,4.0476298828125,0.06477846938073635,0.01524140827357769,-0.0027893932565115393
1746575962252708000,4.0577080078125,0.05690992796272039,0.04655892207920551,0.013424385446868836
1746575962262786000,4.0677861328125,0.04979366621673107,0.021959902873635292,-0.030809929609671233
1746575962272864000,4.077864013671875,0.03375613912940025,0.033819267493486405,-0.07746624764874577
1746575962282942000,4.08794189453125,-0.016762334230542183,0.017571897047758103,-0.0757999766706489
1746575962293020000,4.09802001953125,-0.046371290552616115,0.03061082684099674,-0.02869573220098391
1746575962303099100,4.10809912109375,-0.09846212779581547,0.01758767913877964,-0.03521143423793837
1746575962313177000,4.118177001953125,-0.1255591012969613,-0.006176058286428451,-0.023405955229792743
1746575962323255000,4.128255126953125,-0.08982873948514461,0.007528641939163207,-0.026259481497388333
1746575962333333000,4.1383330078125,-0.06755436383485794,0.006589899784326553,-0.04142274650083855
1746575962343411200,4.1484111328125,-0.022704583761096,0.02093698956668377,-0.030746289788931607
1746575962353489200,4.1584892578125,0.0662228229701519,0.013237667235732078,-0.012579915713053195
1746575962363567000,4.168567138671875,0.08868892180025577,0.02206277872622013,0.024975232106819747
1746575962373645000,4.17864501953125,0.12514642884284258,0.006278349617123604,0.051834889720752834
1746575962383723000,4.188722900390625,0.1508148308455944,0.02388356441259384,0.06460901283165439
1746575962393801200,4.19880126953125,0.12845832986980676,0.022648469659686088,0.04637213080283254
1746575962403879200,4.208879150390625,0.07987491622567176,0.014589666366577148,0.027515856500342488
1746575962413958100,4.218958251953125,0.015118658676743507,0.01582008494436741,0.0027575733461417257
1746575962424036000,4.2290361328125,-0.07530453957021235,-0.0027852468043565747,-0.03079708839440718
1746575962434114300,4.2391142578125,-0.1416594644874334,-0.005109890359640121,-0.02952717805644497
1746575962444192300,4.249192138671875,-0.14489479314684867,-0.00632511136829853,-0.030128030026424675
1746575962454270200,4.259270263671875,-0.09386018695831298,-0.026706220617890356,-0.03642694750754163
1746575962464348200,4.26934814453125,-0.08240589600801468,-0.008505962538719177,-0.0367316112762317
1746575962474426000,4.279426025390625,-0.04125613949596882,0.01393733993768692,-0.007233586249034851
1746575962484504000,4.289504150390625,0.0010176526099443435,0.029691373908519742,-0.010081797020696103
1746575962494582300,4.299582275390625,0.03907178119421005,0.014997078123688697,-0.011100472543947398
1746575962504660200,4.30966015625,0.062465516263246534,0.032224691778421403,0.028166100570000706
1746575962514738200,4.31973828125,0.08191782023012638,0.03836041805446148,0.020679562473203985
1746575962524817000,4.32981689453125,0.06304302389025687,0.03610299451649189,0.03674777695974335
1746575962534895000,4.33989501953125,0.0212362647742033,0.04304886813163757,0.0069069663768634194
1746575962544973000,4.34997314453125,-0.018403963957726956,0.010601473513245582,-0.02246858304813504
1746575962555051000,4.360051025390625,-0.07843173168003559,-0.01598433559536934,-0.029414821989461777
1746575962565129000,4.37012890625,-0.09775310274362564,0.0021317513316869733,-0.013168456190731375
1746575962575207000,4.38020703125,-0.11335106936991214,0.005427285745739936,-0.013282383160293102
1746575962585285000,4.39028515625,-0.0947094972640276,0.0017325228810310363,-0.04076503151077777
1746575962595363000,4.400363037109375,-0.0540577534019947,-0.0033089784175157544,-0.041457215026021
1746575962605441000,4.41044091796875,-0.020501520758867263,0.010810732349753379,-0.027108737004175782
1746575962615519000,4.42051904296875,0.021558920857310294,0.03884674026668072,0.022545776470191774
1746575962625597000,4.430596923828125,0.04797434183508158,0.07275953126251697,0.05071085412688553
1746575962635676200,4.44067626953125,0.057363809210062025,0.06339665963351726,0.03386062241718173
1746575962645754000,4.450754150390625,0.07677022820860147,0.034629999354481696,0.008818316423520446
1746575962655832000,4.46083203125,0.08647183027267455,0.03874094180464745,0.03761113405711949
1746575962665910000,4.470909912109375,0.07852583970427512,0.005566401955485344,0.0539386022680439
1746575962675988200,4.48098828125,0.05484159725606441,0.02582242352068424,0.0010420563988387584
1746575962686066200,4.491066162109375,0.022566636595129964,0.004955576580762863,-0.050949119862169025
1746575962696144100,4.50114404296875,-0.0025327333480119705,-0.012329320219159126,-0.1071881810923107
1746575962706222000,4.51122216796875,-0.023619068257510662,0.006178980895876884,-0.05364930046526715
1746575962716300000,4.521300048828125,-0.030875030735135076,0.024071195939183235,-0.018333291608002036
1746575962726378200,4.531378173828125,-0.0007487725406885147,0.015429039800167082,0.0018396182510070501
1746575962736457200,4.541457275390625,0.003581657879054546,0.0027688801914453505,0.011693250805325805
1746575962746535200,4.55153515625,0.007347440153360366,-0.010284662649035454,0.0233817158376798
1746575962756613000,4.561613037109375,0.0007294833183288574,-0.0006336217284202575,0.0250852866188623
1746575962766691300,4.57169140625,-0.014631167420744894,-0.010911854636669159,0.04062162271840498
1746575962776769300,4.581769287109375,0.018189152163267136,-0.0014519523739814758,0.006403546899370849
1746575962786847200,4.59184716796875,0.014642857858538626,-0.005621347013115882,0.02082454216815531
1746575962796925200,4.60192529296875,-0.02828326067626476,-0.004603694403171539,0.03320515418313443
1746575962807003100,4.612003173828125,-0.0644014527618885,0.017117723539471625,-0.015413860497344284
1746575962817081000,4.6220810546875,-0.0595063741967082,0.01794482201337814,-0.037039252453297374
1746575962827159000,4.632158935546875,-0.06485796435773372,0.00959375777542591,-0.028127942250389604
1746575962837237000,4.642237060546875,-0.04214519729018211,0.012515782701969146,0.04320955685237422
1746575962847315200,4.652315185546875,-0.05486906978487968,0.021810849791765213,0.0559746381402947
1746575962857394200,4.662394287109375,-0.033870997680723665,-0.005651157629489898,0.0675905676594004
1746575962867472100,4.67247216796875,-0.03276888165771961,-0.010664601877331733,0.03243102800548076
1746575962877550000,4.682550048828125,-0.03254325620830059,-0.009932780471444129,0.012086908031720668
1746575962887628000,4.6926279296875,-0.043563831916451454,0.016039865174889565,-0.015557470219116657
1746575962897706000,4.7027060546875,-0.05135550870597362,0.04094926550388336,-0.049601869971677655
1746575962907784000,4.712783935546875,-0.016273381669819353,0.044423663616180414,-0.07675663807466626
1746575962917862100,4.722862060546875,0.046433249872922897,0.02665945886671543,-0.05577412886582315
1746575962927940000,4.732940185546875,0.06074877547323703,0.04675824404358864,-0.010205149405729025
1746575962938018000,4.74301806640625,0.04679331535696983,0.041243864536285396,0.017190642645210027
1746575962948096300,4.75309619140625,0.010831482876837254,0.040810733816027636,0.015132979463040827
1746575962958175200,4.76317529296875,-0.019931027394533157,0.030155484288930893,-0.008924388880189508
1746575962968253400,4.77325341796875,-0.05760930840373039,-0.012348609441518783,-0.05976413008375093
1746575962978331400,4.783331298828125,-0.1022773021697998,0.005887888994812965,-0.04916979869734495
1746575962988409300,4.793409423828125,-0.05985153437256813,0.011725509107112883,-0.033323866925667966
1746575962998487300,4.8034873046875,-0.03105389443337917,0.017515782946348188,0.018116781046800316
1746575963008565200,4.813565185546875,0.05106295550018548,0.020955694267153737,0.022850385439954695
1746575963018643500,4.8236435546875,0.07484744345247744,-0.007092588609457016,0.0120678928039968
1746575963028721400,4.833721435546875,0.0787882900327444,0.018120178580284117,-0.0020939948708750306
1746575963038799400,4.84379931640625,0.06618482904732227,0.06469955892562866,0.03671827687062323
1746575963048877300,4.853877197265625,0.013889993664622307,0.07240414195358753,0.003923219592031091
1746575963058955300,4.863955322265625,-0.016602759754657744,0.056411623051762574,-0.0657478806684725
1746575963069034200,4.8740341796875,-0.07480623465925455,0.026281857725977895,-0.0720707635470666
1746575963079112200,4.8841123046875,-0.05997428396940231,0.021215806508064268,-0.0439907886242494
1746575963089190100,4.894190185546875,-0.021097148564457893,0.020689152285456657,-0.022066815580520777
1746575963099268000,4.90426806640625,0.031186580902338026,-0.01188683714866638,-0.004993588769901544
1746575963109346000,4.914345947265625,0.04870177932679653,-0.05440495940446853,0.02030011643525213
1746575963119424300,4.92442431640625,0.10035890132784843,-0.030897827088832854,0.03881976092820987
1746575963129502200,4.934502197265625,0.028734219314157962,-0.032332828328013416,0.02410135361542925
1746575963139580200,4.944580078125,0.0008747370079159736,-0.028719314005970952,-0.02816531511871144
1746575963149658000,4.954658203125,-0.04301116646975279,-0.039221418797969816,-0.006645538961701095
1746575963159736000,4.964736083984375,-0.058871583424508565,-0.02346738482713699,-0.00446888904236257
1746575963169814300,4.974814208984375,-0.02586947753280401,-0.006379471904039383,0.0015041026863269508
1746575963179893200,4.984893310546875,0.011886252626776695,-0.005115151056647301,-0.00044701311513781547
1746575963189971200,4.99497119140625,0.038272155249118804,-0.004009820163249969,0.017847426053509117
1746575963200049200,5.005049072265625,0.06255787072181701,0.03290916691124439,0.013395780406892299
1746575963210127400,5.01512744140625,0.0483370376676321,0.02218202119171619,-0.005690302329789847
1746575963220205300,5.025205322265625,0.058953708750009534,0.012651391780376433,-0.00446638655802235
1746575963230283300,5.035283203125,0.029018589213490483,0.021815525966882705,-0.005476239454001188
1746575963240361200,5.045361328125,-0.033515900632739064,0.04233984307944774,-0.010408763952739536
1746575963250439200,5.055439208984375,-0.06650865417420863,0.04367021490037441,-0.0324687479336746
1746575963260517400,5.065517333984375,-0.12439327238798141,0.038004444223642346,-0.013108834957983343
1746575963270595300,5.07559521484375,-0.13554536552131174,0.05756546926200389,0.005171319956984371
1746575963280673300,5.08567333984375,-0.10734101530015468,0.018351649248600006,-0.03374371803924441
1746575963290752300,5.095752197265625,-0.12258008548617362,0.0030330840855836865,0.008744648399110882
1746575963300830500,5.10583056640625,-0.06781359929293394,0.025388123756647108,0.0009698679454624653
1746575963310908400,5.115908447265625,-0.03773644093722105,0.03115677028596401,-0.02737188145238906
1746575963320986400,5.125986328125,0.07426233704090118,0.038509471136331554,-0.07713449494373052
1746575963331064300,5.136064208984375,0.09639292030632496,0.06381693087220192,-0.05893065666798502
1746575963341142300,5.146142333984375,0.07340835056006909,0.08306465217769146,-0.04173057034099474
1746575963351220500,5.156220458984375,0.09298106603622436,0.13950608584582805,-0.04687995246080681
1746575963361298400,5.16629833984375,0.09490209722667932,0.13370178348124026,-0.06834589780503883
1746575963371376400,5.17637646484375,0.1710384114459157,0.18708149149119851,-0.027896069723274557
1746575963381454300,5.186454345703125,0.10489596023559569,0.07006254726350307,0.013427070594299585
1746575963391532300,5.1965322265625,0.008635141876339911,-0.054385670182108874,-0.0012176321614533663
1746575963401611300,5.206611328125,0.0020510873109102247,-0.009295651611685753,0.006132109546847641
1746575963411689200,5.216689208984375,-0.10742869358360767,-0.04039923040568828,-0.01874024670738727
1746575963421767200,5.22676708984375,-0.19102935233414173,-0.04700257419347763,0.03359802595824003
1746575963431845000,5.23684521484375,-0.1363423611178994,-0.036194179931282995,0.15811063214326276
1746575963441923300,5.24692333984375,-0.11082827289402485,-0.09728314714431763,0.039279706590157
1746575963452001300,5.257001220703125,-0.049903556331992144,-0.11223229447305202,0.037416086409054694
1746575963462079200,5.267079345703125,0.0090104049295187,-0.08461129709780216,0.05727291605621576
1746575963472157200,5.2771572265625,0.06380085652023554,-0.030528993776440617,0.12349073405768722
1746575963482235100,5.287235107421875,0.10336392836272716,0.01987549781501293,0.10530180109012871
1746575963492313300,5.297313232421875,0.16196312458664178,0.036326281878352164,0.09015424511246382
1746575963502391300,5.307391357421875,0.16723112811744212,0.06890987009704112,0.09703836033670231
1746575963512470300,5.31747021484375,0.16688684472441673,0.0708849695622921,0.10637794242165982
1746575963522548200,5.32754833984375,0.12654051354974508,0.03928630072772503,-0.0017257643466815351
1746575963532626200,5.337626220703125,0.028940263280272483,0.025267127725481984,-0.028890030930377543
1746575963542704400,5.347704345703125,-0.03343289852440357,0.043247021052241326,0.017509389738179743
1746575963552782300,5.3577822265625,-0.14707242944687604,0.0011515081226825714,-0.03839934355905279
1746575963562860300,5.3678603515625,-0.2292088608637452,-0.01319441261589527,-0.08686853797268122
1746575963572938200,5.377938232421875,-0.28422084625065325,-0.009606032735109328,-0.06104275345113128
1746575963583016200,5.38801611328125,-0.2981961801111698,-0.021339140626788138,-0.05460528601584956
1746575963593094400,5.398094482421875,-0.2118354089975357,-0.01199322013258934,-0.051135582344979044
1746575963603172400,5.40817236328125,-0.14761866515278815,-0.018919220003485678,-0.06540684867845847
1746575963613250300,5.418250244140625,-0.029893033960461616,-0.0028261633366346356,-0.037341979993227865
1746575963623329300,5.428329345703125,0.06682312695086003,0.06427168890237808,0.03527637096662074
1746575963633407200,5.4384072265625,0.17621406051814556,0.07681260604560375,0.07227196694128214
1746575963643485200,5.448485107421875,0.2239560549020767,0.07236497898697852,0.04985025524217635
1746575963653563100,5.458563232421875,0.24643121382147073,0.06331482656896115,0.02921540869353339
1746575963663641000,5.46864111328125,0.17545213623493908,0.07762684503793715,0.019066373389214276
1746575963673719000,5.478718994140625,0.09806932908594608,0.06503448996841907,0.0021926512060686945
1746575963683797200,5.48879736328125,0.05954115324914455,0.05725684170424938,-0.02025698967957869
1746575963693875200,5.498875244140625,-0.0002887538135051727,0.042014848908782,-0.03960022551510483
1746575963703953200,5.508953125,-0.03264057910293341,0.03778466399312019,-0.03665845470847562
1746575963714031000,5.519031005859375,-0.048237084424495695,0.05174012410938739,-0.057725938787031916
1746575963724109000,5.529109130859375,-0.06180062261372804,0.07615034274458884,-0.1109504927678965
1746575963734188300,5.539188232421875,-0.04095481846183538,0.0655693274974823,-0.10665772747742011
1746575963744266200,5.549266357421875,0.04997983643859624,-0.012477204257249831,-0.13194452801775186
1746575963754344200,5.55934423828125,0.19865005647093056,-0.014993570992350578,-0.20486507679456845
1746575963764422100,5.569422119140625,0.15700842478871344,0.007776479220390319,-0.28812026484198866
1746575963774500400,5.579500244140625,-0.11853051783442496,-0.029523616126179694,-0.2791591972132213
1746575963784578300,5.589578369140625,-0.19289047003090382,0.01409808345735073,-0.16656583260912447
1746575963794656300,5.59965625,-0.17423866879194974,0.048479076486825944,-0.06009255832051858
1746575963804734200,5.609734130859375,-0.16833645901083946,0.02866144633889198,0.08186798973903059
1746575963814812200,5.619812255859375,-0.03730827865302563,0.1239361762702465,0.2603726454123855
1746575963824890400,5.629890380859375,0.02531388947665691,0.06021510698795318,0.27321442693201825
1746575963834969300,5.63996923828125,0.06328267786502838,0.05218845239877701,0.18407156908549369
1746575963845047300,5.65004736328125,0.04644494031071662,0.05538461809158325,0.1345836808823049
1746575963855125200,5.660125244140625,0.05882365262955427,0.03159574622511863,0.1139357556563802
1746575963865203500,5.670203369140625,0.06662760437875986,0.07632043861448765,0.19666027089320123
1746575963875281400,5.680281494140625,0.08834522292912006,0.031148586979508397,0.18867000279165802
1746575963885359400,5.690359375,-0.019977204623818395,0.016123451805114746,0.11450765552651136
1746575963895437300,5.700437255859375,-0.18302374053299425,-0.015083587363362311,0.09724210274787619
1746575963905515300,5.710515380859375,-0.22464345264434812,0.03626256899237632,0.14828262722054494
1746575963915593500,5.720593505859375,-0.20494857209324835,-0.0012964695513248442,0.0942693522810936
1746575963925671400,5.73067138671875,-0.22669921613037586,-0.008526420804858208,0.01747082955976948
1746575963935749400,5.740749267578125,-0.18766075268387794,0.021879238852858543,-0.02761559054777026
1746575963945828000,5.750828125,-0.018155834415555,0.0790454796642065,-0.16520588763384148
1746575963955906000,5.760906005859375,-0.03153554047048092,0.1566004285097122,-0.22403942233659327
1746575963965984300,5.770984375,-0.12672376116216183,0.05014554839432239,-0.23048087182724847
1746575963976062200,5.781062255859375,-0.11244096878767013,0.0051852936834096905,-0.16275482295360416
1746575963986140200,5.79114013671875,-0.08175766123235226,-0.01632102020382881,-0.10860752810463309
1746575963996218000,5.801218017578125,-0.04054769896566868,-0.07012099945247173,-0.13669985105236993
1746575964006296000,5.811296142578125,-0.011014145967364311,-0.07613572969734668,-0.09770248680124059
1746575964016374000,5.8213740234375,0.03505319320261478,-0.12023147653341293,-0.10993159804893657
1746575964026452200,5.8314521484375,0.03067570877075195,-0.14942133066058158,-0.1190691364894621
1746575964036530200,5.8415302734375,0.17384265521168707,-0.21338731461465357,-0.1330087962483987
1746575964046609200,5.851609130859375,0.2435638416916132,-0.2072305455505848,-0.14007276155157014
1746575964056687000,5.86168701171875,0.23189678477346895,-0.15519582240879534,-0.10998455207888036
1746575964066765300,5.871765380859375,0.2863163572251797,-0.07174421674013137,-0.023409444094821808
1746575964076843300,5.88184326171875,0.27321488358974455,0.022051672810316083,0.1125761577409692
1746575964086921200,5.891921142578125,0.17482874363958834,0.061357262760400766,0.22824843660006297
1746575964096999200,5.901999267578125,0.1299769177392125,0.05444003071784973,0.2559296214636415
1746575964107077000,5.9120771484375,0.13180471768826246,0.03394493969976902,0.23370467444565146
1746575964117155300,5.9221552734375,0.06956541139632463,0.017896306696534157,0.24165592571105807
1746575964127233300,5.9322333984375,-0.015846388429403304,0.008619359785318375,0.16787534430511294
1746575964137311200,5.942311279296875,-0.0879991859704256,0.03663315587043762,0.11265576231582089
1746575964147389200,5.95238916015625,-0.16348784993588925,0.03575520399212837,0.00960893707824871
1746575964157467100,5.962467041015625,-0.17924919043034315,-0.02657762580215931,-0.08786518432721495
1746575964167546400,5.97254638671875,-0.18262889599651097,-0.07886603144407271,-0.11679761136090382
1746575964177624300,5.982624267578125,-0.13327449797987936,-0.08194879989027977,-0.10512996992086991
1746575964187702300,5.992702392578125,-0.06821458130925893,-0.061900283595919606,-0.07547549395663664
1746575964197780200,6.0027802734375,0.0011591069072484968,-0.06638181292414665,-0.0981910192368552
1746575964207858400,6.0128583984375,0.057824412459135055,-0.029037293913960455,-0.051789625806920224
1746575964217936400,6.022936279296875,0.10859539927542208,0.07068681664168834,-0.0012249204187653958
1746575964228014300,6.033014404296875,0.0923649799644947,0.11251111141443251,0.012049151570908724
1746575964238092300,6.04309228515625,0.07409516378045082,0.11461012952029705,0.025855704735778272
1746575964248170200,6.053170166015625,0.016070552574098108,0.1131131689608097,0.01590692297760397
1746575964258248400,6.06324853515625,-0.0472784685254097,0.06906418387591838,0.01056669446080923
1746575964268327200,6.0733271484375,-0.09253741392195224,0.02840659479498863,0.004478716316632926
1746575964278405000,6.083405029296875,-0.09197919551730155,0.0032820904105901718,-0.03442821143837645
1746575964288483000,6.093483154296875,-0.11033873581141233,-0.01680383528470993,-0.045049467364326114
1746575964298561300,6.103561279296875,-0.07769231148958206,-0.018880057036876677,-0.05319408577736467
1746575964308639200,6.11363916015625,-0.05167319635301828,0.01111000755727291,-0.05783783819628879
1746575964318717200,6.12371728515625,0.010925883162021637,0.010106967994570731,-0.016531484616734086
1746575964328795100,6.133795166015625,0.04103109856843948,0.01238835693001747,0.018198741975519805
1746575964338873000,6.143873046875,0.08924012594223021,-0.010737667113542557,0.03802411703849211
1746575964348951300,6.153951416015625,0.1087520511418581,0.012151625564694403,0.06705693570673465
1746575964359029200,6.164029296875,0.06715864251554012,0.027319384080171583,0.05642278376659378
1746575964369107200,6.174107177734375,0.04996171626001596,0.022921441382169724,0.04330043173991143
1746575964379186200,6.184186279296875,-0.0046831893801689145,0.03774199389517307,0.07051091208551079
1746575964389264400,6.194264404296875,-0.027586510583758352,0.017252748095989225,0.046695864598173646
1746575964399342300,6.20434228515625,-0.08233458433747291,0.00649286915063858,0.06809457165878266
1746575964409420300,6.214420166015625,-0.11216098280251026,-0.016001871252059936,0.032569879353744904
1746575964419498200,6.224498291015625,-0.11587328132390975,-0.050586862421035765,-0.03762805779245682
1746575964429576200,6.234576171875,-0.1286167353019118,-0.04926701199412346,-0.06127043386031873
1746575964439654100,6.244654052734375,-0.10106792638003825,-0.05233809000253677,-0.05127356604356319
1746575964449732400,6.254732421875,-0.0673272770807147,-0.04828326165378093,0.003903510244563222
1746575964459810300,6.264810302734375,0.026857319526374338,-0.0026888006925582884,0.0024096640907693653
1746575964469888300,6.27488818359375,0.06332359439730643,0.02244622508585453,0.02011349868881516
1746575964479966200,6.28496630859375,0.09776830031275749,0.04435644359886646,0.023824746897444127
1746575964490045200,6.295045166015625,0.11763035412430763,0.05510521662831306,-0.017422378175007178
1746575964500123100,6.305123046875,0.1074099888831377,0.09916296954154968,-0.017704884910816326
1746575964510201000,6.315201171875,0.0781435623884201,0.08042378228008747,-0.041469170325296
1746575964520279300,6.325279296875,0.04144727815389633,0.04098199872970581,-0.06496305043371393
1746575964530357200,6.335357177734375,-0.0020358897417783735,0.014552256965637207,-0.07190545345013961
1746575964540435200,6.345435302734375,-0.049694297495484346,-0.009143675920367241,-0.07894717952203936
1746575964550513200,6.35551318359375,-0.061738371032476425,-0.02917641012370586,-0.06798016976518556
1746575964560591000,6.365591064453125,-0.14204700250029564,-0.0007850128978490829,-0.047367124056397
1746575964570669000,6.3756689453125,-0.1422714589059353,-0.02211363213062286,-0.06323868345967494
1746575964580747000,6.3857470703125,-0.10929741006493568,-0.028678397473692892,-0.06861376409414224
1746575964590826200,6.395826171875,-0.0717775344878435,-0.022666005316376685,0.013772915756748988
1746575964600904200,6.405904296875,-0.0020078326910734174,0.024592589464783668,0.0916881584151648
1746575964610982100,6.415982177734375,0.05453793813437223,-0.008014379629492759,0.07824591765119694
1746575964621060000,6.42606005859375,0.05495236415416002,0.030270635101199147,0.10518946328945457
1746575964631138300,6.43613818359375,0.0320721315652132,0.02179214509129524,0.0849563933415804
1746575964641216300,6.44621630859375,0.014223755663633346,0.036814942178130146,0.0623646862372756
1746575964651294200,6.456294189453125,-0.011302315258979796,0.059327802759408944,0.05443584773307666
1746575964661372200,6.4663720703125,-0.07898965782374143,-0.005443652358651161,0.0023545455032028258
1746575964671450000,6.4764501953125,-0.08122574631273746,0.021994974187016486,-0.04470499217505566
1746575964681528300,6.4865283203125,-0.02955284222066402,0.04875906247198582,-0.05962454808312468
1746575964691606300,6.496606201171875,-0.012457330513000488,0.034164135408401484,-0.045721256545512005
1746575964701685200,6.506685302734375,0.03531272092163563,0.04560439783334732,-0.053554005130939185
1746575964711763200,6.51676318359375,0.048692426976561544,0.008439327043294906,-0.057535037591122086
1746575964721841400,6.52684130859375,0.014571546187996864,0.0028396073400974273,-0.03231626991885714
1746575964731919400,6.53691943359375,0.035892566636204715,0.014625906723737717,-0.005053675793530419
1746575964741997300,6.546997314453125,0.02330196513235569,-0.004867313775420189,0.0026797223369590937
1746575964752075300,6.5570751953125,-0.021122867527604103,-0.026084873849153516,0.024192539030220356
1746575964762153200,6.5671533203125,0.010625438910722733,-0.02216565457880497,-0.004736033812258392
1746575964772231400,6.5772314453125,0.0012798106774687765,0.0013216039925813673,0.004921519047534093
1746575964782309400,6.587309326171875,0.030744682353734967,0.03047054158747196,0.0010352247992530465
1746575964792387300,6.59738720703125,0.07262976740300654,0.03425415177941322,-0.02193188235554844
1746575964802465300,6.60746533203125,0.05702244842648506,0.039590836632251734,-0.05623207436692901
1746575964812544300,6.617544189453125,0.025283786599338054,0.05865092641115188,-0.019946425893064588
1746575964822622200,6.627622314453125,0.04605594099313021,0.07128069088160992,-0.02646936138840392
1746575964832700200,6.6377001953125,0.0012640285864472388,0.016560089656710623,-0.018980503470357506
1746575964842778000,6.647778076171875,-0.00796557205170393,0.01075403372645378,0.02447503663287498
1746575964852856000,6.65785595703125,-0.011246201157569885,-0.00229658650457859,0.010737995907105505
1746575964862934000,6.66793408203125,-0.06444821451306343,-0.009372223979234694,0.04116740176659077
1746575964873012200,6.67801220703125,-0.09487550148069858,-0.02225274834036827,0.024023356475774197
1746575964883090200,6.688090087890625,-0.13468728738725186,-0.01675765805542469,-0.0036932741605211045
1746575964893168000,6.698168212890625,-0.10169044219255446,-0.0054179333955049515,0.024731650875601915
1746575964903246000,6.70824609375,-0.08146773837506771,-0.01629880837202072,0.048872094392403954
1746575964913325300,6.7183251953125,-0.05732581528723239,-0.003081599402427673,0.05709830840798095
1746575964923403300,6.7284033203125,-0.009004559710621833,0.019988895061612128,0.0543454751690384
1746575964933481200,6.738481201171875,0.008611176478862762,0.038352234748005865,0.021693954546982423
1746575964943559200,6.74855908203125,0.058254036048054694,0.034226679250597955,-0.0005515420686919241
1746575964953637000,6.75863720703125,0.08650748610794544,0.03536474336981773,-0.01442435626965016
1746575964963715000,6.768715087890625,0.043621699583530425,0.03491816864609718,-0.04008837435822934
1746575964973793000,6.77879296875,0.038384967973828316,0.04859539634287357,-0.0787801067262888
1746575964983871200,6.788871337890625,0.04001987569928169,0.009340075275301932,-0.13224697242989203
1746575964993949200,6.79894921875,-0.026356676527857777,-0.007964110746979712,-0.09371555432323365
1746575965004027100,6.809027099609375,-0.031787469404935834,0.008289104917645455,-0.07307369351191446
1746575965014105000,6.81910498046875,-0.005965922667086124,0.021620880177617072,-0.03622905031526461
1746575965024184000,6.82918408203125,0.027495325168967244,-0.026856442743539807,-0.006056441361596807
1746575965034262300,6.83926220703125,0.02384352466315031,-0.05030570739209651,0.015288864144496619
1746575965044340200,6.84934033203125,0.0390957465916872,-0.006820201408863067,0.09931238794960082
1746575965054418200,6.859418212890625,0.0460889664798975,0.024337737920880315,0.09487631433145143
1746575965064496000,6.86949609375,0.04093815958797931,0.031037527820467946,0.06004891097503714
1746575965074574000,6.879573974609375,0.03235270207226276,0.026061492973566053,0.04019736029119231
1746575965084652300,6.88965234375,0.03609744155853987,0.024604279902577398,0.03856517424578778
1746575965094730200,6.899730224609375,0.026238603106141088,0.02325578790307045,0.02456027636406943
1746575965104808200,6.90980810546875,-0.06857172418385744,0.0177636202275753,-0.0023484171565156427
1746575965114886100,6.91988623046875,-0.14102175110578535,0.012356208226084709,-0.06496389981708489
1746575965124965000,6.929965087890625,-0.16399433815330267,0.029192776736617087,-0.09561752462019212
1746575965135043000,6.94004296875,-0.12120967391580342,0.013525836527347564,-0.10578120037121698
1746575965145121000,6.95012109375,-0.06792553523480892,-0.0058043023645877835,-0.07310795197454281
1746575965155199000,6.960198974609375,-0.010092062686383723,0.005869184294342994,-0.009809565083729103
1746575965165277000,6.97027685546875,0.052421676632761954,0.013524082961678504,0.03739603913486935
1746575965175355100,6.980355224609375,0.06776420719325542,0.015111059892177581,0.044176100329589095
1746575965185433000,6.99043310546875,0.06353928297460079,0.018095044139027596,0.052410662048403174
1746575965195511000,7.000510986328125,0.0785533122330904,0.02729951033592224,0.07556391202560625
1746575965205589000,7.010589111328125,0.053742696103453634,-0.007346271109580993,0.03246834607487544
1746575965215667000,7.0206669921875,0.03956044149398803,-0.018067571610212326,0.004140360340895131
1746575965225745200,7.0307451171875,0.003935585883259773,0.013411270236968994,0.0017105302449315785
1746575965235824000,7.04082421875,-0.01500350786447525,0.019646949756145476,-0.02954285968276672
1746575965245902000,7.050902099609375,-0.026449615508317946,0.025655250260233877,-0.058642231648042796
1746575965255980000,7.06097998046875,-0.03315408158302307,0.04577274013757705,-0.060866273506218566
1746575965266058200,7.071058349609375,-0.0009475099831819534,0.024822891089320183,-0.036881806002417576
1746575965276136200,7.08113623046875,-0.020246669214963913,0.009022095367312431,-0.014215143098914996
1746575965286214100,7.091214111328125,-0.053225394231081004,0.010530161842703818,-0.007109877670975402
1746575965296292000,7.1012919921875,-0.050935237467288966,0.015757541102170942,-0.003623478593630716
1746575965306370000,7.1113701171875,-0.04603197559565306,0.0024269348859786988,0.005007964355126023
1746575965316448300,7.1214482421875,-0.03313420783877372,-0.01750526155233383,0.01529509295588359
1746575965326526200,7.131526123046875,-0.022784078738093374,-0.0062467854350805275,0.010804549204139039
1746575965336605200,7.141605224609375,-0.013879472270607948,0.013539280530810355,0.026135672454629093
1746575965346683100,7.15168310546875,0.02647591899335384,-0.010448328778147697,0.006867675546091049
1746575965356761300,7.16176123046875,0.03349953401982784,0.0056336219727993,0.006447979696141555
1746575965366839300,7.17183935546875,0.012595862200856208,0.018541618862748147,0.020699417951144276
1746575965376917200,7.181917236328125,0.026793314379453658,0.030718963390588758,-0.006403610831452533
1746575965386995200,7.1919951171875,0.04500234028697014,0.0072761284828186034,-0.023225913354614748
1746575965397073200,7.2020732421875,0.03226969996392727,0.01186111818552017,0.0018442944261245428
1746575965407151000,7.212151123046875,0.06563830108046531,0.036862872973084444,0.04004369496628642
1746575965417229000,7.22222900390625,0.05122399128079414,0.05129588747322559,0.006920985769061371
1746575965427307000,7.23230712890625,0.037300679868459696,0.04314823685288429,-0.02914864533394575
1746575965437386000,7.242385986328125,0.03166588885188103,0.02746376098692417,-0.036507282734755425
1746575965447464000,7.2524638671875,-0.04422434165179729,0.026335049217939374,-0.029861460645264012
1746575965457542100,7.262542236328125,-0.09571370587050915,0.002115384718775749,-0.037409775399276986
1746575965467620000,7.2726201171875,-0.12873919263780118,0.014493804776668548,-0.06388978604585863
1746575965477698000,7.282697998046875,-0.15532091009318827,0.02364040330648422,-0.06288192417756654
1746575965487776000,7.29277587890625,-0.08987550123631953,0.01913081692755222,-0.036367371940566225
1746575965497854000,7.30285400390625,-0.027504092997312546,0.017892799565196037,0.047880580870714035
1746575965507932200,7.31293212890625,0.03212590757906437,0.00828968943953514,0.08216170285544358
1746575965518010000,7.323010009765625,0.07788111205995082,0.0030529578298330307,0.0710458866118919
1746575965528088000,7.333088134765625,0.11343231791257857,0.00609247165620327,0.04790293883299455
1746575965538166000,7.343166015625,0.0976934815108776,0.01982932058572769,0.04398506213636137
1746575965548245200,7.353245361328125,0.028169278907775878,0.01659340740442276,0.026348557153483852
1746575965558323200,7.3633232421875,-0.031925416570901866,0.019879589468240737,-0.00910518880719319
1746575965568401200,7.373401123046875,-0.07539514046311378,0.015478724160790443,-0.04601781007298268
1746575965578479000,7.38347900390625,-0.07628536730110645,0.01213525895178318,-0.0486212249038741
1746575965588557000,7.39355712890625,-0.08033522721379995,0.021623802787065504,-0.01907996352314949
1746575965598635300,7.40363525390625,-0.06592968524247407,0.006028174248337745,0.002733461818192154
1746575965608713200,7.413713134765625,-0.008717851723730564,0.01248947921693325,0.005782830318296328
1746575965618791200,7.423791259765625,0.02978168254047632,0.03183013950288296,0.015810778259905053
1746575965628869000,7.433869140625,0.08301847494840621,0.010877952367067336,-0.023962228272529317
1746575965638947000,7.443947021484375,0.048553310766816134,-0.01288987671136856,-0.005420070553664118
1746575965649026000,7.454026123046875,0.030354806253314017,0.01638940926492214,0.032148649133834986
1746575965659104000,7.46410400390625,0.025371757143735883,0.01948211458325386,-0.0000025207506492733952
1746575965669182000,7.474181884765625,0.0007008417457342147,0.010203414106369019,0.008176547921262682
1746575965679260000,7.484260009765625,-0.014355273088812827,-0.014901801055669784,-0.030173175209248438
1746575965689338000,7.494338134765625,-0.02032733323574066,-0.0019815292060375213,-0.025754344986844806
1746575965699416000,7.504416015625,-0.025469372299313543,0.0014870236873626708,0.016360722026554867
1746575965709494000,7.514493896484375,-0.0461126396164298,0.013047113099694252,0.03249750823727809
1746575965719572000,7.524572021484375,-0.031421558701992036,0.0011848258703947066,0.021138613086007535
1746575965729650000,7.53464990234375,-0.011688099706172942,0.017644962283968925,0.004073880109097808
1746575965739728100,7.54472802734375,0.019048691602051256,0.012508768439292908,0.008537453655526042
1746575965749806000,7.55480615234375,0.05845511157810688,0.007643792751431465,0.027299702132167293
1746575965759885000,7.564885009765625,0.06766396168917417,0.010599135425686836,0.013433253739913924
1746575965769963000,7.574962890625,0.0664516632899642,0.012742577195167542,-0.019359912975691257
1746575965780041200,7.585041259765625,0.03926642698347568,0.027336335214972494,-0.04138988541085273
1746575965790119200,7.595119140625,-0.007694061633944511,0.044399698218703265,-0.07427060254574754
1746575965800197000,7.605197021484375,0.0034542321071028706,0.038896424627304076,-0.05017172401519492
1746575965810275000,7.615275146484375,-0.07115151154398917,0.02151157458424568,0.007977070693252607
1746575965820353000,7.62535302734375,-0.07178688683807849,0.005550619864463806,0.018222716506151482
1746575965830431000,7.635430908203125,-0.09121639445126056,-0.00651683454811573,0.011763977953977883
1746575965840509200,7.64550927734375,-0.09334580769538879,0.00932020153105259,-0.0009344404390547424
1746575965850587100,7.655587158203125,-0.06731237177252769,0.005275894576311111,0.004132597159547731
1746575965860666000,7.665666015625,-0.0674272303238511,0.007127659922838211,0.02251135361078195
1746575965870744000,7.675744140625,-0.029918752923607825,-0.000675122782588005,0.015058178927469999
1746575965880822300,7.685822265625,-0.01609188762307167,0.014438275197148322,-0.011052779211010784
1746575965890900200,7.695900146484375,-0.005355389553308487,0.024876667103171348,-0.03869274614821188
1746575965900978200,7.705978271484375,0.03664133917689323,0.04287000443339348,-0.0281680733313784
1746575965911056100,7.71605615234375,0.0739390964359045,0.04012450511753559,-0.003692178181977942
1746575965921134000,7.726134033203125,0.05870061077177524,0.033462709140777584,0.0077276351099833844
1746575965931212300,7.73621240234375,0.07991057206094264,0.026290625554323196,0.01751445863894187
1746575965941290200,7.746290283203125,0.04870119480490684,0.04074000666737556,0.010812065790314226
1746575965951368200,7.7563681640625,0.0013245266020298003,0.016729601004719732,-0.015549670505151152
1746575965961447000,7.766447021484375,-0.04408405639827251,0.010509703576564788,-0.014817876498727126
1746575965971525000,7.776525146484375,-0.06064356153309345,0.01495031637251377,0.023437254550354555
1746575965981603000,7.78660302734375,-0.07337386376857757,0.024701310536265373,0.01454648481197655
1746575965991681000,7.796680908203125,-0.06998539037406444,-0.00911444982588291,-0.015771642692759633
1746575966001759000,7.806759033203125,-0.040080958236753936,-0.02364391043782234,-0.01659696020153351
1746575966011837000,7.8168369140625,-0.01033580831438303,-0.014014496827125548,-0.020508827282488346
1746575966021915100,7.8269150390625,-0.0004693710774183273,-0.001536123526096344,-0.013364380621630697
1746575966031993000,7.8369931640625,0.01874970865547657,0.01293254680931568,-0.026625090806232765
1746575966042071000,7.847071044921875,0.0485942272990942,0.0028600656062364575,-0.010869422000739723
1746575966052149000,7.85714892578125,0.05910977609455585,-0.004992985981702804,-0.0230615531057585
1746575966062228200,7.867228271484375,0.05849193645715713,-0.005302782583236694,0.021244895605230702
1746575966072306200,7.87730615234375,0.03684621409922838,0.028328268861770627,0.04231178602874279
1746575966082384100,7.887384033203125,-0.01792845540046692,0.041410453274846076,0.007435145836276933
1746575966092462000,7.897462158203125,-0.014975450813770294,0.03931085064709186,-0.023590481483843177
1746575966102540000,7.9075400390625,-0.05888415064513683,0.031764673051238056,-0.035929364115791396
1746575966112618200,7.9176181640625,-0.04927870243191719,0.009609539866447449,-0.028425993615202604
1746575966122696200,7.9276962890625,-0.04568272376656532,-0.01588672043979168,-0.024950828317925333
1746575966132774100,7.937774169921875,-0.07010404831767082,-0.012452069815993309,-0.028241412562225014
1746575966142852000,7.94785205078125,-0.07277005265653133,-0.019489713367819784,-0.019218129884824155
1746575966152930000,7.957929931640625,-0.040241994017362594,0.01262801090478897,-0.01995804326562211
1746575966163009300,7.96800927734375,0.04041121310442686,0.01223638123869896,-0.009051157065015285
1746575966173087200,7.978087158203125,0.0905658215880394,0.006933598655462264,-0.012063481490360572
1746575966183165200,7.988165283203125,0.0887269157230854,0.008434066346287726,0.027734476820239797
1746575966193243100,7.9982431640625,0.09040624711215496,0.01304886666536331,0.04594079931401648
1746575966203321300,8.0083212890625,0.05489361970424652,0.007331658062338829,0.036749466593330726
1746575966213399300,8.0183994140625,0.03545709782838821,0.038460371297597884,0.028178950918419286
1746575966223477200,8.028477294921874,0.021509236496686936,0.02218202119171619,0.00035782786118797956
1746575966233555200,8.03855517578125,-0.014376608137786387,0.008714636853337288,-0.010287019002903252
1746575966243633200,8.048633056640625,-0.03971826240420341,-0.028352234259247776,-0.011280322622880338
1746575966253711000,8.058711181640625,-0.0880249049335718,-0.02705634922981262,-0.039000816583540286
1746575966263790000,8.0687900390625,-0.10879647480547427,-0.028843232646584508,-0.017679348610760644
1746575966273868000,8.078867919921874,-0.1070826566249132,-0.02430442017316818,-0.042273362847650424
1746575966283946000,8.088946044921874,-0.10274725776910781,0.004019172513484955,-0.0520881520957686
1746575966294024000,8.09902392578125,-0.07148264319449663,0.01346153911948204,-0.06521491543608718
1746575966304102100,8.10910205078125,-0.00013268646895885466,0.022840777361392974,-0.05180301501145586
1746575966314180000,8.11918017578125,0.06786766756772994,0.047864159458875656,-0.00900484283841215
1746575966324258000,8.129258056640625,0.08334872981607913,0.047561377120018004,0.005075704962247982
1746575966334336000,8.1393359375,0.07124445052444935,0.06069675302505493,0.025906978265289215
1746575966344414000,8.1494140625,0.06822013426721095,0.05210837289988994,0.0462635010628961
1746575966354492200,8.1594921875,0.034200083504617215,0.03706277945935726,0.059062429821491236
1746575966364570000,8.169570068359375,-0.01312339320629835,0.026565935364365575,0.02140720089431852
1746575966374649000,8.179649169921875,-0.06333206996470689,0.024252982246875762,0.006238419465534389
1746575966384727000,8.18972705078125,-0.1053381510451436,0.00971709189414978,-0.0033030327339190987
1746575966394805200,8.19980517578125,-0.0647018970131874,0.04429156166911125,-0.034282281895354386
1746575966404883200,8.20988330078125,0.005968553015589714,-0.029650457376241682,-0.07394424753505736
1746575966414961200,8.219961181640626,0.0006862286984920501,-0.03526654369235038,-0.0007356664639431983
1746575966425039000,8.2300390625,0.05173369436860084,-0.0041226328879594805,0.023854256119718774
1746575966435117000,8.240116943359375,0.06534428656995296,0.03991232367157936,0.015361043464718385
1746575966445195300,8.2501953125,0.06615092677772044,0.06131751527190208,0.01644552336633205
1746575966455273200,8.260273193359374,0.07687339632213115,0.01795066723227501,-0.037746734002372245
1746575966465351200,8.27035107421875,0.05294131659269333,-0.009417816686630248,-0.013424887770367785
1746575966475430000,8.280429931640626,0.04350333390086889,-0.0036059155374765393,0.03573032527919859
1746575966485508000,8.290508056640626,-0.009471008178591728,0.02107026055753231,0.0354990281408187
1746575966495586000,8.3005859375,-0.0401806192189455,0.04279343206584453,-0.01927283748043701
1746575966505664000,8.3106640625,-0.06323007089495658,0.021416882038116453,-0.07029501344566233
1746575966515742000,8.320741943359375,-0.05113339038789272,0.015172434690594672,-0.0595144844379276
1746575966525820000,8.33081982421875,-0.0630357173666358,-0.008100304347276687,-0.04027951301615685
1746575966535898000,8.340898193359376,-0.07436462837159633,-0.0011778116077184677,-0.009428694273671134
1746575966545976000,8.35097607421875,-0.08525280987173318,-0.022626257827877996,-0.020844973034830763
1746575966556054000,8.361053955078125,-0.06496200925409794,-0.008694178587198257,-0.018256993235088885
1746575966566132000,8.371132080078125,-0.042733226311206816,-0.007547346639633178,-0.013939888087799772
1746575966576211200,8.381211181640625,0.036330958053469656,0.005503273591399192,0.027658918232843277
1746575966586289200,8.3912890625,0.07715425909012556,0.018420622831583022,0.0485168055481743
1746575966596367000,8.4013671875,0.07517945188581943,0.02942658549249172,0.01758440033630468
1746575966606445000,8.411445068359376,0.07508300577402115,0.05525076257884502,0.04718436963432468
1746575966616523000,8.42152294921875,0.049070612639188764,0.07164893967211246,0.015637841978948564
1746575966626601200,8.431601318359375,0.03620645489096641,0.04795300678610801,0.014826242468273266
1746575966636679200,8.44167919921875,0.007932546564936638,0.012175590962171554,-0.02336439024354331
1746575966646757000,8.451757080078124,-0.037979309782385826,0.028074001839756963,-0.012211356395296752
1746575966656835000,8.4618349609375,-0.050291971127688885,0.004527706557512283,-0.027429794785240665
1746575966666913000,8.4719130859375,-0.08561696700900792,0.004193944558501243,-0.04032990062967874
1746575966676992300,8.4819921875,-0.08626315595805645,0.00038929157853126526,-0.03936698301481083
1746575966687070200,8.4920703125,-0.06378945834338665,-0.008140051835775375,-0.013351621604757382
1746575966697148200,8.502148193359375,-0.053017596699297426,-0.012740239107608794,-0.007902745081717148
1746575966707226000,8.51222607421875,-0.05134527957290411,0.010859247666597367,0.001622751496778801
1746575966717304000,8.522303955078126,-0.02496113051623106,0.035061376509070395,0.013545801603142171
1746575966727382300,8.53238232421875,-0.009213234025239945,0.02972936783134937,0.05182871570829302
1746575966737460200,8.542460205078125,0.01762158140838146,0.037920273071527476,0.05471071001854725
1746575966747538200,8.5525380859375,0.03052110273092985,0.015707856741547583,0.059530604455666616
1746575966757616000,8.5626162109375,0.029557518395781517,0.014938625934720038,0.05943339115888811
1746575966767694000,8.572694091796874,0.023908114331960675,0.023780104038119313,-0.007557703636866062
1746575966777773000,8.58277294921875,0.001609188762307167,0.018639818540215493,-0.023862439426174387
1746575966787851000,8.59285107421875,-0.02104103446304798,-0.01447626911997795,-0.05874206616017036
1746575966797929000,8.602928955078125,-0.03365034066736698,-0.0064507835745811455,-0.06888494571833871
1746575966808007000,8.6130068359375,-0.048828620576858515,0.010880290454626082,-0.0657187002397608
1746575966818085000,8.623085205078125,-0.024975743563473225,0.028856092128157613,-0.08344104774203151
1746575966828163000,8.6331630859375,-0.0008259294301271438,0.04017418947815895,-0.05985716952891089
1746575966838241000,8.643240966796874,0.04794540800154209,0.035413843208551406,-0.0213063069362659
1746575966848319000,8.653319091796876,0.07565028426796197,0.03329495135843753,0.03609920425736345
1746575966858397000,8.66339697265625,0.08588876968771218,0.031869302469491954,0.04857557739755138
1746575966868475100,8.67347509765625,0.03339928851574659,0.017942483925819395,0.06522833204008638
1746575966878553000,8.683552978515625,0.0065907765671610824,0.01324234341084957,0.051636481071822345
1746575966888632000,8.693632080078125,-0.013801730859279632,0.006612111616134643,0.05195677166790701
1746575966898710000,8.7037099609375,-0.022905659291148184,0.008347557106614112,0.008880732401553541
1746575966908788200,8.713788330078126,-0.0416840095192194,-0.002498246556520462,-0.023302156928600742
1746575966918866200,8.7238662109375,-0.054230187359452245,-0.012188450443744659,-0.03149017609194852
1746575966928944000,8.733944091796875,-0.0889531256943941,-0.0007452654093503951,-0.04457378527713008
1746575966939022000,8.74402197265625,-0.09826543617993592,0.020921791997551918,-0.0572396257079672
1746575966949100000,8.75410009765625,-0.0701309363245964,0.0202384859085083,-0.0568998449601233
1746575966959178000,8.764177978515624,-0.03051028907597065,0.008651508489251137,-0.024997133411373943
1746575966969256000,8.774255859375,-0.005229717347025871,0.021654782447218895,0.019094503505155444
1746575966979334000,8.784333984375,-0.002245148578286171,0.05046411282420158,0.01423033153489232
1746575966989413000,8.7944130859375,0.013196750703454017,0.04220481852293014,-0.011661631824355572
1746575966999491000,8.804490966796875,0.027355332176387307,0.023347557839751242,-0.024700086693558842
1746575967009569000,8.814569091796875,0.05303250200748443,0.011501637223362922,-0.029156499846838414
1746575967019647000,8.82464697265625,0.09771686238646507,0.015122165808081626,0.027675577106699347
1746575967029725200,8.83472509765625,0.09318564869761467,0.005106967750191688,0.022472985228616744
1746575967039803100,8.84480322265625,0.06444236929416657,0.006132803666591644,-0.0018363485816866158
1746575967049881000,8.854881103515625,0.012848375657200813,0.004953238493204117,-0.014896120233554392
1746575967059959000,8.864958984375,-0.002028290957212448,0.01773790126442909,-0.006072059055836871
1746575967070037000,8.875037109375,-0.021739538121223447,0.0170142631649971,-0.014716745078656822
1746575967080116000,8.885115966796874,-0.02490530867576599,0.006216390296816826,0.014613987957080824
1746575967090194000,8.89519384765625,0.014569500361382961,0.008358663022518158,0.03407035617772489
1746575967100271900,8.90527197265625,0.00203735104650259,0.02138824046552181,0.015629037617985158
1746575967110349800,8.915349853515625,-0.012612813335657119,0.014531798699498175,0.012818765970226376
1746575967120428000,8.925427978515625,-0.03342851461023092,0.008015548673272132,0.010023564027436076
1746575967130506000,8.935506103515625,-0.031391455824673176,0.008422960430383682,-0.02298660643971525
1746575967140584000,8.945583984375,-0.019705109684169293,0.026671733826398848,-0.04040211648251861
1746575967150662000,8.955661865234376,-0.005750526350736617,0.005552373430132865,-0.011930457094684243
1746575967160739800,8.96573974609375,-0.008076338949799537,0.01612052919566631,-0.015023125880397855
1746575967170818000,8.975818115234375,-0.00009936872124671936,0.03140460756719112,-0.0040332193051464856
1746575967180897000,8.98589697265625,-0.00849018044769764,0.012070961543917656,-0.0013628675847314298
1746575967190975000,8.99597509765625,-0.0035784430086612698,0.02716214769184589,-0.002112690438190475
1746575967201053000,9.006052978515624,-0.01818506051003933,0.04025426897704601,0.0005186535792425274
1746575967211131100,9.016131103515624,-0.02913081741631031,0.03425999699831009,-0.00039898185548372566
1746575967221209000,9.026208984375,-0.02334112809896469,0.01976560769975185,0.0011493435650598257
1746575967231287000,9.036287109375,-0.03104220399558544,0.013978840991854667,0.006546718229725956
1746575967241365000,9.046364990234375,-0.01935673463791609,0.02063186914026737,0.004433434136491269
1746575967251443000,9.05644287109375,-0.013557400709390639,0.015545359656214713,0.003620884777745232
1746575967261521000,9.06652099609375,-0.010957155083119868,0.03285305280983448,-0.007844731284165754
1746575967271599000,9.07659912109375,0.00414835185110569,0.02901566660404205,-0.02177198821925558
1746575967281678000,9.086677978515626,0.0015264789149165153,0.02511047585904598,-0.0025669096122495827
1746575967291756000,9.096756103515625,0.009093699298799038,0.014467501291632651,-0.0013981398275122047
1746575967301834000,9.106833984375,0.011218728628754615,0.018176877203583717,0.0061251957488711916
1746575967311912000,9.116911865234375,0.029784897410869596,0.004970774149894714,0.027012345691304653
1746575967321990000,9.126989990234375,0.01964548845142126,0.009404957205057143,-0.0061389320132788265
1746575967332067800,9.13706787109375,0.012019523617625236,0.00725274760723114,0.021658463108493013
1746575967342145800,9.147145751953126,-0.018137421976029872,0.015326163947582244,0.015412408325774594
1746575967352224000,9.15722412109375,-0.011377134060859679,0.013354571613669394,-0.011907167550642042
1746575967362302000,9.167302001953125,0.0033510639935731886,0.002761281406879425,-0.007015102926455438
1746575967372380000,9.1773798828125,0.003242342922091484,0.0017354454904794693,0.013395515545411034
1746575967382459000,9.187458984375,-0.004044891476631164,-0.0036298809349536894,0.026479316526837646
1746575967392536800,9.197536865234374,0.0009019172757863998,-0.013061726146936415,0.007321182334097102
1746575967402615000,9.207614990234376,-0.04259586366713047,-0.00455050291121006,-0.0011279628503136337
1746575967412693000,9.21769287109375,-0.025292846688628197,-0.011918401330709457,-0.02079296885295771
1746575967422771000,9.22777099609375,0.006506605415046215,0.02253682597875595,-0.025613283415185286
1746575967432849000,9.237848876953125,0.017467559890449045,0.04100713317096233,0.007995254803914576
1746575967442926800,9.2479267578125,0.04824643677473068,0.033984687188267707,-0.0023474307758267966
1746575967453005000,9.258005126953124,0.02951075664460659,0.012616904988884925,-0.0009653926997445524
1746575967463083000,9.2680830078125,0.02680675838291645,-0.001983867293596268,0.0032326983109116554
1746575967473161000,9.278160888671875,-0.02588204475343227,-0.02324702007472515,-0.011480904962588101
1746575967483240000,9.288239990234375,-0.11439151833355427,-0.011585223853588103,-0.01638372844280675
1746575967493318100,9.298318115234375,-0.15973171227276325,0.01949731215238571,-0.02016127422014251
1746575967503396000,9.30839599609375,-0.1271624448403716,0.011624386820197105,-0.03973224526378326
1746575967513474000,9.31847412109375,-0.06384148079156875,-0.007656067711114883,-0.02946111794975586
1746575967523552000,9.328552001953126,0.020820669710636137,0.006302315014600753,0.028099976531229913
1746575967533630000,9.3386298828125,0.03823006967306137,0.04423310948014259,0.07004669210724532
1746575967543708200,9.348708251953125,0.0830427326068282,0.05753332055807113,0.04583963136132806
1746575967553786000,9.3587861328125,0.12638444620519876,0.012180851659178734,-0.032575962034659456
1746575967563864000,9.368864013671875,0.0836859989464283,0.020832944670319556,0.015205578908370807
1746575967573942000,9.37894189453125,0.09821429051458835,0.04916705875098705,0.014183040060754864
1746575967584021000,9.38902099609375,0.033275077614188193,0.06292670403420925,-0.008903044698061422
1746575967594099000,9.399098876953126,-0.0004816460371017456,0.05527122084498405,-0.03560392242055386
1746575967604177000,9.409177001953125,0.018726327779889106,-0.016436755537986753,-0.08090318156117574
1746575967614254800,9.4192548828125,-0.08602262520045041,0.004705985733866692,0.052595078704599285
1746575967624332800,9.429332763671875,-0.005255728571116924,0.0029208558827638624,-0.00756261727400124
1746575967634411000,9.439410888671874,-0.08599544493257999,-0.01512508841753006,-0.017391946504125372
1746575967644489000,9.449489013671876,-0.12026567106395959,0.035059038421511646,-0.026865338436048478
1746575967654567000,9.45956689453125,-0.09060323098897934,0.029778467670083044,-0.05605062598595395
1746575967664644900,9.469644775390625,-0.08958587063997983,0.03217559193968773,-0.014320238308049738
1746575967674723800,9.479723876953125,-0.018336451679468155,-0.009297405177354811,0.008712408363632858
1746575967684802000,9.489802001953125,-0.019449965879321098,-0.006292962664365768,0.0159594386161305
1746575967694880000,9.4998798828125,-0.0004939209967851639,-0.010393968242406845,0.012649400752689688
1746575967704958000,9.5099580078125,0.030615503016114234,0.008980009791254996,0.01488030160991475
1746575967715036000,9.520035888671876,0.013864274701476097,0.027077976539731024,0.02513922702949494
1746575967725113900,9.53011376953125,0.07506371655166148,0.02577157011628151,-0.001745327563676983
1746575967735192000,9.540192138671875,0.07976327254474162,0.011883330017328261,-0.0004440357067622244
1746575967745270000,9.55027001953125,0.03764116386920213,0.010154898789525031,0.031648837252380324
1746575967755348000,9.560347900390624,0.002517243517935276,0.0015653496205806732,0.029669481737120074
1746575967765426000,9.570426025390624,-0.008099719825387,0.011555413237214087,0.01428832706613466
1746575967775505200,9.580505126953126,-0.00416881011724472,0.019068857607245443,-0.00203745151120238
1746575967785583000,9.5905830078125,0.00410392818748951,0.015058452922105788,-0.037535502404486755
1746575967795661000,9.6006611328125,-0.017865911558270452,0.025035657057166098,-0.017754066947940735
1746575967805739000,9.610739013671875,-0.036789807736873625,0.01896715079843998,0.007167964533763006
1746575967815817000,9.62081689453125,-0.051746553850173946,0.007958850049972533,0.01271573485401459
1746575967825895200,9.630895263671874,-0.06969722108244895,0.00857376707792282,-0.013931348588317632
1746575967835973000,9.64097314453125,-0.07236731707453728,-0.005684475377202034,-0.01598703900910914
1746575967846051000,9.651051025390625,-0.057824412459135055,-0.007422258955240249,-0.011006967307906597
1746575967856129000,9.66112890625,0.002530395260453224,0.017338088291883467,-0.004996292183641344
1746575967866207000,9.67120703125,0.027064824797213075,0.01152268001139164,-0.009077853275695815
1746575967876286000,9.681285888671875,0.0314537074059248,0.005336100330948829,-0.025131098521966485
1746575967886364000,9.691364013671874,0.028692133738100527,0.01841536213457584,-0.01280531283360906
1746575967896441900,9.70144189453125,0.011997311785817146,0.04018412635028362,-0.02045792821231298
1746575967906519800,9.711519775390625,0.025331717394292352,0.040213936966657635,-0.01780646385545842
1746575967916598000,9.721597900390625,0.027005495825409887,0.03365034066736698,-0.019325197855336592
1746575967926676000,9.731676025390625,0.012327858914434909,0.015565817922353743,-0.0009500672664493322
1746575967936754000,9.74175390625,0.017056348741054533,-0.0004319616764783859,0.016915515498258173
1746575967946833000,9.7518330078125,-0.010338146401941776,0.013239420801401138,0.006724641213053837
1746575967956910800,9.761910888671874,-0.020206921726465224,-0.01305412736237049,-0.0029168646942358462
1746575967966988800,9.77198876953125,-0.03685936584174633,-0.0004769698619842529,-0.024040079281711948
1746575967977068000,9.782068115234376,-0.04438917682468891,-0.013467384338378905,-0.022652899239631367
1746575967987146000,9.79214599609375,-0.04561959540247917,0.00783610045313835,-0.01763520807493478
1746575967997224000,9.802223876953125,-0.02084112797677517,0.003605331015586853,-0.02649010278233327
1746575968007302000,9.812302001953125,0.011688684228062629,0.012853051832318305,-0.011136566770635544
1746575968017380000,9.822380126953124,0.048151744228601454,0.0060416182518005365,-0.00837005206621252
1746575968027458000,9.8324580078125,0.050364159581065174,0.004724690434336662,0.026720915863523258
1746575968037536000,9.842535888671875,0.031360183903574944,0.024115619602799416,0.054667692860728125
1746575968047614000,9.852614013671875,0.010991349613666533,0.031248540222644804,0.006870178030431271
1746575968057692000,9.86269189453125,0.02169452993571758,0.018341127854585648,-0.032430854475544765
1746575968067771000,9.87277099609375,-0.004261164575815201,0.03063303867280483,-0.01820854185032658
1746575968077848800,9.882848876953124,-0.010361819538474083,0.01647124232947826,-0.0016657686545979232
1746575968087926800,9.8929267578125,-0.010090601381659507,0.008351064237952233,-0.036000675786333154
1746575968098004700,9.903004638671876,-0.02943301523327827,0.010189970102906227,-0.06630378838502801
1746575968108083000,9.9130830078125,-0.0373506564900279,0.023145897787809372,-0.05318937306962907
1746575968118161000,9.923160888671875,0.0028109657675027848,0.02484218031167984,-0.017547621123027057
1746575968128238800,9.93323876953125,0.056470952023565765,0.005790858361124992,0.03293589965454303
1746575968138316800,9.94331689453125,0.07114625084698199,0.02381692891716957,0.05468113686419092
1746575968148394800,9.953394775390626,0.047504093974828715,0.01682429355084896,0.0563737843925599
1746575968158472700,9.96347265625,0.02134381680190563,0.006148001235723495,0.07328890716517343
1746575968168552000,9.973552001953125,-0.044588791050016875,-0.005870937860012054,0.024906075860746203
1746575968178630000,9.9836298828125,-0.07178337970674037,0.008538695764541625,-0.00640389395924285
1746575968188707800,9.993707763671875,-0.06722995418608188,0.010322072049975395,-0.03111099491547793
1746575968198785800,10.003785888671874,-0.08708616277873515,0.0066810851991176605,-0.029042161885323003
1746575968208864000,10.013864013671874,-0.050915363723039626,0.0039209728360176084,-0.04004030656595714
1746575968218942000,10.02394189453125,-0.01466974586546421,0.030316227808594703,-0.04900552064687945
1746575968229020000,10.03402001953125,0.019522446593642235,0.026308161211013793,-0.05862117059370502
1746575968239097900,10.044097900390625,0.032603461962938306,0.014331307691335678,-0.03591409348142333
1746575968249175800,10.05417578125,0.04619008876681328,0.0008761983126401901,-0.0036645412563811987
1746575968259254000,10.06425390625,0.0484592027425766,0.035195232021808624,0.0286393075723201
1746575968269333000,10.0743330078125,0.06185001471340656,0.023783611169457434,0.007545867068599909
1746575968279411000,10.084410888671876,0.023822774136066434,0.006118775141239166,0.011318042551074176
1746575968289489000,10.094489013671875,-0.00979249521791935,-0.005833528459072113,0.030298043697932733
1746575968299567000,10.104567138671875,-0.002967617633938789,0.02259878529906273,0.039377833202388135
1746575968309645000,10.11464501953125,-0.05589315213561058,0.019732874473929404,-0.007859800989134236
1746575968319723000,10.124722900390625,-0.03022445787191391,0.003407762616872787,-0.030565946519654243
1746575968329801000,10.134801025390624,-0.017931085748970507,0.010749942073225974,-0.02696261566490866
1746575968339879000,10.14487890625,0.02204962698370218,-0.007426935130357742,0.01660131671624258
1746575968349956900,10.154956787109375,0.03526625143140554,0.005135609322786331,0.041551861906377593
1746575968360034800,10.165034912109375,0.015908055488765237,0.008467384093999861,0.021516670884471387
1746575968370113800,10.17511376953125,0.025309797823429105,0.0034673838496208187,-0.029746702558640387
1746575968380191700,10.185191650390625,0.012286650121212005,-0.002097264540195465,-0.012102735788514837
1746575968390270000,10.19527001953125,-0.010520809492468834,0.02894903110861778,0.002524522642092779
1746575968400348000,10.205347900390626,-0.02215864031612873,0.017398294046521184,-0.02253635105472058
1746575968410425900,10.21542578125,-0.061355216933786864,0.003634557110071182,-0.01305760709424503
1746575968420503800,10.22550390625,-0.06803542535007,0.011783961296081542,-0.019274033923679962
1746575968430581800,10.235581787109375,-0.04343640614449978,0.00827273830473423,-0.006111249421909451
1746575968440660000,10.245659912109375,-0.011971300561726093,0.011077274331450462,-0.0014443627225700765
1746575968450738000,10.255738037109374,-0.007087327912449836,0.01654723017513752,-0.0006325074835680425
1746575968460817000,10.26581689453125,0.029377193392813205,0.006045709905028343,0.0032764917868655175
1746575968470894800,10.275894775390626,0.06031067631691694,0.009439443996548651,-0.002499306002445519
1746575968480973000,10.28597314453125,0.07262041505277156,0.015023381608724594,-0.008342561271088197
1746575968491051000,10.296051025390625,0.061411623296141624,0.031893267866969104,-0.0037388760010711847
1746575968501129000,10.30612890625,0.03921060514301061,0.010457681128382683,-0.02158244786337018
1746575968511207000,10.31620703125,-0.026228373973071574,0.01909165396094322,-0.02615453241872601
1746575968521284900,10.326284912109376,-0.08373276069760321,0.004031447473168373,-0.04512622239496559
1746575968531363000,10.336363037109376,-0.09962006565928458,0.014983049598336219,-0.010915014708135277
1746575968541441000,10.34644091796875,-0.07493103008270263,0.01661035853922367,0.007554333502845839
1746575968551519000,10.35651904296875,0.0014379238486289978,-0.010054945546388626,0.00024947211588732896
1746575968561598000,10.366597900390625,-0.007761281651258468,-0.013872458007931708,0.05021656780391931
1746575968571676000,10.376676025390625,0.002617196761071682,-0.0039221418797969814,0.04510459508504718
1746575968581753900,10.38675390625,-0.006804419317841529,0.004560439783334732,0.028075855870125812
1746575968591831800,10.396831787109376,-0.017568974438309667,0.03588321428596973,-0.03527697375481948
1746575968601909800,10.40690966796875,0.0056838908553123475,0.010268296036124228,-0.034244781162869185
1746575968611987700,10.41698779296875,0.04576163422167301,0.0029290391892194748,-0.035421880384534594
1746575968622065700,10.427065673828125,0.08329612284600735,0.012762450939416884,0.009102969450643286
1746575968632144000,10.437143798828124,0.08881342496275901,0.025424948635697362,0.029624108225433154
1746575968642221800,10.447221923828126,0.09260112680792808,0.013413023802638053,0.0183806561473757
1746575968652299800,10.4572998046875,0.0885413300231099,0.02233282783925533,0.007907978379260747
1746575968662378800,10.467378662109375,0.054205052918195724,0.017760113096237182,-0.00944628472928889
1746575968672457000,10.47745703125,-0.011327741961181163,0.01612052919566631,0.0006859181712381542
1746575968682535000,10.487534912109375,-0.0561842440366745,0.0046925417304039,-0.034013136964617295
1746575968692612900,10.49761279296875,-0.08907295268177985,-0.011872808623313903,-0.0364645761041902
1746575968702690800,10.50769091796875,-0.14578268189728258,-0.00930792657136917,-0.051914969219639895
1746575968712768800,10.517768798828126,-0.14669775091558693,-0.015129180070757866,-0.030120440375013276
1746575968722847000,10.527846923828125,-0.10573796401768921,-0.0012789338946342468,-0.0011530698921065777
1746575968732925000,10.537925048828125,-0.0540098226070404,-0.00010287585258483886,0.01802131218253635
1746575968743003000,10.5480029296875,0.004772036707401275,0.0017611644536256789,0.012179244223982096
1746575968753081900,10.558081787109375,0.08592880943715572,0.006835398977994918,0.03323874592548236
1746575968763160000,10.56816015625,0.14894436079859733,0.03334229763150215,0.0587195529342629
1746575968773238000,10.578238037109376,0.15969050347954034,0.04260287792980671,0.05287444363525137
1746575968783316000,10.58831591796875,0.12695610861331225,0.049102761343121526,0.021404753208905457
1746575968793394000,10.598393798828125,0.08273673539757728,0.03690378950536251,-0.026761841528955846
1746575968803472000,10.608471923828125,-0.026269290505349634,0.027670097213983533,-0.03005802439698018
1746575968813550000,10.618550048828125,-0.11474398503303528,0.028697102174162863,-0.031810247492324556
1746575968823628000,10.6286279296875,-0.1672539244711399,0.02955518030822277,-0.040274617645330725
1746575968833706000,10.6387060546875,-0.16061200223863123,0.006517419070005416,-0.04049907405097037
1746575968843784000,10.648783935546875,-0.14111001391112804,-0.009065349987149238,-0.027701789260189978
1746575968853863000,10.65886279296875,-0.07771744593083858,-0.03012859628200531,-0.02165308368047699
1746575968863940900,10.66894091796875,-0.052017772006988525,-0.0060083005040884015,0.007654259346518665
1746575968874018800,10.679018798828125,-0.011214636975526809,0.0016956980019807815,-0.0033220570947974917
1746575968884096800,10.6890966796875,0.02288578554689884,-0.0034691374152898786,0.0004920852327253669
1746575968894174700,10.6991748046875,0.08647709096968173,0.021197101807594296,0.023016097395680845
1746575968904253000,10.7092529296875,0.1602951913744211,0.019828736063838004,0.0317401505313348
1746575968914331000,10.719330810546875,0.15591186172366142,0.01970657098889351,0.023712993618659674
1746575968924408800,10.729408935546875,0.14590133984088896,0.014492635732889175,0.0013595979154109954
1746575968934486800,10.73948681640625,0.1133089837938547,0.03615267887711525,0.018754147368576377
1746575968944564700,10.749564697265624,0.053204643703997134,0.0172147541731596,0.013304832454118877
1746575968954643200,10.759643310546876,-0.0414767965093255,0.000011690437793731688,0.004262452350603416
1746575968964721200,10.76972119140625,-0.08705430633574723,-0.00010989011526107787,-0.014889900555321946
1746575968974799000,10.779799072265625,-0.14143208547234534,-0.00805880329310894,-0.014819931458495557
1746575968984877000,10.789876953125,-0.15036036507636308,-0.02065291192829609,-0.020303623566590247
1746575968994955300,10.799955322265625,-0.1371434483677149,-0.006190086811780929,-0.05371279415553435
1746575969005033200,10.810033203125,-0.05230331095010042,0.0027390695750713345,-0.059426924885483456
1746575969015111200,10.820111083984376,0.009709785370528697,0.025092355680465698,-0.03910228593032807
1746575969025189000,10.830189208984375,0.05377601385116577,0.04487082286179066,-0.01889372936920263
1746575969035267000,10.84026708984375,0.10822656596302986,0.04064005342423915,0.01822868045605719
1746575969045346300,10.85034619140625,0.13503449338972567,0.03650280748903751,0.030053795746434478
1746575969055424300,10.86042431640625,0.10072364298701286,0.01783200928866863,0.005611127013200894
1746575969065502200,10.870502197265624,0.04876315412521362,-0.001991466078162193,0.03772602000790648
1746575969075580200,10.880580078125,-0.010308043524622917,0.013100889113545417,0.031433577933348715
1746575969085658400,10.890658447265626,-0.06629997985959053,0.011342062747478484,-0.00004556530793197453
1746575969095736300,10.900736328125,-0.10708470245152711,0.005971475625038147,-0.03417241004640236
1746575969105814300,10.910814208984375,-0.12086042208671569,0.007788754180073737,-0.045809985141735524
1746575969115892200,10.920892333984375,-0.11689999402314424,0.003243511965870857,-0.0651128250347916
1746575969125970200,10.93097021484375,-0.07825608285218477,0.0038379707276821134,-0.03337596243908628
1746575969136048400,10.94104833984375,-0.018980010280013084,0.018892916518449782,-0.012321648369356989
1746575969146127000,10.951127197265626,0.062007543362677095,0.029584990924596783,0.006290058321226388
1746575969156205000,10.961205078125,0.10836509765088558,0.023431144469976423,0.027107595359859987
1746575969166283000,10.971282958984375,0.11640402719974517,0.01669920586645603,0.029732062111934646
1746575969176361200,10.981361328125,0.09107932406812906,0.027736732709407803,0.013955606246739626
1746575969186439200,10.991439208984374,0.04468523716181516,0.024158289700746533,-0.0049095180824864654
1746575969196517000,11.00151708984375,-0.0012955927684903145,0.008183306455612183,0.0018552268120925872
1746575969206595000,11.011594970703126,-0.056439972363412375,0.00526245057284832,-0.011635647999728098
1746575969216673000,11.021673095703125,-0.08607961608469486,-0.03580430383086204,-0.01040136609757319
1746575969226751200,11.031751220703125,-0.09857727860808371,-0.006017652854323386,0.008226049618795514
1746575969236830200,11.041830322265625,-0.06594225246310234,-0.005361819294095039,-0.02240880655176006
1746575969246908200,11.051908203125,-0.06236322493255138,0.00012099603116512298,-0.014877379000466316
1746575969256986000,11.061986083984374,-0.012763035461306572,0.034763270345330236,-0.008275259055383503
1746575969267064300,11.072064208984376,0.02025105312913656,0.036001872229576105,-0.019674422284960746
1746575969277142300,11.082142333984375,0.07089023025929928,0.02980535567700863,-0.00497584305065684
1746575969287220200,11.09222021484375,0.10127133999764919,0.010569909331202507,0.027691560127120464
1746575969297298200,11.102298095703125,0.10113631544113158,0.026329788520932196,0.01046705174492672
1746575969307376000,11.112376220703124,0.017986030806601046,0.030079496443271635,0.00041877340134233236
1746575969317454300,11.122454345703124,-0.00467383702993393,0.04085223487019539,-0.036525704307435077
1746575969327532300,11.1325322265625,-0.01253477966338396,0.025989596781134605,-0.048435547872353345
1746575969337611300,11.142611328125,0.018843232157826423,0.010439560949802399,-0.03882779810419306
1746575969347689200,11.152689208984375,0.01763210280239582,-0.0020247838258743286,0.0401775687453337
1746575969357767400,11.162767333984375,0.0003717559218406677,0.00774900669157505,0.06070373988826759
1746575969367845400,11.172845458984375,0.01765080750286579,0.000058452188968658445,0.05762562021771445
1746575969377923300,11.18292333984375,0.0019891279906034467,0.0026408698976039886,0.021980196742992848
1746575969388001300,11.193001220703126,-0.01681786381006241,0.010312135177850722,0.009885845190333201
1746575969398079200,11.203079345703125,0.0011515081226825714,0.0054787236720323556,0.009980318540753796
1746575969408157200,11.2131572265625,-0.026893267622590065,0.00208440505862236,0.012413591835973783
1746575969418235400,11.2232353515625,-0.07226619478762149,0.004320201286673545,-0.004605703697167337
1746575969428314000,11.233314208984375,-0.08393442074954509,0.00135024556517601,-0.057030348605150355
1746575969438392000,11.24339208984375,-0.09279197320491075,0.008972995528578758,-0.06784432322476058
1746575969448470000,11.253469970703126,-0.061547524635493754,0.016308160722255705,-0.029016159794386473
1746575969458548200,11.26354833984375,-0.02477232994586229,0.01855973904132843,-0.007662022527866065
1746575969468626200,11.273626220703125,0.019059212996065614,0.013403671452403067,-0.019299972082534804
1746575969478704000,11.2837041015625,0.023869828148186206,0.0249877262622118,-0.020111964318854734
1746575969488782000,11.293781982421875,0.027049627228081224,0.01978138979077339,-0.006279445595666766
1746575969498860000,11.303860107421874,0.01963409027457237,-0.008353402325510979,0.009007190059125423
1746575969508938200,11.313938232421876,0.04810965865254402,0.018594810354709623,0.034854528825357556
1746575969519017200,11.324017333984376,0.040323827081918714,0.01996492966413498,0.009147630576277151
1746575969529095200,11.33409521484375,0.05629939484894275,-0.001432078629732132,-0.004053522307658567
1746575969539173000,11.344173095703125,0.02800795086622238,-0.008878887504339218,0.0007401873754337429
1746575969549251300,11.354251220703125,0.006623217532038688,0.013761398848891257,0.0473679551734589
1746575969559329300,11.364329345703124,0.007499415844678879,-0.027449147939682006,0.005499729927442968
1746575969569407200,11.3744072265625,-0.0294797769844532,-0.01673719978928566,0.004176545899128541
1746575969579485200,11.384485107421876,-0.029090485405921934,0.0271487036883831,0.015941574165876955
1746575969589563100,11.394563232421875,-0.02758300345242023,0.040655835515260696,0.010745558159053325
1746575969599641300,11.404641357421875,-0.0072188453376293175,0.03987725235819816,-0.01918028209246695
1746575969609719300,11.41471923828125,0.023314824613928795,0.006458382359147072,-0.03911781229302287
1746575969619798300,11.42479833984375,0.00036298809349536896,0.00020224457383155822,-0.010555935604777187
1746575969629876200,11.434876220703124,0.010336685097217559,0.007929623955488204,0.001324544868338853
1746575969639954400,11.444954345703126,-0.021279519394040106,0.025404490369558334,-0.004857513900613412
1746575969650032400,11.455032470703125,-0.019920506000518798,0.012191957575082778,-0.027799477481003847
1746575969660110300,11.4651103515625,0.008336451190710067,-0.0010270049601793288,-0.03114230336919427
1746575969670188300,11.475188232421875,0.0017629180192947386,0.012348024919629096,-0.010696366988774388
1746575969680266200,11.485266357421875,0.004077624702453613,0.04403203395009041,0.03334330227850005
1746575969690344400,11.495344482421874,0.012418167546391487,0.0027776480197906493,0.019193981824256478
1746575969700422400,11.50542236328125,-0.004733166001737118,0.0131757079154253,-0.0034693931436166167
1746575969710501000,11.515501220703126,0.025302783560752867,-0.012072715109586714,-0.02357517431685701
1746575969720579000,11.5255791015625,0.030877661083638666,0.017747838136553763,0.006677486736234277
1746575969730657300,11.5356572265625,0.009635258829593658,0.03637070554196834,0.03500805715294555
1746575969740735200,11.5457353515625,-0.022086159601807594,0.02087853737771511,-0.01744383195498958
1746575969750813200,11.555813232421874,-0.02768938643634319,0.03258300369679928,-0.04601210185140371
1746575969760891100,11.56589111328125,-0.012584756284952163,0.0025666356176137924,-0.014814835158269852
1746575969770969000,11.575968994140625,-0.014213818791508674,0.019978958189487455,0.026354429771844295
1746575969781047300,11.58604736328125,-0.0036678748577833173,0.0037181437402963634,0.014769854372227564
1746575969791125200,11.596125244140625,-0.0024777882903814314,0.01631809759438038,-0.011881987443612888
1746575969801204200,11.606204345703125,-0.016709434999525544,0.006619710400700569,-0.03802067383923568
1746575969811282200,11.6162822265625,-0.01201104805022478,0.008161679145693778,-0.01531638233908452
1746575969821360000,11.626360107421876,-0.011552782888710499,0.004648702588677406,-0.02087412606407888
1746575969831438300,11.636438232421876,0.00047229368686676023,0.012354454660415648,-0.017522486681770533
1746575969841516300,11.646516357421875,0.004639934760332107,0.01186813244819641,-0.039224204410100355
1746575969851594200,11.65659423828125,0.0018798223972320556,0.012595277678966522,-0.026512570342468095
1746575969861672200,11.666672119140625,0.03029927667379379,0.009598433950543403,0.0030964407785329965
1746575969871750100,11.676750244140624,0.04571078081727028,0.006074351477622986,0.0649670233559329
1746575969881828400,11.686828369140626,0.009671499186754227,0.024098668467998505,0.05791984479078091
1746575969891906300,11.69690625,-0.05614098941683769,-0.009354688322544097,0.01270401701675728
1746575969901985300,11.7069853515625,-0.07175415361225605,-0.0035632454395294185,-0.019947430540062486
1746575969912063200,11.717063232421875,-0.05800152259171009,0.008571428990364074,-0.0036652627755887806
1746575969922141400,11.727141357421875,-0.025179157181084155,0.006807926449179649,-0.0031852881057653575
1746575969932219400,11.737219482421875,0.017992168286442754,-0.002451484805345535,-0.021410516229411584
1746575969942297300,11.74729736328125,0.025676293048262595,0.0023404256463050842,-0.04705466057374142
1746575969952374800,11.757374755859376,0.03704582832455635,0.02195464217662811,-0.028152857495937496
1746575969962452700,11.76745263671875,0.024476854130625725,0.034086393997073174,-0.0009412446391768753
1746575969972531000,11.777531005859375,0.04123042053282261,0.03448503792583942,-0.006114108099276199
1746575969982609000,11.78760888671875,0.012039689622819424,0.041453123372793194,0.02609207990807481
1746575969992687600,11.7976875,-0.012478957822918892,0.02931201920211315,0.03557906197393313
1746575970002765600,11.807765625,0.02004588594585657,0.02731646147072315,0.044328505279170344
1746575970012843800,11.81784375,0.005845803418755531,0.03041735009551048,0.028133522607805207
1746575970022921700,11.827921630859375,-0.016590484794974325,0.011506897920370102,-0.002448479997506365
1746575970032999700,11.837999755859375,-0.04566138871759176,0.022123569002747534,-0.007846137789962813
1746575970043077600,11.84807763671875,-0.04331950176656246,-0.0063590136379003525,-0.01252741834083572
1746575970053155600,11.858155517578124,-0.06557517271637917,-0.009804770177602767,-0.033832245706068347
1746575970063233500,11.868233642578126,-0.042189328692853446,-0.008061141380667686,-0.04936831694412976
1746575970073311700,11.878311767578126,-0.018440496575832365,-0.005458849927783012,-0.033764696895191446
1746575970083390700,11.888390625,-0.002524550041556358,-0.013068155887722968,-0.0294927734633442
1746575970093468700,11.89846875,-0.010793781214952468,-0.007900982382893561,-0.010533550243033096
1746575970103546600,11.908546630859375,-0.016320435681939124,-0.02010287683010101,-0.03447749394020065
1746575970113624800,11.918624755859375,0.022165070056915284,0.011231003588438034,-0.018547153554391113
1746575970123702800,11.928702880859374,0.007234627428650856,0.03388356490135193,0.010060882096830755
1746575970133780700,11.93878076171875,0.03385901498198509,0.044615971317887304,0.01489337115404196
1746575970143858700,11.948858642578125,0.02939911296367645,0.03735036422908306,0.022647821205714715
1746575970153936600,11.9589365234375,0.015129764592647551,0.034767361998558045,0.008589713565725833
1746575970164014800,11.969014892578125,0.05341331801861524,0.018697686207294464,0.007612995754368603
1746575970174093800,11.97909375,0.05043021055459976,-0.005940495964884758,0.029918277999572453
1746575970184171800,11.989171875,0.04274783935844898,0.010874445235729217,0.021730085306288675
1746575970194249700,11.999249755859376,0.033554771338403226,0.018558569997549054,0.03751544599714689
1746575970204328000,12.009327880859376,0.023254034337401388,-0.004694879817962646,0.034273477534390986
1746575970214406000,12.019406005859375,-0.0014969605594873428,-0.010458850172162056,0.01266742959972471
1746575970224483800,12.02948388671875,-0.02982522942125797,-0.010844634619355201,0.0132069341707509
1746575970234561800,12.039561767578125,-0.03252747411727905,0.009420154774188994,-0.013012014386849477
1746575970244639700,12.0496396484375,-0.043002106380462646,0.04176759614944458,-0.04232919382127002
1746575970254718000,12.059718017578126,-0.029816461592912673,0.03258475726246834,-0.04676166897653602
1746575970264796700,12.069796630859376,0.011622633254528045,0.028034254351258277,-0.02876097032376565
