time,seconds_elapsed,z,y,x
1746575916982578700,0.01957861328125,-0.0917547391116619,-0.011195808977470733,0.005755312123708427
1746575916992593700,0.02959375,-0.0833762023448944,-0.004782530701952055,0.006718859926238656
1746575917002609700,0.039609619140625,-0.0923562121361494,-0.004989538215869106,0.004056618447043001
1746575917012625700,0.049625732421875,-0.09624562079012393,-0.008113227760931476,-0.0010680128240026533
1746575917022640600,0.059640625,-0.09355039035677909,-0.01110063237415161,0.006927251113066449
1746575917032656600,0.06965673828125,-0.09714286189079284,0.0007959133177762851,0.003788660826394334
1746575917042671600,0.079671630859375,-0.1022287868529558,0.002127668811613694,-0.008845615422399714
1746575917052687600,0.0896875,-0.09609189153313637,-0.002484377861372195,-0.00937228791131638
1746575917062703600,0.09970361328125,-0.08875906442701816,0.0035982756537152453,-0.0045211489525623615
1746575917072718600,0.109718505859375,-0.09519231234490871,0.008764133984292858,0.002606437905039638
1746575917082734600,0.119734619140625,-0.0930968013703823,0.01324884165029507,-0.007198998992843553
1746575917092749600,0.12974951171875,-0.09788462016880511,0.0073784837455954395,-0.0016191986996680497
1746575917102765600,0.139765625,-0.09938041168451309,0.0014872246167622505,-0.006751383089506998
1746575917112781800,0.14978173828125,-0.09683598789870738,0.00005528298434801399,-0.005447132090525701
1746575917122796800,0.159796875,-0.09114683634638786,0.0018265350071480497,0.0010542217606678604
1746575917132812800,0.169812744140625,-0.09713000240921973,0.008250919198570773,0.006427156103821471
1746575917142827800,0.179827880859375,-0.10189677841961384,0.0013555382282240316,0.0026770828553009775
1746575917152843800,0.18984375,-0.0925216318309307,-0.004990931021934375,-0.007385260546253994
1746575917162859800,0.19985986328125,-0.09072422702014446,-0.0037491234004497524,-0.0012911723216995595
1746575917172874800,0.209874755859375,-0.10075053099393844,-0.005902794302999973,0.0017384868309367448
1746575917182890800,0.219890869140625,-0.10701543660759925,-0.006204170136060566,0.019906331344693898
1746575917192905700,0.22990576171875,-0.09413608129024505,0.00781671989923343,0.01166321186008863
1746575917202921700,0.239921630859375,-0.09892448461055756,0.0006846395296044647,0.000336227950733155
1746575917212937700,0.249937744140625,-0.09414952529370785,0.00013869608463719485,-0.0020405202511232347
1746575917222953000,0.259952880859375,-0.09564414776563644,0.005338748945761472,0.002979773862613365
1746575917232968700,0.26996875,-0.09159282654821872,0.006292674969998188,0.007918572838511318
1746575917242984000,0.27998388671875,-0.08530512458086013,0.004009916061372496,0.006769941659504547
1746575917252999700,0.289999755859375,-0.09129062873125075,-0.00043948739580810067,0.0007703176522161811
1746575917263015700,0.300015625,-0.08920739271640778,0.00271146004893817,0.007729489140352234
1746575917273030700,0.31003076171875,-0.09714812258780002,-0.002860956088802777,-0.0020201441833749413
1746575917283046700,0.320046630859375,-0.09924187999665736,-0.00576065045252908,0.0002612630183808505
1746575917293061600,0.3300615234375,-0.0944517231106758,-0.0011192178548546507,-0.0025959804431069642
1746575917303077600,0.34007763671875,-0.08801905971467494,-0.0021376056837383657,0.00865615726490505
1746575917313093600,0.35009375,-0.08428045770823955,-0.004592095296923071,-0.00022729681669734418
1746575917323108600,0.360108642578125,-0.10179214900135994,-0.007131431915657595,-0.000962899348558858
1746575917333124600,0.37012451171875,-0.09281213921010494,0.0037193310503847894,0.0037813725690823046
1746575917343139600,0.3801396484375,-0.09760288061797619,0.004459801553608849,0.0020343005728907884
1746575917353155800,0.39015576171875,-0.09715221424102782,-0.0012382182917557655,-0.00428252702425234
1746575917363171800,0.400171875,-0.09909516500234604,-0.0027943205933785064,0.0006875256064347923
1746575917373186800,0.410186767578125,-0.10387947666943073,0.003684839692316018,0.007212305998988449
1746575917383202800,0.420202880859375,-0.09669745621085167,0.0067881349033210425,0.004111746167764068
1746575917393217800,0.4302177734375,-0.09056056089103222,0.0024773453323869033,-0.004231107364268973
1746575917403233800,0.44023388671875,-0.08816519018709659,-0.005949889414315112,0.003400666155805811
1746575917413249800,0.450249755859375,-0.09340542892813682,0.001544302265974693,0.003846026169974357
1746575917423264800,0.4602646484375,-0.08876724773347378,-0.0015696376366307959,0.009874145619384943
1746575917433280800,0.47028076171875,-0.09789163443148136,0.00388861406953074,0.0083977711902
1746575917443295700,0.480295654296875,-0.10282792178988456,-0.003810991389211267,-0.002392164966696873
1746575917453311700,0.490311767578125,-0.0950491044819355,-0.0031175109660252927,0.003122278472688049
1746575917463327700,0.50032763671875,-0.09594868367016315,-0.002219836040516384,0.010067457968089728
1746575917473342700,0.5103427734375,-0.08038578835725783,0.00024218385857529938,0.007673941294522956
1746575917483358700,0.520358642578125,-0.0965437269538641,-0.009965901856333947,0.0038381716570816933
1746575917493373700,0.530373779296875,-0.09863865340650081,-0.0060369375101057806,-0.005904922328004613
1746575917503390000,0.540389892578125,-0.09100888918042183,-0.001558696117508225,-0.001696382988570258
1746575917513405700,0.55040576171875,-0.09879238266348839,-0.003314768837485462,-0.0028882413879502563
1746575917523421000,0.5604208984375,-0.0893634600609541,0.008133658627606928,-0.001506796966912225
1746575917533436700,0.570436767578125,-0.08442308104932307,-0.00034172154318075625,-0.005030020923307166
1746575917543452000,0.580451904296875,-0.09175590815544128,0.0019211590546183287,-0.0034340387024451046
1746575917553467600,0.590467529296875,-0.09579670797884464,-0.0010614597856299951,-0.004824177886592224
1746575917563483600,0.600483642578125,-0.08921148436963558,-0.007047804186237044,0.00040566732459701595
1746575917573498600,0.61049853515625,-0.09729016140699386,-0.0014917181287892162,-0.00002377360123209655
1746575917583514600,0.6205146484375,-0.09848492414951324,0.0014883023289963603,-0.004572294617909938
1746575917593529600,0.630529541015625,-0.09070084614455699,0.004369250893057324,-0.004701126895658671
1746575917603545600,0.640545654296875,-0.09444237076044082,0.000867476150067523,0.0029314960077870635
1746575917613561600,0.6505615234375,-0.09518938973546028,0.0006112546329852193,0.009756875915266573
1746575917623576600,0.66057666015625,-0.08112462402582168,0.0015578010683646424,0.004751003052527084
1746575917633592800,0.6705927734375,-0.08725801221430302,0.001441504045203328,-0.003608107494562864
1746575917643607800,0.68060791015625,-0.09593582418859005,-0.0015559835706138983,-0.005225835756352171
1746575917653623800,0.690623779296875,-0.09728139357864857,0.0030483821194153275,0.006883786430675536
1746575917663639800,0.700639892578125,-0.09563421089351176,0.0035957001041388137,0.007241933952271938
1746575917673654800,0.71065478515625,-0.09219196148514747,-0.0002836986124748364,0.0011720577203668653
1746575917683670800,0.7206708984375,-0.09967384167313575,-0.004610868496051989,-0.005411987711908295
1746575917693685800,0.730685791015625,-0.09773147543370724,-0.0015754006571369245,-0.007840593965165317
1746575917703701800,0.74070166015625,-0.09503916760981082,-0.0027395627654157578,0.006058359324047341
1746575917713717800,0.7507177734375,-0.09189502436518669,-0.0008106542291818187,0.00820697959214449
1746575917723732700,0.760732666015625,-0.09473696979284287,0.0034817914008861404,0.004104220448434353
1746575917733748700,0.770748779296875,-0.09413958842158317,-0.008513118365290574,-0.004842425929335877
1746575917743763700,0.780763671875,-0.09429156411290168,0.005324231796641834,0.0002358180498704314
1746575917753779700,0.79077978515625,-0.09309446328282356,0.007757386360852978,0.001372009872412309
1746575917763796000,0.8007958984375,-0.09787994399368763,0.0018322706281905994,-0.004229993119416758
1746575917773810700,0.810810791015625,-0.10101999558508395,0.003479686208767816,-0.006242629849771037
1746575917783827000,0.820826904296875,-0.09159107298254966,0.004448937666299752,0.0052567423512693496
1746575917793842700,0.8308427734375,-0.09039455667436122,0.0020092254971386865,0.0007738795824814588
1746575917803858000,0.84085791015625,-0.10521218657791614,-0.0022271836633328346,0.006292478607175871
1746575917813873700,0.850873779296875,-0.08680676131546497,-0.0006284112637629732,-0.002038794084917754
1746575917823889000,0.860888916015625,-0.11224573847651481,0.009696756925596855,0.0008323135051410645
1746575917833904600,0.870904541015625,-0.10222177259027958,0.0033149606337305156,0.01085607846197672
1746575917843920000,0.880919921875,-0.08935235414505005,0.0015372469041030853,-0.0023886761016678063
1746575917853935600,0.890935546875,-0.09010112668573855,-0.004326494030142203,-0.00812155719785951
1746575917863951600,0.90095166015625,-0.09489011452794074,0.0009841613322962076,-0.006602384806564077
1746575917873966600,0.910966552734375,-0.10685995378494262,-0.007612653261073864,-0.000909324264107272
1746575917883982600,0.920982666015625,-0.0963864905655384,-0.001585300996643491,0.005856279146997258
1746575917893997600,0.93099755859375,-0.09459200836420059,-0.004532003706716932,0.00885471204430796
1746575917904013600,0.941013671875,-0.0918991160184145,-0.0021175447098212316,-0.011027991829626261
1746575917914029800,0.95102978515625,-0.09519406591057777,-0.007031533471448347,-0.005700631927559152
1746575917924044800,0.961044921875,-0.08262392267286776,-0.009559028955339454,-0.00010286671943031251
1746575917934060800,0.971060791015625,-0.08501637076735497,-0.003476517004147172,0.00611613565958105
1746575917944076800,0.981076904296875,-0.08411854514479637,0.011632273299130611,0.007627015146566554
1746575917954091800,0.991091796875,-0.09743453831374645,0.009339335489785298,0.0006069620503578334
1746575917964107800,1.001107666015625,-0.09264671951532363,-0.00009454184907954185,-0.005171365622757002
1746575917974122800,1.011122802734375,-0.09653846625685691,-0.005698691132222302,-0.0007123038546647876
1746575917984138800,1.021138671875,-0.09040215545892714,0.006460145057970657,0.0044219446280971166
1746575917994154800,1.03115478515625,-0.08531330788731574,0.011732500536902807,0.008578726380830631
1746575918004169700,1.041169677734375,-0.09069967710077761,-0.0009857459346065296,-0.0022625381045043467
1746575918014185700,1.051185791015625,-0.09578677110671996,-0.004584154019062407,-0.006219541235128417
1746575918024200700,1.06120068359375,-0.09444003267288208,0.0003893555106129497,-0.0029547855518292634
1746575918034216700,1.071216796875,-0.09773147543370724,-0.007462508767237887,0.011189931792533024
1746575918044233000,1.08123291015625,-0.08979951339066028,-0.0016538544545182958,-0.002718264249060303
1746575918054248000,1.091248046875,-0.09458791671097277,-0.0008773810561513528,0.0032530743786599483
1746575918064264000,1.101263916015625,-0.09773205995559692,0.0025124623115407303,0.0018836309226695448
1746575918074279000,1.11127880859375,-0.0847182646036148,-0.002911603997228667,0.00003592069675214588
1746575918084295000,1.121294921875,-0.09833470202386378,-0.00014461436877027153,0.008725404842523857
1746575918094310700,1.131310546875,-0.10237491732537746,0.00717909784913063,-0.0011853555933572352
1746575918104326000,1.141325927734375,-0.08800853832066059,0.0018774340773234143,0.0036714185217395423
1746575918114341600,1.151341552734375,-0.09249941999912262,0.0009818643439328297,-0.0018531535860151051
1746575918124356900,1.16135693359375,-0.09743687640130519,-0.004102042191079817,0.0034322212046943605
1746575918134372600,1.17137255859375,-0.09504267474114894,-0.0020284599205711855,0.007957827136665582
1746575918144388600,1.181388671875,-0.10072890368402003,-0.003494975109444931,0.006894344357308
1746575918154403600,1.191403564453125,-0.0944429552823305,0.0017445877781603484,0.0011850815987214445
1746575918164418800,1.201418701171875,-0.08905717059075832,-0.0008897930131526663,0.011519994863960891
1746575918174434000,1.21143408203125,-0.0929489173322916,-0.003991553854197263,0.01012337114010006
1746575918184450000,1.221449951171875,-0.0995318028539419,0.0036754142768448215,0.005152469126041978
1746575918194466000,1.231466064453125,-0.09579027823805808,0.003088115908182226,0.003356836147233844
1746575918204481000,1.24148095703125,-0.10147767622470855,-0.0003985206311801448,-0.005997203721338882
1746575918214497000,1.2514970703125,-0.09863514627516269,-0.0010758627703180536,0.002533646663464606
1746575918224512000,1.261511962890625,-0.09339783014357089,0.0029483695107745005,0.009465245158085599
1746575918234528000,1.271528076171875,-0.08426935179233551,0.002210880982503295,-0.0038133934088516977
1746575918244544000,1.2815439453125,-0.10447101282179355,0.0023728072456782683,-0.009385576651152222
1746575918254559000,1.29155908203125,-0.09265022664666175,0.00720520497134421,0.0003705868780612945
1746575918264575000,1.301574951171875,-0.08876140251457691,-0.0014705840092152356,0.0024099289522506295
1746575918274590000,1.31158984375,-0.10148176787793636,-0.0021459031546255574,0.0002738667716272175
1746575918284606000,1.32160595703125,-0.084870824816823,-0.0048412705852882935,-0.008835760748665778
1746575918294622000,1.3316220703125,-0.09160510150790215,-0.0044984393638325855,-0.003979726419085636
1746575918304637000,1.341636962890625,-0.09160568602979183,0.0072137901365989816,0.003485768889682367
1746575918314653000,1.35165283203125,-0.0886135184764862,0.0018395451857708394,0.0010071220827754586
1746575918324668000,1.36166796875,-0.0965437269538641,-0.004550498344632796,-0.00679227222232148
1746575918334684200,1.37168408203125,-0.09489946687817573,-0.006366562190116383,-0.0006694328273180872
1746575918344700200,1.3817001953125,-0.09459902262687682,0.005268702217121608,0.0053747975066769866
1746575918354715100,1.391715087890625,-0.09220365192294121,0.003350844797864556,0.00740612980434671
1746575918364731100,1.401731201171875,-0.09699147072136402,0.0029379622811917215,-0.0007791220131795853
1746575918374746000,1.41174609375,-0.08950842148959637,0.0012031880775699392,-0.004487009220942854
1746575918384762000,1.42176220703125,-0.09878770648837089,0.0019096832459559662,0.0034248964147642253
1746575918394778000,1.431778076171875,-0.09429624028801918,-0.00007562708605546504,-0.0013682196132838724
1746575918404793000,1.44179296875,-0.08965630552768707,-0.00018243019508663565,-0.007129066428635269
1746575918414809000,1.45180908203125,-0.0913017346471548,0.0019272006363375111,-0.010311422791797666
1746575918424824000,1.461823974609375,-0.0917506474584341,0.0008441181073663756,-0.0048550022831186646
1746575918434840000,1.471840087890625,-0.09444470884799956,-0.0035420154218329114,0.008852501820912585
1746575918444855800,1.481855712890625,-0.1029740522623062,0.004187834478123114,0.002479898049077019
1746575918454871000,1.49187109375,-0.09908230552077293,0.0017734759459272025,0.004390636174380779
1746575918464887000,1.501886962890625,-0.09534194994866847,0.0032805103748571127,0.007807047888590023
1746575918474902000,1.511902099609375,-0.09594108488559722,-0.005772687950194813,0.005511073305364698
1746575918484918000,1.52191796875,-0.0930968013703823,0.0006873064107261597,0.0034767727324739096
1746575918494934000,1.53193408203125,-0.09608955344557761,0.004865071585983969,-0.004294217462046072
1746575918504949000,1.541948974609375,-0.10342179602980613,0.0005559716486372053,0.0017108681716490536
1746575918514965000,1.551965087890625,-0.09219897574782371,0.006794710774580016,-0.0018474453644361346
1746575918524980000,1.56197998046875,-0.09563947159051894,-0.005510009292862377,0.00206354493368417
1746575918534996000,1.571995849609375,-0.0915980872452259,-0.006926671157754026,0.003948335766978561
1746575918545012000,1.582011962890625,-0.0808235952526331,-0.0026061456440947947,0.006545658783800899
1746575918555027000,1.59202685546875,-0.09144903416335583,-0.00985034918526653,0.002870806195959449
1746575918565043000,1.60204296875,-0.09952946476638316,-0.0071749148643575605,-0.002051635300181806
1746575918575058000,1.612057861328125,-0.0975847604393959,-0.00843543631946668,0.001848879269696772
1746575918585074000,1.622073974609375,-0.08576338974237442,0.005018211754504591,0.01562955820779316
1746575918595090000,1.63208984375,-0.09070201518833637,0.0039331473310012365,0.007365121940523385
1746575918605105000,1.64210498046875,-0.09564005611240864,0.0030015564361587166,0.002929093988146633
1746575918615121200,1.65212109375,-0.09833294845819472,0.002304778944188729,-0.003523032160149887
1746575918625136000,1.66213623046875,-0.08905600154697894,0.01029631655421108,0.0009696487497538327
1746575918635152100,1.672152099609375,-0.08890577942132949,0.004503759426344186,0.004919007430039346
1746575918645168000,1.682168212890625,-0.09294541020095348,0.0007219986981945112,-0.00370485500046052
1746575918655183000,1.69218310546875,-0.08920563915073872,-0.0015185467702103779,0.008449757105764
1746575918665199000,1.70219921875,-0.09309855493605136,-0.0016054944013012573,-0.001452061971835792
1746575918675214000,1.712214111328125,-0.0899555807352066,0.0002780497564002871,-0.00013784670126624406
1746575918685230000,1.72222998046875,-0.09279811068475245,0.0025445196839282286,-0.0021982224303297698
1746575918695246000,1.73224609375,-0.09623977557122707,-0.0036648517836350945,0.0031114191519562152
1746575918705261000,1.742260986328125,-0.08965689004957675,-0.00007741261776536703,0.005080390270520001
1746575918715277000,1.752277099609375,-0.1013274540990591,-0.008679990231641567,0.006432270670356228
1746575918725292000,1.7622919921875,-0.09055530019402504,-0.005803758941893465,0.002466627575550228
1746575918735308000,1.77230810546875,-0.10073182629346847,-0.002307678720750846,-0.005373071340471506
1746575918745324000,1.782323974609375,-0.0996802714139223,0.004566636628680862,0.010924595387233421
1746575918755339300,1.79233935546875,-0.08426701370477675,0.0037448536507086825,0.006846495760744437
1746575918765355000,1.80235498046875,-0.08755962550938129,0.004235491278441622,-0.008481896676542236
1746575918775370200,1.812370361328125,-0.10162556026279926,0.0019825703856535255,-0.0003798752962145954
1746575918785386000,1.822385986328125,-0.09743629187941551,0.0040331553730648005,-0.006385545451799407
1746575918795402000,1.832402099609375,-0.08591361186802386,-0.0012491780771873892,-0.002900534613942727
1746575918805417000,1.8424169921875,-0.08397066110670566,0.007892876708251423,0.006528588917991146
1746575918815433000,1.852432861328125,-0.09489479070305824,-0.003144047346501611,0.005645001883339136
1746575918825448000,1.862447998046875,-0.08980652765333652,-0.0038150373766664414,0.0032453385967761276
1746575918835464000,1.8724638671875,-0.09624036009311676,-0.00790819757496938,-0.0009220102157443762
1746575918845480000,1.88247998046875,-0.09504267474114894,-0.0007767976253526285,-0.004135775497322902
1746575918855495000,1.892494873046875,-0.09489245261549949,-0.006447217077738605,0.006420315371081233
1746575918865511000,1.902510986328125,-0.1004302129983902,-0.006170920887007378,0.016134320259001106
1746575918875526000,1.91252587890625,-0.08696458222568035,-0.0018599669192917645,0.003687949531432241
1746575918885542000,1.9225419921875,-0.0871142198294401,0.0005880929531063884,-0.0016133443476166575
1746575918895558100,1.93255810546875,-0.0945961000174284,-0.006020169038395397,0.0010182371318340302
1746575918905573000,1.942572998046875,-0.0919032076716423,-0.0022008801782969385,-0.0013660550556611269
1746575918915589000,1.952589111328125,-0.08651625393629074,0.007793206592905335,0.0066311999090947205
1746575918925604000,1.96260400390625,-0.09564414776563644,0.003209819758823141,0.00457794804056175
1746575918935620000,1.9726201171875,-0.09025777855217457,-0.0009927236646646634,-0.004143657409679144
1746575918945636000,1.982635986328125,-0.08083119403719902,0.004620503974077292,-0.006699735100660473
1746575918955651000,1.992651123046875,-0.09968670115470886,-0.000250093170395121,0.001478666850971058
1746575918965667000,2.0026669921875,-0.09773965874016284,-0.004585998916276731,0.0071796093057841055
1746575918975682000,2.01268212890625,-0.091454294860363,-0.009602653467934577,-0.0007918079648166895
1746575918985698000,2.022697998046875,-0.09863748436272143,-0.006406761769764125,0.0010202920916024595
1746575918995714000,2.032714111328125,-0.0905570537596941,-0.008085024579754099,0.003463346995320171
1746575919005729000,2.04272900390625,-0.09369944343864917,-0.005881349656172096,0.00375413750228472
1746575919015745000,2.0527451171875,-0.09070610684156417,-0.00398776816164609,0.002414312866423279
1746575919025760000,2.062760009765625,-0.0966916109919548,-0.00009153247466310859,0.005973886777833104
1746575919035776300,2.0727763671875,-0.0898071121752262,-0.003829180066450499,0.004630025287671014
1746575919045792000,2.0827919921875,-0.09594108488559722,-0.003989690690673888,-0.005073841798724606
1746575919055807200,2.09280712890625,-0.10776011749505995,-0.004073628947348334,-0.001275965619413182
1746575919065823000,2.102822998046875,-0.09563830254673958,0.010309267367329449,0.005302864781627431
1746575919075838200,2.112838134765625,-0.0908487301826477,0.0075581876940559595,0.007149232433829456
1746575919085854000,2.12285400390625,-0.09593582418859005,0.002216287809982896,0.0032065135568846016
1746575919095870000,2.132869873046875,-0.09593465514481067,-0.0053398997232317925,-0.005428564387373626
1746575919105885000,2.142885009765625,-0.09803016611933707,-0.006400893717980943,-0.008027248244220391
1746575919115901000,2.15290087890625,-0.08740589625239371,0.0025332128386246038,0.0018857680808287113
1746575919125916000,2.162916015625,-0.09608487727046013,0.001355287066474557,0.010973247701395303
1746575919135932000,2.172931884765625,-0.09683364981114864,0.0021923954777419564,-0.0016239114074036477
1746575919145948000,2.182947998046875,-0.09129647395014763,-0.009621928990562446,0.009029648486105725
1746575919155963000,2.192962890625,-0.08516191671788692,-0.008034143775887787,0.006704055082751437
1746575919165979400,2.2029794921875,-0.09444003267288208,-0.008829778532451019,-0.005636535449093208
1746575919175994400,2.212994384765625,-0.09922726694941521,-0.004720078191300854,0.004602497959928587
1746575919186010400,2.22301025390625,-0.0936895065665245,0.0020008412612834946,0.009562942512053996
1746575919196026400,2.2330263671875,-0.0966828431636095,0.0032246200357330963,0.006009359950013458
1746575919206041300,2.243041259765625,-0.09174714032709598,-0.001505664455750957,-0.005225095970835536
1746575919216057300,2.253057373046875,-0.09114858991205692,0.0022562910268083213,-0.0027022720954846587
1746575919226072300,2.263072265625,-0.09144728059768677,0.005725656770961359,0.0018893665437120944
1746575919236088300,2.27308837890625,-0.08890285681188106,0.007135605767276137,0.005360878579178825
1746575919246104600,2.2831044921875,-0.0927916809439659,-0.00414484471976757,0.004274060590006411
1746575919256119300,2.293119384765625,-0.08800269310176372,-0.008721011795196682,0.0062825417350512
1746575919266135600,2.303135498046875,-0.09219196148514747,0.00042778325828257945,0.012632531816279515
1746575919276150500,2.313150634765625,-0.09428688793778418,0.009411907535651699,0.0112589601744432
1746575919286166500,2.32316650390625,-0.09069558544754981,0.0010514772477326914,0.0008060191532596945
1746575919296182300,2.333182373046875,-0.09787819042801857,-0.010690261474973522,-0.004249994727829471
1746575919306197500,2.343197509765625,-0.10176701456010341,-0.0033576626977184785,0.006692748237447812
1746575919316213200,2.353213134765625,-0.10595686746537684,0.0007583714860957115,0.0049891683231107885
1746575919326228500,2.363228515625,-0.09548281972408294,0.0006273244183743372,0.006325138767762109
1746575919336244200,2.373244140625,-0.0948836847871542,0.0007949360702419653,0.0014509568601381033
1746575919346259500,2.383259521484375,-0.09892448461055756,-0.0024082484518177807,0.006825060247071087
1746575919356275200,2.393275146484375,-0.09698094932734966,-0.0020159931646427137,0.011898874646332115
1746575919366291200,2.403291259765625,-0.09698036480545998,0.00034962628842331465,0.0015536135170143097
1746575919376306200,2.41330615234375,-0.09189151723384857,-0.01070253643465694,-0.002830492451880127
1746575919386322200,2.423322265625,-0.09757833069860934,-0.0006913432650268078,-0.003675446242885664
1746575919396337200,2.433337158203125,-0.09099310708940028,-0.007441493378672748,0.007575102296238765
1746575919406353400,2.443353515625,-0.080517890304327,0.00011832915004342794,0.003963432871410623
1746575919416369400,2.453369384765625,-0.09577858780026435,-0.002387365493993275,0.002697906447621062
1746575919426384400,2.46338427734375,-0.08919453323483467,0.004859472962259315,0.0010260551121085881
1746575919436400400,2.473400390625,-0.09996844070553779,0.006413049946655519,0.004204018427943811
1746575919446416400,2.48341650390625,-0.09293664237260818,0.001561778557160869,-0.004711630023363977
1746575919456431400,2.493431396484375,-0.08740063555538653,-0.002678128601494245,0.0006774334706831723
1746575919466447400,2.503447265625,-0.08934533988237381,-0.00034111418840475377,0.002068632100755349
1746575919476462300,2.51346240234375,-0.09802373637855052,0.0034564240641891952,0.006555184663971886
1746575919486478300,2.523478271484375,-0.09173895702064037,0.002142555853491649,0.0022428926891181616
1746575919496493300,2.533493408203125,-0.09203764770627021,0.0012929304539458825,-0.0012949625808279961
1746575919506509300,2.54350927734375,-0.09383096086382865,0.0041638051485642785,0.003717741881497204
1746575919516525300,2.553525390625,-0.08814414739906787,-0.0038259423631709067,0.009022935617528855
1746575919526540300,2.563540283203125,-0.0942781201094389,-0.0006485224700300022,0.006880461962427944
1746575919536556500,2.573556640625,-0.09921557651162147,-0.00580411056834273,0.005038140297681093
1746575919546571300,2.5835712890625,-0.09712240362465381,-0.001392376807006076,0.007188724194001406
1746575919556587500,2.59358740234375,-0.09323182592689991,0.0031670446295989675,0.0021563469168264415
1746575919566603500,2.603603515625,-0.09906886151731013,-0.0014257219541817902,0.0056199313741642975
1746575919576618500,2.613618408203125,-0.095924718272686,0.003414228890277445,0.006186680145142599
1746575919586634500,2.623634521484375,-0.09577391162514685,0.0045443243321729825,0.005185960403690114
1746575919596649500,2.6336494140625,-0.09577332710325717,0.005834030782571062,0.005325049213971943
1746575919606665500,2.64366552734375,-0.1026566568762064,-0.0006775978674646466,0.001723453658586368
1746575919616681200,2.65368115234375,-0.09622223991453648,-0.0012918618748662992,0.005929380915826186
1746575919626696400,2.663696533203125,-0.09442658866941929,-0.007628942242171615,0.0018869827903807161
1746575919636712200,2.673712158203125,-0.08799158718585967,-0.0048146109072258695,0.0004602196565829217
1746575919646727400,2.6837275390625,-0.08769348102211952,-0.0015063996746903284,-0.0005956004061270504
1746575919656743200,2.6937431640625,-0.09308043475747108,-0.0007960548816714436,0.0017145123003050684
1746575919666759200,2.70375927734375,-0.07751578587889671,0.006432069740956649,-0.0007848667673766613
1746575919676774100,2.713774169921875,-0.0915805515885353,0.007019938931777141,0.0002329685056582093
1746575919686790400,2.723790283203125,-0.09711889649331569,0.0016379490659106522,0.009118459280719981
1746575919696805400,2.733805419921875,-0.08963935439288616,-0.007245308652869425,0.009490470930887385
1746575919706821400,2.7438212890625,-0.0936807387381792,0.0007432058830047026,0.006462848471710458
1746575919716837400,2.75383740234375,-0.08963993891477584,0.0066544026881689205,0.011415712505578993
1746575919726852400,2.763852294921875,-0.09622457800209522,-0.007232481137337162,0.0031930786865763364
1746575919736868400,2.773868408203125,-0.09607494039833545,0.002131481903628446,0.0036883513902314004
1746575919746883300,2.78388330078125,-0.09008826720416545,0.0017987017187289893,0.015986472753528505
1746575919756899300,2.7938994140625,-0.08754267437458038,0.0018525827638572081,0.01358599661621265
1746575919766915300,2.803915283203125,-0.08784136506021022,0.0007210579832782969,0.005841099844174459
1746575919776930300,2.813930419921875,-0.09547346737384796,0.001022735210438259,0.00890850632446818
1746575919786946300,2.8239462890625,-0.09652034607827663,0.00408945213756524,0.0015993249554187058
1746575919796961300,2.833961181640625,-0.10654548100829124,0.005870006278250366,0.010482002718886359
1746575919806977300,2.843977294921875,-0.0884393309533596,0.006532570973364636,0.008650558641180396
1746575919816993500,2.85399365234375,-0.08110767289102078,-0.004539022535970434,0.009310419922554864
1746575919827008300,2.86400830078125,-0.09203180248737335,0.004953133461927064,-0.0024463245730381457
1746575919837024500,2.8740244140625,-0.09577449614703655,-0.00027806802270933986,0.004566193670686334
1746575919847039500,2.88403955078125,-0.0906874021410942,-0.0007413838186766952,0.006166660270420834
1746575919857055500,2.894055419921875,-0.09188333392739295,-0.00036251773603726176,0.00005456146514043211
1746575919867071500,2.904071533203125,-0.0962257470458746,-0.001311995914019644,0.006498166380263864
1746575919877086500,2.91408642578125,-0.09248656051754951,0.007971271140128374,0.006181099787726998
1746575919887102500,2.9241025390625,-0.08874503590166569,-0.005928942524408921,-0.0018739406457170843
1746575919897117400,2.934117431640625,-0.09053893358111381,0.0003091390144079923,-0.005230913790268823
1746575919907133400,2.944133544921875,-0.09382979182004927,0.005291137811215594,0.004854810486873612
1746575919917149200,2.954149169921875,-0.08919219514727592,0.004403669185889885,0.008811777084879577
1746575919927164400,2.964164306640625,-0.09547755902707576,-0.009599242234718985,0.0000939892932306975
1746575919937180200,2.97418017578125,-0.08126257119178772,-0.008063168940972537,-0.010910375065635889
1746575919947195400,2.9841953125,-0.08530337101519107,-0.00445172327843029,0.005201249304367229
1746575919957211100,2.994211181640625,-0.08440554539263248,-0.001633053695084527,0.0145419273678679
1746575919967227400,3.004227294921875,-0.09203647866249084,0.005911589530808851,0.007635929105384275
1746575919977242400,3.014242431640625,-0.10221125119626522,0.0031674601881299166,0.003136617525294423
1746575919987258400,3.02425830078125,-0.08919453323483467,-0.00427854496887885,0.006830421408778056
1746575919997273300,3.0342734375,-0.08380874854326248,0.001900102566857822,-0.0014128350731451064
1746575920007289300,3.044289306640625,-0.08545359314084053,-0.0062891495723510155,-0.005688101239548996
1746575920017305300,3.054305419921875,-0.08739946651160717,-0.004241688123787753,0.002342754600709304
1746575920027320300,3.0643203125,-0.09982114118933677,-0.008221999064763076,0.0037754725512582805
1746575920037336300,3.07433642578125,-0.08425824587643146,-0.0033761162364389745,-0.002361751562124118
1746575920047351300,3.084351318359375,-0.08321253621578216,0.0008673482859041542,-0.000049072439270094034
1746575920057367300,3.0943671875,-0.09174071058630942,-0.0034214577820850535,0.002265332849789411
1746575920067383300,3.10438330078125,-0.09922259077429771,-0.0019479739963077008,0.0010866809918545187
1746575920077398300,3.114398193359375,-0.08650164088904858,0.0011866799007635564,0.006051436392916366
1746575920087414300,3.124414306640625,-0.09173895702064037,-0.0033043433415936305,0.007601031321939081
1746575920097429200,3.13442919921875,-0.09877250891923904,-0.005842081658286042,-0.0007284512718673795
1746575920107445500,3.144445556640625,-0.09862053322792053,0.00557854448442813,0.0016675222202669829
1746575920117461500,3.15446142578125,-0.0903910495430231,0.0013673199975630268,0.0007719890194945037
1746575920127476500,3.1644765625,-0.09278642024695873,0.002061499107070267,0.010856325057148933
1746575920137492500,3.174492431640625,-0.0820130972981453,0.007190048501407727,0.007901457306928933
1746575920147507500,3.184507568359375,-0.07871990097165107,0.001351743402518332,0.011818055361928417
1746575920157523500,3.1945234375,-0.09548106615841388,-0.0005831108173122629,-0.00018543043634854255
1746575920167539200,3.204539306640625,-0.09413491224646568,0.010418677991977892,-0.010033957557287067
1746575920177554200,3.21455419921875,-0.09637889178097248,-0.0009635021367575973,0.0011258439584635198
1746575920187570400,3.2245703125,-0.08725099795162677,0.006882923347572796,0.005260706140333787
1746575920197585400,3.23458544921875,-0.09203881675004959,-0.002510439317813143,0.008281286937370895
1746575920207601400,3.244601318359375,-0.08515548697710036,-0.004834562283288687,0.0011503847446758299
1746575920217617200,3.2546171875,-0.08979600625932216,-0.004048809599922969,0.003951833765162155
1746575920227632400,3.26463232421875,-0.09697861123979092,-0.003324755941960029,0.0037009277440141885
1746575920237648100,3.274648193359375,-0.09024491907060146,0.008971369827073066,0.006019168957974761
1746575920247663400,3.284663330078125,-0.0874023891210556,-0.004934693622938357,0.002769592577498406
1746575920257679000,3.29467919921875,-0.09204173935949801,-0.003759850290440954,-0.007300249143922701
1746575920267695000,3.304695068359375,-0.10117021771073341,0.0021497756121447308,-0.006984917850745841
1746575920277710000,3.3147099609375,-0.09383739060461521,0.005888624213752336,0.0068364036249928175
1746575920287726000,3.32472607421875,-0.10012275448441504,0.007931149192294106,0.004417761643324047
1746575920297741000,3.334740966796875,-0.08770341789424418,0.0025208602471277117,0.0002139167453162372
1746575920307757000,3.344757080078125,-0.08875146564245223,0.0018375039257341995,0.0030792613148689267
1746575920317772000,3.35477197265625,-0.08949965366125107,0.0013563647787086664,0.002321246021799743
1746575920327788300,3.364788330078125,-0.09683364981114864,-0.003913218787824735,0.003064493003999814
1746575920337804300,3.37480419921875,-0.09159574915766716,-0.001636962685221806,-0.0027252511122729628
1746575920347819300,3.3848193359375,-0.08680617679357529,-0.004396485959854908,0.003308448694553226
1746575920357835300,3.394835205078125,-0.09817980372309684,-0.004084533933852799,0.005432190249720588
1746575920367850200,3.404850341796875,-0.09937807359695434,0.00013886961457319557,0.009102704589162021
1746575920377866200,3.4148662109375,-0.0886053351700306,0.0009389385176589712,-0.004814414544403553
1746575920387882200,3.42488232421875,-0.08665946179926395,-0.003347867389488965,-0.005232822619564831
1746575920397897200,3.434897216796875,-0.09354279157221317,0.004888411362376064,0.0037642022385727613
1746575920407913200,3.444913330078125,-0.09922960503697395,0.006382202717242762,0.007580344726936891
1746575920417928200,3.45492822265625,-0.08965221387445926,0.00019802048986312002,-0.011288250201009212
1746575920427944200,3.464944091796875,-0.08890461037755013,0.003719312784075737,-0.0066398216069675975
1746575920437960200,3.474960205078125,-0.09354454513788223,-0.0007405846676556393,0.0019675646127667278
1746575920447975200,3.48497509765625,-0.09264671951532363,-0.0023791319551877675,0.008425179786933586
1746575920457991200,3.4949912109375,-0.09518997425734996,-0.0021880663624964654,0.004101763629866763
1746575920468006100,3.505006103515625,-0.09040157093703746,-0.0034591685771243647,0.003631269174441695
1746575920478022400,3.5150224609375,-0.09025251785516739,-0.005809494562936015,-0.00021803579800762235
1746575920488038400,3.525038330078125,-0.09489128357172012,-0.008301991798682138,-0.0007351732735987752
1746575920498053400,3.535053466796875,-0.09354512965977191,-0.0028157789399381726,-0.0009193342014681547
1746575920508069400,3.5450693359375,-0.09758651400506496,-0.005325578936934471,0.004143465613434091
1746575920518084400,3.55508447265625,-0.08890636394321919,-0.002586682891799137,0.010779734423290938
1746575920528100400,3.565100341796875,-0.09997954662144183,0.0014499202470993622,-0.0078014218654017895
1746575920538116000,3.5751162109375,-0.09728606975376605,-0.004779786189016886,-0.0004985515061300248
1746575920548131300,3.58513134765625,-0.09204933814406395,0.0021577077568508685,0.0007238938277587294
1746575920558147000,3.59514697265625,-0.09279752616286277,0.000544938797969371,-0.004687070970842614
1746575920568162300,3.605162353515625,-0.09369476726353168,-0.0062209249080391596,0.00258427173900418
1746575920578178000,3.615177978515625,-0.07678571803867816,-0.0020549141026567665,-0.0004134122396353632
1746575920588194000,3.625194091796875,-0.09279811068475245,-0.0005646892446326091,0.004980245231138542
1746575920598209000,3.635208984375,-0.09593933131992817,0.0001908920627553016,0.0010417367384303361
1746575920608225300,3.645225341796875,-0.09174830937087536,0.0008764220749260857,-0.00399952709809877
1746575920618240300,3.655240234375,-0.09922843599319457,0.0006221093871397898,-0.0032007596695329994
1746575920628256300,3.66525634765625,-0.08591068925857544,0.0015485309165203943,0.0008741981517989188
1746575920638272300,3.675272216796875,-0.09024901072382926,-0.00360997065808624,0.0035826442597433924
1746575920648287200,3.685287353515625,-0.08710720556676388,-0.009037123973085544,0.005391200652206316
1746575920658303200,3.69530322265625,-0.0903998173713684,-0.007514531215419992,-0.007484282207628711
1746575920668318200,3.705318115234375,-0.09249532834589481,-0.0031271784100914374,-0.0019128935497719794
1746575920678334200,3.715334228515625,-0.09369184465408324,-0.0007471651054918766,0.009440110716829075
1746575920688350200,3.72535009765625,-0.08920271654129028,-0.0025213260380085555,0.005523923653783277
1746575920698365200,3.735365234375,-0.09204641553461551,-0.00189608854544349,-0.0038283900485839694
1746575920708381200,3.745381103515625,-0.1029705451309681,0.0009909244332229718,0.004543077656580135
1746575920718396200,3.755396240234375,-0.0890530789375305,-0.00048306167605333025,0.00942880387152545
1746575920728412200,3.765412109375,-0.08306932835280895,0.0022073007859289644,0.004207954817544669
1746575920738428400,3.775428466796875,-0.08950491435825825,-0.004928994534513913,-0.0036914201301522552
1746575920748443100,3.785443115234375,-0.10057926608026027,-0.001718877948168665,0.0037029461711645126
1746575920758459400,3.79545947265625,-0.0963905822187662,0.00042743619841057807,0.0032440964877605435
1746575920768474400,3.805474365234375,-0.09579320084750652,0.003285967434686608,-0.0037594895308371633
1746575920778490400,3.815490478515625,-0.09729016140699386,-0.008960930631449445,-0.0018031038992106913
1746575920788506400,3.82550634765625,-0.09250117356479168,-0.003999691494880244,0.008289077518181875
1746575920798521300,3.835521240234375,-0.09848609319329261,0.0028686188054503872,0.019155960501963273
1746575920808537300,3.845537353515625,-0.08606617208123206,-0.011781285281805321,-0.0037260621852707116
1746575920818552300,3.85555224609375,-0.09639292030632496,-0.010014901230367832,-0.004183039571996778
1746575920828568300,3.865568359375,-0.09684124859571457,-0.005465329900919459,0.0029656631388701496
1746575920838584000,3.875583984375,-0.09923428121209144,-0.01097748548509553,0.006961473043076693
1746575920848599300,3.885599365234375,-0.09205226075351237,-0.004900403194269165,0.000013370938226580619
1746575920858615000,3.895614990234375,-0.0905564692378044,-0.0009185944159515202,0.0012813541805837302
1746575920868630300,3.90563037109375,-0.08861059586703776,-0.004997383595607243,-0.002258355119731277
1746575920878646000,3.91564599609375,-0.09609364509880543,-0.006026402416359633,0.0034539946450851855
1746575920888661200,3.9256611328125,-0.09354980583488941,-0.0013849058866035192,0.007939770890166982
1746575920898677200,3.93567724609375,-0.09474749118685721,-0.009469145015068351,-0.004687755957432091
1746575920908693200,3.945693359375,-0.08606792564690112,-0.003934535570489242,0.008543737265840172
1746575920918708200,3.955708251953125,-0.08756488620638847,-0.00791626215041615,0.012429346527531743
1746575920928724200,3.96572412109375,-0.09115560417473316,0.005550843626749701,-0.0055919291223865
1746575920938739200,3.9757392578125,-0.08801321449577808,0.006863771122531033,-0.0022172559243626893
1746575920948755200,3.985755126953125,-0.0984866777151823,-0.002035515282442793,-0.0019009839162696153
1746575920958771200,3.995771240234375,-0.09743979901075363,0.0012231668530963361,0.0037543840974569318
1746575920968786200,4.0057861328125,-0.09025836307406425,0.00020570147281978279,0.004184930134983733
1746575920978802200,4.01580224609375,-0.10222995589673518,-0.000622374248621054,-0.005835583418840542
1746575920988817200,4.025817138671875,-0.0999853918403387,0.002400005779857747,0.008201536232046782
1746575920998833200,4.035833251953125,-0.07828677025139331,0.0014968052958603947,0.0014291651534382253
1746575921008849200,4.04584912109375,-0.08875964894890785,-0.0058321721856249495,0.00013365458333864806
1746575921018864000,4.055864013671875,-0.08621639420688151,-0.008672902903729117,-0.0011028558085206894
1746575921028880400,4.06588037109375,-0.11165303328037261,-0.006986918011587113,0.009413661101320758
1746575921038895000,4.07589501953125,-0.10027882182896136,-0.00334413649586495,0.010179631371982394
1746575921048911400,4.085911376953125,-0.08022679840326309,-0.00018484591445885597,0.005136970162810757
1746575921058927400,4.09592724609375,-0.09489069904983043,-0.005556784743769094,0.001716676857927814
1746575921068942300,4.1059423828125,-0.09623743748366832,-0.0024162171291420235,0.00953363421917893
1746575921078958300,4.115958251953125,-0.08561316761672497,-0.0013030956549337134,-0.004161339196842163
1746575921088973300,4.125973388671875,-0.10192425094842911,0.0022625381045043467,-0.00343252259879373
1746575921098989300,4.1359892578125,-0.09848375510573387,-0.0019111536838347092,-0.0008891856583766639
1746575921109005300,4.14600537109375,-0.09294774828851222,-0.00024368169591762123,0.0012601287294644861
1746575921119020300,4.156020263671875,-0.09968202497959136,0.00010956132169812917,0.0032420506611466407
1746575921129036300,4.166036376953125,-0.09788695825636386,0.001510865787253715,0.0040790586077142504
1746575921139051300,4.17605126953125,-0.08531739954054356,-0.006518798176338896,-0.005120420886809006
1746575921149067300,4.1860673828125,-0.09399638055860995,0.00124837435958907,0.005188946945220232
1746575921159083000,4.1960830078125,-0.09998130018711089,0.0017771794400876387,0.0029574706992600112
1746575921169098500,4.206098388671875,-0.08097732450962067,0.00029602837108541277,0.006516131295217201
1746575921179114200,4.2161142578125,-0.08935761484205722,-0.004327201849617995,-0.0011987265315838158
1746575921189129500,4.22612939453125,-0.10162672930657864,-0.003997577169607393,0.0014378142507746816
1746575921199145200,4.236145263671875,-0.08232406294345855,-0.004753784098080359,0.0037515893521718677
1746575921209161500,4.246161376953125,-0.09234919787347316,-0.0033284183369250964,0.007473861278314143
1746575921219176200,4.25617626953125,-0.09399404247105121,0.0011531246910337358,0.004151877248752862
1746575921229192400,4.2661923828125,-0.09534019638299941,-0.002080295139085501,0.0018614738897886126
1746575921239207400,4.27620751953125,-0.09459376192986965,0.006552266621100716,-0.0005553231946658343
1746575921249223400,4.286223388671875,-0.09803542681634425,0.009133734481665306,-0.01061317308419384
1746575921259239400,4.296239501953125,-0.09354512965977191,-0.002248783573787659,-0.0023814061106648293
1746575921269254400,4.30625439453125,-0.09953063381016254,-0.007611210222658701,0.012996387559454887
1746575921279270400,4.3162705078125,-0.08501578624546527,0.0010958324126899243,0.004446540213236585
1746575921289285400,4.326285400390625,-0.07708616228997707,-0.009692400410887784,0.000021061054337769744
1746575921299301400,4.33630126953125,-0.09818681798577308,-0.008842309220461175,-0.009892594591528176
1746575921309317400,4.3463173828125,-0.09235095143914222,-0.005031970851798542,-0.002953634774358943
1746575921319332400,4.356332275390625,-0.09504325926303862,-0.004714822060870938,0.011520625051623209
1746575921329348400,4.366348388671875,-0.08920797723829746,-0.005671857924223877,0.0028486765625420954
1746575921339363300,4.37636328125,-0.09549217207431793,-0.007380273843882605,0.001775631370395422
1746575921349379300,4.38637939453125,-0.09549158755242824,-0.009307981370296328,0.005841583901364356
1746575921359394300,4.396394287109375,-0.10432137521803378,-0.004971230807621032,0.004316319695999845
1746575921369410600,4.40641064453125,-0.09265022664666175,0.0036555131331318987,0.0017099548561964183
1746575921379426600,4.416426513671875,-0.0854682061880827,-0.007930578370136209,0.0019928177850320936
1746575921389441500,4.426441650390625,-0.08965981265902519,0.006016597974975593,-0.0007056183855514973
1746575921399457500,4.43645751953125,-0.09280220233798027,0.001553727681445889,-0.0031663916090503333
1746575921409472500,4.446472412109375,-0.08891279368400573,0.0054234315545298156,0.006440819302992895
1746575921419488500,4.456488525390625,-0.09744272162020205,0.0023926353241549804,0.0014694149654358624
1746575921429504500,4.46650439453125,-0.09070844492912292,-0.0013635434381663797,0.004425223430572077
1746575921439519500,4.47651953125,-0.08696633579134941,-0.0028072211741469798,0.002909037580806762
1746575921449535500,4.486535400390625,-0.09818974059522151,-0.00913310886058025,0.0013986512841656802
1746575921459550500,4.496550537109375,-0.09265373377799987,-0.006381033673463389,0.005288598794257268
1746575921469566500,4.50656640625,-0.08756547072827815,-0.005559465324622578,0.008910853545181452
1746575921479582200,4.516582275390625,-0.08816285209953785,0.0010659624308114871,0.0049566268935333935
1746575921489597400,4.526597412109375,-0.09818798702955245,-0.007425003468175418,-0.00653128319857642
1746575921499613400,4.536613525390625,-0.09504618187248706,0.0021599773457506672,-0.003939677536487579
1746575921509628400,4.54662841796875,-0.09519465043246746,0.005615186700387857,-0.005128311932319775
1746575921519644400,4.55664453125,-0.09145487938225269,0.012310743382852523,0.014687948242435231
1746575921529660400,4.566660400390625,-0.09983458519279956,0.007631736987456679,-0.005314874879829585
1746575921539675400,4.57667529296875,-0.1014800143122673,-0.0018163241403875872,-0.009531286998465657
1746575921549691400,4.58669140625,-0.09429682480990886,-0.0033735726529033855,-0.0013613058153074233
1746575921559706400,4.596706298828125,-0.08771277024447917,0.0005011955543654039,0.009126989647047593
1746575921569722400,4.606722412109375,-0.09339899918735027,0.002483469112496823,0.0037112025428563352
1746575921579738400,4.61673828125,-0.08741291051506996,-0.0025792759034782647,-0.0002968640547245741
1746575921589753300,4.62675341796875,-0.08083002499341964,-0.003931471397145651,0.0021251297946553675
1746575921599769300,4.636769287109375,-0.08951075957715511,0.00016208152680192143,0.0036899588254280385
1746575921609784300,4.646784423828125,-0.09878946005403995,-0.004385316111869178,0.009271558350045233
1746575921619800300,4.65680029296875,-0.08861585656404494,0.001253214931488037,-0.003884641147311777
1746575921629816300,4.66681640625,-0.0848755009919405,0.0002989783799974248,0.009580651698680593
1746575921639831300,4.676831298828125,-0.10073884055614471,-0.007874235939863137,0.004973824623506516
1746575921649847600,4.68684765625,-0.09939151760041713,-0.00450442614662461,0.007211867607571185
1746575921659862500,4.696862548828125,-0.09041384589672088,-0.008826367299235425,0.0024604261636268347
1746575921669878500,4.70687841796875,-0.09684592477083205,0.0023779400785220784,0.000344950113305822
1746575921679894500,4.71689453125,-0.09774433491528034,0.010212245866796001,0.011972606602823361
1746575921689909500,4.726909423828125,-0.08337854043245314,0.008314942611800507,0.010893012938881293
1746575921699925500,4.736925537109375,-0.08442775722444057,-0.005038053532713092,0.0016567542310804127
1746575921709940500,4.7469404296875,-0.10088964720368385,-0.007818514564097859,-0.005468485405808314
1746575921719956500,4.75695654296875,-0.09385726434886454,-0.0031918868099106473,-0.0023836893992964176
1746575921729972500,4.766972412109375,-0.09206161310374736,-0.00009775671947281806,0.0033291992216371
1746575921739987500,4.776987548828125,-0.08861936369538306,-0.0068093238218221806,0.009328658832143991
1746575921750003500,4.78700341796875,-0.10358253954946994,0.00021046897948253897,0.011839618739765136
1746575921760018400,4.797018310546875,-0.09819383224844933,0.0021130146651761605,0.0016305238112807273
1746575921770034400,4.807034423828125,-0.08457564126253128,-0.0011426763622555882,0.0018237813610583542
1746575921780049400,4.81704931640625,-0.09220774357616901,-0.00896302212383598,0.0019636099568568167
1746575921790065400,4.8270654296875,-0.08652326819896697,-0.001992653388250619,-0.0028162721302825958
1746575921800081400,4.837081298828125,-0.08412848201692104,0.005393694003392011,0.0030035565969999877
1746575921810096400,4.847096435546875,-0.09116086487174034,0.01373615937635768,-0.000888747266959399
1746575921820112400,4.8571123046875,-0.1001379520535469,0.007638413323415443,-0.01125282269460149
1746575921830127400,4.86712744140625,-0.09325345323681831,0.007143318716273643,-0.011655695273913443
1746575921840143400,4.877143310546875,-0.08786708402335643,0.007281868670438416,-0.0027185656431596723
1746575921850159400,4.887159423828125,-0.09400222577750682,0.0033777191050583496,0.012754669491760432
1746575921860174300,4.89717431640625,-0.09056056089103222,-0.0010618296783883124,0.0026753201564773915
1746575921870190300,4.9071904296875,-0.09430033194124698,0.0008380262932972982,0.00922761874361895
1746575921880205300,4.917205322265625,-0.09100888918042183,-0.009002669147634878,0.011579634363017975
1746575921890221300,4.92722119140625,-0.09280454042553901,-0.0034785628307610747,0.004974957134667783
1746575921900237300,4.9372373046875,-0.09145604842603205,-0.007712245744606479,0.007900114733213559
1746575921910252300,4.947252197265625,-0.08726619552075862,-0.009641496774135156,0.003139649732597172
1746575921920268300,4.957268310546875,-0.09115501965284346,0.0030959704210748893,-0.004895188163034618
1746575921930283300,4.967283203125,-0.09848843128085136,0.013561789190140552,-0.001896526936860755
1746575921940299500,4.977299560546875,-0.08696808935701847,0.008490006917761639,0.0005907689673826098
1746575921950315500,4.9873154296875,-0.09834171628654002,0.0031204061760101466,-0.0013184804537333548
1746575921960330500,4.99733056640625,-0.08517419167757034,0.0008436157838674262,-0.008375303630065173
1746575921970346500,5.007346435546875,-0.08891688533723353,0.0037355378330918027,-0.0049221218357328326
1746575921980361500,5.017361572265625,-0.09654898765087128,-0.0008163030852563678,0.0008233264810871332
1746575921990377500,5.02737744140625,-0.08756897785961627,0.0012554205883061513,0.004618270917795598
1746575922000393500,5.0373935546875,-0.08816577470898627,-0.008091732881753706,0.008487011243076995
1746575922010408400,5.047408447265625,-0.09968611663281916,-0.0013312075045658275,-0.006920629576034843
1746575922020424400,5.057424560546875,-0.0899596723884344,-0.009327211227151565,0.0000358019657433033
1746575922030439400,5.067439453125,-0.09669511812329291,-0.000633530396874994,0.014015236612642184
1746575922040455400,5.077455322265625,-0.09130816438794136,0.0018381797791691497,0.010445214372454211
1746575922050471400,5.087471435546875,-0.08562135092318057,-0.004115673424210399,0.013950564745441079
1746575922060486400,5.097486328125,-0.10193068068921565,-0.011453482666122726,-0.008535590492002665
1746575922070502400,5.10750244140625,-0.09010930999219417,-0.004099653871171176,-0.007226736383140087
1746575922080517400,5.117517333984375,-0.08442366557121277,-0.0009084931470453738,0.0012485478895250708
1746575922090533400,5.127533447265625,-0.09265490282177924,0.01691666170915123,0.0057498139646835625
1746575922100548600,5.137548583984375,-0.09864099149405955,0.011206229906785301,-0.0037331221137195825
1746575922110564400,5.147564453125,-0.08891630081534385,0.004448312045214698,-0.00750354403052479
1746575922120580400,5.157580322265625,-0.09430325455069541,0.003560683589684777,-0.0030649222622625527
1746575922130595300,5.16759521484375,-0.09475216736197471,0.004465381911024451,-0.0005554053930565715
1746575922140611300,5.177611328125,-0.09116028034985064,-0.0043419381944462656,0.009839275235403329
1746575922150627300,5.18762744140625,-0.09654606504142284,0.0022632596237119286,-0.0027519016571808607
1746575922160642300,5.197642333984375,-0.10148352144360542,0.006419223959115333,0.0007677055700216442
1746575922170658300,5.207658203125,-0.09969020828604698,-0.004670279666245915,-0.00020896657556295392
1746575922180673300,5.21767333984375,-0.09415361694693565,-0.008553263146011158,0.004855303677218034
1746575922190689300,5.227689208984375,-0.08532675189077854,-0.003921283363271504,0.004548502750368788
1746575922200704300,5.237704345703125,-0.07979191411733627,0.0036730259569361804,0.009183551273029297
1746575922210720300,5.24772021484375,-0.10253566084504127,-0.003039956784364767,0.009733138846652582
1746575922220736500,5.257736572265625,-0.09894318931102752,-0.005634274993347935,-0.0016535393606871365
1746575922230751500,5.26775146484375,-0.09789689512848854,-0.0016597727386513724,-0.009814944511745125
1746575922240767500,5.277767578125,-0.0971492916315794,-0.002561342954565771,0.0009229052648879587
1746575922250782500,5.287782470703125,-0.07904197253286838,-0.0010618296783883124,0.005639037933433428
1746575922260798500,5.297798583984375,-0.10792436814606189,0.0075067680340725924,0.007588244905602186
1746575922270814500,5.307814453125,-0.10268763653635977,0.0003560742955189198,0.000644554114388302
1746575922280829400,5.317829345703125,-0.09146540077626705,0.005070654327794909,-0.0038639088865369555
1746575922290845400,5.327845458984375,-0.10059446364939212,-0.003269294861098751,-0.0016553933910559862
1746575922300860400,5.3378603515625,-0.0889227305561304,-0.0059137495218543334,0.0037012382712680843
1746575922310876400,5.34787646484375,-0.08772621424794197,-0.0038782707720296456,0.007303646677406505
1746575922320892400,5.357892333984375,-0.10149404283761977,0.004190286730113439,0.002219146487349644
1746575922330907400,5.367907470703125,-0.09176642954945564,-0.0031097660509869455,-0.002855964819854125
1746575922340923400,5.37792333984375,-0.08877367747426032,-0.005395675897924229,-0.0018190960527863353
1746575922350938400,5.3879384765625,-0.09251461756825446,-0.00406938203049358,-0.0067253992648795245
1746575922360954600,5.39795458984375,-0.09356383436024189,0.0009433087320998311,0.0038015842400491236
1746575922370970400,5.407970458984375,-0.09281564634144306,-0.006758548049232922,0.006714110685884952
1746575922380985600,5.417985595703125,-0.08877776912748814,0.00644086953534279,0.0018189773217774927
1746575922391001300,5.42800146484375,-0.09162205264270305,-0.0038451950529124587,0.009707355951424688
1746575922401016600,5.4380166015625,-0.09536182369291782,-0.004152484603528865,-0.004871003569848835
1746575922411032300,5.4480322265625,-0.0902735606431961,-0.009186601746641099,0.00009543233164586126
1746575922421048300,5.45804833984375,-0.0868318957567215,-0.005163853603159077,0.0015108520875219255
1746575922431063300,5.468063232421875,-0.09566109890043735,0.004442370928195305,0.0037996480112895367
1746575922441079300,5.478079345703125,-0.09401508525907992,0.005409170133736915,0.0022098306697327643
1746575922451094300,5.48809423828125,-0.09311609059274197,-0.0009748592144111171,0.010041254947753623
1746575922461110300,5.4981103515625,-0.08488777595162392,-0.01274532170810271,-0.0023031258432194587
1746575922471125200,5.508125244140625,-0.08833002535998821,0.004086849188525229,0.0019966263104695824
1746575922481141200,5.518141357421875,-0.09341887293159962,0.0024836380758555604,0.0069897675557993345
1746575922491157200,5.5281572265625,-0.10314356361031532,0.002140971251181327,0.0033074257812462744
1746575922501172200,5.538172119140625,-0.10284311935901641,-0.005838510594866239,-0.007855270944489165
1746575922511188500,5.5481884765625,-0.08997370091378688,-0.0007831680006347596,-0.012591286490438506
1746575922521203500,5.558203369140625,-0.10718260986804962,0.0011338035026332363,0.004476615691091865
1746575922531219500,5.568219482421875,-0.08653437411487103,0.0013618583711562677,0.009704031483177096
1746575922541235500,5.5782353515625,-0.09895487974882125,-0.0065249036901397625,-0.0012035305708646773
1746575922551250400,5.58825048828125,-0.0953629927366972,-0.002392763188318349,-0.0019868355688173324
1746575922561266400,5.598266357421875,-0.08907821337878703,-0.003247914146352559,0.002452754313824698
1746575922571281400,5.608281494140625,-0.09341828840970992,-0.0054712801510933785,0.0034657398818060754
1746575922581297400,5.61829736328125,-0.09147299956083298,-0.006926867520576342,-0.008112798502668737
1746575922591313400,5.6283134765625,-0.09596271219551562,-0.0005313258311478421,0.0010085468548815698
1746575922601328400,5.638328369140625,-0.09342062649726868,-0.0028829624246340243,0.004211480215191841
1746575922611344400,5.648344482421875,-0.08968027092516422,0.0023350325185572725,-0.004067505167238414
1746575922621359400,5.658359375,-0.0866875188499689,0.000398137038690038,-0.0033597770229913293
1746575922631375400,5.668375244140625,-0.09656418522000312,0.011618148875655605,0.01170779078733176
1746575922641391600,5.6783916015625,-0.09132628456652164,0.0001109495611861348,0.0008737323609180748
1746575922651406300,5.68840625,-0.09072773415148258,-0.008684214315610006,0.004312812564661726
1746575922661422600,5.698422607421875,-0.09371990170478821,0.0018331839436432345,-0.010252075553685427
1746575922671437600,5.7084375,-0.09566519055366515,-0.002742005884251557,0.005980279986001551
1746575922681453600,5.71845361328125,-0.09401859239041804,-0.0002483030721079558,0.01630547557482496
1746575922691469300,5.72846923828125,-0.10314648621976374,-0.0025104484509676692,0.0037734175914898513
1746575922701484500,5.738484619140625,-0.08623626795113086,-0.009912317638727835,0.00037098873686045405
1746575922711500300,5.748500244140625,-0.08324293135404587,-0.00612901797404047,0.006567158229555934
1746575922721515500,5.758515625,-0.09177402833402157,-0.0025463463148334992,0.008644083234621212
1746575922731531300,5.76853125,-0.09192425045967101,0.0005303120509954169,0.0009957604385446757
1746575922741547300,5.77854736328125,-0.08653788124620913,-0.00386543868992012,-0.002444653205759823
1746575922751562200,5.788562255859375,-0.09072773415148258,-0.004662603249866515,-0.0008049140415620058
1746575922761578200,5.798578125,-0.09911036257147789,0.00457717172242701,0.0059254901919979595
1746575922771593200,5.80859326171875,-0.09357494027614593,-0.0010320966938277706,0.0010963804019615054
1746575922781609200,5.818609130859375,-0.09387363096177577,-0.003492655288195237,-0.00339478440429084
1746575922791624200,5.828624267578125,-0.09117956957221031,0.001491037708777003,-0.0015839264568872748
1746575922801640400,5.838640380859375,-0.09507248535752295,0.007259181914594955,0.002736329628713429
1746575922811656400,5.848656494140625,-0.08983458470404147,0.0012264091229531914,0.00562909192815423
1746575922821671400,5.85867138671875,-0.09462415706813335,-0.006701712428615428,-0.008692616817774251
1746575922831687400,5.8686875,-0.09238017753362655,-0.007898470765398815,-0.011892563636554405
1746575922841702400,5.878702392578125,-0.08938742545843124,-0.0028382601998047903,-0.0007810765082482248
1746575922851718400,5.888718505859375,-0.09133271430730819,-0.005440697783161886,0.007228590413508936
1746575922861734400,5.898734375,-0.09372633144557475,-0.004536757513647899,0.0009888009747955947
1746575922871749400,5.908749267578125,-0.09731646489202976,-0.0043399517333367835,-0.0026786902904976156
1746575922881765400,5.918765380859375,-0.10120645806789398,-0.0010288041916210204,0.011571989912679418
1746575922891780400,5.9287802734375,-0.09746551797389984,-0.007758660435909405,0.0015812504426110535
1746575922901796400,5.93879638671875,-0.09252806157171725,-0.004396111500519328,-0.006197210672311484
1746575922911812400,5.948812255859375,-0.09372633144557475,0.0009561088481685146,0.0015608652417082338
1746575922921827300,5.958827392578125,-0.09627075523138046,0.002055256595951505,0.005062754149129614
1746575922931843600,5.968843505859375,-0.09866378784775734,0.002424012276530266,0.000641010450432077
1746575922941858300,5.9788583984375,-0.08938391832709312,-0.004264132851036265,-0.0024685729374643414
1746575922951874600,5.98887451171875,-0.09237550135850905,-0.005391141286701895,-0.00835462616821751
1746575922961890600,5.998890625,-0.09446984328925609,-0.0049448359910398716,-0.00024246698636561632
1746575922971905500,6.008905517578125,-0.0896814399689436,0.0006169171887915582,0.004502024126984179
1746575922981921500,6.018921630859375,-0.08654021933376789,-0.0015795836419099942,0.0025239381202030926
1746575922991936500,6.0289365234375,-0.09746551797389984,-0.008558601474831812,-0.0037070378243923186
1746575923001952500,6.038952392578125,-0.10031038601100445,-0.0038067125063156707,-0.001898490565083921
1746575923011968300,6.04896826171875,-0.09402794474065303,-0.005956209557247348,0.006856195170851424
1746575923021983500,6.0589833984375,-0.09058627985417843,-0.001662841478572227,0.009724919007578865
1746575923031999200,6.068999267578125,-0.09103227005600929,-0.0018097893683239816,0.006762151078693568
1746575923042014500,6.079014404296875,-0.08564414727687836,-0.0014262516771443188,-0.009826817612629383
1746575923052030200,6.0890302734375,-0.09118073861598967,-0.012282348405430093,-0.009840809605363756
1746575923062045400,6.09904541015625,-0.09851181215643882,-0.003917132344539277,-0.0039107619692571455
1746575923072061200,6.109061279296875,-0.08998305326402187,0.006295574746560305,0.008446560501679778
1746575923082077400,6.119077392578125,-0.08893559003770352,0.00161017057641875,0.014331773482216521
1746575923092092400,6.129092529296875,-0.09851181215643882,-0.00319879147473257,0.008644585558120161
1746575923102108400,6.1391083984375,-0.0938724619179964,-0.004750313499360345,-0.02028511066236533
1746575923112123400,6.149123291015625,-0.09447042781114577,-0.00548133118764963,-0.008069470817595719
1746575923122139400,6.159139404296875,-0.09461889637112617,0.00141621890689712,0.009394253147952258
1746575923132155400,6.1691552734375,-0.09222411018908024,0.004991867170273326,0.009886064386041834
1746575923142170400,6.17917041015625,-0.09102700935900211,-0.004528788836323656,-0.0034928105518221854
1746575923152186400,6.189186279296875,-0.0928226606041193,-0.009853258094983174,-0.006851500729424879
1746575923162201300,6.199201416015625,-0.0941688145160675,-0.001765256106853485,0.001284011928550899
1746575923172217900,6.2092177734375,-0.08997954613268375,0.00439555437809322,-0.0013635891039390116
1746575923182233900,6.21923388671875,-0.10164835661649703,0.0008201755427755414,0.004650255224946886
1746575923192248800,6.229248779296875,-0.09551321486234664,0.00038999483142979443,0.008698544235061854
1746575923202264800,6.239264892578125,-0.09700900637805461,-0.0014851513906847685,0.007483067498076707
1746575923212279800,6.24927978515625,-0.0901256766051054,0.002392438961332664,-0.0010036149514373392
1746575923222295800,6.2592958984375,-0.08503975164294242,0.000001324307406321168,-0.004797207681275904
1746575923232311800,6.269311767578125,-0.09177344381213187,0.0014853249206207692,0.0003106094522867352
1746575923242326800,6.279326904296875,-0.09476502684354782,-0.0009011044250335544,0.00726061125327833
1746575923252342800,6.2893427734375,-0.09521627774238586,0.0024219618833390996,0.0030898375078104437
1746575923262357800,6.299357666015625,-0.09626374096870421,0.0006154558840673417,-0.000620926643628627
1746575923272373800,6.309373779296875,-0.09521569322049617,-0.013839519286132416,-0.0031746205812785773
1746575923282389800,6.3193896484375,-0.09027706777453422,-0.004062486498826183,-0.003158984620729461
1746575923292404700,6.32940478515625,-0.08668634980618953,-0.004052522227237932,0.011267289611371233
1746575923302420700,6.339420654296875,-0.09805763864815234,-0.0028399863660102708,0.003569337253598496
1746575923312435700,6.349435791015625,-0.09701075994372367,-0.010518480538064614,-0.005885276912618428
1746575923322451700,6.35945166015625,-0.09760814131498337,0.005071467178547754,-0.0026345862872898577
1746575923332467700,6.3694677734375,-0.09371697909533977,0.0005192837669048458,0.0020059695275500417
1746575923342482700,6.379482666015625,-0.09087269558012485,-0.007637746603135019,0.0033876514106057584
1746575923352498700,6.389498779296875,-0.09087269558012485,-0.011935503162560052,-0.002468207611283287
1746575923362513700,6.399513671875,-0.10044833317697048,0.003161569303460419,0.0002357267183251679
1746575923372529700,6.40952978515625,-0.09925123234689236,0.0033390036630211394,-0.0012405289798509329
1746575923382544600,6.419544677734375,-0.08159399510324,-0.005016417089640163,-0.002641965876147151
1746575923392560600,6.429560546875,-0.08353928395211696,-0.003881334945373237,0.0009104019763413816
1746575923402576600,6.43957666015625,-0.09715455232858657,-0.003063091064780019,0.007328488857718184
1746575923412591600,6.449591552734375,-0.09595628245472908,0.0020784639416029675,0.008549737748363985
1746575923422607600,6.459607666015625,-0.08847264870107173,-0.0029816735587548464,0.0010973667826503514
1746575923432622600,6.46962255859375,-0.09191314454376696,-0.003450282017770223,-0.005790474768634885
1746575923442638600,6.479638671875,-0.08936872075796126,-0.007706048899260349,0.0064743105806410305
1746575923452654800,6.48965478515625,-0.10208850159943103,-0.010838460606895386,-0.003338798167044297
1746575923462669800,6.499669921875,-0.08921966767609119,0.0014024598096031694,0.008790286772279068
1746575923472685800,6.509685791015625,-0.09460545236766338,-0.0014404902650509029,-0.0036373061895836143
1746575923482700800,6.51970068359375,-0.09221066618561743,0.003605673508881591,0.005699846476269885
1746575923492716800,6.529716796875,-0.08188508700430393,0.006100965489912778,0.002877875257562846
1746575923502732800,6.53973291015625,-0.09026420829296111,0.004665242731524631,-0.01314893863950856
1746575923512747800,6.549747802734375,-0.09729600662589073,-0.0013995417667319997,-0.01129386709104292
1746575923522763800,6.559763671875,-0.10268237583935261,0.00397321904648561,0.0036659934279508885
1746575923532778800,6.56977880859375,-0.09609773675203323,0.00874629693350289,0.0212756012707483
1746575923542794800,6.579794677734375,-0.09026187020540237,0.002689873838215135,0.0027278814607765525
1746575923552810800,6.589810791015625,-0.09624620531201362,-0.0017394869113573803,-0.008157340897293761
1746575923562825700,6.59982568359375,-0.10462649564445019,0.000059557300666347145,0.0027472346152178943
1746575923572841700,6.609841796875,-0.08786649950146674,-0.006193329081637784,0.0006602357407100498
1746575923582856700,6.619856689453125,-0.09804068751335143,-0.002096364924474619,0.0025303313283715394
1746575923592873000,6.629873046875,-0.09968553211092948,-0.004464473162149079,0.004443224878143519
1746575923602887700,6.6398876953125,-0.0956453168094158,0.002894780726591125,0.010545943933725356
1746575923612904000,6.649904052734375,-0.08562135092318057,-0.002434122678590938,-0.004618718442367389
1746575923622919700,6.659919677734375,-0.09370353509187698,-0.0013190238764276727,0.0029037494843360033
1746575923632935000,6.669934814453125,-0.09669570264518261,-0.0033458900615340095,0.0029114669999107715
1746575923642950700,6.67995068359375,-0.09699322428703308,0.0008040737913455814,-0.002988934416603297
1746575923652966000,6.6899658203125,-0.08771393928825855,0.0032006729045649988,0.007783703545620664
1746575923662981600,6.699981689453125,-0.07963350868523121,-0.0007724411106435581,-0.004989396651973947
1746575923672997600,6.70999755859375,-0.09250234260857104,-0.004618257218063809,-0.004700167914433405
1746575923683012600,6.7200126953125,-0.09399638055860995,0.0026240009611938147,0.003244315683469176
1746575923693028600,6.730028564453125,-0.09399521151483059,0.0038198048833291975,0.008954427825426683
1746575923703043600,6.740043701171875,-0.0935457141816616,-0.006843564018141478,-0.0025133801935706287
1746575923713059600,6.7500595703125,-0.09010521833896637,-0.009355382442288101,0.008307197696762159
1746575923723075600,6.76007568359375,-0.0913017346471548,0.006925218986184336,0.0037292770556639878
1746575923733090600,6.770090576171875,-0.09429390220046042,0.005971932282764464,0.0071729695024434475
1746575923743106800,6.78010693359375,-0.10207388855218887,-0.0004987159029114991,-0.0005924129351973533
1746575923753121800,6.790121826171875,-0.10222411067783832,-0.0033725132069783283,0.004178628258360549
1746575923763137800,6.8001376953125,-0.09204992266595363,0.009454942959779873,-0.005189239206165075
1746575923773153800,6.81015380859375,-0.0929483328104019,-0.001500253061694093,0.00257816165862605
1746575923783168800,6.820168701171875,-0.09190203862786292,0.0020915106528438627,0.0008053889655973761
1746575923793184800,6.830184814453125,-0.10237667089104652,0.003097463691839948,-0.015955995416874064
1746575923803199700,6.84019970703125,-0.08890928655266761,0.00003625862346962094,-0.004523368309112265
1746575923813215700,6.8502158203125,-0.0975888520926237,0.001951997150876559,0.003394757004827261
1746575923823231700,6.860231689453125,-0.09474515309929847,-0.0032913285963935774,0.006311018910864368
1746575923833246700,6.870246826171875,-0.1013274540990591,-0.008565958230802789,0.0011434070146176963
1746575923843262700,6.8802626953125,-0.09953063381016254,-0.0041461690271738915,0.009438448482705279
1746575923853277700,6.890277587890625,-0.08980418956577778,0.00014336312660016118,0.002812582335853949
1746575923863293700,6.900293701171875,-0.08755962550938129,-0.002624165357975289,-0.0026384404784999785
1746575923873308700,6.91030859375,-0.08381751637160778,-0.00017726996277924625,-0.005699855609424412
1746575923883324700,6.92032470703125,-0.09578852467238902,0.008310453666350803,0.013634265337884425
1746575923893341000,6.9303408203125,-0.08740648077428341,0.009278102255263366,0.009300574381975457
1746575923903356000,6.94035595703125,-0.09563537993729114,-0.0005747676806524396,-0.008386318214423955
1746575923913372000,6.950371826171875,-0.08710662104487418,-0.001347035261359997,-0.004395997336087748
1746575923923387000,6.960386962890625,-0.0884527749568224,0.001158590884017758,0.005153437240421771
1746575923933403000,6.97040283203125,-0.10072364298701286,0.0026632552593480793,0.01094423166946508
1746575923943418600,6.980418701171875,-0.09204349292516707,-0.003016968634421937,0.0031720358985476193
1746575923953433900,6.990433837890625,-0.09338964683711529,0.0024633944388478993,-0.001661156411562115
1746575923963449600,7.00044970703125,-0.07872574619054794,-0.004399317237758078,0.007810491087846458
1746575923973464800,7.01046484375,-0.09892623817622662,-0.0018442761598154902,0.008451172744715586
1746575923983480600,7.02048046875,-0.08800035501420497,0.004503179471031763,0.006462410080293193
1746575923993496600,7.03049658203125,-0.0923392610013485,0.001133511241688393,0.01214785357187502
1746575924003511600,7.040511474609375,-0.10221534284949302,0.004928999101091176,0.009370214685238897
1746575924013527600,7.050527587890625,-0.09862404035925865,-0.0016733628725865855,-0.001532497663749382
1746575924023542500,7.06054248046875,-0.09353636183142662,-0.0029767051226925103,-0.005340703440830112
1746575924033558800,7.070558837890625,-0.09293839593827724,-0.0018098989661782978,0.005577398273535072
1746575924043573800,7.08057373046875,-0.08934767796993255,0.003166021716292016,0.014258845243323593
1746575924053589800,7.09058984375,-0.09263970525264739,0.0015123590580187736,0.007123385606519877
1746575924063605800,7.100605712890625,-0.09458382505774497,-0.0005065156168770045,0.0010444675516337156
1746575924073620700,7.110620849609375,-0.08680150061845779,0.002470294537092559,-0.011659385068342088
1746575924083636700,7.12063671875,-0.09293839593827724,0.009048887476115488,0.0009929656932596116
1746575924093651700,7.130651611328125,-0.08605623520910739,0.007267022727755829,0.006265407937159761
1746575924103667700,7.140667724609375,-0.09488426930904388,0.0012487990512745455,-0.0011120985609013587
1746575924113683700,7.15068359375,-0.08111702524125576,-0.007579892635787837,0.0016873594318982212
1746575924123698700,7.16069873046875,-0.08904781824052334,0.000342621158901602,0.010060160577623174
1746575924133714700,7.170714599609375,-0.10071838229000568,0.005845031667198054,0.0028410595116671175
1746575924143729700,7.180729736328125,-0.09009352790117263,-0.00533433306554798,0.0004999762782361358
1746575924153745700,7.19074560546875,-0.09413315868079662,-0.0096065944241127,-0.0001395820006262511
1746575924163762000,7.200761962890625,-0.08305705339312552,0.0009752839060965925,0.009516208160342649
1746575924173776100,7.210776123046875,-0.08859364473223685,0.0007229942120378837,0.005994701236998662
1746575924183792400,7.22079248046875,-0.10295885469317435,-0.004970655418885871,-0.0026626068053767086
1746575924193807000,7.23080712890625,-0.09413198963701724,-0.006155686785257421,0.000999285836191848
1746575924203823400,7.2408232421875,-0.09458265601396561,0.001345870784157887,0.010205596930300816
1746575924213839400,7.25083935546875,-0.08425824587643146,-0.0030758089824579654,0.011260896403202787
1746575924223854300,7.260854248046875,-0.08710077582597732,0.006793464098987169,0.0036906986109446734
1746575924233870300,7.270870361328125,-0.0881470700085163,-0.0027852376712020487,-0.0031139399026054886
1746575924243885300,7.28088525390625,-0.09473346266150474,-0.002941834738710895,0.003249019258050248
1746575924253901300,7.2909013671875,-0.08889934968054294,0.0010708989008329807,0.007701285959174856
1746575924263917300,7.300917236328125,-0.10161796147823333,-0.0008527809044346213,-0.005422125513432547
1746575924273932300,7.310932373046875,-0.09174071058630942,0.002850165266729891,-0.0016661157144699245
1746575924283948300,7.3209482421875,-0.09458557862341403,0.00006253014246467501,-0.00015054178605787455
1746575924293963300,7.33096337890625,-0.09204290840327739,-0.0021557943609775976,0.008220871120179071
1746575924303979300,7.340979248046875,-0.08919979393184184,-0.0008037860969780013,0.004902412488264962
1746575924313994200,7.350994140625,-0.08396306232213974,-0.00781316710212268,-0.0035673279596026984
1746575924324010200,7.36101025390625,-0.08530804719030857,-0.0014916541967075318,0.00885409098980017
1746575924334026200,7.371026123046875,-0.08455985917150974,-0.005730456243664957,0.006059957626089453
1746575924344041500,7.38104150390625,-0.11134674381017684,0.004176692029600962,0.002370519390469417
1746575924354057200,7.39105712890625,-0.08022446031570434,0.0031464676324510945,0.0018657938718795776
1746575924364072400,7.401072509765625,-0.09414134198725223,0.007394640295952558,-0.001085110089275986
1746575924374088200,7.411088134765625,-0.09758300687372684,0.000044537828047759826,0.0019066373389214277
1746575924384104200,7.421104248046875,-0.08935293866693973,0.00406393410381861,-0.002581613991037011
1746575924394119200,7.431119140625,-0.08830547544062137,0.004363360008387826,-0.004711986216390505
1746575924404135200,7.44113525390625,-0.10267243896722793,0.0064578206701437005,0.006766069201985373
1746575924414150100,7.451150146484375,-0.09983049353957175,0.00015318126771599053,0.012486821468966082
1746575924424166100,7.461166259765625,-0.10342354959547519,-0.011700342699815519,-0.002608419799571857
1746575924434182100,7.47118212890625,-0.09429624028801918,-0.0037583798525622114,0.006719636244373396
1746575924444197000,7.481197021484375,-0.08621697872877121,-0.0042869703039294105,0.007291115989396348
1746575924454213000,7.491213134765625,-0.08786182332634926,0.0017501453026896343,0.011170843499572947
1746575924464228000,7.50122802734375,-0.09833470202386378,0.007702674198662862,0.002076276551093906
1746575924474244400,7.511244384765625,-0.10237550184726714,0.0035581993716536087,-0.006050084686046466
1746575924484260400,7.52126025390625,-0.09250058904290198,0.002538231507036835,-0.0059423591284081334
1746575924494275300,7.531275390625,-0.09729074592888355,0.001787440539197996,0.0009072510380297899
1746575924504291300,7.541291259765625,-0.09280103329420089,-0.0057058926245663315,0.006360328812152147
1746575924514306300,7.551306396484375,-0.09220189835727215,-0.005933979459130205,0.0029077954717911777
1746575924524322300,7.561322265625,-0.10896189450025558,-0.001906573406839743,-0.003992512835422531
1746575924534338300,7.57133837890625,-0.09265081116855144,-0.0032058605363359674,0.0046938934372738
1746575924544353300,7.581353271484375,-0.08696516674757003,-0.00003093399438075721,0.00045154315978288646
1746575924554369300,7.591369384765625,-0.09025660950839519,-0.009779654002655297,-0.0029096129695419222
1746575924564384300,7.60138427734375,-0.09698854811191558,-0.004700501274573617,0.01188693761336617
1746575924574400300,7.611400146484375,-0.08112579306960105,0.00041598322263453156,-0.005209779670694843
1746575924584415200,7.621415283203125,-0.08037760505080223,-0.0032584903392940756,0.00010881240302696823
1746575924594431200,7.63143115234375,-0.09294657924473285,-0.004969413309870287,0.004264324647281319
1746575924604447200,7.641447265625,-0.0984825860619545,0.0037436069751158353,0.002938912129262462
1746575924614462200,7.651462158203125,-0.1029705451309681,0.0030817683657864106,0.0083921908327844
1746575924624478500,7.661478515625,-0.09937865811884403,-0.00034205033674370496,-0.006521026666043326
1746575924634493400,7.671493408203125,-0.08830489091873168,0.0016248886549379675,-0.002664479102054611
1746575924644509400,7.681509521484375,-0.0890530789375305,0.002972243576706387,-0.00029338432285003365
1746575924654525200,7.691525146484375,-0.1001250925719738,0.0050955056412611156,-0.0007882186350878327
1746575924664540400,7.70154052734375,-0.09952712667882442,0.008635050544794649,-0.002168073887238279
1746575924674556200,7.71155615234375,-0.09473872335851193,-0.0006683870811248197,0.0006974990111775696
1746575924684571400,7.7215712890625,-0.07678279542922974,-0.00654446690713521,0.0106733240399044
1746575924694587100,7.731587158203125,-0.09339373849034309,-0.0035413943673251193,0.010379309529392047
1746575924704603100,7.74160302734375,-0.08935527675449847,-0.00457366459108889,0.00839246482742019
1746575924714618000,7.7516181640625,-0.08905658606886863,-0.0013524238225305451,0.002011677749129012
1746575924724634000,7.761634033203125,-0.09908113647699356,-0.0040148388316622,0.0005079495221376419
1746575924734649000,7.771649169921875,-0.0923474443078041,0.005339584629400633,0.00022770780865103004
1746575924744665000,7.7816650390625,-0.08606208042800426,0.003719189486489631,-0.0011912738774903118
1746575924754681300,7.791681396484375,-0.09070084614455699,-0.0036904474491951983,-0.002821587626216933
1746575924764696000,7.801696044921875,-0.09234685978591442,0.004198556801537051,-0.0008095810835249722
1746575924774712300,7.81171240234375,-0.08710895913243294,0.0048236070644343265,0.002990441387100145
1746575924784727300,7.821727294921875,-0.08785714715123176,-0.00032618604733143,-0.008279259377066046
1746575924794743300,7.831743408203125,-0.09563830254673958,-0.0017020409777993336,-0.006605535744875669
1746575924804759300,7.84175927734375,-0.08785597810745238,-0.0008077727189287543,-0.000641914632730186
1746575924814774300,7.851774169921875,-0.09009937312006949,-0.00269068668896798,0.003622346082469448
1746575924824790300,7.861790283203125,-0.1010223336726427,-0.006018118645204231,0.002106562091503292
1746575924834805200,7.87180517578125,-0.10491291137039661,-0.0026483453845838082,0.001749026491260156
1746575924844821200,7.8818212890625,-0.09009878859817981,0.0009888283742591738,0.007119284820137545
1746575924854836200,7.891836181640625,-0.08755553385615349,0.0033060284086037423,0.009607274844124913
1746575924864852200,7.901852294921875,-0.09339198492467403,-0.00401319943042472,-0.0016445888692513107
1746575924874868200,7.9118681640625,-0.09069967710077761,0.0064095884810900314,-0.005152971449540928
1746575924884883200,7.92188330078125,-0.10461422068476676,0.0007827570086810738,0.005904611800750717
1746575924894899200,7.931899169921875,-0.09234218361079692,0.007708788845618255,0.004281595442490652
1746575924904914200,7.9419140625,-0.07752747631669044,0.001052997917961329,0.0024952600149903445
1746575924914930400,7.951930419921875,-0.08590718212723732,0.0038026939183240754,0.0006740907361265272
1746575924924946400,7.961946533203125,-0.09907529125809669,0.0027343797002220525,-0.00020871084723621605
1746575924934961400,7.97196142578125,-0.09713058693110942,0.0017358153832377865,0.00746472812378779
1746575924944977400,7.981977294921875,-0.08964870674312114,0.0008631287685129791,0.0038511772691272195
1746575924954992400,7.991992431640625,-0.09159574915766716,0.0014985177623340858,-0.008058182238601148
1746575924965008400,8.00200830078125,-0.09444061719477176,-0.003881513041886501,0.00047067711851559574
1746575924975024000,8.012024169921874,-0.1007259810745716,0.0008592517444165423,0.0055449755749665194
1746575924985039400,8.022039306640625,-0.10207096594274044,-0.0006602814064826816,-0.0025026852696202694
1746575924995055000,8.03205517578125,-0.09234393717646598,-0.0057470511854393405,0.004034132620599121
1746575925005070300,8.0420703125,-0.08770517145991324,-0.001230879802093841,0.00775771972099319
1746575925015086000,8.052086181640625,-0.09877952318191528,-0.0008003063651034608,0.006407757283607498
1746575925025102000,8.06210205078125,-0.08800678475499153,-0.006732692088768817,-0.003200083816098049
1746575925035117000,8.072116943359376,-0.08531213884353638,-0.008584165174351073,0.0048910508440341794
1746575925045133300,8.08213330078125,-0.09728256262242793,0.00538081168893259,0.007892908674292267
1746575925055148000,8.09214794921875,-0.09758300687372684,0.011569263666053303,0.0031351562205702063
1746575925065164300,8.102164306640624,-0.09788345112502575,0.008891596288862637,-0.00222674527191557
1746575925075179300,8.11217919921875,-0.10057634347081183,0.005134275882225483,-0.011437312416033818
1746575925085195300,8.1221953125,-0.09354454513788223,0.002257670133141801,-0.0027371516126208006
1746575925095211300,8.132211181640624,-0.08381810089349746,0.005710244572698139,0.009816771142650395
1746575925105226200,8.142226318359375,-0.08995382716953754,-0.001312251642346382,0.003185516434628516
1746575925115242200,8.1522421875,-0.09444178623855114,-0.003092189295100979,0.0020846059880219397
1746575925125257200,8.16225732421875,-0.09399170438349247,0.000542920370819047,0.007979627976519986
1746575925135273200,8.172273193359375,-0.07798048078119754,-0.0013968748856103047,0.002917376150889322
1746575925145289200,8.182289306640625,-0.08456511986851692,-0.0035688303635222837,0.003190822797408327
1746575925155304200,8.19230419921875,-0.09863163914382457,-0.006525908337137661,0.005362339883903041
1746575925165320200,8.2023203125,-0.08995382716953754,-0.005733483884390443,0.0110208314364776
1746575925175335400,8.21233544921875,-0.08755962550938129,0.01062335198491346,0.004958754918538034
1746575925185351400,8.222351318359374,-0.08591361186802386,0.0005094427929027006,-0.002494858156191185
1746575925195367700,8.23236767578125,-0.10147709170281886,-0.00310060093041975,0.0038757363216485826
1746575925205382700,8.242382568359375,-0.08172317444086075,0.0032807935026474295,0.0034821795599535104
1746575925215398700,8.252398681640624,-0.09010229572951793,-0.0014824160109041258,0.0025653843754436818
1746575925225413600,8.26241357421875,-0.09369126013219356,0.003427892089448869,-0.0034355365397874264
1746575925235429600,8.2724296875,-0.10192015929520129,-0.0020462147729704157,0.0033002288554795085
1746575925245445400,8.2824453125,-0.09548515781164169,0.0065549472019542,0.009151603498496115
1746575925255460600,8.292460693359375,-0.09578618658483028,0.005077755355439148,0.01458212238093838
1746575925265476400,8.302476318359375,-0.09638473699986934,-0.00033160200796555726,0.010244467635964974
1746575925275491600,8.31249169921875,-0.0824701934158802,0.0006661677245749161,0.0018883344972506165
1746575925285507300,8.32250732421875,-0.09878186126947403,0.004185245228814892,0.006936128539266065
1746575925295522600,8.3325224609375,-0.09623743748366832,0.0051849192240741105,0.0035619759310502558
1746575925305538300,8.342538330078124,-0.09324234732091426,-0.0032756880692671984,-0.0022451851109042765
1746575925315554300,8.35255419921875,-0.10476385828852652,0.0024928123295772818,-0.002924235149938613
1746575925325569300,8.3625693359375,-0.10252046327590941,0.007733032804308458,0.002757682943996042
1746575925335585500,8.37258544921875,-0.08396540040969848,0.0056713647338794545,0.0008978712883312255
1746575925345600500,8.3826005859375,-0.09922785147130489,0.005301271046162582,0.007300888464739546
1746575925355616500,8.392616455078125,-0.09818097276687622,0.0011035453616874292,-0.0015665460638236252
1746575925365632500,8.402632568359374,-0.0746884534984827,-0.000788561128382571,-0.0007938720577396451
1746575925375647500,8.4126474609375,-0.08950199174880981,0.008020110683958045,0.004813090236997232
1746575925385663500,8.42266357421875,-0.084714172950387,0.008655161751061678,-0.0020873642006888986
1746575925395678500,8.432678466796874,-0.09129588942825793,0.003201038230746053,0.0014357227583881467
1746575925405694500,8.442694580078125,-0.08530980075597762,0.0014390883258311078,0.007253907517855987
1746575925415710500,8.45271044921875,-0.09907587577998637,-0.00196351405873429,-0.0019465126915834843
1746575925425725400,8.462725341796874,-0.08306406765580177,0.006298483656276948,-0.0043371615546289825
1746575925435741400,8.472741455078125,-0.09189268627762794,-0.004079780126921832,0.01101359797809273
1746575925445756400,8.48275634765625,-0.11134382120072842,0.0011457040029810741,0.005997404650738463
1746575925455772400,8.4927724609375,-0.08755144220292568,0.0023754284610273315,-0.0020831994822248815
1746575925465787400,8.502787353515625,-0.09652911390662193,-0.0022908463169587774,-0.000519676492549479
1746575925475803400,8.512803466796875,-0.09638006082475185,-0.005229580349707975,-0.0023109803561121222
1746575925485819600,8.522819580078124,-0.09204173935949801,-0.002267483707680367,-0.007643555289413779
1746575925495834600,8.532834716796875,-0.09982347927689551,0.021753352017444556,0.007591222313977778
1746575925505850600,8.5428505859375,-0.10655892501175403,0.018725469263363628,0.012198926171986386
1746575925515865600,8.552865478515624,-0.09832768776118755,0.0020912503579398616,0.00028686325051821766
1746575925525881600,8.562881591796875,-0.08366437163650989,0.002211401572311297,-0.0034273623664863406
1746575925535897600,8.572897705078125,-0.08695815248489379,-0.0032054997767321765,-0.004462066575931385
1746575925545912600,8.58291259765625,-0.09159691820144653,0.00044738757447339593,0.002674425107333809
1746575925555928600,8.592928466796875,-0.08830605996251106,-0.0047408698175800965,0.009231354203820229
1746575925565943600,8.602943603515625,-0.10536416226923465,-0.0008117593408795074,0.00579361657379195
1746575925575959600,8.61295947265625,-0.0996802714139223,-0.005045930878492072,0.0013455967895220965
1746575925585975300,8.622975341796876,-0.08726093482375144,-0.004882237349916249,0.007466573021002113
1746575925595990500,8.632990478515625,-0.0857639742642641,-0.007556178400060161,-0.0021055939771234987
1746575925606006300,8.64300634765625,-0.08232114033401013,-0.0013825632324675097,0.014211005779914557
1746575925616021500,8.653021484375,-0.10192249738276005,0.001347295556263998,0.012655163773195817
1746575925626037500,8.66303759765625,-0.0981815572887659,0.0005400479937205091,-0.008639324861112982
1746575925636053500,8.673053466796874,-0.08980185147821902,0.001923131815996021,-0.010032651516189798
1746575925646068500,8.683068359375,-0.09533961186110973,0.005192732637771405,-0.0054877654950134455
1746575925656084500,8.69308447265625,-0.0918991160184145,0.0076684477020753546,-0.00256486378563568
1746575925666099500,8.703099365234374,-0.10491875658929348,0.009254511317121796,-0.003989425829192623
1746575925676115500,8.713115478515626,-0.08501637076735497,0.004345997881633229,-0.004695217744680121
1746575925686131500,8.72313134765625,-0.09728782331943511,0.005660459747374989,-0.008568387649906799
1746575925696146400,8.733146484375,-0.09609130701124667,-0.000051565790455788374,-0.0019354981072247028
1746575925706162400,8.743162353515626,-0.08905833963453769,0.004303679410135373,-0.005627347495639696
1746575925716177400,8.753177490234375,-0.08935819936394691,0.0014572176375659183,-0.0010004092141985893
1746575925726193400,8.763193359375,-0.09624152913689613,0.006038197885430418,0.007255204425798728
1746575925736209400,8.77320947265625,-0.10177753595411777,0.004201584442262538,0.0019446312617510556
1746575925746224400,8.783224365234375,-0.08007891436517238,-0.0026709910412319004,0.0026748543655965478
1746575925756240600,8.79324072265625,-0.10057926608026027,-0.000818814702751115,-0.00832101615956053
1746575925766255400,8.80325537109375,-0.09758592948317527,0.004433420436759479,0.014854573513614014
1746575925776271600,8.813271728515625,-0.08591361186802386,0.005857553222053684,-0.001222618863824755
1746575925786286600,8.82328662109375,-0.08666121536493301,0.00593976531252265,0.002374811973096803
1746575925796302600,8.833302490234376,-0.10581658221185207,0.004075451011676341,0.0033366427425760774
1746575925806318600,8.843318603515625,-0.0904044935464859,-0.005756335037015378,-0.009984108799882232
1746575925816333600,8.85333349609375,-0.0942950712442398,0.0072247818880714475,0.0030709775437135246
1746575925826349600,8.863349609375,-0.08980652765333652,0.009182373096095398,0.004124550850410014
1746575925836364500,8.873364501953125,-0.09564239419996738,0.0009492270162329077,-0.007060960495332256
1746575925846380500,8.883380615234374,-0.0902560249865055,0.0007199346052715554,-0.006022593890922144
1746575925856396500,8.893396484375,-0.10267536157667637,0.00970201305602677,0.00037002975563518704
1746575925866411500,8.90341162109375,-0.095641225156188,0.0029505706010153517,0.0017032237213104962
1746575925876427500,8.913427490234374,-0.0814244837552309,0.005789566019759513,-0.005451470338925719
1746575925886442500,8.9234423828125,-0.09369476726353168,0.002429049211251549,0.0031286808140110222
1746575925896458500,8.93345849609375,-0.0938467429548502,-0.004766693812003359,0.007186769698932767
1746575925906474500,8.943474609375,-0.0957943698912859,-0.0014809044738300144,0.0071047448381315915
1746575925916489700,8.95348974609375,-0.09384849652051926,-0.003404305717884563,-0.0017177454370073974
1746575925926505500,8.96350537109375,-0.09654080434441566,-0.0024682943762512877,-0.0010349234051536768
1746575925936520700,8.973520751953124,-0.09190086958408356,0.00824654441755265,0.010425989082176238
1746575925946536400,8.983536376953126,-0.09534136542677879,-0.00012267196502070872,0.0036274515158496797
1746575925956552400,8.993552490234375,-0.09668868838250637,-0.0007150483675999567,-0.0010611538249533624
1746575925966567400,9.0035673828125,-0.08756021003127097,0.005008279448957182,-0.00972152147409506
1746575925976583400,9.01358349609375,-0.10222761780917644,0.00048113001387100663,-0.002061289044516161
1746575925986598400,9.023598388671875,-0.09025777855217457,0.011853204307123087,0.002169416460953653
1746575925996614400,9.033614501953124,-0.09714169284701346,0.0042470036197220905,-0.0020359354075510055
1746575926006629400,9.04362939453125,-0.08876257155835628,-0.0020354011180112137,-0.006244228151813149
1746575926016645400,9.053645263671875,-0.0886135184764862,0.0022105841549811883,0.0020335516542196275
1746575926026661400,9.063661376953124,-0.0874158331245184,-0.0011717928588856012,0.0029327198504935947
1746575926036676400,9.07367626953125,-0.0815811356216669,-0.005518909551948309,-0.004520199104491621
1746575926046692400,9.0836923828125,-0.09744389066398143,-0.001593785697198473,-0.0007783091624267398
1746575926056707300,9.093707275390624,-0.08726794908642768,0.0013630867804400623,0.0028636640691198406
1746575926066723600,9.1037236328125,-0.11195932275056839,0.00035812012213282286,0.0003894742416217923
1746575926076739600,9.113739501953125,-0.08682078984081745,-0.0048480656522559,0.0023545181037392467
1746575926086754600,9.123754638671874,-0.08547580497264862,-0.007805983876087702,0.008697786183236167
1746575926096770600,9.1337705078125,-0.1029828200906515,-0.0033262126801069823,0.010902739748451858
1746575926106785500,9.14378564453125,-0.086073770865798,0.0003619606136111542,0.001247132250573486
1746575926116801500,9.153801513671874,-0.09774667300283908,-0.0009771836022380738,-0.010080399648053571
1746575926126817500,9.163817626953126,-0.10014145918488503,-0.0015487135796109213,-0.0045192127238027745
1746575926136832500,9.17383251953125,-0.09266074804067612,0.00988689093652647,0.0011383655133191495
1746575926146848500,9.1838486328125,-0.09700140759348869,0.008625387667305766,0.005094848054135218
1746575926156863500,9.193863525390626,-0.08847264870107173,0.005022184676723555,-0.0001774937250651419
1746575926166879500,9.20387939453125,-0.09460662141144276,0.004280924155632965,-0.0029101883582770822
1746575926176894700,9.213894775390624,-0.0980465327322483,0.00008884276065509765,-0.00720296278190799
1746575926186910700,9.22391064453125,-0.08607435538768768,0.0030406143714906647,0.0028963972949422895
1746575926196926700,9.2339267578125,-0.09041209233105182,-0.0024983333214884623,0.0025028314000926912
1746575926206941700,9.243941650390624,-0.10043956534862518,-0.0014079168694326653,0.00537846903479658
1746575926216957700,9.253957763671876,-0.09415537051260471,-0.0035554000597912815,0.00003360087550245225
1746575926226972700,9.26397265625,-0.09714695354402064,-0.00336751280487515,0.0005702559023164212
1746575926236988700,9.27398876953125,-0.08517652976512909,-0.0034751013651955873,0.0007739161150995641
1746575926247004400,9.28400439453125,-0.09086334322988987,0.00044152865584474055,0.0010126933070365338
1746575926257019400,9.294019287109375,-0.10088906268179416,0.0036448136426042764,0.002573668146599084
1746575926267035600,9.30403564453125,-0.09909399595856666,-0.0026078124447958544,-0.008434742199722676
1746575926277050400,9.31405029296875,-0.09640110361278056,0.0005561497451504692,-0.01179092989298515
1746575926287066600,9.324066650390625,-0.09041618398427963,0.0029140516826417296,-0.011659220671560614
1746575926297082600,9.33408251953125,-0.08727437882721424,0.0013730327857192604,0.0017427794135641305
1746575926307097600,9.34409765625,-0.1068780739635229,0.0015218301392626017,-0.00288910903763026
1746575926317113600,9.354113525390625,-0.09954407781362533,0.001071885281521827,-0.010738799624703824
1746575926327128600,9.364128662109374,-0.08697276553213595,-0.005180133451102301,-0.0003103537239599973
1746575926337144600,9.37414453125,-0.09191022193431854,0.0020720981328980997,0.00452583426083438
1746575926347160600,9.38416064453125,-0.09026245472729205,0.002594400407373905,0.011717974254628642
1746575926357175600,9.394175537109374,-0.09280570946931839,0.0013239923124900087,-0.001485480184247717
1746575926367191600,9.404191650390626,-0.10462649564445019,0.004548717379500158,-0.0037180158761329946
1746575926377206500,9.41420654296875,-0.086670567715168,0.0020972234410000963,0.0019789262569975107
1746575926387222500,9.424222412109375,-0.09968845472037792,0.002350157022452913,-0.00029523835321888325
1746575926397237500,9.434237548828126,-0.10013678300976753,0.0023209537608548996,-0.0036537915335036813
1746575926407253500,9.44425341796875,-0.10028466704785824,0.002682992006279528,0.0003731258950196206
1746575926417269800,9.454269775390625,-0.10103285506665706,0.004689007199602201,-0.0005713062150869518
1746575926427284700,9.46428466796875,-0.08412322131991386,0.0036209532764041796,0.001489069513976574
1746575926437300700,9.47430078125,-0.09549509468376637,0.0013529626786476,-0.003165679222997278
1746575926447315700,9.484315673828124,-0.09549626372754573,0.0010201642274390906,-0.0035358003101777285
1746575926457331700,9.494331787109376,-0.0942991628974676,0.005235055675846524,0.004632555171474814
1746575926467347700,9.50434765625,-0.09055822280347346,0.009240533024119212,0.004056892441678792
1746575926477362700,9.51436279296875,-0.08891220916211605,0.0033779291676124556,-0.0010263382398989051
1746575926487378700,9.524378662109376,-0.08831307422518729,-0.005479381259158253,0.003284976487420499
1746575926497393700,9.5343935546875,-0.08786357689201832,0.002870842728577554,-0.0022945132785011082
1746575926507409700,9.54440966796875,-0.0932493615835905,0.004110978982783854,-0.00815774275609292
1746575926517425700,9.55442578125,-0.09339899918735027,-0.003212683002767153,-0.004736581801529974
1746575926527440600,9.564440673828125,-0.0932499461054802,-0.0013373860836029053,-0.0011244648521300405
1746575926537456600,9.57445654296875,-0.0953454570800066,0.005963707877113484,-0.004915518565010279
1746575926547471600,9.5844716796875,-0.09025719403028487,-0.004465139882429503,-0.005220237132627517
1746575926557487600,9.594487548828125,-0.08771335476636886,0.004388846076093614,0.0010416728063486517
1746575926567503600,9.604503662109375,-0.08816109853386879,-0.003630191462207585,0.0031978644595481455
1746575926577518600,9.6145185546875,-0.09684066407382488,-0.0010797443609917535,0.0006177117732353508
1746575926587534600,9.62453466796875,-0.09669044194817543,-0.0017281526665901764,0.002518567825341597
1746575926597549600,9.634549560546875,-0.08636369372308254,0.0014276490497868507,-0.004911381246009841
1746575926607565600,9.644565673828126,-0.08471943364739418,0.0035304437150480224,0.004989296187274158
1746575926617580500,9.65458056640625,-0.11614391495883464,0.008485540805198252,0.013985124602168797
1746575926627596500,9.664596435546875,-0.07858487641513347,0.002994428009050898,-0.0025836141518782822
1746575926637612500,9.674612548828126,-0.09070727588534355,0.005174717490468174,-0.011354429038707167
1746575926647627500,9.68462744140625,-0.09504793543815612,0.009388791521545498,-0.005708066315343603
1746575926657643500,9.6946435546875,-0.08352583994865417,0.005614743742393329,0.007622612966084853
1746575926667658500,9.704658447265626,-0.10118190814852714,0.0031479974358342585,-0.000858388661313802
1746575926677674500,9.714674560546875,-0.09594517653882503,0.006070328323054127,-0.0019752729951869694
1746575926687690500,9.7246904296875,-0.10207973377108573,0.004951722389552742,-0.0026005104877520353
1746575926697705500,9.73470556640625,-0.08771510833203792,-0.00020330401975661514,0.003991142862243577
1746575926707721700,9.7447216796875,-0.08038286574780941,0.0037280577795347197,0.007208451807778328
1746575926717736700,9.75473681640625,-0.0917547391116619,0.0013534467358374967,0.0012584847616497427
1746575926727752700,9.764752685546876,-0.09639350482821464,0.0006441659553209319,0.002600117762107402
1746575926737768700,9.774768798828125,-0.08606734112501144,-0.0012735179340001195,0.006989210433373227
1746575926747783700,9.78478369140625,-0.09130465725660324,-0.0077578475851565595,0.004201031886413693
1746575926757799700,9.794799560546876,-0.09654197338819503,-0.003100696828542277,-0.010178599325520917
1746575926767814700,9.804814697265625,-0.08681494462192058,0.007513805129635147,0.0017327877425123005
1746575926777830700,9.81483056640625,-0.08801087640821934,-0.0011376439941115676,0.009957604385446756
1746575926787846700,9.8248466796875,-0.09609130701124667,0.002772752648964524,-0.0035418281921651214
1746575926797861600,9.834861572265625,-0.09549451016187667,0.003655211739032529,-0.00988930665589869
1746575926807877600,9.844877685546875,-0.0956453168094158,0.003174282654561102,-0.008605157730029895
1746575926817892600,9.854892578125,-0.10133213027417659,0.005166808178648352,-0.0045706871827133
1746575926827908600,9.86490869140625,-0.09025777855217457,0.0084673795274226,0.0029976291797123846
1746575926837923600,9.874923583984375,-0.09010521833896637,0.003580689764674753,0.0012078779524192214
1746575926847939800,9.88493994140625,-0.09579144728183746,0.0021850661212345582,0.00261549799432978
1746575926857955600,9.89495556640625,-0.1061158574193716,-0.0031471891516586764,0.0013630685141310095
1746575926867970800,9.904970703125,-0.09549217207431793,0.004135026578651741,0.006819352025492116
1746575926877986600,9.914986572265626,-0.08920797723829746,0.0008671838891226798,0.004395056621171534
1746575926888001800,9.925001708984375,-0.09279869520664215,-0.001960851744189858,0.0009864628872368485
1746575926898017500,9.935017578125,-0.08546586810052394,-0.009140552381519227,0.006995357046369463
1746575926908033500,9.945033447265626,-0.08367080137729645,0.0005963082256028429,-0.0018750092247966676
1746575926918048500,9.955048583984375,-0.0968394950300455,-0.010088482489809394,-0.0035228951628319917
1746575926928064500,9.965064453125,-0.09668927290439605,-0.007362961949477903,-0.0034876411863602698
1746575926938079500,9.97507958984375,-0.09384791199862956,0.003328272206452675,-0.0027064002813305702
1746575926948095500,9.985095458984375,-0.09923428121209144,0.00019228943539783357,0.0068991666628979145
1746575926958111500,9.995111572265625,-0.09264964212477207,0.012287152444710955,-0.0033193536810576913
1746575926968126500,10.00512646484375,-0.08411854514479637,0.009628198901144787,-0.01142949443575926
1746575926978142500,10.015142578125,-0.08890577942132949,0.009725704458868131,-0.002522970005823299
1746575926988157400,10.025157470703125,-0.0868096839249134,0.007387781296903267,0.007022418583231047
1746575926998173700,10.035173583984376,-0.0884562820881605,-0.0004939529628260061,-0.0060432165538426485
1746575927008189700,10.045189697265625,-0.09324468540847301,-0.0035161914274096486,-0.007250464318599551
1746575927018204700,10.05520458984375,-0.09309446328282356,0.004580121731339022,-0.000931453897524625
1746575927028220700,10.065220703125,-0.09159925628900527,0.006782504313555546,0.007241395096154883
1746575927038235600,10.075235595703125,-0.0827706376671791,0.008103482685051858,0.004573774188943207
1746575927048251600,10.085251708984375,-0.09638941317498684,0.0036700302822515367,-0.00873419093717821
1746575927058266600,10.0952666015625,-0.10372224028110504,0.003574196091806516,0.0037575533020775763
1746575927068282600,10.10528271484375,-0.09489245261549949,-0.0006998233990045264,0.005041976222582161
1746575927078298600,10.115298583984375,-0.09160042533278465,0.005488788408320397,0.0012173216341994702
1746575927088313600,10.125313720703126,-0.0866617998868227,0.0014601311138598247,-0.004996922371303662
1746575927098329600,10.13532958984375,-0.08486790220737457,-0.00034232433137949554,0.002003366578510031
1746575927108344600,10.145344482421875,-0.08741232599318027,-0.0010939692491665483,-0.0012385288190096615
1746575927118360600,10.155360595703126,-0.10222761780917644,0.00034409159678034485,-0.003397917076293379
1746575927128376800,10.165376953125,-0.09324877706170082,0.004686902007483877,0.00604771919902414
1746575927138391600,10.1753916015625,-0.08681494462192058,0.009149064481537789,0.005353699919721112
1746575927148407800,10.18540771484375,-0.0932499461054802,0.008012731095100752,-0.007047644356032833
1746575927158422800,10.1954228515625,-0.08906126224398613,0.00822906355978921,-0.008405653102556244
1746575927168438800,10.205438720703125,-0.08846154278516768,0.004912408725894056,0.0007079108073376119
1746575927178454500,10.21545458984375,-0.09983458519279956,-0.001146685817092657,0.007452745425049215
1746575927188469800,10.2254697265625,-0.09684358668327331,0.0008082019771914929,0.005007891289889812
1746575927198485500,10.235485595703125,-0.08547112879753112,-0.0040524034962290895,-0.0014243519810028373
1746575927208500700,10.245500732421876,-0.08966215074658393,-0.005402114771865308,-0.0031758078913670033
1746575927218516500,10.2555166015625,-0.09983809232413768,0.003959797875909134,0.0031122411358635873
1746575927228531700,10.26553173828125,-0.09594809914827346,0.0044105327515164385,0.0018624785367865114
1746575927238547500,10.27554736328125,-0.09564940846264362,-0.004224088535015471,0.0002767985142301768
1746575927248563500,10.2855634765625,-0.08846621896028518,-0.0019437955781118944,0.0044831458965782075
1746575927258578400,10.295578369140625,-0.08921323793530464,-0.0043403764250222595,-0.004155886703589931
1746575927268594400,10.305594482421874,-0.09205401431918143,0.006364306300948374,-0.009117317636404186
1746575927278609400,10.315609375,-0.09145721746981143,0.0060110678499098865,0.0039649398419074715
1746575927288625700,10.325625732421875,-0.10313070412874221,0.004017519412515685,-0.007346134112263098
1746575927298641700,10.3356416015625,-0.0890665229409933,0.000566264713788405,0.005181229429645463
1746575927308656600,10.34565673828125,-0.09475392092764377,-0.002414116503600962,-0.0055535972728393964
1746575927318672600,10.355672607421875,-0.1032838488638401,0.009764881125208921,-0.008941751006944105
1746575927328687600,10.3656875,-0.09969196185171604,-0.004984761576051823,-0.007600337202195078
1746575927338703600,10.37570361328125,-0.09819675485789775,-0.003274665155960247,0.007016737761115655
1746575927348719600,10.3857197265625,-0.09849778363108634,0.0011552755489246918,0.005241343852737918
1746575927358734600,10.395734619140624,-0.09924655617177486,-0.01379550204789266,-0.0028837387427687643
1746575927368750600,10.40575048828125,-0.08577800278961659,-0.0028867755166487766,-0.0025727822306100276
1746575927378765600,10.415765625,-0.0973012673228979,0.005190271252626553,0.0013419800603296608
1746575927388781600,10.425781494140624,-0.08996785569489002,0.00307752601550892,0.002690061067882925
1746575927398796500,10.435796630859375,-0.08847089513540267,0.003349630088312551,-0.004660228629689663
1746575927408812500,10.4458125,-0.09251227948069572,0.00008378299304749816,0.0008943367575295269
1746575927418828800,10.455828857421874,-0.09101707248687743,0.0023916306771570813,0.004560458049643785
1746575927428843500,10.465843505859375,-0.0999982513219118,0.0010497739144135266,-0.002214917836803943
1746575927438859800,10.47585986328125,-0.08578326348662375,0.0011954020633362233,-0.0021909707056358457
1746575927448874800,10.485874755859374,-0.08294131805896758,0.0014234066995093598,-0.002396046557370573
1746575927458890800,10.495890869140625,-0.09910217926502227,0.0002914617938222363,-0.002701358780032024
1746575927468906800,10.50590673828125,-0.09371405648589133,0.0007942739165388048,0.00021523191956803202
1746575927478921700,10.515921630859374,-0.0952098480015993,-0.0020197286248439922,-0.0018524138004984705
1746575927488937700,10.525937744140625,-0.08877426199615002,-0.0019912423158762976,-0.0007186513970606029
1746575927498952700,10.53595263671875,-0.10313888743519782,0.0035342796399490907,0.0065452934576198454
1746575927508968700,10.54596875,-0.09804887081980705,0.00016075265281833708,0.0066018368172924965
1746575927518984400,10.555984375,-0.08607727799713612,0.0029090147479204458,-0.006681386593217029
1746575927528999700,10.565999755859375,-0.0889186389029026,0.0016795734176645054,-0.004263265201356262
1746575927539015400,10.576015380859374,-0.09370762674510479,-0.004489790266496129,0.000652216831035912
1746575927549030700,10.58603076171875,-0.09834580793976783,-0.0011082169702276586,-0.002194349972810596
1746575927559046400,10.59604638671875,-0.09655015669465064,0.0019075415212195365,-0.00046453963867388665
1746575927569062700,10.606062744140624,-0.09266074804067612,0.005073028947971761,-0.0027295893606729803
1746575927579077600,10.61607763671875,-0.09011807782053947,0.008377733049169183,-0.0021873174438253045
1746575927589093600,10.62609375,-0.09236439544260501,0.008238598573114722,-0.0025565708813257513
1746575927599108600,10.636108642578124,-0.10074527029693126,-0.00022645199990365653,-0.0013972082457505166
1746575927609124600,10.64612451171875,-0.09386252504587173,-0.003191439285338856,0.0006038750441279262
1746575927619139600,10.6561396484375,-0.09685352355539799,0.0024607549571897835,0.005153007982159033
1746575927629155600,10.666155517578124,-0.10283727414011955,-0.002621758771757595,-0.0028103903787676243
1746575927639171600,10.676171630859375,-0.09819733937978745,0.006710430024610832,-0.007677740686805918
1746575927649186600,10.6861865234375,-0.0919119754999876,-0.00044651079163886607,-0.0033209063173271713
1746575927659202600,10.69620263671875,-0.0847270324319601,0.00036089203453157093,-0.006580857961345464
1746575927669217500,10.706217529296875,-0.09639818100333213,0.00554401202716399,0.0037392778598703443
1746575927679233500,10.716233642578125,-0.0869710119664669,0.002427829935122281,-0.007635572912357747
1746575927689249500,10.72624951171875,-0.08637012346386909,-0.001398386422684416,-0.01147725170077756
1746575927699264500,10.736264404296875,-0.08966039718091487,0.005074490252695977,0.002916134041873738
1746575927709280800,10.74628076171875,-0.08935995292961597,0.008882992857298813,0.005361161706969142
1746575927719295500,10.75629541015625,-0.08352291733920574,-0.0011750670947832985,0.0013705485676880926
1746575927729311700,10.766311767578125,-0.08831132065951823,-0.0018976959806401282,-0.0023974621963221577
1746575927739327700,10.77632763671875,-0.09519348138868808,0.0031355580793693658,-0.005021417491743341
1746575927749342700,10.7863427734375,-0.08516776193678378,0.0002911832326091826,0.0031761366849299517
1746575927759358700,10.796358642578125,-0.09324819253981113,-0.0012733033048687502,0.010552017481485381
1746575927769373700,10.806373779296875,-0.08965747457146644,0.002842940941499546,-0.003661554714851081
1746575927779389700,10.8163896484375,-0.09788637373447417,0.0028193728362442922,-0.002875756365712732
1746575927789404700,10.82640478515625,-0.0847182646036148,0.0032756926358444615,-0.003830938198696822
1746575927799420700,10.836420654296875,-0.08890987107455729,0.0075644347717519845,-0.0039716253110207616
1746575927809436700,10.846436767578124,-0.10192951164543627,0.0057477864043787115,0.0055367466027382755
1746575927819451600,10.85645166015625,-0.0901081409484148,0.002711770576192066,0.004238240357954055
1746575927829467600,10.866467529296875,-0.10043372012972832,0.006176455578650347,-0.0029243173483293502
1746575927839482600,10.876482666015624,-0.0916068550735712,0.00287221726833377,-0.008040062060020864
1746575927849498600,10.88649853515625,-0.08726619552075862,0.000844154639984481,-0.010055438736733048
1746575927859514600,10.8965146484375,-0.09744155257642269,0.0046600505331763995,0.004944753792649134
1746575927869529600,10.906529541015624,-0.09280220233798027,-0.0027126701919129117,0.011130602820729836
1746575927879545600,10.916545654296876,-0.09399754960238933,-0.0001862204542150721,0.002856165749253705
1746575927889560600,10.926560546875,-0.09324702349603176,0.005837496814713813,-0.005749101578630507
1746575927899576600,10.93657666015625,-0.09713818571567535,0.0024052710434421896,-0.005053794524539261
1746575927909592600,10.946592529296876,-0.09279869520664215,-0.0024761534557212143,-0.008957085573393852
1746575927919607600,10.956607666015625,-0.09204933814406395,-0.0032411875780439,0.0019336532100103793
1746575927929623600,10.96662353515625,-0.08800912284255027,0.01036528100403957,0.00030450850506313145
1746575927939638500,10.976638427734375,-0.08651274680495262,0.011464474417595192,0.00517452569422312
1746575927949654500,10.986654541015625,-0.09249415930211544,0.011795711099379696,-0.0024323417134582996
1746575927959670500,10.99667041015625,-0.09817921920120716,-0.0011033672651741652,-0.010196299378992989
1746575927969685500,11.006685546875,-0.09817805015742778,-0.00013999755915720014,-0.009873314502323045
1746575927979701500,11.016701416015625,-0.09742810857295989,0.006101938170869834,0.0005500442313496023
1746575927989716500,11.026716552734374,-0.09593114801347255,0.01266447045765817,0.002203875852981582
1746575927999732700,11.036732666015626,-0.09114274469316005,0.007495031930506229,0.0056987778971903024
1746575928009747500,11.04674755859375,-0.09204173935949801,-0.0016755685294046997,-0.004538237084681168
1746575928019763700,11.056763671875,-0.09338906231522559,-0.0054418713935185225,-0.006949965268373489
1746575928029779700,11.06677978515625,-0.0838116711527109,-0.002529975135345012,0.00080673153931275
1746575928039794700,11.076794677734375,-0.10057108277380467,-0.005382012698752805,-0.0012569777911528943
1746575928049810700,11.086810791015624,-0.08740122007727623,-0.0035903937413590027,0.0062421183931175616
1746575928059825700,11.09682568359375,-0.08949439296424389,-0.005231927570421248,-0.004318931778194383
1746575928069841700,11.106841552734375,-0.09488193122148514,-0.00564226193698123,0.001582245956454426
1746575928079857700,11.116857666015624,-0.09218845435380935,-0.0016399355270201338,-0.0008018727011047303
1746575928089872600,11.12687255859375,-0.0936854149132967,-0.005028075561393052,-0.00344416737081483
1746575928099888600,11.136888671875,-0.09144026633501053,0.0034581136977765705,0.005600459488714114
1746575928109903600,11.146903564453124,-0.08575403739213942,0.009622129919962025,-0.0030894813147839158
1746575928119919600,11.156919677734376,-0.09278700476884841,-0.00010277538788504898,-0.006707827075570822
1746575928129935600,11.166935546875,-0.09637713821530342,-0.0007399636131478473,-0.00832965612374246
1746575928139950600,11.17695068359375,-0.09996727166175842,0.004762730022938921,0.00007540332376956939
1746575928149966600,11.186966552734376,-0.0960766939640045,0.005028851879527792,0.0042846367829479275
1746575928159981800,11.19698193359375,-0.09323241044878959,0.004754628914874047,0.006010209333384409
1746575928169997600,11.20699755859375,-0.0876946500658989,-0.009159051586012355,0.0026834486640058457
1746575928180012500,11.217012451171875,-0.09068564857542515,-0.0012039461293956264,0.0056854800241999326
1746575928190028500,11.227028564453125,-0.0954717138081789,0.0019946855151327324,0.0012608959144446998
1746575928200044300,11.237044189453124,-0.09756430217325687,0.002502644170424901,-0.0038677174119744447
1746575928210059500,11.2470595703125,-0.09502046290934085,-0.007062910423823632,-0.0024039650023449212
1746575928220075300,11.2570751953125,-0.08679273279011249,0.004629632562026381,0.009273375847795978
1746575928230090500,11.267090576171874,-0.09442425058186053,0.0048099027660675345,0.006568281607562676
1746575928240106200,11.277106201171875,-0.08664367970824241,0.0032712402230128646,0.0031367362563032657
1746575928250122200,11.287122314453125,-0.08125555692911147,0.0007730804314604029,0.00766361169675365
1746575928260137200,11.29713720703125,-0.08080781316161155,0.012163174438592977,-0.00099504805249162
1746575928270153500,11.307153564453126,-0.08933715657591819,0.008838276932737789,-0.0011482293202076106
1746575928280168200,11.317168212890625,-0.10415186387002467,0.010947761633689514,0.008201636696746572
1746575928290184400,11.327184326171874,-0.09547229833006858,0.011158299111831001,-0.002832967536756769
1746575928300200400,11.337200439453126,-0.09966390480101107,0.016385902133584023,0.00011213687127456069
1746575928310215400,11.34721533203125,-0.0821563051611185,0.003616989487339742,0.006996133364504203
1746575928320231400,11.3572314453125,-0.0908358707010746,-0.0068418515516677865,-0.003854163810657337
1746575928330246400,11.367246337890625,-0.1022077440649271,-0.0027151452767895535,-0.008859251222107558
1746575928340262400,11.377262451171875,-0.10430267051756381,-0.0037644671000540255,0.00833133662417531
1746575928350278400,11.3872783203125,-0.09936521411538124,0.000050634208694100375,0.015532847234513609
1746575928360293400,11.39729345703125,-0.08170856139361858,-0.0007413609857903793,0.016239050141954793
1746575928370309400,11.407309326171875,-0.09816694424152374,-0.008384222155460155,-0.007366446247929707
1746575928380324400,11.417324462890624,-0.10355448249876499,-0.00011794555755332112,-0.00457396598518826
1746575928390340400,11.42734033203125,-0.07766717704832553,0.005735360747645609,0.012743563575856386
1746575928400355300,11.437355224609375,-0.08784311862587928,0.006637743814312852,0.006395107864588499
1746575928410371300,11.447371337890624,-0.08993746055662631,0.001486539630172774,-0.0007072897528298199
1746575928420387600,11.4573876953125,-0.09607143326699732,-0.0028987536488100886,-0.0027473716125357896
1746575928430402600,11.467402587890625,-0.09397533777058124,-0.0017562279836041853,-0.009436375256627797
1746575928440418600,11.47741845703125,-0.08993453794717789,0.010140746966586447,-0.003432212071539834
1746575928450433500,11.48743359375,-0.0974146645694971,0.00968215757808648,-0.003647580988425761
1746575928460449500,11.497449462890625,-0.1004080011665821,0.0018811695375246925,0.002866522746486589
1746575928470465500,11.507465576171874,-0.09651917703449725,0.002580134420003742,0.005565963564068079
1746575928480480500,11.51748046875,-0.08469897538125515,0.01035138034285046,0.00826144059258513
1746575928490496500,11.52749658203125,-0.09143442111611366,0.003273564610839821,0.004778959638532251
1746575928500511500,11.537511474609374,-0.09786942259967327,-0.010804042314062826,-0.00003222176916897297
1746575928510527500,11.547527587890626,-0.09607377135455608,0.0015105917926179243,0.0042587534230202435
1746575928520543200,11.557543212890625,-0.08993804507851601,0.0018795529691735282,0.0024188611773774027
1746575928530558500,11.567558349609374,-0.09697159697711467,0.0037443604603642597,0.006059829761926085
1746575928540574200,11.57757421875,-0.09442717319130897,0.013050766361504793,0.0025338019270915537
1746575928550589400,11.58758935546875,-0.09233107769489288,0.008758265932509675,0.0029281806726939976
1746575928560605200,11.597605224609374,-0.09517477668821811,-0.000006731134885922074,-0.004397120714094489
1746575928570621400,11.607621337890626,-0.08769289650022984,0.008328911771648562,-0.002570919067086652
1746575928580636400,11.617636474609375,-0.08020926274657249,0.007309359465562738,0.0006842742034234106
1746575928590652400,11.62765234375,-0.11746727251708507,-0.0016760799860581755,0.005241462583746761
1746575928600667400,11.63766748046875,-0.08275017940104007,0.003258029114990495,0.0018180548731703311
1746575928610683400,11.647683349609375,-0.08454583064615726,0.003087444621324539,0.0021238876856397837
1746575928620698400,11.657698486328124,-0.07766250087320804,-0.002447726512257941,-0.002950830895919353
1746575928630714400,11.66771435546875,-0.08948328704833984,0.0022431392842903733,0.0030392398317344487
1746575928640730400,11.67773046875,-0.08529343414306641,0.003292401742050424,0.003786605866625905
1746575928650745300,11.687745361328124,-0.09337503378987312,0.0043791375328321005,-0.0052241552559193225
1746575928660761300,11.69776123046875,-0.0914326675504446,0.006309457141440361,-0.006719754975382238
1746575928670776300,11.7077763671875,-0.0791629685640335,0.003115857865056023,0.0019738025573082267
1746575928680792300,11.717792236328124,-0.09936287602782248,0.0006568975727306678,0.00021367015014402566
1746575928690808300,11.727808349609376,-0.0909837547391653,0.0032604265680536626,0.003433609444182366
1746575928700823300,11.7378232421875,-0.08380114975869656,-0.004683431408763863,-0.0034446240285411476
1746575928710839600,11.747839599609375,-0.09322890331745147,0.010628000760567373,0.006797615117719397
1746575928720854500,11.7578544921875,-0.09143325207233428,0.0040069888853468,-0.0012679832423571496
1746575928730870500,11.76787060546875,-0.09278115954995154,-0.0023081673445180056,-0.011605444657709449
1746575928740886500,11.777886474609375,-0.09038754241168498,-0.0004216457784408703,-0.0032690756653901186
1746575928750901500,11.787901611328126,-0.09906476986408233,0.003939499439974316,0.008909766699792817
1746575928760917500,11.79791748046875,-0.09981237336099147,0.0010017654876457527,0.005338036559708416
1746575928770932500,11.807932373046874,-0.09442483510375023,-0.004843910066946409,0.00018318368033505976
1746575928780948500,11.817948486328126,-0.09248013077676295,-0.003384920597402379,-0.0016212901920545845
1746575928790963500,11.82796337890625,-0.09786825355589389,0.005874668753636069,0.000670464873779565
