time,seconds_elapsed,z,y,x
1746575984725964300,0.01296435546875,-0.0037590602725744247,0.01694925337107852,-0.02290860016690567
1746575984735929300,0.022929443359375,-0.006603343787789344,0.017186802153731695,-0.023732675566663964
1746575984745893000,0.03289306640625,-0.01872515873610973,0.0018660541667835785,-0.03169602369524073
1746575984755857200,0.042857177734375,-0.009597849428653717,0.02048800369016826,-0.0379742408816237
1746575984765822200,0.052822265625,-0.008401333120465279,0.012844124173768795,-0.02663289052019827
1746575984775786200,0.0627861328125,-0.020223872861266135,0.018330186335463076,-0.011281263337796553
1746575984785750300,0.072750244140625,-0.02740706236362457,0.000555003534257412,-0.03602370960204862
1746575984795715300,0.08271533203125,-0.012444471031427382,0.0009638994289794936,-0.033875591657450424
1746575984805679400,0.092679443359375,0.0025192893445491788,0.002815715007856488,-0.03515429265664424
1746575984815644200,0.10264404296875,-0.009002806144952774,-0.0005618762330384925,-0.0281180464774603
1746575984825608200,0.112608154296875,-0.016037527087330816,0.004051741342525929,-0.0218741471192101
1746575984835572200,0.122572265625,-0.011249708288908004,0.0003436349390540272,-0.011939371053501962
1746575984845537300,0.132537353515625,-0.019780220746994016,0.016734331978764384,-0.032218230071594
1746575984855501000,0.1425009765625,-0.014841595301032065,0.016892860708455554,-0.03239813494945411
1746575984865465000,0.152465087890625,-0.00646364305615425,0.02526864382913336,-0.0366804564777296
1746575984875430100,0.16243017578125,-0.004220832565426826,0.016118474235897882,-0.028930116345593705
1746575984885394400,0.17239453125,-0.0185872115701437,0.013383911872585303,-0.017006833343789912
1746575984895358200,0.182358154296875,0.004155366113781929,0.023772286057844757,-0.007789051007595844
1746575984905323300,0.1923232421875,-0.003926233533024788,0.014807505801762454,-0.035159105829079634
1746575984915287300,0.202287353515625,-0.016496376770734785,0.022586820866633207,-0.027876113780634475
1746575984925251300,0.212251220703125,-0.016647183418273925,0.013369125295407139,-0.03252522736126557
1746575984935216000,0.222216064453125,-0.01485270121693611,0.003466616664640605,-0.026225401131273245
1746575984945180200,0.23218017578125,-0.016947627669572828,0.00041061292777303605,-0.020857037931960073
1746575984955144200,0.242144287109375,-0.021885668593645095,0.017752532577980307,-0.009637994209374301
1746575984965109000,0.25210888671875,-0.0033300212055444715,0.01457223117458634,-0.01668648338220082
1746575984975073300,0.2620732421875,-0.01604921752512455,-0.0012268201149068772,-0.03536072021524887
1746575984985038300,0.272038330078125,-0.0214367557823658,-0.002218730928818695,-0.0301128598567564
1746575984995002400,0.28200244140625,-0.009615969607234001,0.001916976069845259,-0.03308803517606575
1746575985004966100,0.291966064453125,-0.00976677625477314,0.015136924985796212,-0.022511760036158374
1746575985014931200,0.30193115234375,-0.020391630643606183,0.007356564174732193,-0.016981689769378864
1746575985024895200,0.311895263671875,-0.011863456273078919,0.009322270190552808,-0.04020015960305463
1746575985034859300,0.321859375,-0.03775017720162868,0.007507042028708383,-0.008720226343907416
1746575985044824000,0.331823974609375,-0.003483165940642357,0.009358866740739904,-0.014410469308192841
1746575985054788000,0.3417880859375,0.00324818814098835,-0.0015009882806334644,-0.015204304833314381
1746575985064752400,0.35175244140625,-0.025333763220906257,0.01208380732575897,-0.022500412091659382
1746575985074717200,0.36171728515625,-0.021893851900100708,-0.0009501768643036485,-0.030356258424883705
1746575985084681200,0.37168115234375,0.013420038065314293,0.016073552815360017,-0.015220484216557814
1746575985094645200,0.381645263671875,-0.02354161910712719,-0.0014696250279899686,-0.005886971112783066
1746575985104610300,0.3916103515625,-0.023393735069036484,0.013449373757652937,-0.02056196854209993
1746575985114574000,0.401573974609375,-0.013068740409612655,0.00839091219115071,-0.02986456135122571
1746575985124539100,0.4115390625,-0.020700842723250387,0.022905170667381024,-0.005241649813414551
1746575985134503200,0.421503173828125,-0.00902910962998867,0.009855952375568449,-0.019456331688025966
1746575985144467200,0.43146728515625,-0.019055413603782653,0.01184098871294409,-0.007788366021006367
1746575985154432300,0.441432373046875,-0.025490999609231946,0.02829461775391828,-0.02557520729396492
1746575985164396300,0.451396240234375,-0.025939912420511243,0.021521059365221296,-0.013499373212107457
1746575985174360300,0.4613603515625,-0.012473112604022025,0.014182793465582653,-0.01327716356248129
1746575985184325000,0.4713251953125,-0.012173837396502494,0.008623702600295656,-0.01937506944562774
1746575985194289200,0.4812890625,-0.0172626849681139,0.021757996226521206,-0.02563044004596304
1746575985204253200,0.491253173828125,-0.020553543207049368,-0.0013329884696984663,-0.017963216186594216
1746575985214218200,0.50121826171875,-0.005440729749202728,-0.0023231639842502773,-0.01544592700288631
1746575985224182000,0.51118212890625,0.0054822308033704754,-0.002383616334060207,-0.013780446042655966
1746575985234146000,0.52114599609375,-0.01920797381699085,-0.0024935977808665482,-0.024716540071438066
1746575985244111400,0.531111328125,-0.018010872986912726,0.008204381209681741,-0.013918274477613157
1746575985254075400,0.541075439453125,-0.008733341553807257,0.011916611232422292,-0.019235642708628438
1746575985264040200,0.551040283203125,-0.01771218230128288,0.006614513635775074,-0.030307779640657825
1746575985274004200,0.561004150390625,0.005779752445220947,0.019555714109004474,-0.04013912273135502
1746575985283968300,0.57096826171875,-0.021754735690355298,0.009482031896105036,-0.028893757257424293
1746575985293932800,0.580932861328125,-0.017266776621341705,0.019443540705111808,-0.014562992988782934
1746575985303896600,0.590896484375,-0.013078092759847641,0.01804052377308253,-0.011642461333004757
1746575985313860600,0.600860595703125,-0.012031798577308654,0.019841221086075528,-0.02208736517820507
1746575985323826000,0.610825927734375,-0.020861586242914197,0.006184862647391856,-0.007140966928983107
1746575985333790000,0.6207900390625,-0.016821370941400526,0.011813534450437873,-0.0028710390913998705
1746575985343753700,0.630753662109375,-0.017570728003978728,-0.001529812516318634,-0.02590981867634691
1746575985353718800,0.64071875,-0.00006429740786552428,0.013962976702442393,-0.022238272290444
1746575985363682800,0.650682861328125,-0.01787175677716732,0.016608235080796292,-0.01728504293039441
1746575985373646800,0.660646728515625,-0.015327917513251304,0.014884050769847817,-0.009611302565271033
1746575985383611600,0.670611572265625,-0.016824878072738646,0.014887096676882355,-0.018805430031241847
1746575985393575700,0.68057568359375,-0.009492635488510131,0.014911395434499717,-0.03842705811646301
1746575985403539700,0.690539794921875,-0.004105097231268883,0.014033945879689418,-0.015656071755383163
1746575985413504800,0.7005048828125,0.0011333879441022873,0.017505827807914466,-0.010445671030180528
1746575985423468800,0.71046875,-0.015327917513251304,0.009140447350242175,-0.029916127141681497
1746575985433433900,0.720433837890625,-0.01188683714866638,-0.0006455678945407271,-0.025311318493657742
1746575985443398000,0.73039794921875,-0.011887421670556068,0.012210493312194011,-0.013507944677630439
1746575985453361700,0.740361572265625,-0.010092354947328568,0.027434854552848262,0.005742059916490689
1746575985463326700,0.75032666015625,-0.02131634427309036,-0.0014377092194976285,-0.014479926948365755
1746575985473290800,0.760290771484375,-0.014732874229550361,0.00159958981689997,-0.02056311931957025
1746575985483254800,0.7702548828125,-0.007101356437802314,0.0029731568921590222,-0.026795771198021245
1746575985493219600,0.780219482421875,-0.007250409519672393,0.009021241417364217,-0.0115352472320199
1746575985503184000,0.790183837890625,-0.005454758274555206,0.022151767617347648,-0.011874050732329488
1746575985513148000,0.80014794921875,-0.03134323276877403,0.007127267197193577,-0.026061954197869636
1746575985523112700,0.81011279296875,-0.015780921977758405,0.008035536581953056,-0.01713567018811591
1746575985533076700,0.82007666015625,-0.007549100205302238,0.021007858279231004,-0.011896924717840738
1746575985543040800,0.830040771484375,-0.007998013016581535,-0.0038996560533531006,-0.018416654475941322
1746575985553005600,0.840005615234375,0.001727262184023857,0.012917582135624252,-0.013679625149839557
1746575985562969600,0.849969482421875,-0.002913257098197937,0.013738465497875585,-0.01249160724193789
1746575985572934700,0.8599345703125,-0.014884265398979185,0.01081876952573657,-0.014815173084987327
1746575985582898700,0.869898681640625,-0.014734043273329734,0.01137913422170095,-0.01938123889151029
1746575985592862700,0.87986279296875,-0.012938392028212547,0.008565378275490365,-0.037187552049919026
1746575985602827800,0.889827880859375,-0.010395137286186218,0.0067002511238912115,-0.023920731784938833
1746575985612791800,0.899791748046875,-0.014285714983940124,0.015611547627067193,-0.011436449332931078
1746575985622755800,0.909755859375,-0.02490998485088348,-0.005349991858983412,-0.022654045450524424
1746575985632720600,0.919720703125,-0.017128244933485984,0.0034115254765376447,-0.015312121722497976
1746575985642684700,0.9296845703125,-0.021767595171928403,0.022849294027988798,-0.020604707138705998
1746575985652648700,0.939648681640625,-0.006804419317841529,0.010098341730120591,-0.006291752521391026
1746575985662613500,0.949613525390625,-0.015334931775927542,0.012944607139867729,-0.024153115768707357
1746575985672577500,0.95957763671875,-0.029552257698774335,0.00989569073091261,-0.029207750543463043
1746575985682541600,0.96954150390625,-0.003516483688354492,0.011526767098042182,-0.005566922545293345
1746575985692507000,0.9795068359375,-0.017432780838012696,0.01480100299573969,-0.011958336048875935
1746575985702470700,0.989470703125,-0.011747720938920974,0.022390499143511988,-0.01180119555867277
1746575985712435700,0.999435791015625,-0.021175474497675893,0.016812730977218596,-0.009283952040737495
1746575985722399700,1.009399658203125,-0.008306640574336051,0.018980188376526347,-0.009046371292043477
1746575985732363800,1.01936376953125,-0.010701426756381988,0.0014088347514625637,-0.015848589519644154
1746575985742328600,1.02932861328125,-0.0038180969834327697,0.008509268740657716,-0.025801782591454683
1746575985752292600,1.039292724609375,-0.02072773073017597,0.004698907539108768,-0.030585674133431166
1746575985762256600,1.049256591796875,-0.030753450182080266,-0.0006251050618244334,-0.0038775264199357477
1746575985772221700,1.0592216796875,-0.005914192479848862,0.007288408009079285,-0.009751067228987812
1746575985782185700,1.069185791015625,0.0017179098337888716,0.014033032564236781,-0.008650312046008184
1746575985792149800,1.079149658203125,-0.013843816435337065,-0.002698385938233696,-0.02540682845711708
1746575985802114800,1.08911474609375,-0.011149170523881912,0.005868846367625519,-0.016021863727318123
1746575985812078600,1.09907861328125,-0.006810264536738395,-0.0013075572009198367,-0.008637388632353395
1746575985822042600,1.109042724609375,-0.01144903025329113,0.00756107833746355,-0.014351857289019972
1746575985832007700,1.119007568359375,-0.017736147698760033,0.007651295637874864,-0.004140342074586079
1746575985841971700,1.1289716796875,-0.013396657189726829,0.011142836681217886,-0.022434781243233008
1746575985851935700,1.138935791015625,-0.020879706421494483,-0.005890048985858447,-0.00674717270527035
1746575985861900800,1.14890087890625,-0.00651508098244667,0.0002588244661223143,-0.003387751875305548
1746575985871864800,1.15886474609375,-0.015644143855571745,0.010875098256277851,-0.01042252761661075
1746575985881829600,1.16882958984375,-0.018636895930767058,0.014538936259760521,-0.010653751689754427
1746575985891793700,1.178793701171875,-0.01729015749692917,0.010490469153132289,-0.009272398600261657
1746575985901757700,1.1887578125,-0.017290742018818854,0.0082212273132056,-0.029119665834633632
1746575985911722800,1.19872265625,-0.01609305666685104,0.01120861366011668,-0.010592797016445547
1746575985921686500,1.2086865234375,-0.01235270109474659,0.010337342684343456,-0.020721529318252576
1746575985931650600,1.218650634765625,-0.014897709402441978,0.010816372072673401,-0.011351040638377888
1746575985941615900,1.228615966796875,-0.02507306645810604,0.004529989846143871,-0.01163396749929525
1746575985951580000,1.238579833984375,-0.015346622213721274,-0.004468172089732251,-0.024944809569092466
1746575985961543700,1.248543701171875,-0.01130699143409729,0.010185668387124314,-0.010078956609638407
1746575985971508700,1.2585087890625,-0.004573883786797523,-0.00043075153350364414,-0.014490589906275272
1746575985981472800,1.26847265625,-0.018042437168955802,0.006873475099215284,-0.009215133721381425
1746575985991436800,1.278436767578125,-0.007268529698252677,0.010868691348377615,-0.013806288303388281
1746575986001401600,1.288401611328125,-0.0054740474969148635,-0.0008354964094934985,-0.01994835298866965
1746575986011365600,1.29836572265625,-0.03121171534359455,0.005748859550035558,-0.012472820343077182
1746575986021329700,1.30832958984375,-0.01819324381649494,0.004247067551803775,-0.020353965514339507
1746575986031294700,1.318294677734375,-0.0054740474969148635,0.005397356398357078,-0.017763127037230878
1746575986041258800,1.3282587890625,-0.015200491741299628,0.015264373590634204,-0.01731141948066652
1746575986051223800,1.338223876953125,-0.0021826047360897064,0.014198639488685875,-0.019605275172041726
1746575986061187800,1.348187744140625,-0.01894260087907314,0.019252324415370822,-0.015366989148315042
1746575986071151600,1.358151611328125,-0.02807107923030853,0.007356372378487139,-0.009201105196028948
1746575986081116700,1.36811669921875,-0.004428337836265564,0.0029358707888051867,-0.0037475068320985882
1746575986091080700,1.378080810546875,0.0015565817922353743,0.008500984969502315,-0.011043983983201906
1746575986101044700,1.388044677734375,0.005297521886229515,0.014604370745364576,-0.01462269185334444
1746575986111009800,1.398009765625,-0.01505319222509861,0.004401006871345453,-0.015323323536524549
1746575986120973800,1.407973876953125,-0.012060440149903297,-0.001665302863717079,-0.011207832775404675
1746575986130937900,1.417937744140625,-0.02956862431168556,0.00931580391714815,-0.008685328560462221
1746575986140902700,1.427902587890625,-0.00442892235815525,0.000981302654929459,-0.019726819192478432
1746575986150866700,1.43786669921875,-0.003830371943116188,0.004417907773796468,-0.01627459637937136
1746575986160830700,1.447830810546875,-0.013706453791260719,0.00937322405965533,-0.009224056813353672
1746575986170795800,1.457795654296875,-0.018045944300293923,0.017342056647525167,-0.00865788343111053
1746575986180759600,1.467759521484375,-0.016848843470215796,0.010376204256853087,-0.011133132704533637
1746575986190723600,1.4777236328125,-0.030018121644854543,-0.004731622498622164,-0.009349984747963025
1746575986200689000,1.48768896484375,-0.01834697307348251,0.009470533254556357,-0.004671544608147815
1746575986210653000,1.49765283203125,-0.011613280904293059,0.011350259753665886,-0.012962320893071592
1746575986220617700,1.50761767578125,-0.01251169104874134,-0.0023015686403727157,0.00026264212471432984
1746575986230581800,1.517581787109375,-0.0021866963893175124,0.004838498672889545,-0.019114386382559315
1746575986240545800,1.5275458984375,-0.00532908606827259,0.008963086055917665,-0.015211743787676094
1746575986250510600,1.537510498046875,-0.020591537129878996,0.0025350668689934535,0.014622536589717492
1746575986260474600,1.547474609375,-0.019245383217930793,0.006264238893380388,-0.021085494659282267
1746575986270438700,1.557438720703125,-0.021041618984937668,0.004512929113488644,-0.013988266407325863
1746575986280403700,1.56740380859375,-0.012812135300040245,-0.005167821958800778,-0.00694535302533768
1746575986290367700,1.57736767578125,-0.017001988205313682,-0.0024015492829727006,-0.01135341525855474
1746575986300331800,1.587331787109375,-0.004881342300772667,0.006374361904081888,-0.00831730809882283
1746575986310296800,1.597296875,-0.01969604959487915,0.002598560559260659,-0.003279487461550161
1746575986320260900,1.6072607421875,-0.015208090525865555,0.004758464839775115,-0.004548310954123735
1746575986330224600,1.617224609375,-0.007576572734117507,0.0023011850478826088,-0.007019331577001139
1746575986340189700,1.627189697265625,-0.01371112996637821,0.008654549829708412,-0.022253908250993118
1746575986350153700,1.63715380859375,-0.01281271982192993,0.0010922385163838044,-0.016259106549294664
1746575986360117800,1.64711767578125,-0.0008428805649280548,0.010553012995328754,-0.0027315073231235147
1746575986370082600,1.65708251953125,-0.020894319468736648,0.0112191396207083,-0.012618713353481144
1746575986380046600,1.667046630859375,-0.019548165556788445,0.010691800411511212,-0.010542911726422608
1746575986390012000,1.677011962890625,-0.012964110991358756,-0.0002789813381619751,-0.020974910424277186
1746575986399975700,1.6869755859375,-0.0235889653801918,-0.0004607904787408188,-0.0044619752443861216
1746575986409939700,1.696939697265625,-0.01745382362604141,0.0046771888976451,-0.006117542165378108
1746575986419904800,1.70690478515625,-0.014462825116515159,0.012148826252832076,-0.005430847676005214
1746575986429868800,1.716868896484375,-0.003839139771461487,0.003960875588143244,-0.016743446866981683
1746575986439832600,1.72683251953125,-0.0032400048345327375,0.009890649229614063,-0.018269432591553777
1746575986449797600,1.736797607421875,-0.0017436287969350814,0.008807091776607557,-0.02094709996874444
1746575986459761700,1.74676171875,-0.01146948851943016,0.014185770873958245,-0.005150651628291234
1746575986469725700,1.7567255859375,-0.00982289035618305,0.004549110105144791,-0.012030373805202542
1746575986479690800,1.766690673828125,-0.01625730731785297,0.007560338551946915,-0.017872176902275532
1746575986489654800,1.77665478515625,-0.011619126123189926,0.008794145530066452,-0.006627574046747758
1746575986499618800,1.786618896484375,0.004841010290384292,0.018052447106316684,-0.004521459479816257
1746575986509583600,1.79658349609375,-0.015808979028463364,0.019800605947896836,-0.019872401675628495
1746575986519547600,1.806547607421875,-0.02448912909030914,0.00726690856332425,-0.01411979296565987
1746575986529511700,1.81651171875,-0.001595160236954689,0.0023341968349181114,-0.007465650572394952
1746575986539476700,1.826476806640625,-0.02433890696465969,-0.003487102330243215,-0.02198759459815919
1746575986549440500,1.8364404296875,-0.007129998010396957,0.008276514864130877,-0.020222996078431605
1746575986559405800,1.84640576171875,-0.020596797826886174,-0.0019869497332489117,-0.008108770781522617
1746575986569369900,1.856369873046875,-0.020745850908756254,-0.002349869328085333,-0.0068917140088044105
1746575986579334000,1.866333984375,-0.01565758785903454,0.0003603166457964107,-0.01271996350456029
1746575986589298700,1.876298583984375,-0.022092589342594147,0.003305905111017637,-0.01863711512647569
1746575986599262700,1.8862626953125,-0.014910568884015082,-0.0033059781762538477,-0.02000546260392293
1746575986609226800,1.896226806640625,-0.015509703820943832,0.003929078510659746,-0.0019958134597167373
1746575986619191600,1.906191650390625,-0.016258476361632346,0.018368755647027862,-0.0065033631451893595
1746575986629155600,1.916155517578125,-0.012816811475157737,0.0003335154038388282,-0.018573338308418168
1746575986639119600,1.92611962890625,-0.010871522626280784,0.00765315880139824,-0.014508417823910713
1746575986649085000,1.9360849609375,-0.02688333075046539,0.012450681576505303,-0.008186895785341038
1746575986659048700,1.946048583984375,-0.02748246568739414,0.004759168092673644,0.0004714899692684412
1746575986669012700,1.9560126953125,-0.008628127613663673,-0.0030386735761538147,-0.02357807865999639
1746575986678977800,1.965977783203125,-0.013266893330216406,0.002910288822976872,-0.005896446760604157
1746575986688941800,1.97594189453125,-0.0035398645639419554,0.006575515065947547,-0.006635227630240843
1746575986698906600,1.98590673828125,-0.006681669721007347,0.002784991076029837,-0.003077672145981341
1746575986708870700,1.99587060546875,-0.019101590833067894,0.008569734790199436,-0.01326628140886314
1746575986718834700,2.005834716796875,-0.0104220252931118,0.0030838324587093664,-0.01619130201009102
1746575986728799700,2.0157998046875,-0.005184709161520004,0.017048188267485238,0.002856165749253705
1746575986738763800,2.025763671875,-0.011918401330709457,0.0035588432590477168,0.00228970010606572
1746575986748727800,2.035727783203125,-0.019549334600567816,0.012967316728597507,-0.01705648573837243
1746575986758692900,2.04569287109375,-0.010721300500631331,0.008355238089570775,-0.019711009701993316
1746575986768656600,2.05565673828125,-0.005334931287169456,0.005777925814315676,-0.019503824091563
1746575986778620700,2.06562060546875,0.0011000701963901518,0.0030167677050223574,-0.01906398050272837
1746575986788585700,2.075585693359375,-0.0036877486020326614,0.005758691390883177,-0.007485140724154188
1746575986798549800,2.0855498046875,-0.01491115340590477,0.009542488812492228,-0.01298478845320642
1746575986808513500,2.095513427734375,-0.004885433954000473,0.00841954919716809,-0.007701843081600964
1746575986818478800,2.105478759765625,-0.01580956355035305,-0.0064782515368191525,-0.010976563036488368
1746575986828443000,2.11544287109375,-0.021346739411354065,0.007774816986266523,-0.005730314679769799
1746575986838407700,2.12540771484375,-0.02149637701511383,-0.004168179929582402,-0.0031694329495076086
1746575986848371700,2.135371826171875,-0.007880524116754531,0.0066079377645161,0.0018612455609254537
1746575986858335700,2.145335693359375,-0.02463993573784828,0.012777662208280525,-0.005598258398473262
1746575986868300800,2.15530078125,-0.01431552560031414,0.0048695559648564085,-0.02308679714486934
1746575986878264600,2.1652646484375,-0.01685878034234047,0.001551832551881671,-0.005148377472814172
1746575986888228600,2.175228515625,0.005437222617864609,0.009262676357268355,-0.007543958239303901
1746575986898194000,2.18519384765625,-0.02778232541680336,0.004318950044503435,-0.008851433241833
1746575986908158000,2.195157958984375,-0.015512041908502578,0.003842331808968447,-0.002989582870574668
1746575986918121700,2.205121826171875,-0.02030044522881508,0.009749674422922544,-0.022470857203612103
1746575986928086800,2.215086669921875,-0.03092413057386875,-0.002993290931312367,-0.010114813374308869
1746575986938050800,2.22505078125,-0.0093763156324625,0.004936282791825943,-0.00507491037780419
1746575986948014800,2.235014892578125,-0.0048883565634489055,-0.005920581121440045,-0.01017956743990071
1746575986957979600,2.244979736328125,-0.0036906712114810943,-0.0025272260558325795,-0.0025773305415641517
1746575986967943700,2.254943603515625,-0.0068336454123258585,0.003901363953249529,-0.0004588314170949161
1746575986977908700,2.26490869140625,-0.02194821243584156,0.0198250782354502,-0.0003584580488502979
1746575986987872800,2.274872802734375,-0.027036475485563278,-0.007267703147768043,-0.01995367761775851
1746575986997836800,2.2848369140625,-0.011324527090787887,0.003372668470605276,-0.016691159557318314
1746575987007801900,2.2948017578125,-0.011772855380177498,0.011587027651607058,0.0031241599025204777
1746575987017766000,2.304765869140625,-0.010725392153859137,0.013850474504986778,-0.010031811265973373
1746575987027729700,2.314729736328125,-0.00713467418551445,0.014642729994375258,-0.006884855009755119
1746575987037694700,2.32469482421875,-0.019554010775685308,0.009193981335498392,-0.011065319032175466
1746575987047658800,2.33465869140625,-0.01341886902153492,-0.002106320062908344,-0.019623367951158432
1746575987057622800,2.344622802734375,-0.007283727267384529,0.0055320521613117304,-0.005612341722752898
1746575987067587600,2.354587646484375,-0.015963292807340622,0.0038636759910965334,-0.01005095435786061
1746575987077551900,2.3645517578125,-0.039457565641403194,-0.0007194642478134483,-0.027450225651916117
1746575987087516700,2.3745166015625,-0.010427870512008667,-0.0010209222792647778,0.000570612095342949
1746575987097480700,2.384480712890625,-0.008632803788781165,0.006736317951115779,-0.00756669979407452
1746575987107444700,2.39444482421875,-0.01731178480684757,0.0040331782059511165,-0.01285599270807579
1746575987117409800,2.404409912109375,-0.021799743875861168,-0.0036409137856215235,-0.011295081800594926
1746575987127373600,2.41437353515625,-0.011774608945846556,-0.004675435331976041,-0.010633037695288658
1746575987137337600,2.424337646484375,-0.011625555863976478,0.0044584041809663175,-0.007604026996623724
1746575987147302700,2.434302734375,-0.01731178480684757,0.015209670561598613,-0.013359457851340994
1746575987157266700,2.4442666015625,-0.028385552006959913,0.0018386455700499936,-0.00967972815898247
1746575987167230700,2.454230712890625,-0.015367665001749992,0.006774261641595512,-0.015449863392487167
1746575987177195800,2.46419580078125,-0.020904256340861318,0.02079016954109538,-0.002998825622955337
1746575987187159800,2.474159912109375,-0.010430208599567413,0.009792970141954719,-0.0037769429891370233
1746575987197123800,2.484123779296875,-0.01028174003958702,0.007417847641604021,-0.00037812173054553567
1746575987207088600,2.494088623046875,-0.018810498932003972,0.005891971514886245,-0.02001539034289308
1746575987217052700,2.504052734375,-0.021055062988400458,-0.0068222563686314965,-0.009996593822119757
1746575987227017700,2.514017822265625,-0.017761866661906243,-0.005639448925387114,-0.005474184494232759
1746575987236981500,2.5239814453125,-0.020754618737101552,-0.0007056914507877081,-0.0055803391492925585
1746575987246945500,2.533945556640625,-0.021055062988400458,0.005007329600886442,-0.0069854384405538435
1746575987256910800,2.543910888671875,-0.012973463341593742,0.009066902623418718,-0.010449908813880755
1746575987266875000,2.553875,-0.021353753674030303,0.017347116415132768,-0.009567198562063277
1746575987276838700,2.563838623046875,-0.01087912141084671,0.005849981836951337,-0.010922823555255309
1746575987286803700,2.5738037109375,-0.016715572479367256,0.008811439158162102,0.003248453002469614
1746575987296768800,2.583768798828125,-0.016566519397497176,0.012593044622684828,-0.001518706600414589
1746575987306732500,2.593732666015625,-0.012976385951042174,0.01012991047874093,-0.01672292466876097
1746575987316697600,2.603697509765625,-0.017166238856315612,0.006566528041893616,-0.012663611941132694
1746575987326661600,2.61366162109375,-0.0065425535112619395,-0.002511818424146622,-0.00529901059041731
1746575987336626400,2.62362646484375,-0.020009937849640846,-0.00701707568783313,-0.010649879232235253
1746575987346590500,2.633590576171875,-0.018214286604523656,-0.0015630115330219267,-0.011836458668299018
1746575987356554500,2.643554443359375,-0.01133095683157444,-0.004295751832006499,-0.013100149328028783
1746575987366519800,2.653519775390625,-0.0059440030962228775,-0.003677213508286513,-0.005498095092782751
1746575987376483600,2.663483642578125,-0.002502338209748268,0.0025084026243537665,-0.0028354243553243576
1746575987386447600,2.673447509765625,-0.0060942252218723295,0.012896525647863744,0.0017675211291760206
1746575987396412700,2.68341259765625,-0.01417524034678936,-0.0036945345358457412,-0.00924574805535376
1746575987406376700,2.693376708984375,-0.012081482937932014,0.012041301624593324,-0.014198365494050085
1746575987416340500,2.703340576171875,0.00048690673410892486,0.01512681458373554,-0.01978166378540918
1746575987426305500,2.713305419921875,-0.016572949138283728,0.013343785358173772,-0.011908820651611312
1746575987436269600,2.72326953125,-0.019116788402199745,0.013929718320234678,-0.0005007982621435075
1746575987446234600,2.733234619140625,-0.01552548591196537,0.01297106132195331,-0.008081654445733874
1746575987456198700,2.74319873046875,-0.02121229937672615,0.009371301530627534,-0.0031041308946441856
1746575987466162700,2.75316259765625,-0.024354689055681226,0.00518316565840505,-0.008644430294493213
1746575987476127700,2.763127685546875,-0.005799626189470291,-0.003176575076347217,-0.02077005376825109
1746575987486091500,2.773091552734375,0.0021317513316869733,-0.007693330981582403,-0.008663153261272236
1746575987496055600,2.7830556640625,-0.02016483615040779,0.006345711198332719,0.0021425010545644907
1746575987506020600,2.7930205078125,-0.020164251628518103,-0.00030376871954649687,-0.00963968840953894
1746575987515984600,2.802984619140625,-0.005799041667580604,0.009027360630896873,-0.005730469943396747
1746575987525948400,2.812948486328125,-0.030488077244162557,0.0048808993427781385,-0.019340459356550127
1746575987535913700,2.822913818359375,-0.01716974598765373,0.006309301877813414,0.001588949691876769
1746575987545877800,2.832877685546875,-0.004749824875593185,0.010914763546385802,-0.015463891917839645
1746575987555842600,2.842842529296875,-0.011782792252302169,0.00954224678389728,-0.005864480719761923
1746575987565806600,2.852806640625,-0.011633154648542404,0.01578326919847168,-0.008850364662753418
1746575987575770600,2.8627705078125,-0.01492459740936756,0.009267206401913426,-0.0019620938532054423
1746575987585735700,2.872735595703125,-0.011333294919133185,0.0005987559110159054,-0.003602846797555685
1746575987595699500,2.882699462890625,-0.006844751328229904,-0.00865604310047347,-0.006566454976657405
1746575987605663500,2.89266357421875,-0.011484101566672324,0.0056869915612740435,-0.004859395330445841
1746575987615628500,2.902628662109375,-0.006545476120710373,0.016564578602160325,0.004267329455120488
1746575987625592800,2.9125927734375,-0.01821720921397209,0.009374648831761442,-0.016987850082106886
1746575987635556600,2.922556640625,-0.03018821751475334,-0.004050604264787398,-0.024248936259420588
1746575987645521700,2.932521728515625,-0.02031213566660881,-0.008229424319393,-0.011818338489718734
1746575987655485700,2.942485595703125,0.003031330519914627,0.006871579969651065,0.006331294513912871
1746575987665450500,2.952450439453125,-0.01926467244029045,0.0034306731350021435,-0.0035924076019320634
1746575987675414500,2.96241455078125,-0.006097147831320762,-0.0014941749473568052,-0.00277414088845253
1746575987685378600,2.972378662109375,-0.005797872623801231,0.001959655300946906,-0.009332248161872848
1746575987695343600,2.982343505859375,-0.018815759629011154,0.0187745691020973,-0.012057426208909601
1746575987705307400,2.992307373046875,-0.01402794083058834,0.016718148028943686,-0.005405293109640478
1746575987715271700,3.002271728515625,0.01485094765126705,0.0057285793804097915,-0.0009925090355332941
1746575987725236700,3.01223681640625,-0.013131868773698806,0.005558885369310155,-0.00809731780574657
1746575987735200800,3.02220068359375,-0.005649988585710525,0.00030006979196332394,0.0052151042997837065
1746575987745164500,3.03216455078125,0.00168225399851799,0.0033629918933846055,-0.002592044053506106
1746575987755129600,3.042129638671875,-0.021961071917414664,0.003970976857049391,-0.011535302030947058
1746575987765093600,3.05209375,-0.018369184905290603,-0.006985680469148792,-0.002142345790937543
1746575987775058400,3.062058349609375,-0.012383096233010291,0.008959665689547546,0.006228235998237505
1746575987785022500,3.0720224609375,-0.006247954478859901,0.01586939941223245,0.003957752049295231
1746575987794986500,3.081986572265625,-0.009089899906516074,0.001358036145986989,-0.02404062727098353
1746575987804951600,3.09195166015625,-0.003703530693054199,0.01318664943454787,-0.022645693180710077
1746575987814915600,3.10191552734375,-0.002955342674255371,0.017751358967623674,-0.0064538888471201055
1746575987824879600,3.111879638671875,-0.011783961296081542,0.011132187423040158,-0.008978740282775833
1746575987834844700,3.1218447265625,-0.0168704707801342,0.01767064471449703,-0.004537771293800324
1746575987844808700,3.13180859375,-0.011034604233503342,0.014686094212066382,-0.012064340006886049
1746575987854772500,3.1417724609375,-0.02973988922536373,0.017274535236111842,-0.020400444137724114
1746575987864737500,3.151737548828125,-0.019714169773459432,0.004981966830766759,-0.016326774091180413
1746575987874701600,3.16170166015625,-0.005649404063820839,0.005295055934507399,-0.017710090808896347
1746575987884666600,3.17166650390625,-0.005649404063820839,0.018945450423285364,-0.013597778385551646
1746575987894630700,3.181630615234375,-0.026747721672058102,-0.008572155076148918,-0.00726038292441517
1746575987904594700,3.1915947265625,0.0022819734573364257,0.0046890893979929385,-0.003321079847263172
1746575987914559500,3.2015595703125,-0.011782792252302169,0.005972051013773307,-0.009738445209432393
1746575987924523500,3.2115234375,0.0007873509854078293,0.006218865381693467,0.007755281168734654
1746575987934487600,3.221487548828125,-0.018964228188991544,0.004586738701793365,-0.006442426738189533
1746575987944452600,3.23145263671875,-0.014625906723737717,0.0027744970814790573,-0.02777681812462397
1746575987954416600,3.241416748046875,-0.010736498069763184,0.0017518806020496412,-0.015853494023624806
1746575987964380400,3.25138037109375,-0.011035773277282715,0.004624175502196885,0.007065417474741115
1746575987974345700,3.261345703125,-0.019865560942888258,0.006538101098430342,-0.008797638961672783
1746575987984309800,3.271309814453125,-0.01163549273610115,-0.004749665045388974,0.004143474746588618
1746575987994274600,3.281274658203125,-0.008792378264665604,0.0070340953212929885,-0.007779337897757068
1746575988004238600,3.291238525390625,-0.02151157458424568,0.009128044526395387,-0.012320479325577616
1746575988014202600,3.30120263671875,-0.0038531682968139646,-0.004391193296806886,-0.0056594414006453
1746575988024167400,3.31116748046875,-0.011335048484802246,-0.008928950890875422,-0.004102795676328242
1746575988034131500,3.32113134765625,-0.03452887706756592,0.0032292368453461675,-0.007874167441204189
1746575988044095500,3.331095458984375,0.02308101585805416,0.017040530117414892,-0.014591693926881998
1746575988054060800,3.341060791015625,-0.038869536620378495,0.018124699491774664,-0.008276930422661826
1746575988064024600,3.351024658203125,-0.008942600390315055,0.01580004680333659,-0.005102885230118408
1746575988073989600,3.36098974609375,-0.01343231302499771,0.012100566664314829,-0.019001162665896118
1746575988083953700,3.37095361328125,-0.020015783068537712,-0.006541128739155829,-0.015982216703519223
1746575988093917700,3.380917724609375,-0.0013104980766773223,0.012556247143098153,-0.014939712780108675
1746575988103882500,3.390882568359375,-0.00684708941578865,0.014336417691293171,-0.02171274144584313
1746575988113846500,3.400846435546875,-0.016124036327004432,-0.0024100476832594722,-0.004252378481160849
1746575988123810600,3.410810546875,-0.020612579917907714,0.008565962797380052,-0.002780488430848345
1746575988133775600,3.420775634765625,-0.004302665629982948,0.011864689248939976,-0.0036128476017620414
1746575988143739600,3.43073974609375,-0.021810849791765213,0.01606807748922147,-0.007903092141589149
1746575988153703700,3.44070361328125,-0.0092412910759449,-0.005031272165477276,-0.003514054269250482
1746575988163668700,3.450668701171875,-0.03183715376555919,0.0036671168059576303,0.0028010197622235864
1746575988173632500,3.460632568359375,-0.008044774767756462,0.0010504680341575294,-0.005220976918144151
1746575988183596500,3.470596435546875,0.0006347907721996307,0.01755180867437739,-0.0067257645910605785
1746575988193561600,3.4805615234375,-0.02106324629485607,-0.008034312739246525,-0.003049222369631752
1746575988203525600,3.490525634765625,-0.021363690546154973,0.006813187146186828,-0.013879682333162054
1746575988213490400,3.500490478515625,-0.029294483545422554,0.006410323700029402,-0.007951799254678189
1746575988223454700,3.510454833984375,-0.016724340307712554,0.001098006103467196,-0.016921013657283036
1746575988233418800,3.520418701171875,-0.005651157629489898,0.005436916657187976,-0.006891887538740411
1746575988243383600,3.530383544921875,-0.011487608698010444,0.015679260834725574,0.0007439959008712321
1746575988253347600,3.54034765625,-0.002808043158054352,0.00940641850978136,0.0010755294101778418
1746575988263311600,3.5503115234375,-0.019568039301037787,0.007708236289769411,-0.011570702137891202
1746575988273276700,3.560276611328125,-0.030641221979260443,0.0019346167578129098,-0.022224362496100363
1746575988283240400,3.570240478515625,-0.014182254609465598,0.011689880671305582,-0.01643723959517665
1746575988293204500,3.58020458984375,-0.010142623829841614,0.011385025106370449,-0.014720316142076625
1746575988303169300,3.590169189453125,-0.015829437294602393,0.005801489352993666,-0.002645491273794323
1746575988313133300,3.60013330078125,-0.006552490383386612,0.0025622197374003007,-0.009050627342052758
1746575988323098000,3.61009814453125,-0.014333645778894424,0.016023206301033495,-0.016635639110952616
1746575988333062100,3.620062255859375,-0.02002104376554489,0.012917874396569095,-0.0020692531552631405
1746575988343026200,3.630026123046875,-0.020769231784343718,0.013957789070671424,-0.0014419515697751194
1746575988352991200,3.6399912109375,-0.005806055930256843,0.0004631833652267232,0.0007103036938235163
1746575988362955300,3.649955322265625,-0.013886486533284186,0.005520457621640526,-0.009732599990535527
1746575988372919300,3.659919189453125,-0.0061047466158866874,0.002552702990383841,0.00004782119709998369
1746575988382884400,3.66988427734375,-0.007002572238445281,0.017997949573257937,0.008428942646598443
1746575988392848100,3.67984814453125,-0.013885317489504813,0.012110750131611711,-0.013574233113182708
1746575988402812200,3.689812255859375,-0.030495676028728484,0.011837641411810181,-0.003559756574500352
1746575988412777200,3.699777099609375,-0.015382278048992157,0.011523333031940274,-0.002804435562016442
1746575988422741200,3.7097412109375,-0.00670329703092575,-0.00691694434818346,-0.00011076689809560775
1746575988432706000,3.7197060546875,-0.00580488688647747,0.003502491695620119,-0.0012902042073197663
1746575988442670000,3.729670166015625,-0.00341068522632122,0.005353873449657112,-0.0000386515099555254
1746575988452634400,3.73963427734375,-0.008797638961672783,-0.005807809495925903,0.006978067984851077
1746575988462599200,3.74959912109375,-0.020319734451174735,-0.0056917590679368005,0.001603206546092406
1746575988472563200,3.759563232421875,-0.019123218142986297,0.0057693863148335365,-0.014914377409452572
1746575988482527200,3.76952734375,-0.019721184036135674,0.001157216344261542,-0.011892490571318193
1746575988492492300,3.7794921875,-0.030944004318118095,-0.001263202035962604,-0.012453869047435
1746575988502456000,3.7894560546875,-0.007002572238445281,0.005097240940621122,-0.0013884952163323758
1746575988512421000,3.799421142578125,-0.020021628287434576,0.005144783576508052,-0.011091366788884624
1746575988522385200,3.80938525390625,-0.01538344709277153,0.020551976871048098,-0.005651650819834321
1746575988532349200,3.81934912109375,-0.0028133038550615308,-0.0002566507753450423,-0.010652217319793999
1746575988542314200,3.829314208984375,-0.006553659427165985,0.002071330947917886,-0.008068831496778875
1746575988552278300,3.8392783203125,-0.018973580539226532,0.0010511986865196377,0.00876744475280866
1746575988562242300,3.8492421875,-0.010893149936199187,0.004236473092553206,-0.006801624572556466
1746575988572207000,3.85920703125,-0.0052069209933280946,0.001561331032589078,0.0008214450512547045
1746575988582171100,3.869171142578125,-0.012239888370037078,0.004096416167891584,-0.016086334665119648
1746575988592135200,3.87913525390625,-0.009397358420491218,0.02599847420733422,-0.020703098612418397
1746575988602100200,3.889100341796875,-0.013138298514485358,0.0026719819884980095,-0.013843076649820431
1746575988612064000,3.89906396484375,-0.018973580539226532,0.011072223696997388,-0.009556832431675866
1746575988622028000,3.909028076171875,-0.011790975558757782,0.01001389201679267,0.0020939126724842934
1746575988631993300,3.918993408203125,-0.008648585879802703,0.018688744849013162,-0.00147763480450958
1746575988641957400,3.928957275390625,-0.015232640445232391,0.000382428012904711,-0.008202166419709101
1746575988651922200,3.938922119140625,-0.014034955093264578,0.001075748605886474,-0.008919210381573065
1746575988661886200,3.94888623046875,-0.02914893759489059,0.00541643555816263,-0.007870906905038283
1746575988671850200,3.958850341796875,-0.0073012629240751265,0.004927825490734539,-0.01368128281738609
1746575988681815000,3.96881494140625,-0.019720599514245984,0.012925696943420916,0.0028940135416109115
1746575988691779000,3.978779052734375,-0.016727847439050675,0.006067510744882747,-0.007884570104209706
1746575988701743000,3.9887431640625,-0.01807400135099888,-0.009584213628945872,-0.011185474813124164
1746575988711708400,3.99870849609375,-0.007448562440276145,0.003540170524618588,-0.010671871868334709
1746575988721672200,4.008672119140625,-0.017475450935959817,0.007148017724277451,-0.00042390623418614264
1746575988731636200,4.01863623046875,-0.02406009002327919,0.0076103425729786974,0.0009852481776848434
1746575988741601300,4.028601318359375,-0.025405659413337705,-0.010599550984217785,-0.005212026426708326
1746575988751565300,4.0385654296875,0.0018289689928293227,-0.008843227102491073,-0.014786595444474368
1746575988761530000,4.048530029296875,-0.012236965760588645,-0.007084391603269614,-0.012358601112570613
1746575988771494100,4.058494140625,-0.019569208344817162,-0.0070760302003007374,-0.003860136893717572
1746575988781458200,4.068458251953125,-0.006401683735847472,-0.0054430221709888425,-0.007049863712582737
1746575988791423200,4.07842333984375,-0.011339724659919738,0.011015849300683476,0.006107851888425648
1746575988801387300,4.08838720703125,-0.018223054432868955,-0.0013991718739736825,-0.015790456991083918
1746575988811351300,4.098351318359375,-0.011338555616140365,0.0027518970906035972,-0.014975587811088188
1746575988821316400,4.10831640625,-0.007147533667087555,-0.010454452558257617,-0.002532852079020813
1746575988831280000,4.118280029296875,-0.00789630620777607,-0.0003658650371711701,-0.017631819674605503
1746575988841244200,4.128244140625,-0.013133037817478179,0.009947841043258085,-0.0004178874853532761
1746575988851209200,4.138209228515625,-0.00924304464161396,0.01469096675000619,0.013250818978250025
1746575988861173200,4.14817333984375,-0.019867899030447004,-0.006351720814011059,-0.002284594672685489
1746575988871138300,4.15813818359375,-0.02196224096119404,-0.00802563624244649,-0.012041041329689323
1746575988881102300,4.168102294921875,0.003175707426667213,0.00687454824487213,0.007028336867364123
1746575988891066400,4.17806640625,-0.005204582905769348,0.001188871857849881,-0.0017510723178740589
1746575988901031200,4.18803125,-0.00729892483651638,0.0013183525895699858,0.0019359912975691258
1746575988910995200,4.1979951171875,-0.005354220509529113,0.0048561576271662485,0.00840580836618319
1746575988920959200,4.207959228515625,-0.030193478211760518,0.00014718991834670303,-0.015592687662970273
1746575988930924300,4.21792431640625,-0.01672492482960224,-0.00949322457697708,-0.01462955085239373
1746575988940888000,4.22788818359375,-0.0081955814152956,0.0033425473269773644,-0.01730584825640544
1746575988950852000,4.23785205078125,-0.020167174237966535,0.014750505784363484,-0.004696551185240969
1746575988960817400,4.2478173828125,-0.014480945295095443,0.009100951023492962,-0.0006695789577905088
1746575988970781400,4.257781494140625,-0.01762333497405052,0.007205300869466737,-0.0101001637944486
1746575988980746200,4.267746337890625,-0.005202829340100288,0.01641207775445655,-0.01659525230163708
1746575988990710300,4.277710205078125,-0.020465280401706695,0.013574237679759972,-0.014072528890985994
1746575989000674300,4.28767431640625,-0.01388064131438732,-0.009118061988498084,0.0022502905442845075
1746575989010639000,4.29763916015625,-0.0195674547791481,0.006873000175179913,0.005574804457649588
1746575989020603100,4.30760302734375,-0.019118541967868805,0.01257425772382412,0.006164185185544193
1746575989030567200,4.317567138671875,-0.010139116698503493,0.0005588668586220592,-0.005731575055094435
1746575989040532200,4.3275322265625,-0.014628244811296463,-0.004012907169479877,-0.01054691204810515
1746575989050496300,4.337496337890625,-0.011187164446711539,0.009571121251932345,-0.0036127014712896196
1746575989060460300,4.347460205078125,-0.014629413855075836,-0.009251150316256097,-0.007292330698948353
1746575989070425300,4.35742529296875,-0.01911912648975849,-0.004008619153429754,-0.016801944721722976
1746575989080389400,4.367389404296875,-0.01567746160328388,0.007395448580128141,-0.014914642270933837
1746575989090353200,4.377353271484375,-0.006100070440769195,-0.008632242099777795,-0.01686228747367859
1746575989100318200,4.387318115234375,-0.016574118182063103,-0.01085874990967568,-0.008722856692411005
1746575989110282200,4.3972822265625,-0.01492810454070568,0.011685528723173775,-0.009390088429488241
1746575989120247000,4.4072470703125,-0.012084990069270133,0.012332000800012611,-0.0012131660488899796
1746575989130211000,4.417211181640625,-0.006996142497658729,0.010196765169873834,-0.0129684583729133
1746575989140175400,4.42717529296875,-0.026747721672058102,-0.002647482301481068,-0.009008669630158691
1746575989150140200,4.43714013671875,-0.015375848308205604,-0.00446103909604717,-0.006439522395050153
1746575989160104200,4.447104248046875,0.003478489765524864,-0.000537769271666184,-0.017365323358681052
1746575989170068200,4.457068115234375,-0.014927520018815994,0.0034366005522897466,-0.010617018142249435
1746575989180033300,4.467033203125,-0.004153612548112869,-0.0035394261725246903,-0.0084082377852872
1746575989189997300,4.476997314453125,-0.010288754302263258,0.0004240021323086694,-0.002382273760344833
1746575989199961000,4.486961181640625,-0.019566285735368727,-0.003997061146376654,-0.018929613533336668
1746575989209926100,4.496926025390625,-0.006398176604509353,0.00403920608793851,-0.0033285964334383604
1746575989219890200,4.50689013671875,-0.013580197063088417,0.005542354359617457,-0.008343328456068411
1746575989229855200,4.516855224609375,-0.016572364616394043,0.014164490623911842,-0.004354386684065684
1746575989239819300,4.5268193359375,0.0001876315265893936,0.007904325117450208,-0.0017284403609577564
1746575989249783300,4.536783203125,-0.01447626911997795,0.0035433260295074432,-0.012850476282741873
1746575989259748000,4.546748046875,-0.00460018727183342,0.01595873079665471,-0.00549015838149935
1746575989269712100,4.556712158203125,-0.0168704707801342,0.011522794175823218,0.007943871676549315
1746575989279676200,4.56667626953125,-0.018517068943381308,-0.0001267864511348307,-0.008821741356467828
1746575989289641200,4.57664111328125,-0.011034604233503342,-0.00014913984683807938,-0.0037597361260093744
1746575989299605500,4.58660546875,-0.01268120239675045,-0.00006230181360151618,0.007591468909149989
1746575989309569800,4.59656982421875,-0.009088730862736701,0.003884673113352619,-0.0015428455278277396
1746575989319534800,4.606534912109375,-0.013728081101179122,0.001002473307121545,-0.00808066806504503
1746575989329499000,4.616498779296875,-0.029140754288434982,0.003222574209119193,-0.026778116810321807
1746575989339463700,4.626463623046875,-0.008191489762067794,0.004573824421293102,-0.003677857395680621
1746575989349427700,4.636427734375,-0.016571195572614668,0.011141800068179145,-0.0048922016215045
1746575989359391700,4.646391845703125,-0.016271920365095137,-0.008313951664534396,-0.00100058274413459
1746575989369356500,4.6563564453125,-0.008191489762067794,-0.00532589403076563,0.00020297522619366646
1746575989379320600,4.666320556640625,-0.01582300755381584,0.014898672950244508,-0.01599657402243465
1746575989389284600,4.67628466796875,-0.013877718704938887,0.007464636792242527,-0.001076031733676791
1746575989399250000,4.68625,-0.009089899906516074,0.0069556232576025645,-0.004177833673916757
1746575989409213700,4.696213623046875,-0.014028525352478026,0.0034793026162777095,0.004410445986548438
1746575989419177700,4.706177734375,-0.01118541088104248,0.01053824468445964,-0.0015709939100779593
1746575989429142800,4.716142822265625,-0.005648819541931152,0.002290672787022777,-0.009320037134271115
1746575989439106800,4.72610693359375,-0.021959318351745603,0.004056394684757106,-0.0015620434186421335
1746575989449071600,4.736071533203125,-0.024652795219421385,0.00533188994671218,-0.011603499295795336
1746575989459035600,4.74603564453125,-0.02076221752166748,0.0042909477927256376,-0.007714392035920173
1746575989468999700,4.755999755859375,-0.0102870007365942,0.008833367862179874,0.007546634253580123
1746575989478964700,4.76596484375,-0.01896539723277092,-0.006302150617819279,-0.0029735724506899713
1746575989488928800,4.7759287109375,-0.00968786579966545,0.003745305741857737,-0.01675262568728067
1746575989498892800,4.785892822265625,-0.01926467244029045,0.0013640274953562765,-0.016348538398416712
1746575989508857600,4.795857666015625,-0.027644378250837324,0.007534327327855863,-0.006498184646572917
1746575989518821600,4.805821533203125,-0.00968786579966545,-0.0013793483620742335,0.007849471391364932
1746575989528785700,4.81578564453125,-0.016722002220153808,0.00692986776183825,-0.0015442063678521663
1746575989538750700,4.825750732421875,-0.015824176597595215,-0.008194380405475385,-0.018411754538537932
1746575989548714800,4.83571484375,-0.014626491245627402,0.006325965318246744,-0.010843593439739197
1746575989558678500,4.845678466796875,-0.03512625843882561,0.0027574363488238303,-0.01705758171691559
1746575989568643800,4.855643798828125,-0.01791793400645256,0.009793486165185458,-0.007510677024209871
1746575989578607900,4.86560791015625,-0.02061199539601803,0.017586035170964895,0.003195371108362451
1746575989588572700,4.87557275390625,-0.012383096233010291,0.002745083757326938,-0.002173170187463984
1746575989598536700,4.88553662109375,-0.0038531682968139646,0.005001242353394627,-0.010602067168289795
1746575989608500700,4.895500732421875,-0.01537467926442623,0.0046675077538471665,-0.013073179122712462
1746575989618465500,4.905465576171875,-0.005647650498151779,-0.005786533812456764,0.0021334135658107696
1746575989628429600,4.9154296875,-0.01791793400645256,0.003517278272798285,0.009157457850547506
1746575989638393600,4.9253935546875,-0.019265256962180136,0.0012380310620879753,-0.006183538339985534
1746575989648359000,4.93535888671875,-0.017319383591413495,-0.009656612144876271,-0.021350301341619343
1746575989658322700,4.94532275390625,-0.027196049961447713,0.0036661212921142577,-0.009518601046828553
1746575989668286700,4.95528662109375,-0.012232874107360838,0.013584261316852643,0.006545065128756687
1746575989678251800,4.965251708984375,-0.010587444987893104,0.01726526051769033,0.010102437949925661
1746575989688215800,4.9752158203125,-0.027196634483337402,0.0044349228406790646,-0.015346768344193696
1746575989698180600,4.9851806640625,-0.019863222855329512,0.019944229369401,-0.01226622838769108
1746575989708144600,4.99514453125,-0.021808511704206467,0.012960457729548215,-0.0018352160705253481
1746575989718108700,5.005108642578125,-0.018816928672790525,0.006650776825821958,0.005239572020759806
1746575989728073700,5.01507373046875,-0.005649404063820839,0.0067350256097503,-0.007610146210156381
1746575989738037800,5.025037841796875,-0.02300736609995365,-0.0016314964922377838,-0.004760638530552387
1746575989748001800,5.035001708984375,0.00258066414296627,-0.005119407106656581,-0.015658291111933068
1746575989757966800,5.044966796875,-0.004303250151872635,-0.0021250932620372623,-0.014854847508249804
1746575989767930600,5.0549306640625,-0.006547814208269119,-0.008424800761020743,-0.0006352565630804747
1746575989777894700,5.064894775390625,-0.015227964270114898,0.007350508893281221,0.0064853160318452865
1746575989787859700,5.074859619140625,-0.01822071634531021,0.0004159284237073734,-0.010665131600294262
1746575989797823700,5.08482373046875,-0.01223638123869896,-0.010495460422080941,-0.014180135717615484
1746575989807788500,5.09478857421875,-0.003407762616872787,0.015974919313052668,-0.008767837478453293
1746575989817752800,5.1047529296875,-0.018221300867199898,0.016397090247878804,-0.001176496433466673
1746575989827716900,5.114716796875,-0.005053191736340523,0.014541607707459478,-0.012369067707657814
1746575989837681700,5.124681640625,-0.005800795233249664,0.009535378651693462,-0.00949859943841584
1746575989847645700,5.134645751953125,0.0004845686465501785,0.016578465563617646,-0.01959425145452842
1746575989857609700,5.144609619140625,-0.004752162963151931,0.006066072273044847,-0.012761601556045934
1746575989867574800,5.15457470703125,-0.016274842974543572,0.004733800755976699,-0.016943627347890285
1746575989877538600,5.16453857421875,-0.022111294043064115,-0.0006956495473859831,-0.0020078874900005756
1746575989887502600,5.174502685546875,-0.007148118188977241,0.00006624276977963745,-0.006911688217753544
1746575989897467600,5.184467529296875,0.002877601262927055,0.004220092779910192,-0.005510397451929747
1746575989907432000,5.194431884765625,0.01230477029979229,-0.00538109938330017,0.00019165924773551524
1746575989917396700,5.204396728515625,-0.019717092382907867,-0.0016539229531772435,-0.014376489406777545
1746575989927360800,5.21436083984375,-0.015377017351984977,-0.009370589144574478,-0.0001341569068375975
1746575989937324800,5.22432470703125,-0.007296586748957634,0.0010726570330793037,0.00211555824871175
1746575989947289600,5.23428955078125,-0.018221300867199898,0.006047979493928142,-0.010685799928987398
1746575989957253600,5.244253662109375,-0.008494856622815131,0.005679698737384751,-0.012693258160725236
1746575989967217700,5.2542177734375,-0.01433072316944599,0.009535876408615149,-0.002653564982395619
1746575989977182700,5.2641826171875,-0.018370938470959663,0.0031880554515868425,-0.002447475350508466
1746575989987146500,5.274146484375,-0.010290507867932319,0.014727385203680023,0.00889601216907613
1746575989997110800,5.28411083984375,-0.011337971094250679,0.013344680407317355,-0.004368488274654373
1746575990007075800,5.294075927734375,-0.005352466943860054,-0.006599649426783435,-0.014958581877360119
1746575990017040000,5.304039794921875,-0.020466449445486066,-0.00957592985779047,0.0019642310113646088
1746575990027004700,5.314004638671875,-0.0207657246530056,-0.0023985170756699514,0.001974560609133914
1746575990036968700,5.32396875,-0.028546880048513412,0.004797942900215275,-0.010617867525620385
1746575990046932700,5.3339326171875,-0.03093991266489029,-0.00844045498787891,-0.006475561822811142
1746575990056897500,5.3438974609375,-0.01283317808806896,0.002600432855938561,-0.008474535353993996
1746575990066861600,5.353861572265625,-0.019566870257258413,0.01334480370490346,-0.005891359593532979
1746575990076825600,5.36382568359375,-0.007446808874607086,0.003672674330486916,-0.015431770613370463
1746575990086791000,5.373791015625,-0.0041547815918922424,0.0050127135954797265,-0.016364777147164566
1746575990096754700,5.383754638671875,-0.008194412371516227,0.0006385901644825935,-0.003988567312667146
1746575990106718700,5.39371875,-0.01447802268564701,0.0037481918186880645,-0.004075396212749183
1746575990116683800,5.403683837890625,-0.021959318351745603,0.00007184139350429177,-0.0011141443875152617
1746575990126647800,5.413647705078125,-0.01462707576751709,0.005337315040500834,-0.016834075159346682
1746575990136612600,5.423612548828125,-0.009240706554055213,0.002070212136488408,-0.012778068633656948
1746575990146576600,5.43357666015625,-0.013579028019309044,0.004942735365498811,-0.0017075345702469349
1746575990156540700,5.443540771484375,-0.0023567922592163085,-0.009254538716585374,-0.003630081864353269
1746575990166505700,5.453505615234375,-0.008192074283957481,0.003739172828593291,-0.005603948353743181
1746575990176469800,5.4634697265625,-0.021659458622336387,0.014333709710976108,0.009058646251726895
1746575990186433800,5.473433837890625,-0.0059463411837816236,-0.005539838175545446,-0.0002628613204229623
1746575990196398800,5.48339892578125,-0.02150806745290756,-0.009453399456664919,-0.0001454728852957487
1746575990206362600,5.493362548828125,-0.006246200913190841,-0.001353528934228234,-0.020086574149271473
1746575990216326700,5.50332666015625,-0.021809096226096152,0.015433364348835311,-0.01361364267496392
1746575990226291700,5.513291748046875,-0.015972645157575606,0.014981848588516004,0.007759345422498881
1746575990236255700,5.523255859375,-0.008341711887717247,-0.0007071207894710824,-0.006566363645112141
1746575990246220800,5.533220703125,-0.017620412364602087,0.01519130835442338,-0.012764259304013103
1746575990256184800,5.543184814453125,-0.004451134189963341,0.0012227969603380187,-0.024198128520790486
1746575990266148900,5.55314892578125,-0.0007107786178588867,0.0024131894884165373,0.002616082516219467
1746575990276113700,5.56311376953125,-0.0020569325298070906,0.005338452118239365,0.01041844509653747
1746575990286077700,5.57307763671875,-0.006696282768249511,-0.011370119798183441,-0.017233751134574413
1746575990296041700,5.583041748046875,-0.008043605723977089,-0.010492706775991246,-0.006127323773875832
1746575990306006000,5.593006103515625,-0.005649404063820839,-0.005715021212515421,-0.004302318570110947
1746575990315970000,5.602969970703125,-0.007893968120217323,-0.0023375943684019146,-0.007856896645994857
1746575990325933800,5.612933837890625,-0.011934183421730995,0.0025719967793207616,-0.0021574520285241303
1746575990335899000,5.62289892578125,-0.01642389605641365,0.004237838499154895,-0.011391546178702264
1746575990345863000,5.63286279296875,-0.021959902873635292,0.006938685822533443,0.0023343338322360067
1746575990355827700,5.64282763671875,-0.021809680747985838,0.0010796712957555428,0.004647223017644137
1746575990365791700,5.652791748046875,-0.008192074283957481,-0.01090658023993019,-0.0036419001663103696
1746575990375755800,5.662755859375,-0.011034604233503342,-0.0008684442644473165,-0.012087656950391828
1746575990385721000,5.67272119140625,-0.006396423038840294,-0.002175174914882518,-0.00009071049075573682
1746575990395684900,5.682684814453125,-0.02121054581105709,0.0118980206963839,0.008477065237797796
1746575990405649000,5.69264892578125,-0.014776713371276855,0.02149613041994162,-0.008700964521011337
1746575990415614000,5.702614013671875,-0.01447802268564701,-0.007262204988743178,-0.013500492023536934
1746575990425578000,5.712577880859375,-0.009989479094743728,-0.005656532490928657,-0.024463784586498512
1746575990435541800,5.722541748046875,-0.01357961254119873,-0.004541292124870233,0.008869060230068861
1746575990445506800,5.7325068359375,-0.006098316875100135,0.007156027500797062,-0.0026020448577124622
1746575990455470800,5.742470947265625,-0.015226210704445837,0.0016137416398385538,-0.0148576879193075
1746575990465436000,5.752435791015625,-0.018068740653991697,-0.009166280477819963,-0.006136484327865764
1746575990475400000,5.76239990234375,-0.006246200913190841,0.0013793940278468654,-0.01755093645812012
1746575990485364000,5.772364013671875,-0.015074819535017013,0.0019317717801779508,-0.02442269452428445
1746575990495329000,5.7823291015625,0.00018821604847908018,0.013866361627285368,-0.013342643713857977
1746575990505292800,5.792292724609375,-0.005347790768742561,0.008410753969359211,0.00868340146485716
1746575990515256800,5.8022568359375,-0.01507365049123764,0.0023747754404786973,0.010309029905311762
1746575990525222000,5.812221923828125,-0.016570026528835297,-0.0022797678005183116,-0.005409001170378178
1746575990535186000,5.82218603515625,-0.0209095170378685,0.00247735446554143,-0.013347027628030627
1746575990545149700,5.832149658203125,-0.017018354818224907,0.0019846390451537443,0.007798672785889357
1746575990555115000,5.842114990234375,-0.01028524717092514,-0.0008782213063677773,0.0013975370393134654
1746575990565079000,5.8520791015625,-0.025548867276310918,0.011156358316494152,-0.016507866279128938
1746575990575043800,5.8620439453125,-0.029738720181584355,0.001370434403256513,-0.007340389358066022
1746575990585007900,5.8720078125,-0.018066987088322637,-0.00043020811080932614,0.0014877726060338317
1746575990594972000,5.881971923828125,-0.018216040170192717,-0.0002949232593877241,-0.011469799046684055
1746575990604937000,5.89193701171875,-0.008788871133327483,-0.005970754105830565,-0.01743406861280091
1746575990614900700,5.901900634765625,-0.027194296395778656,0.0016258430695859714,-0.01591593740112148
1746575990624864800,5.91186474609375,-0.003551555001735687,0.006757767164520919,-0.006287026113923639
1746575990634830000,5.921830078125,-0.016570026528835297,0.005167292235838249,-0.005998528028745204
1746575990644794000,5.931794189453125,-0.025398645150661467,0.004610713232425041,-0.01858883727164939
1746575990654758000,5.9417578125,-0.031084874093532562,0.013763540573627686,-0.018445191017258913
1746575990664723000,5.951722900390625,-0.021806758138537406,0.00047136667168233543,-0.00760288535230793
1746575990674687000,5.96168701171875,-0.007590601259469985,0.0052449057830031955,0.0038726310491096227
1746575990684651800,5.97165185546875,-0.0034007483541965483,0.0037831033018650485,-0.007541391822881996
1746575990694615800,5.98161572265625,-0.00549509028494358,0.0005857091997750103,-0.003557564617414027
1746575990704579800,5.991579833984375,-0.0060930561780929565,0.002022623834828846,-0.011969693126529455
1746575990714545000,6.001544921875,-0.006841244196891784,-0.010686526014772242,-0.0030005974549334497
1746575990724509000,6.011509033203125,-0.02105681655406952,-0.006055829440243542,-0.016007853468274696
1746575990734473000,6.021472900390625,-0.02210369525849819,-0.011811899615777655,-0.017218754494842142
1746575990744438000,6.03143798828125,-0.015519640693068503,0.0003341729909647256,-0.00825883764354512
1746575990754402000,6.041402099609375,-0.014772037196159361,0.00555447862225119,-0.012669320162711665
1746575990764365800,6.05136572265625,-0.003848492121696472,-0.009966933902795426,-0.015986874612327666
1746575990774331000,6.061330810546875,-0.007439794611930847,-0.0019543626378988846,-0.010652719643292948
1746575990784295000,6.071294921875,-0.018214286604523656,-0.00208742356619332,-0.006547987738205119
1746575990794259700,6.081259765625,-0.007140519404411316,0.013184315913566388,-0.0018117621297016738
1746575990804223700,6.0912236328125,0.0009393266767263412,0.006179588250652886,0.008669519069977105
1746575990814188000,6.10118798828125,-0.015670447340607643,0.024028110282705163,-0.007331247070385143
1746575990824152800,6.11115283203125,-0.02509820089936256,-0.001541662784316577,-0.017359953063819555
1746575990834116900,6.121116943359375,-0.01701777029633522,0.004186099178763106,0.008236571012809873
1746575990844081000,6.131080810546875,-0.01911386579275131,-0.0005285128195537254,-0.007117595186550169
1746575990854046000,6.1410458984375,-0.007591770303249359,-0.0009150827180361375,-0.014897344076260923
1746575990864010000,6.151010009765625,0.001536123526096344,-0.010489775033388287,-0.0011486220458522438
1746575990873973800,6.160973876953125,-0.0035521395236253737,0.011340295482077635,-0.00107082583559677
1746575990883938800,6.170938720703125,-0.020910101559758185,-0.006155303192767314,-0.009181797707360237
1746575990893902800,6.18090283203125,-0.012979308560490607,-0.007343193236505612,-0.017687659781379626
1746575990903868000,6.190867919921875,-0.021958733829855918,0.004519171624607406,-0.016586301810201258
1746575990913832000,6.20083203125,-0.014776128849387168,0.014732157276920042,0.0009144388306420296
1746575990923796000,6.2107958984375,-0.021660043144226072,-0.0012530733675928786,-0.0020414518328849226
1746575990933760800,6.2207607421875,-0.011933598899841307,0.0005092646963894367,-0.01637751789772883
1746575990943724800,6.230724853515625,-0.01761865879893303,0.004988834962970577,-0.016633611550647763
1746575990953688800,6.240688720703125,-0.01896539723277092,0.012596259493078105,0.0025182207654695955
1746575990963654000,6.25065380859375,-0.005945756661891937,-0.0014763607294531538,-0.011779476917209103
1746575990973618000,6.260617919921875,-0.021507482931017875,-0.011020077951229177,-0.003250599293783307
1746575990983581700,6.270581787109375,-0.030635961282253262,-0.009346728778374381,-0.006974195527331903
1746575990993547000,6.280547119140625,-0.027494156125187873,-0.008893651248631068,-0.007669639578741044
1746575991003511000,6.290510986328125,-0.01701952386200428,-0.011213024973752908,-0.006837061212118714
1746575991013475800,6.300475830078125,0.005275310054421425,-0.011089855251810513,-0.0048550022831186646
1746575991023440000,6.31043994140625,-0.012382511711120604,-0.00020882501166779547,-0.014258370319288224
1746575991033404000,6.32040380859375,-0.008192658805847167,0.004193145407480187,-0.02425959465075284
1746575991043368700,6.33036865234375,-0.004750993919372558,0.0019155923969345165,-0.01657088504536077
1746575991053332700,6.340332763671875,-0.014626491245627402,0.015143889016122557,-0.010002155913226306
1746575991063296800,6.350296875,-0.02210895595550537,0.015206597255100495,-0.017298779194802046
1746575991073262000,6.360261962890625,-0.016722586742043494,0.010386501888581551,-0.0033087592218071222
1746575991083225900,6.370225830078125,-0.020015198546648023,0.005735324215027504,-0.006102381128864362
1746575991093190000,6.38018994140625,-0.0004126724541187286,-0.005762248754571191,0.0010700312511529773
1746575991103155000,6.390155029296875,-0.01567570803761482,0.015285507710208184,0.0060981342120096085
1746575991113119000,6.400118896484375,-0.019716507861018178,0.006161942996107973,0.003016041619237512
1746575991123083800,6.410083740234375,-0.01852057607471943,-0.006169226686842739,-0.003821704579470679
1746575991133047800,6.4200478515625,-0.004604278925061225,-0.007195245266333222,-0.024729979508323594
1746575991143011800,6.43001171875,-0.018521160596609115,-0.010004685797030106,0.0005931070549413561
1746575991152977000,6.439976806640625,-0.016127543458342553,0.012707149688759817,0.010208245545113459
1746575991162941000,6.44994091796875,-0.013583704194426536,0.002586093803332187,-0.007616740347724408
1746575991172905000,6.459905029296875,-0.018671382722258566,-0.0011676920725032687,-0.011817279043793677
1746575991182870000,6.4698701171875,-0.003707622346282005,0.007243020797660574,-0.006881430076807737
1746575991192833800,6.479833740234375,-0.007747837647795677,0.009429936382686719,-0.005059493612963706
1746575991202797800,6.4897978515625,-0.004455810365080833,-0.0018212834432953968,0.005319989446364343
1746575991212763000,6.499762939453125,-0.014632336464524269,0.007906110649160109,0.010810942412307485
1746575991222727000,6.509726806640625,0.0054191024392843245,0.014374982436280697,-0.0215009070597589
1746575991232692000,6.51969189453125,-0.024957331123948094,0.006218687285180203,-0.012156429603975265
1746575991242656000,6.529656005859375,-0.02525660633146763,0.003005990582681261,0.0022076387126464397
1746575991252620000,6.5396201171875,-0.00969312649667263,0.0011896207765210419,-0.002974659296078607
1746575991262584800,6.549584716796875,-0.01313479138314724,0.004030849251546897,-0.0035704332321416584
1746575991272548900,6.559548828125,-0.007447977918386459,-0.001517651721066795,-0.00046127910250797865
1746575991282513000,6.569512939453125,-0.006999065107107162,-0.001343902589357458,-0.002610958816530183
1746575991292478000,6.57947802734375,-0.018072247785329818,-0.011324823918309994,-0.014180711106350644
1746575991302442000,6.58944189453125,-0.005651742151379585,-0.007086136035784147,-0.0090429828917142
1746575991312406000,6.599406005859375,-0.004155366113781929,0.005089464059541933,-0.0037791075467597693
1746575991322371000,6.60937109375,-0.010589198553562164,0.007783045958494767,0.012031277987500652
1746575991332335000,6.619335205078125,-0.008643325182795524,-0.0029613385902019216,-0.016325924707809462
1746575991342300000,6.6292998046875,-0.014778466936945914,0.0063435557738645,-0.014724544792622326
1746575991352264000,6.639263916015625,-0.01672375578582287,0.009796600570878944,-0.003520885868836194
1746575991362228000,6.64922802734375,-0.021062661772966385,-0.004713379022455774,0.010236092533264308
1746575991372192800,6.65919287109375,0.00003507131338119507,-0.0002917175221489742,-0.007536158525338396
1746575991382157000,6.669156982421875,-0.027198972570896148,0.015236777764232828,-0.016269527478609234
1746575991392121000,6.67912109375,-0.015527823999524116,0.0121440861456329,0.0004916103086899966
1746575991402086100,6.689086181640625,-0.014779635980725287,-0.01066467037599068,-0.011565039582084864
1746575991412050000,6.6990498046875,-0.013882394880056381,0.001594461550633423,-0.018975151441805064
1746575991422014000,6.709013916015625,-0.009542319849133491,0.005728013124829158,-0.014671408099588007
1746575991431979000,6.71897900390625,-0.016425065100193023,0.0077884664857061576,0.008176547921262682
1746575991441943000,6.728943115234375,-0.004752162963151931,-0.0002023998374585062,-0.0021984050934202967
1746575991451907800,6.738907958984375,-0.012533318358659744,0.006121702317264862,-0.008814727093791589
1746575991461871900,6.748871826171875,-0.006997896063327789,0.013034760508197359,-0.0009609083208721131
1746575991471836200,6.758836181640625,-0.014030278918147086,0.009209325035102665,0.002364518907945603
1746575991481801000,6.768801025390625,-0.017920856615900992,-0.0010407046919688582,-0.00798124454487115
1746575991491765000,6.778764892578125,-0.009092822515964508,0.011842157756723462,-0.01631965023064986
1746575991501729000,6.78872900390625,-0.01672375578582287,0.02642881931546144,-0.014848582164244726
1746575991511694000,6.798694091796875,-0.012084990069270133,0.001666257278365083,-0.007613388480013236
1746575991521657900,6.808657958984375,-0.006249123522639274,0.01315864261619281,-0.005641732214018702
1746575991531622000,6.818621826171875,-0.01702244647145271,0.002069983807625249,-0.011676336203143
1746575991541587000,6.8285869140625,-0.01253390288054943,-0.005948560540331527,-0.014526382738864049
1746575991551551000,6.838551025390625,-0.0016109423279762267,-0.0010250047993380575,-0.00048578335610218343
1746575991561516000,6.84851611328125,0.015447159978747366,0.0028929814951494334,-0.005506506728101521
1746575991571480000,6.85847998046875,0.007965864312648773,0.0030337645055958998,-0.016772261969512328
1746575991581444000,6.868444091796875,-0.03093991266489029,0.008802817460289224,-0.011079968612035735
1746575991591409000,6.878408935546875,-0.009690788409113884,-0.00720481681227684,-0.010352622451866045
1746575991601373000,6.888373046875,-0.013730419188737868,0.0010769998480565845,-0.0022937643598299473
1746575991611337000,6.8983369140625,-0.014628244811296463,-0.009654059428186154,-0.0007314195470884442
1746575991621302000,6.908302001953125,-0.011036942321062088,0.015147218050947412,-0.010105022632656618
1746575991631265800,6.918265869140625,-0.014478607207536697,0.008680519954604097,-0.012667411333415656
1746575991641229800,6.928229736328125,-0.021062661772966385,-0.005232023468543775,0.00021267463630065322
1746575991651195100,6.938195068359375,0.0007838438540697097,-0.007558776782522909,-0.00048298861081711944
1746575991661159000,6.948158935546875,-0.006399345648288726,0.007869573464477433,-0.002688060907041654
1746575991671124000,6.9581240234375,-0.01403144796192646,-0.0007634495200123637,-0.007734777236822992
1746575991681088000,6.968087890625,-0.015378770917654036,0.0035447873342316595,-0.010506561771407723
1746575991691052000,6.978052001953125,-0.01762333497405052,-0.006688451088243163,-0.003393724958365783
1746575991701016800,6.988016845703125,-0.01762333497405052,0.016352054662909357,0.0016569825599435715
1746575991710980900,6.99798095703125,-0.018072247785329818,0.011140854786685667,0.007632796433381736
1746575991720945000,7.00794482421875,-0.005353635987639427,-0.004573139434703626,-0.005288370465394109
1746575991730910000,7.017909912109375,-0.029595512318611142,0.013820823718816972,-0.018129658794682472
1746575991740874000,7.0278740234375,-0.016577040791511535,0.003478129005921073,-0.022257461048103867
1746575991750838000,7.037838134765625,-0.008646832314133643,-0.0016050697096157817,-0.012976586880441754
1746575991760803000,7.047802978515625,-0.024658055916428563,0.026405118779465553,-0.001124273055884987
1746575991770766800,7.057766845703125,-0.020768647262454032,0.0006847308611497283,0.0077915945911314335
1746575991780732000,7.06773193359375,-0.025257775375247,0.005372094092937186,-0.0005222337758168578
1746575991790696000,7.077696044921875,-0.014034370571374893,-0.0018208587516099213,-0.012685175318969413
1746575991800660000,7.087659912109375,-0.031092472878098486,-0.002412061543832533,-0.0013815814183559267
1746575991810625000,7.097625,-0.015680384212732313,-0.0033333319740602744,-0.004227782896021381
1746575991820589000,7.107589111328125,-0.0055050271570682525,0.002333767576655373,-0.00019351327810436487
1746575991830553000,7.117552978515625,-0.013137713992595671,0.005420358248031698,0.010128120380453765
1746575991840518000,7.127517822265625,-0.003261632144451141,0.003999344435008242,-0.0071482734526041895
1746575991850482000,7.13748193359375,-0.011191840621829032,-0.008269815695285797,-0.007828593000117689
1746575991860447000,7.147447021484375,-0.03109364192187786,-0.001345820551807992,-0.01609329412886873
1746575991870411000,7.157410888671875,-0.021216975551843643,0.015275255744252352,0.006443066059006378
1746575991880374800,7.167374755859375,-0.010292845955491065,0.006874105286877602,0.015365354313654824
1746575991890340000,7.177340087890625,-0.01912088005542755,0.0014134652608074247,-0.026415357045689595
1746575991900304100,7.18730419921875,-0.02585515674650669,0.0061078975541982794,-0.03237801004345529
1746575991910268200,7.19726806640625,-0.029147184029221535,0.0010432985078543424,0.007572554146125912
1746575991920233000,7.20723291015625,-0.015828852772712707,0.012531569359567948,-0.0071387932382058344
1746575991930197000,7.217197021484375,-0.017324644288420676,0.013499770504329352,0.006185529367672279
1746575991940161000,7.2271611328125,-0.014032617005705832,0.02125519780353643,0.002451201677555218
1746575991950125800,7.237125732421875,-0.019719430470466613,0.008257951727556063,-0.005427961599174887
1746575991960089900,7.24708984375,-0.012387187886238098,0.0028481240066932515,-0.01005110048833303
1746575991970055000,7.257054931640625,-0.01388414844572544,0.007129486553743482,-0.01457881617899984
1746575991980019200,7.267019287109375,-0.00430734180510044,0.0021517483735224233,-0.011682583280839026
1746575991989983000,7.27698291015625,-0.003858428993821144,-0.004408336227852851,-0.0006254110225010663
1746575991999948000,7.286947998046875,-0.011938859596848487,0.0016704996286425737,-0.0009097809218335896
1746575992009912000,7.296912109375,-0.015979659420251844,0.004331800392922014,-0.019685446002474054
1746575992019876000,7.3068759765625,-0.015680384212732313,-0.0003351959042716771,-0.00022575331358239053
1746575992029841000,7.3168408203125,-0.015381109005212782,0.007463746309676207,-0.0036692448309622702
1746575992039805000,7.326804931640625,-0.01538169352710247,0.0004896055812714621,-0.0010743421000894158
1746575992049769000,7.33676904296875,-0.02735270182788372,0.004705734572117217,-0.0052884617969393725
1746575992059733800,7.346733642578125,-0.013137129470705985,-0.0036701307469513265,-0.008558925701817497
1746575992069697800,7.35669775390625,-0.00580488688647747,-0.000517553034122102,-0.014740655677206813
1746575992079663000,7.3666630859375,-0.012388941451907156,-0.0003604993088869378,0.02027234251233749
1746575992089627100,7.376627197265625,-0.03094458884000778,0.011428494355338626,-0.002823012398323044
1746575992099591000,7.3865908203125,-0.0017658406287431715,0.013215802463795988,-0.0015688750182278454
1746575992109556000,7.396555908203125,-0.0076005381315946575,0.01446422248915769,0.011730806336738168
1746575992119520000,7.40652001953125,-0.02929799067676067,0.00362753828081768,-0.008742410776251926
1746575992129484000,7.416484130859375,-0.0032610476225614546,-0.0009878602598793805,-0.024023794867191462
1746575992139448800,7.42644873046875,-0.010294599521160125,-0.002882377902744338,0.001417200721008703
1746575992149412900,7.436412841796875,-0.008498948276042938,-0.005421837819064967,-0.0021829243964981287
1746575992159377000,7.446376953125,-0.0034118542701005936,0.006288944076374173,-0.0019494718336500226
1746575992169342000,7.456342041015625,-0.01673018552660942,-0.00419616848162841,-0.014773535033501683
1746575992179306000,7.466305908203125,-0.00954582698047161,0.005653628147789276,-0.024039312096731737
1746575992189271000,7.47627099609375,-0.017625673061609268,-0.007063010888523422,0.001606110889231786
1746575992199235000,7.486235107421875,-0.0037082068681716916,0.012923902278556488,0.01440990761918947
1746575992209198800,7.49619873046875,-0.014631751942634582,0.006338445773907005,-0.006557257890049368
1746575992219164000,7.506163818359375,-0.018372107514739035,0.0013672240994405,-0.013670249966718256
1746575992229128000,7.5161279296875,-0.014032032483816147,-0.000142349346447736,-0.0038522823808249083
1746575992239092000,7.526092041015625,-0.011038695886731146,0.0038702792618190867,0.0016932137839496134
1746575992249057000,7.53605712890625,-0.019418401697278022,-0.010549131404655054,-0.0014259046172723172
1746575992259021000,7.54602099609375,-0.013732172754406928,-0.005864868878829293,-0.011427147215045988
1746575992268985000,7.555985107421875,-0.005650573107600212,0.00002489241266157478,-0.011639794451883062
1746575992278950000,7.565949951171875,-0.02121229937672615,-0.0007322506641503423,-0.001976761699374765
1746575992288914000,7.575913818359375,-0.01911737292408943,0.020538692697789518,-0.0006249543647747486
1746575992298879700,7.585879638671875,-0.015226795226335525,0.0055611001592827955,-0.014515066760405898
1746575992308843500,7.595843505859375,-0.016722586742043494,-0.012425405571353621,-0.00002342654136009514
1746575992318807600,7.6058076171875,-0.013879472270607948,0.0020696961132576686,0.01987740664430894
1746575992328772600,7.615772705078125,0.009613631519675253,-0.0018532677504466846,-0.015378524322481825
1746575992338736600,7.625736572265625,-0.0077437459945678706,0.007673808863782323,-0.010197167028672993
1746575992348700400,7.635700439453125,-0.005798457145690918,-0.002026952950074337,-0.009581957739777863
1746575992358665500,7.64566552734375,-0.01836801586151123,0.0018422988318605347,0.0016153353753034024
1746575992368629500,7.65562939453125,-0.014775544327497482,-0.002242276201187633,-0.010299412693595513
1746575992378594300,7.66559423828125,-0.012680033352971076,0.005565082214656286,0.006419858713354915
1746575992388558600,7.67555859375,-0.018366846817731857,0.0015760171450674534,0.0028086916120257225
1746575992398522600,7.685522705078125,-0.017469021195173264,-0.005469380454951897,-0.01377494331705384
1746575992408487700,7.69548779296875,-0.02121054581105709,0.007712442107428796,-0.009068637922778726
1746575992418451500,7.705451416015625,-0.02674655262827873,-0.009216366697242483,-0.012094095824332907
1746575992428415500,7.71541552734375,-0.016720248654484748,-0.000700485552707687,-0.0037717736236751076
1746575992438380500,7.725380615234375,-0.013128361642360687,0.002351714225299656,0.008013320183567702
1746575992448344600,7.735344482421875,-0.005347206246852874,-0.00047337139910086986,-0.008757800141628832
1746575992458308400,7.745308349609375,-0.013726912057399749,-0.00957407582742162,-0.011150403499742969
1746575992468273400,7.7552734375,-0.004599018228054046,0.005431939087971113,-0.013123740266170351
1746575992478237700,7.76523779296875,-0.005347790768742561,-0.0006872516117990017,0.0009824625655543058
1746575992488202500,7.775202392578125,-0.01761807427704334,-0.0008703302608570083,-0.014995525487419217
1746575992498166500,7.78516650390625,-0.015972645157575606,-0.002633293945924379,-0.007497251287056133
1746575992508130600,7.795130615234375,-0.019862638333439826,0.003996613621804863,-0.0026253892006818202
1746575992518095600,7.805095703125,-0.01462532220184803,0.0008564113333588466,-0.005018120422959327
1746575992528059400,7.815059326171875,0.015451251631975173,0.0012049279435072094,-0.016681715875538065
1746575992538023400,7.8250234375,-0.006545476120710373,-0.0002855206768028438,-0.009785526621015742
1746575992547988500,7.834988525390625,-0.006694529202580452,-0.0007420551055343822,-0.01735718571799807
1746575992557952500,7.844952392578125,-0.012979308560490607,0.00575734425059054,0.011053053205646575
1746575992567917600,7.85491748046875,0.004378068953752518,-0.006222555176122114,-0.008178137090150266
1746575992577881600,7.864881591796875,-0.02150982101857662,-0.012193112919130361,-0.0030508389379829168
1746575992587845600,7.874845703125,-0.013728081101179122,-0.002382246360881254,-0.007537035308172926
1746575992597810400,7.884810546875,-0.019713585251569746,0.013559652031981385,-0.008411306525208056
1746575992607774500,7.8947744140625,-0.018815759629011154,0.013332688575424254,0.003974392656842247
1746575992617738500,7.904738525390625,-0.018068156132102012,0.0135501261518104,-0.004717402177024633
1746575992627703600,7.91470361328125,-0.012381927189230918,0.013029394779913127,-0.006611454029008746
1746575992637667300,7.924667236328125,-0.012830840000510215,-0.0019687519228551538,0.001200470964098349
1746575992647631400,7.93463134765625,-0.01717033050954342,0.005687959675653837,0.00017521043643355368
1746575992657596700,7.9445966796875,-0.010138532176613807,-0.0017098817909602074,-0.016964670135919003
1746575992667560700,7.954560791015625,-0.008194412371516227,0.0012121066029649227,0.006754954152926802
1746575992677525500,7.964525390625,-0.00729717127084732,-0.0022753747531911355,0.010449616552935912
1746575992687489500,7.974489501953125,-0.01343231302499771,-0.004447111035394482,-0.015352777959872036
1746575992697453600,7.98445361328125,-0.006549567773938178,-0.008813941642502323,-0.016793505686940623
1746575992707418400,7.99441845703125,-0.028397242444753647,-0.008113962979870848,0.007896507137175648
1746575992717382400,8.00438232421875,-0.02046586492359638,0.006111843076953664,0.007071628019819036
1746575992727346400,8.014346435546875,-0.02016658971607685,0.011484179198485798,-0.00263888800307177
1746575992737311500,8.0243115234375,-0.009093407037854193,-0.00017173983771353959,-0.00804104844070971
1746575992747275500,8.034275634765624,-0.017322890722751616,-0.010580097365076653,-0.02086065466115251
1746575992757239600,8.044239501953125,-0.015976152288913727,-0.002139446014375426,0.00003323554932139814
1746575992767204600,8.05420458984375,-0.01672375578582287,-0.001120131170307286,-0.0013364636349957435
1746575992777168600,8.064168701171875,-0.015975567767024038,0.015020043440745211,-0.002991893558669835
1746575992787133400,8.074133544921875,-0.016573533660173414,0.0011314060495700687,-0.001983876426750794
1746575992797097500,8.084097412109376,-0.01492810454070568,0.005077189099858515,0.0037146183426491914
1746575992807061500,8.0940615234375,-0.012384265276789664,-0.0014059395414777098,-0.00749277604133822
1746575992817026600,8.104026611328125,-0.018069909697771072,0.0002964713290799409,-0.01478751789308153
1746575992826990600,8.113990478515625,-0.015526654955744743,-0.01036965121848043,0.004440722393803298
1746575992836954600,8.12395458984375,-0.00774549956023693,-0.002065741457347758,0.007900233464222401
1746575992846919400,8.13391943359375,-0.020913608691096305,0.005279981662961654,-0.01646558890682645
1746575992856883500,8.143883544921875,-0.043508886858820914,-0.00486008488361258,-0.02594233270646073
1746575992866847500,8.153847412109375,-0.021512159106135367,-0.001978592896857299,0.01101462089139968
1746575992876812500,8.1638125,-0.02046469587981701,0.01127154109480325,0.014387714053690433
1746575992886776300,8.1737763671875,-0.007895137163996696,0.0051111507349647575,0.004955138189345598
1746575992896741600,8.18374169921875,-0.006997311541438103,0.00881137979265768,0.0017403773939236998
1746575992906705700,8.19370556640625,-0.014628829333186148,0.0069120718102436505,-0.015194089399976655
1746575992916669700,8.203669677734375,-0.015377017351984977,0.010327889869408682,-0.004435205968469381
1746575992926634500,8.213634521484375,-0.021512159106135367,0.008124036849313416,0.007223128787102177
1746575992936598500,8.2235986328125,-0.005052607214450836,0.009627454549050889,-0.0029137320222333072
1746575992946562600,8.2335625,0.006170797589421272,0.004092205783654935,0.0012507946455385536
1746575992956527400,8.24352734375,-0.02675005975961685,-0.002915056329639628,-0.007383963638311251
1746575992966491400,8.253491455078125,-0.006399930170178413,-0.010071919514075852,-0.010364769547386094
1746575992976456400,8.26345654296875,-0.011039280408620834,0.00677539415275678,-0.006623619390837848
1746575992986420700,8.273420654296874,-0.021064415338635442,0.00614464480143506,0.015076947560021653
1746575992996384500,8.283384521484376,-0.021514497193694113,0.006743131284392439,0.007821944063622504
1746575993006349600,8.293349609375,-0.005502104547619819,-0.0026987740973010658,-0.010064544491795823
1746575993016313600,8.303313720703125,-0.007298340314626693,0.00673058233007323,-0.008078740969439968
1746575993026277600,8.313277587890624,0.0021294132441282273,0.015923595551191827,0.0009169504481367766
1746575993036242400,8.323242431640624,-0.00684884298145771,0.009586949008726515,0.00796617483990267
1746575993046206500,8.33320654296875,-0.027948329633474347,0.015526189164863898,0.00041887386604212224
1746575993056170500,8.34317041015625,-0.018071078741550443,0.011240470103104598,0.0006924940424971282
1746575993066135300,8.35313525390625,-0.015827099207043647,0.01344086622421164,-0.014166755646234378
1746575993076099600,8.363099609375,-0.006399345648288726,-0.000984718454722315,-0.014261749586462974
1746575993086064600,8.373064697265624,-0.02076514013111591,0.0036995303713716564,0.011369937135092913
1746575993096028700,8.383028564453125,-0.019569208344817162,-0.007332991502899676,-0.002345238818740472
1746575993105992400,8.392992431640625,-0.009393266767263412,-0.0034942353239282966,-0.014458285938715561
1746575993115957500,8.40295751953125,-0.0195674547791481,-0.006260804827278479,-0.0016635036322753876
1746575993125921500,8.412921630859374,-0.011636077257990837,-0.006662887388723902,-0.0045435251811519264
1746575993135885600,8.422885498046876,-0.02166238123178482,0.0027296989585272966,-0.002211100178211927
1746575993145850400,8.432850341796875,-0.004155366113781929,0.0006441979213617742,-0.008877170471288264
1746575993155814400,8.442814453125,-0.01433072316944599,-0.0015077970473328605,-0.007147944659041241
1746575993165779700,8.45277978515625,-0.005801379755139351,0.01028221496362239,-0.000891441547544673
1746575993175743500,8.462743408203124,-0.011039864930510521,-0.004139506390946917,-0.012487232460919767
1746575993185707500,8.47270751953125,-0.01208732815682888,0.009766570758796297,-0.01021858427603729
1746575993195672600,8.482672607421875,-0.0059521864026784894,0.014574505330063402,-0.014000002510892227
1746575993205636600,8.49263671875,-0.016277181062102318,0.013492632944067008,-0.005409759222203866
1746575993215600400,8.502600341796875,-0.024806524476408957,-0.0004182756444206461,0.009550795416533947
1746575993225565400,8.5125654296875,-0.005203998383879661,0.00927822555284947,-0.01900000275527127
1746575993235529500,8.522529541015626,-0.021813772401213644,0.0016233862510183826,-0.0022234847357496617
1746575993245493500,8.532493408203125,-0.01687573147714138,-0.0009450531646143644,0.002383342339424416
1746575993255458600,8.54245849609375,-0.004754501050710678,0.00293741429192014,-0.013486317367712036
1746575993265422600,8.552422607421875,-0.009392682245373726,-0.0038006709245964883,-0.002357577710505575
1746575993275387600,8.5623876953125,-0.005651157629489898,0.0013721468697302042,-0.011197347914008423
1746575993285351400,8.572351318359376,-0.01492985810637474,0.0016011059205513446,-0.000674474328616634
1746575993295315500,8.5823154296875,-0.011488777741789817,-0.002956319921789691,-0.005404069266933947
1746575993305281000,8.592281005859375,-0.021514497193694113,-0.005362686943775043,-0.016778509047208352
1746575993315244800,8.602244873046875,-0.020617256093025206,-0.0020866609477903694,-0.00176015980662778
1746575993325208800,8.612208740234376,-0.00729892483651638,-0.0018517196807544677,-0.009075460389209911
1746575993335174000,8.622173828125,-0.016128127980232238,0.003006922164442949,-0.007791046601859852
1746575993345138000,8.632137939453125,-0.016726093873381614,-0.0012630330726038665,-0.014369411212019621
1746575993355102700,8.642102783203125,-0.004455810365080833,0.015303481758316046,-0.016443240077700465
1746575993365066800,8.652066650390625,-0.017325228810310362,-0.0021877010363154114,-0.001153882742859423
1746575993375030800,8.66203076171875,-0.01148994678556919,-0.010835149838379583,0.00911866021011956
1746575993384995800,8.671995849609376,-0.003260463100671768,-0.0033652021167799827,-0.004017912138160318
1746575993394960000,8.6819599609375,-0.003859598037600517,-0.010642997400299645,-0.0006951700567733496
1746575993404924000,8.691923828125,-0.01613105058968067,-0.0017595159192336722,0.0028262455350253728
1746575993414889000,8.701888916015625,-0.018974165061116217,-0.007359441118407994,-0.0010072499469388275
1746575993424852700,8.711852783203126,-0.0052080900371074676,-0.012015838389773853,-0.01171427532704547
1746575993434816800,8.721816650390625,-0.018077508482336996,-0.007099054882861673,-0.01491510806181468
1746575993444781800,8.73178173828125,-0.017030045256018637,-0.010245184588595293,-0.010734306112676858
1746575993454745900,8.741745849609375,-0.0034130233138799666,0.0012915102484170346,0.010374889082601294
1746575993464711000,8.7517109375,-0.018825696501135827,-0.007683540239930152,0.00006237944541499018
1746575993474675000,8.761675048828126,-0.010596212816238402,-0.002295933484029956,0.0017656122998800127
1746575993484639000,8.771638916015625,-0.012092588853836059,0.00548683847982902,-0.011132383785862475
1746575993494603800,8.781603759765625,-0.025111060380935666,0.011399752318044193,-0.00995699246409349
1746575993504567800,8.79156787109375,-0.014038462224602699,0.0012810710527934133,-0.009961385511420666
1746575993514531800,8.80153173828125,-0.018826865544915198,0.012959348051273262,-0.004993670968292281
1746575993524497000,8.811496826171876,-0.018976503148674963,0.005344927524798549,0.014166518184216692
1746575993534460700,8.821460693359375,-0.01373860249519348,0.004397988363774493,-0.0009955777754541487
1746575993544424700,8.8314248046875,-0.014188099828362465,0.0060483356869546695,-0.012290887904912232
1746575993554390000,8.84139013671875,-0.011944120293855666,0.01160382352278102,0.011651731484849005
1746575993564354000,8.85135400390625,-0.01673193909227848,0.002140172100160271,0.011941544744279236
1746575993574318800,8.86131884765625,0.0015232640445232391,0.004076286695315502,-0.0056340512310620395
1746575993584283000,8.871282958984375,-0.01643383292853832,-0.00024208796045277267,-0.010990390632441267
1746575993594247000,8.881246826171875,-0.026009470525383948,-0.0008976566591998562,-0.014210804850514977
1746575993604211700,8.891211669921875,-0.0014689035087823868,-0.0048471340704942115,-0.014777033031685276
1746575993614175700,8.90117578125,0.00047580081820487974,-0.009729334887792356,0.011581132200360297
1746575993624139800,8.911139892578126,-0.026609189984202385,0.009929131776210852,-0.004396864985767752
1746575993634105000,8.92110498046875,-0.018977672192454338,0.014289929934754036,-0.003358525780821219
1746575993644068900,8.93106884765625,-0.0031160861939191816,0.003957254292373545,-0.005121809126297012
1746575993654034000,8.941033935546875,-0.0129927525639534,-0.0021993001425638795,0.001963947883574292
1746575993663998000,8.950998046875,-0.011197101318836212,0.014685276794736272,-0.00867178409229964
1746575993673962000,8.9609619140625,-0.01508709449470043,0.011056400506780481,0.008375203165365382
1746575993683926800,8.9709267578125,-0.013890578186511992,0.01558132601873949,0.00827724094991572
1746575993693890800,8.980890869140625,-0.004163549420237541,0.0019182866775197907,-0.019117838714970276
1746575993703854800,8.990854736328124,-0.01763034923672676,0.0012133395788259803,0.001779960485640913
1746575993713819600,9.000819580078126,-0.015385200658440588,-0.0006607517639407888,-0.009865697451448068
1746575993723783700,9.01078369140625,0.0031698622077703472,0.0035025327948154878,0.010963575690751895
1746575993733748000,9.020748046875,-0.008651508489251137,0.0006238309867680073,0.00020035401084460316
1746575993743713000,9.030713134765625,-0.024064181676506993,0.0002682727144798264,0.0120457814368885
1746575993753676800,9.0406767578125,-0.02032207253873348,-0.0017042649009265005,-0.008560505737550557
1746575993763641900,9.050641845703124,-0.012091419810056686,-0.0005039811664959415,-0.00430571610359475
1746575993773606000,9.06060595703125,-0.021967501658201216,0.0008625807792413979,0.006037069940846413
1746575993783570000,9.07056982421875,-0.004608955100178718,-0.00334121845299378,-0.003891436214279383
1746575993793534700,9.08053466796875,-0.011641337954998016,0.00003570150104351342,0.00894779715524055
1746575993803498800,9.090498779296874,-0.012239888370037078,0.0030243299569701772,-0.0004849796385038644
1746575993813462800,9.100462890625,-0.014035539615154266,0.005379428016021847,-0.006907907091779634
1746575993823427800,9.110427734375,-0.005505611678957939,0.0031980288563296195,-0.016028220402868464
1746575993833391900,9.120391845703125,-0.02017126589119434,0.005538267272966913,0.0025873404789250342
1746575993843357000,9.13035693359375,-0.025558219626545906,0.018838400719081983,0.007847863956168294
1746575993853321000,9.140321044921874,-0.004010989207029343,0.01277296776685398,-0.004593794063664973
1746575993863284700,9.15028466796875,-0.020021628287434576,0.008607518650474958,0.00046993733299896117
1746575993873249800,9.160249755859375,-0.024211481192708013,0.004497891374561004,-0.011250722069060429
1746575993883213800,9.1702138671875,-0.004310264414548874,0.0008193261594045907,-0.005718779505603015
1746575993893177900,9.180177734375,-0.01194178220629692,0.010493213666067458,-0.004349984503583982
1746575993903143000,9.190142822265624,-0.006105915659666061,-0.0024395386392250655,0.0012288933409843592
1746575993913107000,9.20010693359375,-0.01283843878507614,-0.004804998262086883,0.004328667720919475
1746575993923071000,9.210071044921875,-0.00445814845263958,0.004388330052862875,-0.005728944706590845
1746575993933035800,9.220035888671875,-0.01612929702401161,-0.0033159378812648355,-0.004935922032222152
1746575993942999800,9.229999755859374,-0.014933365237712859,-0.005289676506491378,-0.0048479423546697945
1746575993952964900,9.23996484375,-0.019572130954265594,-0.0015433387181721626,0.000098272742703557
1746575993962929000,9.249928955078126,-0.0061047466158866874,-0.009799171553878112,0.0116346433527302
1746575993972892700,9.259892578125,-0.009695464584231376,0.005129430743749253,0.0021813352276105432
1746575993982858000,9.26985791015625,-0.01283843878507614,-0.0025246368065243584,-0.013891847694991155
1746575993992822000,9.279822021484375,-0.012688801181316375,0.007982842846913262,-0.006725180069170892
1746575994002786000,9.2897861328125,-0.011491115829348563,0.011066364778368733,-0.011127762409672141
1746575994012750800,9.299750732421876,-0.01867372080981731,0.006152955972054041,-0.005593984082154929
1746575994022715000,9.30971484375,-0.02705342662036419,0.00561697223209776,-0.0074240033877547825
1746575994032679700,9.3196796875,-0.017177344772219657,0.0048291326229227705,-0.00801630672509782
1746575994042643700,9.329643798828124,-0.015681553256511688,0.00019016141039319336,-0.0009088310737628489
1746575994052607700,9.339607666015626,0.002125321590900421,0.00020592523510567842,-0.00002161817676387727
1746575994062573000,9.349572998046876,-0.009845686709880829,-0.0031983165506971997,-0.008433774085342884
1746575994072536800,9.359536865234375,-0.01478431215584278,-0.0012262584259035065,-0.015124887488130479
1746575994082500900,9.3695009765625,-0.016130466067790984,0.013374883749336004,-0.0015068243663758038
1746575994092466000,9.3794658203125,-0.03722936819791794,0.00261347043402493,-0.00990247666472569
1746575994102430000,9.389429931640626,-0.02211597021818161,0.00829589998461306,-0.020944003829360007
1746575994112394800,9.399394775390626,-0.009247720816731453,0.0068191191300516945,-0.012547776142274961
1746575994122358800,9.40935888671875,-0.007900397861003876,0.0044446679165586825,0.0009978153983131051
1746575994132322800,9.41932275390625,-0.006403437301516533,0.0017509535868652163,0.0025912860016804188
1746575994142287600,9.42928759765625,-0.0161298815459013,0.00671939878235571,0.009458075631782413
1746575994152252000,9.439251953125,-0.029597265884280202,0.006443559249350801,-0.0028143815672956405
1746575994162216000,9.4492158203125,-0.028100305324792862,-0.010652043789857998,-0.01588271098495461
1746575994172181000,9.459180908203125,-0.010293430477380752,-0.006667641195654868,-0.00432559898099862
1746575994182144800,9.469144775390625,-0.020769231784343718,-0.008990617950237355,-0.004576532401610166
1746575994192109800,9.47910986328125,-0.023911621463298796,0.005575457478198222,-0.007543063190160319
1746575994202073900,9.489073974609376,0.004369885647296905,0.009933862750255502,0.0136654824600555
1746575994212038000,9.499037841796875,-0.01777764875292778,-0.010916233984264544,-0.0017033972512464969
1746575994222002700,9.509002685546875,-0.007003741282224655,0.0030464915564283727,-0.02551721176272258
1746575994231966700,9.518966796875,0.003320668855309486,-0.004819551943824626,-0.007977737413533031
1746575994241931000,9.528930908203124,-0.0055097033321857445,-0.007117627152591012,0.00888494278579019
1746575994251895800,9.538895751953126,-0.006408113476634025,0.00294993584677577,0.0061008650252129875
1746575994261859800,9.54885986328125,-0.01598550463914871,0.005583782348548993,-0.00886212816578336
1746575994271824000,9.558823974609375,-0.008353986847400664,0.006534863395150751,-0.019372014405438676
1746575994281789000,9.568788818359375,-0.030201076996326445,-0.003698041667183861,-0.010212967386003583
1746575994291752700,9.578752685546876,-0.003865443256497383,0.008679423976060934,0.0006458784217946231
1746575994301717000,9.588717041015625,-0.013891747230291365,0.004213978132954798,0.00012592793460935355
1746575994311681000,9.598680908203125,-0.013292612293362616,0.011505331584368832,-0.00663142823795788
1746575994321645000,9.60864501953125,-0.01957739165127277,0.002243495477316901,-0.0020003435043618083
1746575994331609900,9.61860986328125,-0.012394786670804023,0.010574366310611366,-0.0044179991053417324
1746575994341574000,9.628573974609376,-0.021372458374500275,-0.004755825358116999,-0.012038931570993736
1746575994351538000,9.638537841796875,-0.008203764721751213,0.013351005116826855,-0.0017607899942900984
1746575994361503000,9.6485029296875,-0.004013911816477775,0.009485840421542525,0.010755129704996943
1746575994371466800,9.658466796875,-0.031247955700755118,-0.00472310583202634,-0.0016417849908117203
1746575994381430800,9.6684306640625,-0.021971008789539337,0.002798951102723367,-0.010166817556181922
1746575994391396000,9.67839599609375,-0.014189268872141838,-0.010788529651099815,0.0014160956093110144
1746575994401360100,9.688360107421875,-0.004611877709627152,-0.005268295791745185,0.001827708617504686
1746575994411325000,9.698324951171875,-0.020922376519441604,-0.0033266054057516157,-0.009400226231012493
1746575994421289000,9.7082890625,-0.017181436425447463,0.0008508994746021926,0.00393083664290607
1746575994431253000,9.7182529296875,-0.004461655583977699,-0.003999741727230139,-0.0070301634982693935
1746575994441217800,9.7282177734375,-0.014338321954011916,-0.0016891997625352814,0.006929461336461827
1746575994451181800,9.738181884765625,-0.004012742772698402,0.005434313708147965,-0.0025340576554182914
1746575994461145900,9.748145751953125,0.0001771101325750351,-0.009091498208558186,-0.01745642657508142
1746575994471111200,9.758111083984375,-0.008203180199861526,-0.0010210684097371994,-0.00858854452194646
1746575994481075000,9.768074951171876,-0.012992168042063712,-0.0005477244100999087,-0.015252039265446365
1746575994491040000,9.7780400390625,-0.018977672192454338,-0.00011763046372216194,-0.003401077147759497
1746575994501004000,9.788004150390625,-0.008054711639881133,-0.010927865056553855,-0.00994392291996628
1746575994510968000,9.797968017578125,-0.014189853394031523,-0.00638576464750804,-0.0026090317209251225
1746575994520932900,9.807932861328124,-0.007007832935452461,0.005522211187309585,0.007586619204096496
1746575994530897000,9.81789697265625,-0.002070961055159569,0.0003665774232242256,-0.0036174415784887967
1746575994540861000,9.82786083984375,-0.015986673682928085,-0.011727491001645102,-0.022969134715106337
1746575994550826000,9.837825927734375,-0.008953121784329414,0.004265361260320059,-0.015217305878782644
1746575994560790000,9.8477900390625,0.0022696984976530075,0.004356656272965483,0.0031895076231565323
1746575994570754000,9.857754150390624,-0.026011808612942694,0.013755978321679867,0.0018786990192253142
1746575994580719000,9.867718994140626,-0.005062544086575508,0.015036866711382752,-0.0037818566262722013
1746575994590683000,9.877682861328125,-0.02451543257534504,0.005595929444069042,-0.006906948110554367
1746575994600648000,9.88764794921875,-0.018829203632473944,0.004420442224177532,-0.012288960809307171
1746575994610612000,9.897612060546875,0.006011223113536834,-0.008474571886612102,-0.0033545345922932025
1746575994620576000,9.907575927734374,-0.021671733582019806,-0.006977172935707494,0.009805473430501296
1746575994630541000,9.917541015625,-0.01508884806036949,-0.00842777360281907,0.0032850221531931308
1746575994640505000,9.927505126953125,-0.007756605476140975,-0.005619018058711662,-0.005017389770597219
1746575994650469000,9.93746923828125,-0.019727029255032537,0.0007293189215473831,0.0003032937955111265
1746575994660434000,9.947433837890625,-0.016135142242908476,-0.0005096802549203858,-0.000005653422651812434
1746575994670398000,9.95739794921875,-0.01493687236905098,0.003874302416387945,0.011003286646632478
1746575994680363000,9.967363037109376,-0.009399696508049964,0.009698286728980019,-0.002057042127661407
1746575994690327000,9.9773271484375,-0.004462240105867385,0.008415201815613544,-0.020422701635304838
1746575994700290800,9.987290771484375,-0.022120646393299102,0.0049052163667045534,-0.00977263060682453
1746575994710255900,9.997255859375,-0.005360065728425979,-0.002058133539627306,-0.010872929132077842
1746575994720220200,10.00722021484375,-0.009101590344309806,-0.0026615519260289144,0.004155521377408876
1746575994730184200,10.01718408203125,-0.02122282077074051,-0.009233505061711184,-0.004151712851971388
1746575994740149000,10.02714892578125,-0.00610942279100418,-0.005668615654367022,-0.004152927561523393
1746575994750113000,10.037113037109375,-0.0117944826900959,-0.010981499506509862,-0.021259271190455183
1746575994760078000,10.047078125,-0.019426000481843946,-0.0033771528494777156,-0.012283051658328622
1746575994770041900,10.057041748046874,-0.020023381853103636,-0.000003904423560015857,0.013398145893914625
1746575994780006000,10.067005859375,-0.008052958074212075,0.0005466238649794832,-0.0044521388369612395
1746575994789971000,10.076970947265625,-0.004311433458328247,0.004487589176255278,-0.006631738765211776
1746575994799935000,10.08693505859375,0.005265373182296753,0.0012179929210571572,-0.014421314929192885
1746575994809899000,10.09689892578125,-0.01822714608609676,0.009506330653722398,-0.0009527341475710272
1746575994819864000,10.106864013671874,-0.01643091031908989,0.004619791588024236,-0.008325829331995918
1746575994829828000,10.116828125,-0.03169453042447567,0.012692500108899548,-0.0035071587375830856
1746575994839793000,10.12679296875,-0.029748657053709028,0.009711164476862176,0.007500822350475936
1746575994849757000,10.1367568359375,-0.01179272912442684,-0.0024300401585176587,0.01114594652033411
1746575994859721000,10.146720947265624,-0.021967501658201216,0.00036233507294673473,-0.008464077892061323
1746575994869686000,10.15668603515625,-0.015083002841472624,-0.0016483973946887999,-0.01229259580480866
1746575994879649800,10.16664990234375,-0.004160042288899422,-0.011788326943945139,-0.010928988434560596
1746575994889613800,10.17661376953125,-0.0020639467924833295,0.0038628722734982144,0.0041324692953843625
1746575994899579100,10.1865791015625,-0.012537410011887549,-0.009214613131573424,0.00014589301040396094
1746575994909543000,10.19654296875,-0.009245382729172706,-0.004284792046574876,0.0026903259293641893
1746575994919507000,10.2065068359375,-0.006401683735847472,-0.01100944239278324,-0.005445679918956011
1746575994929472000,10.216471923828125,-0.02794949867725372,-0.012540232156636192,0.006535256120795384
1746575994939436000,10.22643603515625,-0.005354220509529113,-0.0004139967615250498,-0.0029064163654576986
1746575994949400800,10.23640087890625,-0.005205167427659034,0.008989325608871876,-0.0015566457243170588
1746575994959364900,10.24636474609375,-0.012088497200608252,-0.0013759234291268513,-0.011506806588824837
1746575994969329000,10.256328857421876,-0.0270528420984745,0.013205221704277209,-0.014611741201067343
1746575994979294000,10.2662939453125,-0.012537994533777236,0.011240442703641019,-0.01446347357048653
1746575994989258000,10.276258056640625,-0.016878069564700126,0.0062079786614980545,0.001532141470722854
1746575994999222000,10.286221923828125,-0.017027122646570206,0.00854350437039975,-0.004931757313758134
1746575995009187000,10.29618701171875,-0.01119067157804966,-0.002414477263204753,-0.011257827663281933
1746575995019150800,10.30615087890625,-0.014631751942634582,-0.00898552165001165,-0.021209175837878135
1746575995029116000,10.316115966796875,-0.011188918012380599,0.0031298772572539743,-0.011716147623723373
1746575995039080000,10.326079833984375,-0.01014145478606224,0.0005576384493382647,-0.00211738487961702
1746575995049044000,10.3360439453125,-0.00026478841602802275,0.004791321363183669,0.011317503694957121
1746575995059009000,10.346009033203124,-0.013731588232517241,0.005417887729732319,-0.014999370545474811
1746575995068973000,10.35597314453125,-0.014628829333186148,-0.004057718992163427,-0.025955740177305415
1746575995078937000,10.36593701171875,-0.019715923339128492,-0.0046992728652898216,-0.016865803738171235
1746575995088902000,10.37590185546875,-0.010887889239192008,0.0014882383969146758,-0.004701446556067094
1746575995098866000,10.385865966796874,-0.018220131823420523,-0.0014934442949946969,0.0007085501281544566
1746575995108831000,10.3958310546875,0.004973696759343147,-0.0009372945498442276,-0.002397032938059419
1746575995118795000,10.405794921875,-0.033034254595637316,0.005634389157779514,-0.009906002062372863
1746575995128758800,10.4157587890625,-0.002808043158054352,0.00685738248093985,-0.0155393591736909
1746575995138724000,10.42572412109375,-0.020465280401706695,-0.0029955513870576394,-0.0023782734386622903
1746575995148688100,10.435688232421874,-0.019418401697278022,0.015435633937735109,-0.015051027667475863
1746575995158652200,10.445652099609376,-0.00819733498096466,0.0016020101028494536,-0.012101539345271885
1746575995168617000,10.455616943359376,-0.019718845948576928,-0.000950012467522174,-0.01060530943814665
1746575995178581000,10.4655810546875,-0.014481529816985129,0.0044089709820924325,-0.004160654210252687
1746575995188545000,10.475544921875,-0.018072832307219504,-0.001264731839345768,-0.006149709135619923
1746575995198509800,10.485509765625,-0.006851181069016456,-0.006772517209080979,-0.00021805406431667506
1746575995208473900,10.495473876953126,-0.017475450935959817,0.007029336947784758,0.00471272600190714
1746575995218439000,10.50543896484375,-0.00819733498096466,0.011670723879686555,-0.0037302725695073603
1746575995228403200,10.5154033203125,-0.018970657929778097,0.00041371363373473284,-0.014067925781104712
1746575995238367000,10.525366943359375,-0.01403320152759552,0.009634642341663129,-0.0017100096551235764
1746575995248332000,10.53533203125,-0.01418342365324497,0.0032289811170194294,-0.005249088767776265
1746575995258296000,10.545296142578126,-0.021666472885012625,0.0014730499609373509,-0.006228108134074136
1746575995268260000,10.555260009765625,-0.019272855746746063,0.0039390382156707345,-0.0019906806268729267
1746575995278225000,10.565224853515625,-0.018974165061116217,-0.011055286261928267,-0.008913529559457675
1746575995288189000,10.57518896484375,-0.017177929294109343,-0.0008040829245001077,0.01189938610298559
1746575995298154000,10.585154052734374,-0.004757423660159111,0.0088537028307328,-0.004144077534787356
1746575995308118300,10.5951181640625,-0.011491115829348563,-0.001869483666308224,-0.007189253916963934
1746575995318082300,10.605082275390625,-0.014783727633953093,0.007572371483035385,-0.006092983112856745
1746575995328047400,10.61504736328125,-0.01598082846403122,0.007528957032994367,0.008793008452327921
1746575995338011400,10.625011474609375,-0.011042787539958953,-0.0010817445218330249,-0.006744697620393708
1746575995347975200,10.63497509765625,-0.021367197677493094,0.0015669570557773113,-0.01600809093029238
1746575995357940200,10.644940185546876,-0.03154313925504684,0.0052260914846789085,-0.0026905268587637692
1746575995367904300,10.654904296875,-0.03423661612272262,0.0014784385221078991,0.00999097693208605
1746575995377869000,10.664869140625,-0.017477204501628874,0.012368615616508758,-0.012695769778219982
1746575995387833000,10.6748330078125,-0.019571546432375908,0.004853253284026868,-0.02396595459957607
1746575995397797000,10.684797119140624,-0.02510755324959755,-0.0011306708306306973,-0.010732159821363165
1746575995407762200,10.69476220703125,-0.02884849334359169,0.00013205171471927313,-0.0005764481810852885
1746575995417726200,10.704726318359375,-0.006104162093997001,-0.003933608555304818,0.011769211251521482
1746575995427690200,10.714690185546875,-0.034086978518962856,0.003412621455080807,-0.012146017807815223
1746575995437655300,10.7246552734375,-0.008049450942873954,0.0005058671629056334,-0.020791818075487387
1746575995447619000,10.734619140625,-0.025257775375247,-0.01193079958797898,-0.015125106683839111
1746575995457583000,10.7445830078125,-0.01792611731290817,0.003308444127975963,0.009348002853430806
1746575995467548200,10.754548095703125,-0.0052069209933280946,0.0039872795378789305,-0.0067885458952747285
1746575995477512200,10.76451220703125,-0.0037099604338407515,-0.00799572059479542,-0.002763199369329959
1746575995487477200,10.774477294921875,-0.028998130947351455,-0.012236673499643802,-0.0028086002804804592
1746575995497441300,10.784441162109376,-0.004008651119470596,-0.0005534737308742478,-0.002828684087283909
1746575995507405300,10.7944052734375,-0.00026771102547645565,0.011110286118485965,0.012311181774269788
1746575995517370000,10.8043701171875,-0.01433423030078411,0.01488159851785749,-0.0067877695771399885
1746575995527334100,10.814334228515625,-0.015233224967122077,-0.00014684285847470165,-0.012451722756121306
1746575995537298200,10.824298095703124,-0.023911621463298796,0.006605978702870197,-0.009066254169447348
1746575995547263200,10.83426318359375,-0.005955109012126922,-0.009020446832920423,-0.014374635376408696
1746575995557227000,10.84422705078125,-0.01957271547615528,0.0022851015627617017,0.009219736831262707
1746575995567192300,10.8541923828125,-0.0022147534400224684,0.012310875813593155,-0.0021718093474395574
1746575995577156400,10.86415625,-0.008050619986653327,-0.010101154741714708,0.0009522683566901832
1746575995587120400,10.874120361328124,-0.021069676035642623,-0.012346970040281303,-0.0034872667270246893
1746575995597085200,10.884085205078126,-0.017328735941648483,0.0018300284387543797,-0.010620233012642711
1746575995607049200,10.89404931640625,-0.008949030131101607,0.0003438221687218174,-0.0054300987573340535
1746575995617013200,10.90401318359375,-0.012090835288166998,0.012882191161834634,0.0028062347934581337
1746575995626978000,10.91397802734375,-0.014335399344563484,-0.0010381291423924267,-0.007961818325193598
1746575995636942000,10.923942138671874,-0.012539748099446297,-0.012826688981777988,-0.0018555464725010097
1746575995646907400,10.933907470703126,-0.007751344779133796,-0.0008492920394055545,0.011325467805704101
1746575995656871400,10.943871337890625,0.015143208596110343,-0.0003132580670993775,-0.00495022455221042
1746575995666835200,10.953835205078125,-0.012540332621335982,0.004593730131583288,-0.0147501815573778
1746575995676800300,10.96380029296875,-0.013887071055173873,0.013964780500461347,0.0017438936584163456
1746575995686764300,10.973764404296874,-0.014935703325271606,0.000594760155910626,-0.011985667013796046
1746575995696728300,10.983728271484376,0.005413841742277145,-0.008514976962236687,0.006224619269045069
1746575995706693000,10.993693115234375,-0.020622516790032387,0.011841185075766406,-0.017901192934205754
1746575995716657200,11.0036572265625,-0.020770985350012778,0.00897239730695728,-0.0003540558683685958
1746575995726622500,11.01362255859375,-0.005357727640867233,-0.0104140018168604,0.007173143032379448
1746575995736586200,11.023586181640624,-0.004011573728919029,-0.012110439604357816,-0.012284860022924839
1746575995746550300,11.03355029296875,-0.023614099821448326,-0.011700479697133413,0.0012032291767653078
1746575995756515300,11.043515380859375,-0.009846855753660202,-0.007414326810534112,-0.003323408801667392
1746575995766479400,11.053479248046875,-0.0076017071753740305,0.003632538682920858,-0.0032161399017553776
1746575995776443100,11.063443115234374,-0.0019160627543926237,0.0012862312851008027,-0.00946950120809488
1746575995786408200,11.073408203125,-0.02136836672127247,-0.012104535019956529,-0.025376634248252955
1746575995796372200,11.083372314453126,-0.02166705740690231,-0.007694257996766827,-0.024732408927427604
1746575995806337000,11.0933369140625,-0.008648001357913018,-0.00003842774766962975,-0.0035631541079841553
1746575995816301000,11.103301025390625,-0.04890051676928997,0.018714915903308427,0.007488538257637992
1746575995826265300,11.113265380859374,0.0021259061127901074,0.00324643457531929,0.0005140322030521929
1746575995836230400,11.12323046875,0.005867430728673934,-0.0073247944967122745,-0.0199115646422375
1746575995846194200,11.133194091796875,-0.02406009002327919,0.015381510864011943,-0.004907335258554667
1746575995856158200,11.143158203125,-0.011939444118738174,0.012813537239260039,-0.00012706957892514765
1746575995866123300,11.153123291015625,-0.017924363747239113,0.011263709414796904,-0.00046682292730547485
1746575995876087300,11.16308740234375,-0.03079261314868927,0.009602749366057105,0.003667244670120999
1746575995886052000,11.173052001953126,-0.0167266783952713,0.009864053483633324,-0.008544129991484805
1746575995896016100,11.18301611328125,-0.006700958943367004,-0.006859295876813121,-0.014558869369514286
1746575995905980200,11.192980224609375,-0.02061667157113552,-0.0035815208817366506,-0.019820872417790816
1746575995915945200,11.2029453125,-0.0058031333208084105,0.010972302419901825,-0.0024380864676553753
1746575995925909200,11.2129091796875,-0.00954407341480255,-0.0013311298727523534,0.002504548433143645
1746575995935873300,11.222873291015626,-0.007898059773445128,-0.0016293045351514592,-0.00304346848228015
1746575995945838300,11.23283837890625,-0.030941666230559346,-0.004908700665156356,-0.021341378249647096
1746575995955802000,11.242802001953125,-0.007897475251555442,-0.011466465445281937,-0.02365297052711248
1746575995965766100,11.25276611328125,-0.01986906807422638,0.01267596909920685,-0.01219646022026427
1746575995975731200,11.262731201171874,-0.017775310665369033,0.009654228391544893,-0.0007152812630403787
1746575995985695200,11.2726953125,-0.020468787533044815,0.002905155990133062,-0.002194934494700283
1746575995995660300,11.282660400390625,-0.021067337948083877,0.00502870574905537,0.0010772829758469015
1746575996005624300,11.292624267578125,-0.021815525966882705,0.006079840503493324,0.0008175086616538465
1746575996015588400,11.30258837890625,-0.016128712502121924,0.0003405524994013831,-0.0010096976323518902
1746575996025553200,11.31255322265625,-0.01867255176603794,-0.0013290064143249764,-0.019416337604355065
1746575996035517200,11.32251708984375,-0.013584873238205909,-0.00938248051176779,-0.0023729488095734267
1746575996045481200,11.332481201171875,-0.006701543465256691,0.008156610244931653,0.011960770034557209
1746575996055446300,11.3424462890625,-0.02016834328174591,-0.006237844076799229,-0.002595048861345276
1746575996065410000,11.35241015625,-0.01882102032601833,-0.00943515598049853,-0.013104177049174904
1746575996075375400,11.362375244140624,-0.007447977918386459,-0.002775547394249588,-0.011160011578304693
1746575996085339400,11.37233935546875,-0.02361000816822052,-0.0017855408430565147,0.006998973775561899
1746575996095303400,11.382303466796875,-0.0025105215162038804,0.002247714994708076,0.006369845559168606
1746575996105268200,11.392268310546875,-0.01702595360279083,0.007277361458679661,-0.011950486102560534
1746575996115232300,11.402232177734374,-0.0167266783952713,0.010522608723910525,-0.021947700979188082
1746575996125196300,11.4121962890625,-0.007897475251555442,0.005423285424057394,-0.01064247224391438
1746575996135161000,11.4221611328125,-0.008795300874114035,0.007602958417544141,-0.009558503798954189
1746575996145125000,11.432125,0.00078209028840065,0.00038855635959189383,-0.012141378165315835
1746575996155090400,11.44209033203125,-0.01717500668466091,-0.0009303579189814627,-0.012374675464536994
1746575996165054200,11.45205419921875,-0.014930442628264427,-0.009886881803371944,-0.0016229158935602754
1746575996175018200,11.462018310546876,-0.008795300874114035,0.004930875964346342,0.0001576108476612717
1746575996184983300,11.4719833984375,-0.0056529111951589585,-0.012531140101305209,-0.018578334143944084
1746575996194947300,11.481947265625,-0.006102993050217628,-0.003236264807754196,-0.0003438176021445542
1746575996204911000,11.4919111328125,-0.009544657936692237,-0.0006901787878246978,-0.0015623265464324502
1746575996214876200,11.501876220703124,-0.03139174808561802,-0.005137372021609917,0.006926401729695499
1746575996224840200,11.511840087890626,-0.016428572231531144,0.004497672178852372,-0.005125517187034711
1746575996234805000,11.521804931640625,-0.011639584389328956,-0.00019407496710773555,-0.018468498827610164
1746575996244769300,11.531769287109375,-0.011938859596848487,0.0032567961391294373,0.004827337958058342
1746575996254733300,11.5417333984375,-0.014182839131355285,0.016161610124725848,0.003116013128682971
1746575996264698400,11.551698486328124,-0.007598784565925598,0.015147003421816043,0.0023299316517543045
1746575996274662100,11.561662109375,-0.02720014161467552,-0.00912691201523412,-0.00822741045881994
1746575996284626200,11.571626220703125,-0.015378770917654036,0.01573705086999107,-0.010974672473501413
1746575996294591200,11.58159130859375,-0.013732757276296614,0.013126443679910152,-0.004284472386166453
1746575996304555000,11.591554931640625,-0.019418401697278022,-0.006044495195476338,0.0020822770336177197
1746575996314519000,11.60151904296875,-0.016874562433362005,-0.012592364202672615,-0.011356694061029701
1746575996324483800,11.61148388671875,-0.014779635980725287,-0.007990231568925083,-0.012988925772206858
1746575996334447900,11.62144775390625,-0.014929273584485054,0.004553841079189442,0.0112668968857266
1746575996344413000,11.631412841796875,-0.005202829340100288,0.00442929681749083,0.0005926595303695648
1746575996354377000,11.641376953125,-0.016875146955251694,-0.009732472126372158,-0.005658445886801928
1746575996364341000,11.651341064453124,-0.02929506806731224,0.011099933687830342,-0.005283520760340616
1746575996374306000,11.66130615234375,-0.009393851289153099,0.006917738932627253,0.0016705544275697319
1746575996384270000,11.67127001953125,-0.021066168904304503,-0.01172620779343415,-0.007121312380442396
1746575996394233900,11.68123388671875,-0.029745734444260596,0.0021373773548752067,-0.012974723716918378
1746575996404199000,11.691198974609375,-0.015829437294602393,0.011476603246806188,-0.013305161247681826
