time,seconds_elapsed,z,y,x
1746728588016311600,0.0163115234375,-0.11639335967525839,-0.022967034089565276,-0.02310971222957596
1746728588026330600,0.02633056640625,-0.09319310135170816,-0.026225743624567983,-0.038743261625897134
1746728588036349700,0.036349609375,-0.10451602100729941,-0.02189677450954914,-0.03962030932190828
1746728588046368800,0.04636865234375,-0.11676043942198157,-0.01684825894832611,-0.024580524567654354
1746728588056387600,0.0563876953125,-0.11293240556642413,-0.015106383717060088,-0.022376995774544776
1746728588066406700,0.06640673828125,-0.11434329527765512,-0.018003274202346802,-0.01693017421127297
1746728588076425700,0.07642578125,-0.13439356513768433,-0.023724574458599088,-0.017029141073720527
1746728588086445800,0.08644580078125,-0.14792261653542518,-0.01641395918428898,-0.02776797723104246
1746728588096465000,0.09646484375,-0.14494535429030656,-0.023293781825900077,-0.01668944252426736
1746728588106483700,0.106483642578125,-0.13508037835806608,-0.019817045626044274,-0.02481791352010332
1746728588116502800,0.116502685546875,-0.11932780569195747,-0.0202080907702446,-0.032685158030176534
1746728588126521900,0.12652197265625,-0.13244272333085536,-0.022281974434852598,-0.03348503970359452
1746728588136540700,0.136540771484375,-0.11626900264322756,-0.02681026551425457,-0.03257408060482703
1746728588146559700,0.146559814453125,-0.11278700574636459,-0.017310615763068197,-0.022338252933043985
1746728588156578800,0.156578857421875,-0.1120984389603138,-0.018629297146201134,-0.02223398884097114
1746728588166598000,0.166597900390625,-0.12297346871793269,-0.026074936977028847,-0.020705582830449563
1746728588176616700,0.17661669921875,-0.14467384387254714,-0.015366495957970619,-0.028579101817682383
1746728588186635800,0.1866357421875,-0.14512655607610941,-0.02366144609451294,-0.025603912798641246
1746728588196654800,0.19665478515625,-0.13513210854530333,-0.025333763220906257,-0.02570716311056167
1746728588206674700,0.2066748046875,-0.11625731220543384,-0.01773965483009815,-0.02732577728834003
1746728588216693800,0.21669384765625,-0.11774550493657589,-0.019418986219167707,-0.029414986386243253
1746728588226712600,0.226712646484375,-0.11938099718391895,-0.023644494959712027,-0.024276417921390382
1746728588236731600,0.236731689453125,-0.11423252837955951,-0.023275077125430105,-0.01343802124657668
1746728588246750700,0.246750732421875,-0.1166634087882936,-0.01798106237053871,-0.014771808867296203
1746728588256769500,0.25676953125,-0.12507818591222167,-0.02061784061491489,-0.02881791554223746
1746728588266788600,0.26678857421875,-0.12674699590727687,-0.020597382348775863,-0.034494947398500515
1746728588276807700,0.2768076171875,-0.13044248942434786,-0.01809562866091728,-0.020960891032079234
1746728588286826800,0.28682666015625,-0.12380524336695671,-0.017543839997053147,-0.023069480683887377
1746728588296845600,0.296845458984375,-0.12270268895253539,-0.020282325050234792,-0.01523699695994146
1746728588306864600,0.30686474609375,-0.12308788887783885,-0.0254191034168005,-0.03641288244957104
1746728588316884700,0.316884765625,-0.12496376575231552,-0.016640169155597687,-0.025792959964182228
1746728588326903800,0.32690380859375,-0.12423019078075885,-0.020593290695548057,-0.019265841484069825
1746728588336922600,0.336922607421875,-0.12212050515040755,-0.02787935605049133,-0.02351767197595909
1746728588346941700,0.346941650390625,-0.10770224982798099,-0.019876082336902617,-0.01900783900185488
1746728588356960300,0.356960205078125,-0.11817673596069216,-0.02596153973042965,-0.019680979889910667
1746728588366979300,0.366979248046875,-0.12656477120816706,-0.028419454276561736,-0.033217346944427115
1746728588376998100,0.376998046875,-0.12599077071249484,-0.029229017093777655,-0.01733440763060935
1746728588387017200,0.387017333984375,-0.12461626748889684,-0.02376549099087715,-0.025456019627396017
1746728588397036300,0.397036376953125,-0.11713701764941215,-0.01604921752512455,-0.028661227143183348
1746728588407055000,0.40705517578125,-0.11648147635012865,-0.02390928337574005,-0.018924416768411174
1746728588417074200,0.41707421875,-0.10732333351299166,-0.02574234402179718,-0.023932180194137617
1746728588427094300,0.42709423828125,-0.10661781559213995,-0.01999707836806774,-0.018621972356271
1746728588437113300,0.43711328125,-0.10965206872150302,-0.029482115072011945,-0.017577495671482757
1746728588447132400,0.44713232421875,-0.1177232931047678,-0.019407880303263663,-0.010841090955398976
1746728588457151200,0.457151123046875,-0.1312231184080243,-0.02126490634679794,-0.014618289672862737
1746728588467170300,0.46717041015625,-0.12175386379510164,-0.022505261796712875,-0.03409065918023698
1746728588477189400,0.477189453125,-0.11304741024821996,-0.02553834588229656,-0.029028864012332633
1746728588487208400,0.48720849609375,-0.11588935567587613,-0.026918986585736274,-0.02362730636289343
1746728588497227300,0.497227294921875,-0.11608750859647989,-0.018562077128887175,-0.030989852753840384
1746728588507246300,0.507246337890625,-0.10921674604415893,-0.02012391961812973,-0.022050613364391028
1746728588517265400,0.517265380859375,-0.11019801216647028,-0.02424772154986858,-0.014210996646760031
1746728588527284200,0.5272841796875,-0.12036577043756842,-0.02105857011973858,-0.02659788313889876
1746728588537303300,0.53730322265625,-0.12304156551808118,-0.026848259437084198,-0.02590073118759319
1746728588547323100,0.5473232421875,-0.13230419164299964,-0.017907412612438202,-0.021554765272000804
1746728588557342200,0.55734228515625,-0.12936696914732457,-0.018226561564207076,-0.018007740314910186
1746728588567361300,0.567361328125,-0.11591741272658108,-0.02816518725454807,-0.023352489743195474
1746728588577380000,0.577380126953125,-0.11643296103328465,-0.018373861080408095,-0.02407283077384345
1746728588587399200,0.587399169921875,-0.10659399632513522,-0.026429741764068603,-0.021617464377824216
1746728588597418200,0.597418212890625,-0.11582651957273482,-0.028452772024273872,-0.022029862837307155
1746728588607437300,0.607437255859375,-0.11222235760092734,-0.02208791316747665,-0.01896449305047281
1746728588617456000,0.6174560546875,-0.10341127463579178,-0.03385550785064697,-0.027199219166068357
1746728588627475200,0.62747509765625,-0.11631737182959914,-0.024752163940668103,-0.023442433048970996
1746728588637494300,0.637494384765625,-0.13066460774242877,-0.03035772886276245,-0.021870973348012194
1746728588647513000,0.64751318359375,-0.1108516537696123,-0.020976737055182455,-0.028477075348468495
1746728588657532200,0.6575322265625,-0.10814765550792217,-0.018880641558766363,-0.015685864105448127
1746728588667552300,0.66755224609375,-0.11747253321409225,-0.023808161088824272,-0.01927473717657849
1746728588677571300,0.6775712890625,-0.102327278791368,-0.02651040578484535,-0.025620498607261104
1746728588687590400,0.68759033203125,-0.11542948307916522,-0.03415712114572525,-0.03270782651971094
1746728588697609200,0.697609130859375,-0.11707944224327801,-0.02891805144846439,-0.011992964404262601
1746728588707628300,0.707628173828125,-0.09724106156826019,-0.01774666909277439,-0.026429586500441655
1746728588717647400,0.7176474609375,-0.10090542929470539,-0.027823826470971105,-0.016525447601592167
1746728588727666200,0.727666259765625,-0.11099603067636489,-0.028027240088582036,-0.03315877602444962
1746728588737685200,0.737685302734375,-0.11769377474933862,-0.024776129338145256,-0.03418018236090429
1746728588747704300,0.747704345703125,-0.11151669354960322,-0.02014554692804813,-0.025253756787255405
1746728588757723400,0.757723388671875,-0.11030147254094481,-0.02056348007917404,-0.03083425120017491
1746728588767742200,0.7677421875,-0.09695216162428259,-0.01958849756717682,-0.02138559185070917
1746728588777762000,0.777761962890625,-0.09783201319873333,-0.02531272043287754,-0.018419563385657964
1746728588787781000,0.787781005859375,-0.10764584346562624,-0.026889760491251944,-0.02338172497083433
1746728588797800200,0.79780029296875,-0.11559709473103284,-0.02803191626369953,-0.013499596974393352
1746728588807819300,0.8078193359375,-0.12043605919480323,-0.021054478466510772,-0.007896068745758385
1746728588817838000,0.817838134765625,-0.11598083335161208,-0.020929975304007527,-0.021738542607380076
1746728588827857200,0.827857177734375,-0.1160444001071155,-0.02857961327433586,-0.024777809838578104
1746728588837876200,0.837876220703125,-0.12322715121805668,-0.022328736186027525,-0.02355533710522577
1746728588847895000,0.84789501953125,-0.11019932734072208,-0.025658172869682312,-0.022349139653239397
1746728588857914000,0.8579140625,-0.09618234629556537,-0.024517770662903785,-0.020222831681650132
1746728588867933200,0.86793310546875,-0.10073971733897924,-0.021243863558769224,-0.018726556108752266
1746728588877952300,0.8779521484375,-0.10755261222422122,-0.024286884516477585,-0.020373875791206954
1746728588887971000,0.88797119140625,-0.10313830291330814,-0.026314590951800346,-0.01691437385394238
1746728588897990100,0.897990234375,-0.11325053160488605,-0.023252865293622017,-0.028327556475717573
1746728588908010200,0.90801025390625,-0.11385288141220808,-0.021038696375489233,-0.025300107546476647
1746728588918029300,0.918029296875,-0.10829787763357161,-0.026429157242178914,-0.011220262998715043
1746728588928048400,0.92804833984375,-0.11815379347652197,-0.031554829692840576,-0.04406136964242905
1746728588938067200,0.938067138671875,-0.10508110754415392,-0.028723990181088444,-0.007871856753109023
1746728588948086300,0.948086181640625,-0.09370455800518393,-0.029208558827638623,-0.03876684343088418
1746728588958105300,0.958105224609375,-0.09501549447327852,-0.031046880170702933,-0.01498019092096947
1746728588968124200,0.968124267578125,-0.10084171640872955,-0.024081717333197594,-0.025501192209683356
1746728588978143200,0.978143310546875,-0.09544511806219816,-0.023404256463050842,-0.012509234230173751
1746728588988162300,0.988162353515625,-0.10079714661464094,-0.025573417195677756,-0.016275838488386943
1746728588998181400,0.998181396484375,-0.12254252995476125,-0.028473814812302586,-0.022717689837841316
1746728589008200200,1.0082001953125,-0.11442249799370766,-0.028182138389348983,-0.029087900723190976
1746728589018219300,1.01821923828125,-0.1215112872108817,-0.020755787780880927,-0.017823314525559544
1746728589028238300,1.02823828125,-0.1020356023684144,-0.015371756654977798,-0.016170314020989462
1746728589038258400,1.038258544921875,-0.09773498256504536,-0.03182254071831703,-0.012306277270289137
1746728589048277200,1.04827734375,-0.10112667082995176,-0.032464930275082585,-0.023543655800586566
1746728589058296300,1.05829638671875,-0.09961305139660835,-0.025020459488034247,-0.024139904660684986
1746728589068315400,1.0683154296875,-0.10956190622001885,-0.017473112848401067,-0.028520046840514988
1746728589078334200,1.078334228515625,-0.10428776520937681,-0.023535189366340636,-0.02218591191554442
1746728589088353300,1.088353271484375,-0.11637830823659896,-0.02536883453428745,-0.010949446700699627
1746728589098372000,1.0983720703125,-0.11220526033565402,-0.02213993561565876,-0.010246339932642876
1746728589108391200,1.10839111328125,-0.11642141672596334,-0.02698971373438835,-0.01514028598666191
1746728589118410200,1.11841015625,-0.10728957737386226,-0.021485271099209783,-0.0190359873841051
1746728589128429000,1.128428955078125,-0.11078443375229835,-0.02405132219493389,-0.021131178698223084
1746728589138448100,1.1384482421875,-0.09513649050444364,-0.015242577317357063,-0.022600794593058526
1746728589148467200,1.14846728515625,-0.08915040183216333,-0.02937690113186836,-0.018313417863752693
1746728589158486300,1.158486328125,-0.0838318371579051,-0.03440145129561424,-0.026563332415325564
1746728589168506000,1.168506103515625,-0.09769231246709822,-0.028196751436591148,-0.020680868514301252
1746728589178525200,1.178525146484375,-0.09499766655564308,-0.021947043392062184,-0.023859863876597956
1746728589188544300,1.188544189453125,-0.09751739429160952,-0.021387655943632126,-0.024478507231594993
1746728589198563300,1.198563232421875,-0.10545739351063967,-0.026242694759368895,-0.017433228362584485
1746728589208582100,1.20858203125,-0.10296849930435419,-0.025997780087590214,-0.023220086402026933
1746728589218601200,1.218601318359375,-0.10242430942505598,-0.024106851774454114,-0.009211361728562042
1746728589228620300,1.228620361328125,-0.10787775252535939,-0.03310439722239971,-0.021228519859164952
1746728589238639400,1.238639404296875,-0.10023030651211738,-0.03191197256743908,-0.020573234288208186
1746728589248658200,1.248658203125,-0.1109171202212572,-0.032115970706939695,-0.017888095990614965
1746728589258677200,1.25867724609375,-0.10192395868748426,-0.029309681114554405,-0.016343524296581743
1746728589268696300,1.2686962890625,-0.09388093748539686,-0.02083937441110611,-0.024990484474878758
1746728589278715400,1.27871533203125,-0.09541969135999678,-0.02153027928471565,-0.019034096821118146
1746728589288734200,1.288734130859375,-0.10730974337905645,-0.02322831537425518,-0.018041560386121272
1746728589298754300,1.29875439453125,-0.1119540620535612,-0.03227437613904476,-0.013626036365656182
1746728589308773400,1.3087734375,-0.09622837739437817,-0.02976853079795837,-0.016977009027684106
1746728589318792400,1.31879248046875,-0.10328092625439167,-0.027816812208294867,-0.019415378623129798
1746728589328811300,1.328811279296875,-0.10490867358669638,-0.023963059389591215,-0.01856895439424552
1746728589338830300,1.338830322265625,-0.0981619758054614,-0.026095395243167875,-0.02124011896541342
1746728589348849400,1.348849365234375,-0.10024082790613174,-0.0210445415943861,-0.026754909464670344
1746728589358868500,1.358868408203125,-0.0976408745408058,-0.03380933062136173,-0.021883714098576455
1746728589368887600,1.368887451171875,-0.09319017874225974,-0.03293663944005966,-0.013764202727330848
1746728589378906400,1.37890625,-0.0936057738058269,-0.024897709891200066,-0.026779642047127707
1746728589388925400,1.388925537109375,-0.10001973250135779,-0.025684476354718207,-0.021197795927338302
1746728589398944300,1.3989443359375,-0.09885010420009493,-0.019609540355205533,-0.014788750868942588
1746728589408963300,1.40896337890625,-0.0998003906622529,-0.027329905474185942,-0.017385452831257135
1746728589418982100,1.418982177734375,-0.0917702289417386,-0.02663841607868671,-0.017538159174937753
1746728589429002200,1.429002197265625,-0.09504252861067652,-0.031465982365608214,-0.013662605516379699
1746728589439021300,1.439021240234375,-0.09869710559546947,-0.031003625550866123,-0.023324186097318306
1746728589449040400,1.449040283203125,-0.10084697710573673,-0.02369184123277664,-0.01713567018811591
1746728589459059500,1.4590595703125,-0.09634966568648815,-0.031956980752944945,-0.01898460425673984
1746728589469078300,1.469078369140625,-0.10610621280819177,-0.031385318344831464,-0.025968590525723992
1746728589479097300,1.479097412109375,-0.09115998808890581,-0.02995382423698902,-0.01703863042127341
1746728589489116400,1.489116455078125,-0.08495952601358293,-0.030716040781140326,-0.010766409150836988
1746728589499135500,1.499135498046875,-0.09204685392603278,-0.019666238978505134,-0.01850329614635557
1746728589509154300,1.509154296875,-0.0975631331294775,-0.029581483793258666,-0.02433855990478769
1746728589519173400,1.51917333984375,-0.09812631997019051,-0.030785014364123342,-0.02049767570081167
1746728589529192400,1.5291923828125,-0.09697335054278373,-0.031255554485321045,-0.016602102167531847
1746728589539211300,1.539211181640625,-0.09424187975227832,-0.030550036564469335,-0.01728416614755988
1746728589549230300,1.549230224609375,-0.09034750266224145,-0.03148001089096069,-0.022361241082986816
1746728589559250400,1.55925048828125,-0.09673837274312973,-0.023593641555309294,-0.02569516214551404
1746728589569269500,1.56926953125,-0.09441752858012914,-0.022712767067551612,-0.017361989757278932
1746728589579288600,1.57928857421875,-0.08531389240920544,-0.0216109433054924,-0.015332182696415111
1746728589589307400,1.589307373046875,-0.08890227228999137,-0.03166998050510883,-0.012856750759901479
1746728589599326500,1.599326416015625,-0.09199205499887465,-0.024500819528102874,-0.016072370071848852
1746728589609345500,1.609345458984375,-0.10402268453240394,-0.027962358158826826,-0.024570861690165473
1746728589619364400,1.6193642578125,-0.0965127472937107,-0.026173136654496193,-0.022952265778696163
1746728589629383400,1.629383544921875,-0.09504325926303862,-0.031739538609981535,-0.016941709385439752
1746728589639402500,1.639402587890625,-0.09182415108606219,-0.026818448820710182,-0.013433500335086137
1746728589649421600,1.649421630859375,-0.0881612446643412,-0.0269832839936018,-0.023385633960971607
1746728589659440400,1.6594404296875,-0.08846154278516768,-0.029526538735628126,-0.027451175499986855
1746728589669459500,1.66945947265625,-0.08909969455823302,-0.03026654344797134,-0.018001091378415
1746728589679478500,1.679478515625,-0.09870236629247665,-0.027117139506340024,-0.017208196568209676
1746728589689497300,1.689497314453125,-0.09521277061104774,-0.032250995263457295,-0.014628180879214778
1746728589699517400,1.699517333984375,-0.09478431606590747,-0.029737551137804984,-0.015525714240828528
1746728589709536300,1.709536376953125,-0.09655015669465064,-0.02779869202971458,-0.027777430045977235
1746728589719555300,1.719555419921875,-0.08903232841044664,-0.027506431084871292,-0.024241154811764136
1746728589729574400,1.729574462890625,-0.08893471325486899,-0.027195465439558027,-0.02633153295344673
1746728589739593200,1.73959326171875,-0.09384791199862956,-0.02929331450164318,-0.02275541889918968
1746728589749612300,1.7496123046875,-0.09125994133204221,-0.028405425751209256,-0.017337266307976096
1746728589759631400,1.75963134765625,-0.09318886356800794,-0.027693478089570997,-0.012537419145042077
1746728589769650400,1.769650390625,-0.09423281966298817,-0.027462591943144796,-0.025499940967513245
1746728589779669200,1.779669189453125,-0.0990422657713294,-0.02722586057782173,-0.018735698396433145
1746728589789688300,1.789688232421875,-0.10019684263393282,-0.03415186044871807,-0.012949196550017222
1746728589799707400,1.799707275390625,-0.09207140384539961,-0.03494388760924339,-0.011663376256870105
1746728589809726500,1.8097265625,-0.08873203028962015,-0.028369769915938377,-0.01714613678320311
1746728589819745300,1.819745361328125,-0.0893479702308774,-0.03453472228646278,-0.017862020834442226
1746728589829764400,1.829764404296875,-0.07837795566618443,-0.029191023170948027,-0.011213577529601752
1746728589839784400,1.839784423828125,-0.09341653484404086,-0.029391514179110526,-0.01179498501359485
1746728589849803500,1.849803466796875,-0.09712108845040202,-0.02913432454764843,-0.023117256215214727
1746728589859822300,1.859822265625,-0.0978507178992033,-0.024832827961444853,-0.012929898194503039
1746728589869841400,1.86984130859375,-0.0957370867460966,-0.029395605832338332,-0.002785045874956995
1746728589879860500,1.879860595703125,-0.08940101559236645,-0.02420212884247303,-0.012254693213524296
1746728589889879600,1.889879638671875,-0.08702537250220775,-0.02782441099286079,-0.018629169282037762
1746728589899898400,1.8998984375,-0.0942018400028348,-0.03145312288403511,-0.022602164566237478
1746728589909917400,1.90991748046875,-0.08026946850121021,-0.02718494404554367,-0.025003115627588703
1746728589919936500,1.9199365234375,-0.08275880109891295,-0.029475685331225392,-0.014140324297035113
1746728589929955600,1.92995556640625,-0.08293751866668463,-0.03339198199212551,-0.023282347116433084
1746728589939974400,1.939974365234375,-0.08621800164207816,-0.02474924133121967,-0.007074203569395467
1746728589949993500,1.949993408203125,-0.09288505831584334,-0.030784429842233656,-0.025045904456544667
1746728589960012500,1.960012451171875,-0.09030717065185308,-0.03127309014201164,-0.008427527007646858
1746728589970031400,1.97003125,-0.0864767987087369,-0.029084640187025067,-0.016013552556699142
1746728589980051200,1.98005126953125,-0.08937281241118908,-0.028922143101692197,-0.010253637323109433
1746728589990070300,1.9900703125,-0.09175678493827581,-0.03027005057930946,-0.01828001791764982
1746728590000089300,2.00008935546875,-0.10043372012972832,-0.03269756998717785,-0.024467282584682105
1746728590010108400,2.0101083984375,-0.0934235491067171,-0.03137655051648617,-0.022378511878196148
1746728590020127200,2.020127197265625,-0.0851800368964672,-0.024346505749225616,-0.01507838146528229
1746728590030146300,2.030146240234375,-0.07774433393776416,-0.029492636466026304,-0.00896575293703936
1746728590040165400,2.040165283203125,-0.08332476441860198,-0.02712123115956783,-0.016677085366193205
1746728590050184400,2.050184326171875,-0.09471884961426258,-0.023408932638168335,-0.01806980923307128
1746728590060203300,2.060203369140625,-0.08960983603745698,-0.020756372302770613,-0.015336950203077867
1746728590070222300,2.070222412109375,-0.08565086927860975,-0.031098318096995353,-0.019779526627250014
1746728590080241400,2.080241455078125,-0.08333630872592329,-0.0274058933198452,-0.02552825374654494
1746728590090260200,2.09026025390625,-0.09730418993234634,-0.022640286353230475,-0.01568004628601484
1746728590100279300,2.100279296875,-0.0898947904586792,-0.021344401323795316,-0.01890681717963889
1746728590110298400,2.11029833984375,-0.09308218832314014,-0.03573299216032028,-0.019278573101479558
1746728590120317400,2.1203173828125,-0.09424772497117519,-0.029936873102188108,-0.019044161557406188
1746728590130337500,2.130337646484375,-0.08916004644334316,-0.035355975541472434,-0.015559579977812245
1746728590140356400,2.1403564453125,-0.07911079998537898,-0.03431318849027157,-0.02313440827941522
1746728590150375400,2.15037548828125,-0.09700140759348869,-0.028791210198402403,-0.01588656517616473
1746728590160394500,2.16039453125,-0.09215104495286941,-0.0379325480312109,-0.028596299547655506
1746728590170413600,2.17041357421875,-0.08437105860114097,-0.025846388918161392,-0.018773126063682137
1746728590180432400,2.180432373046875,-0.07837547144815325,-0.030074235746264454,-0.013002552438760176
1746728590190451500,2.190451416015625,-0.08141089362129568,-0.024112112471461295,-0.023843013206496833
1746728590200470500,2.200470458984375,-0.08400850889906286,-0.02724164266884327,-0.019304995317524297
1746728590210489300,2.2104892578125,-0.08490341191217303,-0.02888940987586975,-0.016425421293219552
1746728590220508400,2.22050830078125,-0.07771247749477625,-0.03308160086870193,-0.01224128574267961
1746728590230527500,2.230527587890625,-0.0812085029169917,-0.03613046704530716,-0.015862462781369685
1746728590240546600,2.240546630859375,-0.08421966743171215,-0.03852116157412529,-0.006745985395181924
1746728590250565400,2.2505654296875,-0.09092807902917266,-0.032124738535285,-0.009475045032892376
1746728590260584400,2.26058447265625,-0.08964856061264873,-0.027654899644851683,-0.016359196789748967
1746728590270603500,2.270603515625,-0.09692308166027068,-0.02347615265548229,-0.015333196476567536
1746728590280623400,2.280623291015625,-0.08643544378504156,-0.027817396730184553,-0.028256062142085283
1746728590290642200,2.29064208984375,-0.07590995811745524,-0.03351531611084938,-0.008319856248935683
1746728590300661200,2.3006611328125,-0.09370280443951487,-0.028878303959965705,-0.01644983421526849
1746728590310680300,2.310680419921875,-0.08400456337630748,-0.03489069611728191,-0.015801179314497857
1746728590320699400,2.320699462890625,-0.08735884224027395,-0.03180442053973675,-0.021752187540242447
1746728590330718200,2.33071826171875,-0.07633534392267464,-0.02647474994957447,-0.016394405100448057
1746728590340737300,2.3407373046875,-0.08142375310286878,-0.02654255448877811,-0.010976553903333842
1746728590350756400,2.35075634765625,-0.09058861794173717,-0.022412907338142395,-0.008427435676101595
1746728590360775200,2.360775146484375,-0.08380290332436562,-0.02904138556718826,-0.02715672259805724
1746728590370794200,2.370794189453125,-0.09250453456565737,-0.03864741830229759,-0.011451468805549666
1746728590380813300,2.380813232421875,-0.08168342695236205,-0.034767361998558045,-0.014560321541083976
1746728590390832000,2.39083203125,-0.08495645727366209,-0.03450608071386814,-0.013312549969693645
1746728590400851200,2.400851318359375,-0.08964344604611396,-0.029924013620615003,-0.00993160229451023
1746728590410870300,2.410870361328125,-0.08298895659297705,-0.031436756271123883,-0.01986548787765205
1746728590420889300,2.420889404296875,-0.08981821809113025,-0.034441783306002616,-0.01491115340590477
1746728590430908200,2.430908203125,-0.09668664255589246,-0.02950724951326847,-0.013984266085643321
1746728590440927200,2.44092724609375,-0.08913710395917296,-0.03490764725208282,-0.019079269403405485
1746728590450947300,2.450947265625,-0.08508096043616532,-0.03090484135150909,-0.0173585465580225
1746728590460966400,2.46096630859375,-0.0909128814600408,-0.03733867379128933,-0.011006738979043439
1746728590470985500,2.4709853515625,-0.08193710945248603,-0.03767068222463131,-0.02052907548607327
1746728590481004300,2.48100439453125,-0.08468056294173001,-0.03155716778039932,-0.005168260350218042
1746728590491023400,2.4910234375,-0.08623612182065844,-0.03202770790159702,-0.018965634694788604
1746728590501042400,2.50104248046875,-0.08402034546732902,-0.02883271125257015,-0.020704030194180083
1746728590511061200,2.511061279296875,-0.0722094961643219,-0.021083120039105414,-0.014645762201678007
1746728590521080300,2.521080322265625,-0.08097557094395161,-0.035495676273107526,-0.02059210338545963
1746728590531099400,2.531099365234375,-0.08825608334094286,-0.02948796029090881,-0.01678437253241427
1746728590541118500,2.541118408203125,-0.08598638484328985,-0.03237082225084305,-0.017259406165638938
1746728590551137300,2.55113720703125,-0.09050415452867745,-0.03030278380513191,-0.010708148758113384
1746728590561156400,2.56115625,-0.0796428610354662,-0.03660568334162235,-0.020231654308922587
1746728590571175400,2.571175537109375,-0.0768169899597764,-0.02784194664955139,-0.012730484898574649
1746728590581194500,2.581194580078125,-0.083291154409945,-0.03358721230328083,-0.02391699175816029
1746728590591213300,2.59121337890625,-0.08310323062241078,-0.033927988564968106,-0.008803995637223123
1746728590601232400,2.601232421875,-0.08309504731595516,-0.0339981311917305,-0.013856137060793116
1746728590611252200,2.611252197265625,-0.08457797935009002,-0.033769583132863046,-0.012439959253091364
1746728590621271300,2.621271240234375,-0.07935644530951977,-0.028380291309952736,-0.010415686883870512
1746728590631290000,2.6312900390625,-0.08314239358901977,-0.030049101305007934,-0.018453830981440843
1746728590641309200,2.64130908203125,-0.08210530562624335,-0.02918400890827179,-0.028810609018616377
1746728590651328300,2.651328369140625,-0.0787187319278717,-0.03680091365277767,-0.014628738001640886
1746728590661347300,2.661347412109375,-0.08152706734687089,-0.03250409324169159,-0.016509884706279263
1746728590671366100,2.6713662109375,-0.08634703484922647,-0.022804537004232406,-0.013225638871220871
1746728590681385200,2.68138525390625,-0.07755947889015079,-0.02851473134458065,-0.015570347966998814
1746728590691404300,2.691404296875,-0.08090937383994459,-0.030181203252077102,-0.02181453045303933
1746728590701423400,2.70142333984375,-0.07811419016346335,-0.035925299862027166,-0.020461572340968993
1746728590711442200,2.711442138671875,-0.07548340326845646,-0.033251696738600726,-0.01871542279338464
1746728590721461200,2.721461181640625,-0.07158698035180568,-0.027450901505351066,-0.017730777403898536
1746728590731480300,2.731480224609375,-0.08355185117274522,-0.0390782109349966,-0.014661736088944598
1746728590741499100,2.7414990234375,-0.08090294409915805,-0.035545360633730885,-0.016605554499942807
1746728590751518200,2.751518310546875,-0.0864066560819745,-0.03379237948656082,-0.024988904439145698
1746728590761537300,2.761537353515625,-0.08733370779901742,-0.027535072657465933,-0.01405363239427097
1746728590771557400,2.771557373046875,-0.07890285632312298,-0.026682839742302893,-0.019730490720598026
1746728590781576400,2.781576416015625,-0.0850780378267169,-0.028836802905797956,-0.019663480765838175
1746728590791595300,2.79159521484375,-0.08592997848093509,-0.03142448131144047,-0.01615939990133047
1746728590801614300,2.8016142578125,-0.08278218197450041,-0.038194413837790486,-0.013801831323979422
1746728590811633400,2.81163330078125,-0.07300897597894072,-0.03539572302997112,-0.015568256474612279
1746728590821652500,2.821652587890625,-0.07489873524829745,-0.030987843459844587,-0.003853049565805122
1746728590831671300,2.83167138671875,-0.07723579989373683,-0.030770401316881177,-0.00971361216227524
1746728590841690400,2.8416904296875,-0.0668533759586513,-0.02995557780265808,-0.014392518092971294
1746728590851709400,2.85170947265625,-0.0791387109056115,-0.03540741346776485,-0.02254854381601326
1746728590861728300,2.861728271484375,-0.07702011131644249,-0.03499766362309455,-0.009975368371000513
1746728590871747300,2.871747314453125,-0.07621405563056469,-0.031303485280275344,-0.011086316154431551
1746728590881766400,2.881766357421875,-0.07465089796707033,-0.023721651849150656,-0.01827177981226705
1746728590891785500,2.891785400390625,-0.07785378566160797,-0.025389292800426483,-0.01715602798955515
1746728590901804300,2.90180419921875,-0.06717384008467198,-0.030938743621110914,-0.02195224015698768
1746728590911823400,2.9118232421875,-0.07247720718979835,-0.03350187210738659,-0.014628966330504044
1746728590921842400,2.921842529296875,-0.07732727756947279,-0.0341547830581665,-0.014695647491700947
1746728590931861500,2.931861572265625,-0.0747080349817872,-0.03207680774033069,-0.014707657589903101
1746728590941880300,2.94188037109375,-0.07137947508096694,-0.03747136026024818,-0.013596846803789957
1746728590951900200,2.951900146484375,-0.07990633427724242,-0.03780570678114891,-0.02016383150340989
1746728590961919200,2.961919189453125,-0.07526040816754102,-0.02886193734705448,-0.012298157895915209
1746728590971938300,2.971938232421875,-0.07019581825435162,-0.03293196326494217,-0.016840541432751342
1746728590981957000,2.98195703125,-0.08043371915221213,-0.03657528820335865,-0.0031834432085510343
1746728590991976200,2.99197607421875,-0.06836027339026332,-0.03420563646256924,-0.015797197259124367
1746728591001995300,3.001995361328125,-0.07362053200602531,-0.03543196338713169,-0.011925159865058958
1746728591012014300,3.012014404296875,-0.07865209643244743,-0.028745032969117162,-0.01575188767951913
1746728591022033200,3.022033203125,-0.06833265473097562,-0.038918636459112164,-0.018676871748128904
1746728591032052200,3.03205224609375,-0.06282616626918315,-0.0269745161652565,-0.012195693035284056
1746728591042071300,3.0420712890625,-0.076900722720474,-0.022517536756396294,-0.01548003020188771
1746728591052090400,3.05209033203125,-0.07121054825484752,-0.036433833906054494,-0.012423948833206667
1746728591062109200,3.062109130859375,-0.07351824067533015,-0.03899403978288173,-0.021774335439968852
1746728591072128300,3.072128173828125,-0.07074702239632606,-0.031231004565954207,-0.012482958144601434
1746728591082147300,3.082147216796875,-0.0655504766665399,-0.030209260302782058,-0.014940690027642995
1746728591092166100,3.092166259765625,-0.0758083974391222,-0.0362111310660839,-0.011058880158234387
1746728591102185200,3.102185302734375,-0.07426087573617696,-0.035625440132617946,-0.02101537029882893
1746728591112204300,3.112204345703125,-0.07541267611980437,-0.03219195855259895,-0.021814694849820807
1746728591122223400,3.122223388671875,-0.07436930454671382,-0.029531214910745618,-0.014245099845761432
1746728591132243500,3.132243408203125,-0.07422653507515788,-0.03117372142076492,-0.016941828116448596
1746728591142262300,3.14226220703125,-0.07340075177550315,-0.03912438816428184,-0.014059413681086153
1746728591152281300,3.15228125,-0.06824906810075045,-0.03229132727384567,-0.014315991391194983
1746728591162300400,3.162300537109375,-0.06800386116802692,-0.03272621155977249,-0.013347338155284523
1746728591172319500,3.172319580078125,-0.08372107025980949,-0.040541269224882125,-0.012878825594391673
1746728591182338300,3.18233837890625,-0.08022913649082183,-0.036064416071772576,-0.013081225431850179
1746728591192357400,3.192357421875,-0.06582008738815784,-0.03888181158006191,-0.004328293261583894
1746728591202376400,3.20237646484375,-0.07770867810249328,-0.03273088773488998,-0.011184652829216792
1746728591212395300,3.212395263671875,-0.08191898927390574,-0.034820553490519525,-0.021200398876378312
1746728591222414300,3.222414306640625,-0.07893558954894542,-0.040539515659213064,-0.025127600523782892
1746728591232433400,3.232433349609375,-0.07465192088037728,-0.03715571843981743,-0.013380939030786975
1746728591242452500,3.242452392578125,-0.07001169385910033,-0.03629237960875034,-0.019219883450493216
1746728591252471300,3.25247119140625,-0.06697130324989557,-0.039031449183821676,-0.011109578299010173
1746728591262490400,3.262490478515625,-0.07046469832360744,-0.03639408641755581,-0.007338370930915698
1746728591272509400,3.272509521484375,-0.07971826435923576,-0.04044131598174572,-0.009539232842903584
1746728591282528500,3.282528564453125,-0.06751110921502113,-0.03193067726790905,-0.020994071782473474
1746728591292547300,3.29254736328125,-0.08398556641489267,-0.03166355076432228,-0.013360380299948155
1746728591302566400,3.30256640625,-0.07343801504597067,-0.025393968975543975,-0.007618128587212413
1746728591312586200,3.312586181640625,-0.06844035288915037,-0.03648059565722942,-0.013708490484720096
1746728591322605300,3.322605224609375,-0.07609685899168253,-0.02693184606730938,-0.017809587394306436
1746728591332624100,3.3326240234375,-0.07649550292044878,-0.033710546422004696,-0.015506242355378343
1746728591342643200,3.342643310546875,-0.07536445306390524,-0.035110476347804065,-0.0063428844870068125
1746728591352662300,3.352662353515625,-0.07360577282831073,-0.03277589592039585,-0.010761988704046235
1746728591362680800,3.362680908203125,-0.06683949356377124,-0.0327823256611824,-0.007565777345467359
1746728591372700000,3.372699951171875,-0.07598302335366607,-0.033412440258264536,-0.011936722438689321
1746728591382719000,3.382718994140625,-0.08206438909396528,-0.027140520381927487,-0.010154423865489662
1746728591392738000,3.392738037109375,-0.07781886047869921,-0.034034371548891065,-0.008355064559634775
1746728591402756900,3.4027568359375,-0.07425590730011462,-0.03866553848087787,-0.007063636509608477
1746728591412776000,3.41277587890625,-0.07801759792119264,-0.034056583380699154,-0.016905624291906132
1746728591422795000,3.422794921875,-0.08330722876191139,-0.02955459578633308,-0.013103629059903322
1746728591432814000,3.43281396484375,-0.0725227998971939,-0.035541853502392765,-0.014445179861970244
1746728591442833000,3.4428330078125,-0.07336217333078383,-0.031215806996822356,-0.013946674021612851
1746728591452852000,3.45285205078125,-0.06888648922145366,-0.03143091105222702,-0.010357737018400802
1746728591462871000,3.46287109375,-0.0679106299266219,-0.028905191966891286,-0.011239917547255753
1746728591472889900,3.472889892578125,-0.07052709603533149,-0.035058453899621964,-0.00949634354924783
1746728591482909000,3.482908935546875,-0.0762289609387517,-0.03610357903838157,-0.01671338052228093
1746728591492928000,3.492927978515625,-0.07328136317953467,-0.02756488327383995,-0.014319598987232892
1746728591502948000,3.502947998046875,-0.0661877516567707,-0.029110943672060966,-0.011171610684553161
1746728591512967200,3.51296728515625,-0.06600099691301584,-0.029119126978516575,-0.00735684730252251
1746728591522986000,3.522986083984375,-0.07545563847869634,-0.03464928857684135,-0.014975012422353029
1746728591533005000,3.533005126953125,-0.0780956315934658,-0.037654315611720085,-0.013764312325185164
1746728591543024000,3.543024169921875,-0.07864274408221245,-0.035271219867467875,-0.0161133505362086
1746728591553043000,3.55304296875,-0.08025295575782657,-0.0333662630289793,-0.012791823164373635
1746728591563062000,3.56306201171875,-0.06866437090337275,-0.033980011013150214,-0.010378085686685516
1746728591573081000,3.5730810546875,-0.06470818062350153,-0.03133680302798748,-0.007409025014331564
1746728591583100200,3.58310009765625,-0.07675999907553195,-0.028842648124694822,-0.014994429508876054
1746728591593119000,3.593118896484375,-0.06435878266394138,-0.03186579533815384,-0.0108221761923749
1746728591603138000,3.603137939453125,-0.0580029838964343,-0.03667056527137756,-0.01422402052511461
1746728591613157000,3.6131572265625,-0.06308744755387306,-0.03640577685534954,-0.008943075314350426
1746728591623176200,3.62317626953125,-0.05824293013215065,-0.030582769790291786,-0.016138357113301752
1746728591633195000,3.633195068359375,-0.05559183110147714,-0.030160160464048385,-0.01530551388519816
1746728591643214000,3.643214111328125,-0.07038783369511366,-0.03842763807177543,-0.018104387356108052
1746728591653233200,3.653233154296875,-0.06626578532904386,-0.03085048081576824,-0.016058067551860584
1746728591663252200,3.663252197265625,-0.0665279433965683,-0.033999884757399554,-0.012491397179383783
1746728591673271000,3.67327099609375,-0.07231237201690674,-0.02967325372993946,-0.011363105535507201
1746728591683290000,3.6832900390625,-0.07366247145161033,-0.03165302937030792,-0.019677436225954442
1746728591693309200,3.69330908203125,-0.07325462130308151,-0.03930851255953312,-0.019016698161745442
1746728591703329000,3.7033291015625,-0.07906111562475561,-0.03273088773488998,-0.012672699429886415
1746728591713347800,3.713347900390625,-0.0738465958468616,-0.03332417745292186,-0.0030663561675231903
1746728591723367000,3.723366943359375,-0.06134206519126892,-0.038165772265195845,-0.0009179368288256228
1746728591733386000,3.733385986328125,-0.07165536941289902,-0.029489129334688186,-0.006601343626948073
1746728591743405000,3.743405029296875,-0.07128887418806552,-0.02935468930006027,-0.01672735424870625
1746728591753424000,3.753423828125,-0.06889058087468147,-0.027445640808343885,-0.01872604465209879
1746728591763443000,3.76344287109375,-0.07560410703867673,-0.03433306223452091,-0.014891571922600268
1746728591773462000,3.7734619140625,-0.06969312942922115,-0.033037177205085755,-0.008907309881225229
1746728591783481000,3.783481201171875,-0.06110591834783554,-0.03278524827063083,-0.01752970187384635
1746728591793500000,3.7935,-0.07801555209457874,-0.038355157357454296,-0.01761755368723534
1746728591803519000,3.80351904296875,-0.07046528284549712,-0.03616261574923992,-0.009122587466565892
1746728591813538000,3.8135380859375,-0.0732943687915802,-0.03066226476728916,-0.01775693475846201
1746728591823556900,3.823556884765625,-0.055998219945281744,-0.03232873667478561,-0.01025740018277429
1746728591833576000,3.833575927734375,-0.06277692029997706,-0.029292729979753494,-0.007531381885521113
1746728591843595000,3.843594970703125,-0.07408405786454678,-0.032150457498431206,-0.010057539362274109
1746728591853614000,3.853614013671875,-0.06754676505029202,-0.029298575198650357,-0.011240008878801017
1746728591863633000,3.8636328125,-0.06920563817322253,-0.03950725000202655,-0.014954243628960102
1746728591873652000,3.87365185546875,-0.0672530428007245,-0.0426858800381422,-0.01463889406947419
1746728591883671000,3.883671142578125,-0.06630845542699099,-0.03360416343808174,-0.004219873584201559
1746728591893690000,3.893690185546875,-0.06082914723306894,-0.024496143352985382,-0.01893965087016113
1746728591903709000,3.903708984375,-0.07755027267038822,-0.027048165923357008,-0.006539740499667823
1746728591913728000,3.91372802734375,-0.07095160505771636,-0.032173838374018666,-0.014001637345552443
1746728591923747000,3.9237470703125,-0.06441314319968224,-0.038031916752457616,-0.01399017523662187
1746728591933767200,3.93376708984375,-0.052388358885049814,-0.035498014360666276,-0.0009674202600494027
1746728591943786000,3.943785888671875,-0.06052183484956622,-0.02605681679844856,-0.007514869142137467
1746728591953805000,3.95380517578125,-0.07808335663378238,-0.03849778069853783,-0.01207490706667304
1746728591963824000,3.96382421875,-0.07219575989991427,-0.039108021551370616,-0.01856845207074657
1746728591973843200,3.97384326171875,-0.07604556719586253,-0.0344774391412735,-0.005809709192067384
1746728591983862000,3.983862060546875,-0.07352920046076178,-0.031031682601571083,-0.004790001622354612
1746728591993881000,3.993881103515625,-0.07026333053261041,-0.03345511035621166,-0.007963873284962028
1746728592003900200,4.003900146484375,-0.06445639781951903,-0.025819500911235808,-0.01762223899550736
1746728592013919200,4.013919189453125,-0.06621493192464113,-0.03555471298396587,-0.01686073483740911
1746728592023938000,4.02393798828125,-0.07058247948437929,-0.04111936137378216,-0.011777412824286147
1746728592033957000,4.03395703125,-0.06418839453309774,-0.02883972551524639,-0.016739318681135772
1746728592043976200,4.04397607421875,-0.0638559477083385,-0.027501754909753796,-0.021748680408904326
1746728592053995000,4.0539951171875,-0.06617635347992182,-0.034551088899374006,-0.006557358354749157
1746728592064014000,4.06401416015625,-0.06902063699513673,-0.035897827333211896,-0.017655638941610232
1746728592074033000,4.074032958984375,-0.07113032262548803,-0.03473170616328716,-0.01913890890246257
1746728592084052000,4.084052001953125,-0.07023848835229873,-0.034164719930291174,-0.018025851360335944
1746728592094070800,4.09407080078125,-0.06265665492117405,-0.02610825472474098,-0.004129208759218454
1746728592104089900,4.10408984375,-0.07038900273889302,-0.028214287093281745,-0.010382999323820695
1746728592114109000,4.11410888671875,-0.07662818938940763,-0.03226443926692009,-0.01290334811429493
1746728592124128000,4.1241279296875,-0.07321706577166914,-0.03180792767107486,-0.008043989316467196
1746728592134146800,4.134146728515625,-0.05934577680751681,-0.03254617881774902,-0.006916592721734196
1746728592144166000,4.144165771484375,-0.05634615660011768,-0.03198562232553959,-0.017648067556507885
1746728592154186000,4.15418603515625,-0.05325052867233753,-0.030363574081659316,-0.00749976290455088
1746728592164205000,4.164205078125,-0.0547767153263092,-0.03532908753454685,-0.013296804411290213
1746728592174224000,4.174223876953125,-0.0685316844344139,-0.03383504958450794,-0.019305552439950406
1746728592184243000,4.184242919921875,-0.07070552134215831,-0.028314824858307837,-0.00869214189373888
1746728592194262000,4.194261962890625,-0.05471972444206476,-0.025801380732655525,-0.019732061623176558
1746728592204281000,4.204281005859375,-0.05747779097855091,-0.03326806335151195,-0.004771242122957483
1746728592214300000,4.2142998046875,-0.06493044507205487,-0.03118073568344116,-0.016945234783086925
1746728592224319000,4.224319091796875,-0.06461173451170325,-0.03795300629734993,-0.014340084652835502
1746728592234338000,4.234338134765625,-0.06997545350193977,-0.04259703271090984,-0.006246283111581578
1746728592244357000,4.244357177734375,-0.06430939056426287,-0.03469546580612659,-0.020103360887290908
1746728592254376000,4.2543759765625,-0.06784545573592185,-0.026959903118014335,-0.007145944498199969
1746728592264395000,4.26439501953125,-0.06007014555931091,-0.034141923576593396,-0.01928691167156212
1746728592274414000,4.2744140625,-0.06646978346854449,-0.03774024032950401,-0.011391253917757421
1746728592284433000,4.284432861328125,-0.0745696494244039,-0.03492693647444248,-0.012250930353859438
1746728592294452000,4.294451904296875,-0.06316022052913904,-0.029546997001767158,-0.01215386318755336
1746728592304471000,4.304470947265625,-0.057916036265343425,-0.038974750560522076,-0.013448451309045775
1746728592314490000,4.314489990234375,-0.06811258223950863,-0.03567804710268974,-0.013766586480662226
1746728592324509000,4.324509033203125,-0.07687514988780021,-0.03509469425678253,-0.010742233690805732
1746728592334528000,4.334528076171875,-0.06915127763748169,-0.036762335208058355,-0.01327943315138109
1746728592344547000,4.344547119140625,-0.0638080169133842,-0.03783317930996418,-0.011877092072786763
1746728592354566100,4.354566162109375,-0.06421206766963004,-0.03036123599410057,-0.015086811366910114
1746728592364585200,4.364585205078125,-0.06734510499835014,-0.0318587810754776,-0.013531124623818322
1746728592374604300,4.374604248046875,-0.05962473987936973,-0.039027942052483555,-0.006243634496768936
1746728592384623400,4.384623291015625,-0.06188903154954314,-0.03426934934854507,-0.012661986239627002
1746728592394642400,4.394642333984375,-0.07010550962239503,-0.027424013498425482,-0.009257082300120964
1746728592404662300,4.404662353515625,-0.05577376353964209,-0.036462475478649135,-0.010788374387472868
1746728592414681000,4.41468115234375,-0.05423486353456974,-0.044403205350041386,-0.00598408851143904
1746728592424700200,4.4247001953125,-0.07601458753570914,-0.03884615574479103,-0.01025045898533426
1746728592434719200,4.43471923828125,-0.07248685180097818,-0.03269640094339847,-0.012187674125609919
1746728592444738000,4.444738037109375,-0.07043021153211593,-0.03736030110120773,-0.013471037600189447
1746728592454757000,4.454757080078125,-0.07933657156527042,-0.04081833260059357,-0.011036403464945032
1746728592464776200,4.464776123046875,-0.062139937570691105,-0.039352351701259614,-0.008419955622544512
1746728592474795300,4.474795166015625,-0.0601119388744235,-0.02605681679844856,-0.0038147999146487563
1746728592484814000,4.48481396484375,-0.065054217582196,-0.03674947572648525,-0.005489911786327138
1746728592494833200,4.494833251953125,-0.06420958345159888,-0.03755377784669399,-0.010056233321176842
1746728592504852200,4.504852294921875,-0.06159048699438571,-0.03386310663521289,-0.011465542996674776
1746728592514871300,4.514871337890625,-0.06804477770030498,-0.03523907116353511,-0.013214679085789247
1746728592524890000,4.52489013671875,-0.06931202115714549,-0.033460955575108524,-0.01204683174965903
1746728592534909200,4.5349091796875,-0.062116556695103645,-0.03768821788132191,-0.00856886257394217
1746728592544928300,4.54492822265625,-0.07118921320587396,-0.03276186739504337,-0.022979208584548903
1746728592554947000,4.554947021484375,-0.06113748252987861,-0.035759880167245864,-0.010504095819685607
1746728592564966100,4.564966064453125,-0.05782850411236286,-0.033221886122226714,-0.0036630342858843504
1746728592574985200,4.574985107421875,-0.05515723907649517,-0.028611177456378936,-0.017935031271725892
1746728592585004300,4.58500439453125,-0.053638505076617,-0.029100422278046607,-0.01356779423924163
1746728592595023000,4.595023193359375,-0.07090805817693471,-0.03596972352564334,-0.0116361685895361
1746728592605042200,4.605042236328125,-0.07060556809902191,-0.03237959007918834,-0.01080033881990239
1746728592615061200,4.615061279296875,-0.06302987214773893,-0.036892099067568775,-0.010501164077082648
1746728592625080300,4.625080322265625,-0.06356602485105395,-0.035709611284732816,-0.009714151018392294
1746728592635099100,4.63509912109375,-0.06120820967853069,-0.03199439015388489,-0.007738932822132482
1746728592645118200,4.6451181640625,-0.052722705405950546,-0.037520460098981856,-0.015371053402079268
1746728592655137300,4.65513720703125,-0.06625497167408466,-0.03256780612766742,-0.011161326752556487
1746728592665157400,4.665157470703125,-0.07261836922615766,-0.03153729403614998,-0.007914727780455722
1746728592675176200,4.67517626953125,-0.06043430269658565,-0.027210078486800193,-0.005252267105551436
1746728592685195300,4.6851953125,-0.05957666295394301,-0.03714461252391338,-0.008653517783246934
1746728592695214300,4.69521435546875,-0.06395312447249889,-0.03926291985213756,-0.01533636568118818
1746728592705233400,4.7052333984375,-0.06426467463970184,-0.032225860822200775,-0.01466481396201998
1746728592715252200,4.715252197265625,-0.06457213315367698,-0.03270575329363346,-0.01931483172494918
1746728592725271300,4.725271240234375,-0.054808133377879854,-0.04023147262334823,-0.008407068741507828
1746728592735290400,4.735290283203125,-0.058092708006501195,-0.04389408678412437,-0.018395926781743763
1746728592745309400,4.745309326171875,-0.061787470871210094,-0.03944938233494758,-0.012210360881453379
1746728592755328300,4.755328369140625,-0.06409808590114116,-0.02959258970916271,-0.011777814683085306
1746728592765347300,4.765347412109375,-0.0749935739248991,-0.0354009837269783,-0.01858049870156683
1746728592775366400,4.775366455078125,-0.06624795741140842,-0.04301145873069763,-0.015280626039113848
1746728592785385500,4.785385498046875,-0.057227615609765047,-0.03871697640717029,-0.013117127862293273
1746728592795404300,4.795404296875,-0.06085486619621515,-0.03156067491173744,-0.007627672733692452
1746728592805423400,4.80542333984375,-0.06273644215911627,-0.03190904995799065,-0.007502183190500364
1746728592815442400,4.8154423828125,-0.07127469953224062,-0.037927871856093406,-0.022035497993649913
1746728592825461200,4.825461181640625,-0.05652005186229944,-0.033010873720049856,-0.017438954850472508
1746728592835480300,4.835480224609375,-0.058446928271651266,-0.04214461276829243,-0.008773070775996893
1746728592845499400,4.84549951171875,-0.0614648147881031,-0.02990413987636566,-0.009545589518453926
1746728592855518500,4.8555185546875,-0.05409910832569003,-0.03066226476728916,-0.012548972585517912
1746728592865537300,4.865537353515625,-0.05157265858799219,-0.03709317459762096,-0.015920631842548025
1746728592875556400,4.875556396484375,-0.05707330183088779,-0.033925650477409364,-0.017050859715184195
1746728592885575200,4.8855751953125,-0.06058803195357322,-0.03828326116502285,-0.005555871428316459
1746728592895594200,4.89559423828125,-0.06213409235179424,-0.035196401065587996,-0.001201658274186775
1746728592905613000,4.905613037109375,-0.06518266626745461,-0.0382113649725914,-0.003894532353663817
1746728592915632000,4.915632080078125,-0.0617119214169681,-0.029124972197413442,-0.0059992495479527855
1746728592925651200,4.925651123046875,-0.05885434002876282,-0.039187516528367994,-0.009509504424920306
1746728592935670000,4.935669921875,-0.05486190939173102,-0.03083177611529827,-0.013116680337721481
1746728592945689000,4.945689208984375,-0.05398337299153209,-0.04369534934163093,0.00010065649603493511
1746728592955709200,4.955709228515625,-0.05541749744787812,-0.03413257122635841,-0.013788031127490103
1746728592965728300,4.965728271484375,-0.058238107826560734,-0.031445524099469185,-0.008759151848498731
1746728592975747300,4.975747314453125,-0.0648261079147458,-0.03593172960281372,-0.01231719138994813
1746728592985766100,4.98576611328125,-0.0644143122434616,-0.04149462442696094,-0.0033813130013644692
1746728592995785200,4.99578515625,-0.055551206830143925,-0.03521919741928577,-0.00619481778582558
1746728593005804300,5.00580419921875,-0.06335954249352216,-0.04149754703640938,-0.01322741983635351
1746728593015823400,5.0158232421875,-0.05227437711656093,-0.040003509086370466,-0.0034670367897488173
1746728593025842200,5.02584228515625,-0.0506768787920475,-0.034039632245898246,-0.012580765096424147
1746728593035861200,5.035861328125,-0.05355944849103689,-0.032302433189749714,-0.014237884653685614
1746728593045880300,5.04588037109375,-0.06047288114130497,-0.03363981927335262,-0.011108336189994588
1746728593055899100,5.055899169921875,-0.050420858204364774,-0.036786300605535505,-0.007197473756037652
1746728593065918200,5.065918212890625,-0.0557731790177524,-0.04116904573440552,-0.016609198628598824
1746728593075937300,5.075937255859375,-0.05484378921315074,-0.036088381469249725,-0.010124010460916906
1746728593085956400,5.085956298828125,-0.052720951840281485,-0.03759118724763393,-0.01386679545212537
1746728593095975200,5.09597509765625,-0.061547232374548906,-0.03325345030426979,-0.009630107730440795
1746728593105994200,5.105994140625,-0.060166591671109194,-0.04074176023304462,-0.0034043742165435105
1746728593116013300,5.116013427734375,-0.055633624416589735,-0.038357495445013046,-0.009049960621772334
1746728593126032400,5.126032470703125,-0.054839113038033245,-0.03866729204654693,-0.011880188212171195
1746728593136051200,5.13605126953125,-0.052838294609636065,-0.03433949197530746,-0.012226279969792812
1746728593146070300,5.1460703125,-0.052395373147726056,-0.03976151702404022,-0.005774601346068084
1746728593156089300,5.15608935546875,-0.06072481007575988,-0.04156885870695114,-0.011022895529400556
1746728593166108400,5.1661083984375,-0.05676058261990547,-0.03683189331293106,-0.021462082019867375
1746728593176127200,5.176127197265625,-0.04666121340990066,-0.03699789752960205,-0.006023087081266567
1746728593186146300,5.186146240234375,-0.05320595887824893,-0.0335316827237606,-0.016258786888886243
1746728593196165400,5.196165283203125,-0.06295695304200052,-0.03311141148507595,-0.0165086151978001
1746728593206184200,5.20618408203125,-0.0452457936540246,-0.0418014984190464,-0.009041567252762615
1746728593216203300,5.216203369140625,-0.04721738598793745,-0.03569499823749065,-0.008625168471597135
1746728593226222300,5.226222412109375,-0.04965221191942692,-0.03763151925802231,-0.01348818053123541
1746728593236241400,5.236241455078125,-0.06676862028464675,-0.034361703807115555,-0.015053831545915454
1746728593246260200,5.24626025390625,-0.06324614524692297,-0.03270107711851596,-0.02022375413025729
1746728593256279300,5.256279296875,-0.04617766767665744,-0.03375087843239307,-0.0114198041588068
1746728593266298400,5.26629833984375,-0.057257426226139066,-0.04219897330403328,-0.014905801377352326
1746728593276317400,5.2763173828125,-0.05619359638690948,-0.03397241222858429,-0.010070691104792058
1746728593286337000,5.2863369140625,-0.05601765529811382,-0.03828267664313316,0.00011852094628848135
1746728593296356000,5.296356201171875,-0.05076864872872829,-0.030952187624573704,-0.017710556599777192
1746728593306375200,5.306375244140625,-0.05724515126645565,-0.03752630531787872,-0.006490996853960678
1746728593316394200,5.316394287109375,-0.05967734684944152,-0.031082536005973813,-0.013185964447958394
1746728593326413000,5.3264130859375,-0.05588379978537559,-0.03288929316699505,-0.006687688469840213
1746728593336432000,5.33643212890625,-0.05967442423999309,-0.039645781689882274,-0.009787024458358063
1746728593346451200,5.346451171875,-0.052460693468898534,-0.036062077984213826,-0.020589820096828044
1746728593356470300,5.35647021484375,-0.05606383252739906,-0.03235270207226276,-0.02026034154728986
1746728593366488800,5.36648876953125,-0.054325902818888425,-0.04449614433050155,-0.0034172428312711414
1746728593376508000,5.3765078125,-0.054801849767565726,-0.03718903618752956,-0.0053225923954043535
1746728593386527000,5.38652685546875,-0.06398001247942448,-0.03436871806979179,-0.014259009640105067
1746728593396545800,5.3965458984375,-0.05511792997941375,-0.03497428274750709,-0.010152606367738917
1746728593406564900,5.40656494140625,-0.05810381392240524,-0.03976502415537834,-0.005427221813658252
1746728593416584000,5.416583984375,-0.06043693304508924,-0.0450169533342123,-0.015155154762230812
1746728593426603000,5.42660302734375,-0.060774932827800505,-0.03902209683358669,-0.01766721064839512
1746728593436621800,5.436621826171875,-0.05938040972948074,-0.041726679617166515,-0.00525293382583186
1746728593446641000,5.446640869140625,-0.058225102214515205,-0.034683775368332864,-0.010735511689074337
1746728593456660000,5.456659912109375,-0.05788169560432434,-0.040378772139549254,-0.010991340480512007
1746728593466679000,5.466678955078125,-0.061131491180509326,-0.04427870218753814,-0.013170511150499805
1746728593476697900,5.47669775390625,-0.05806055930256843,-0.03980769425332546,-0.0068544233388733115
1746728593486717000,5.486717041015625,-0.05159866981208324,-0.041459553113579746,-0.006566966433310881
1746728593496736000,5.496736083984375,-0.051800037603080266,-0.03235328659415245,-0.015111726612458005
1746728593506755000,5.506755126953125,-0.060685647109150885,-0.039970775860548015,-0.00656699383277446
1746728593516774000,5.51677392578125,-0.055933776406943796,-0.0374181687682867,-0.011605225462000816
1746728593526793000,5.52679296875,-0.061748161774128674,-0.04041559701859951,-0.012626668331073596
1746728593536812000,5.53681201171875,-0.06263911926448344,-0.03817454009354114,-0.011086115225031971
1746728593546830800,5.546830810546875,-0.05736790086328983,-0.03384147932529449,-0.0052877037451136855
1746728593556850000,5.556849853515625,-0.05381225420832634,-0.03506371459662914,-0.011078826967719942
1746728593566869000,5.566868896484375,-0.05621317787021398,-0.041083121016621586,-0.01839991797027178
1746728593576888000,5.57688818359375,-0.05786649803519248,-0.0325865108281374,-0.010781241393787786
1746728593586907000,5.586906982421875,-0.06714782886058092,-0.037974633607268334,-0.018668551444355398
1746728593596926000,5.596926025390625,-0.05209142176508903,-0.04514262554049492,-0.009148215098166837
1746728593606945000,5.606945068359375,-0.054650896989554165,-0.03993570454716682,-0.011232327895844354
1746728593616964000,5.616964111328125,-0.06435878266394138,-0.03799509187340736,-0.014857276927353813
1746728593626983000,5.62698291015625,-0.05755597078129649,-0.03367079893350601,-0.007860257646860554
1746728593637002000,5.637001953125,-0.061287558525055644,-0.032361469900608064,-0.0007577321652788669
1746728593647021000,5.64702099609375,-0.05556581987738609,-0.036410453030467034,-0.010349288850463927
1746728593657041200,5.657041259765625,-0.05226911641955375,-0.03862169933915138,-0.011912848372757434
1746728593667060000,5.66706005859375,-0.06181026722490787,-0.03533785536289215,-0.011709580885618924
1746728593677079000,5.6770791015625,-0.06865735664069653,-0.0295101721227169,-0.002536505340831354
1746728593687098000,5.68709814453125,-0.06004150398671627,-0.04479366597235203,-0.004379320195922628
1746728593697117200,5.6971171875,-0.06023848786354065,-0.04649696275889873,-0.013736026945617048
1746728593707136000,5.707135986328125,-0.04773556464314461,-0.03383271149694919,-0.009159348413534461
1746728593717155000,5.717155029296875,-0.06337970849871635,-0.03235328659415245,-0.004364332689344883
1746728593727174100,5.727174072265625,-0.06560892885550856,-0.04133680351674557,-0.016261490302626042
1746728593737193200,5.737193115234375,-0.05061009716615081,-0.04063187011778355,-0.009549516774900258
1746728593747212000,5.7472119140625,-0.04852145432382822,-0.03509294069111347,0.003810991389211267
1746728593757231000,5.757231201171875,-0.05542962627708912,-0.033173955327272416,-0.006775823411019518
1746728593767250200,5.767250244140625,-0.05301993478685617,-0.03695347386598587,-0.011701571109099312
1746728593777269000,5.77726904296875,-0.05759352631270885,-0.03831482534706592,-0.011064223053632303
1746728593787288000,5.7872880859375,-0.06811185158714651,-0.045970893058180806,-0.01001156306238845
1746728593797307100,5.79730712890625,-0.04561886475011706,-0.031951720055937764,-0.002406184358894825
1746728593807326000,5.807325927734375,-0.0441758263349533,-0.037246319332718845,-0.006804547182004898
1746728593817345000,5.817344970703125,-0.05531856711804867,-0.04403320299386978,-0.0032909313041716813
1746728593827363800,5.82736376953125,-0.060274728220701214,-0.04017302043437958,-0.014242716092430054
1746728593837383000,5.8373828125,-0.056203825519978996,-0.03258534178435802,-0.01313634401941672
1746728593847402000,5.847402099609375,-0.05604863495826721,-0.03202244720458984,-0.004181523468345404
1746728593857420800,5.8574208984375,-0.057571899002790444,-0.036539632368087764,-0.009537524943007155
1746728593867439900,5.86743994140625,-0.05562704854533076,-0.032684125983715055,-0.006841171131655574
1746728593877459000,5.877458984375,-0.05875716326460242,-0.03777414259910583,-0.0171300532980822
1746728593887478000,5.88747802734375,-0.045731823605298996,-0.04050502886772155,-0.006558308202819899
1746728593897496800,5.897496826171875,-0.041519466607272626,-0.03572422433197498,-0.007059782318398356
1746728593907516000,5.907515869140625,-0.045659781282395125,-0.032329905718564984,-0.0007168795650824904
1746728593917535000,5.917534912109375,-0.048427346299588676,-0.040842297998070716,-0.003693073231121525
1746728593927553800,5.9275537109375,-0.044537353123724456,-0.03261222979128361,-0.009577263298351317
1746728593937572900,5.93757275390625,-0.05118833544552326,-0.04160919071733951,-0.013304585858946665
1746728593947592000,5.947592041015625,-0.05386749152690172,-0.044754503005743025,-0.013328322927560657
1746728593957611000,5.957611083984375,-0.04806523498892784,-0.03711597095131874,0.0028811266605742276
1746728593967629800,5.9676298828125,-0.048951224043220276,-0.039212650969624514,-0.013209701516572385
1746728593977649000,5.97764892578125,-0.04769698619842529,-0.03952420113682747,-0.012997611402161418
1746728593987668000,5.98766796875,-0.05500029494911432,-0.03504267180860042,-0.00044943340108729896
1746728593997687000,5.99768701171875,-0.057170332464575764,-0.03741933781206608,-0.008387916516466067
1746728594007705900,6.007705810546875,-0.05537497348040342,-0.04190671235918998,-0.01264626808068715
1746728594017725000,6.017724853515625,-0.047069794210791584,-0.03642272799015045,-0.008772440588334575
1746728594027744000,6.027743896484375,-0.05145546194911003,-0.03180792767107486,-0.009918770212400703
1746728594037763000,6.03776318359375,-0.05136018488109111,-0.04107259962260723,-0.004063523111864924
1746728594047782000,6.047781982421875,-0.053223494534939526,-0.04614274249374866,-0.009916002866579218
1746728594057801000,6.057801025390625,-0.05992445347830653,-0.04629939436018467,-0.006895531667396426
1746728594067820000,6.067820068359375,-0.054824646121263504,-0.028794717329740524,-0.002448580462206155
1746728594077838800,6.0778388671875,-0.03967033160924911,-0.023867197799682615,-0.002506301998812705
1746728594087858000,6.08785791015625,-0.05104805019199848,-0.038943770900368685,-0.013367166233761236
1746728594097877000,6.097876953125,-0.05156652110815048,-0.04431318897902965,-0.019552805199287832
1746728594107896000,6.10789599609375,-0.05858604448139667,-0.041322774991393085,-0.0007673859096132219
1746728594117916200,6.117916259765625,-0.049709933456033466,-0.039838673913478846,-0.004143977070087567
1746728594127935000,6.12793505859375,-0.04375818544477224,-0.04076104945540428,-0.007116599672706797
1746728594137954000,6.1379541015625,-0.05627776753902435,-0.03658405603170395,-0.0015010430795606225
1746728594147973000,6.14797314453125,-0.05411562106907367,-0.03731412387192249,-0.005179466730821878
1746728594157992000,6.157991943359375,-0.05343231498003006,-0.03251169202625751,0.0013298968968912957
1746728594168011000,6.168010986328125,-0.04966200266107917,-0.0371568874835968,0.002410559139912948
1746728594178030000,6.178030029296875,-0.0535851674541831,-0.03284428498148918,0.0012384009548462927
1746728594188049200,6.188049072265625,-0.06023322716653347,-0.03140285400152206,-0.012238290067994966
1746728594198068000,6.19806787109375,-0.05975450373888015,-0.042483050942420955,-0.021344857981521637
1746728594208087000,6.208087158203125,-0.05486965430676937,-0.036219898894429205,-0.00737480308432132
1746728594218106000,6.218106201171875,-0.050245355506986375,-0.03610182547271251,-0.006358684844337404
1746728594228125200,6.228125244140625,-0.04901245271116495,-0.03180675862729549,-0.005081139189191162
1746728594238144000,6.23814404296875,-0.052541942011564965,-0.03466507066786289,-0.009661343118920921
1746728594248163000,6.2481630859375,-0.05716609468087554,-0.03436930259168148,-0.02017770476513542
1746728594258182100,6.25818212890625,-0.05579845958948135,-0.03721826228201389,-0.005760992945823818
1746728594268201200,6.268201171875,-0.054987435467541215,-0.040674540215730665,-0.013673483103420585
1746728594278220000,6.278219970703125,-0.045048225255310534,-0.03751110774874687,-0.008906926288735122
1746728594288239000,6.288239013671875,-0.04967193953320384,-0.03078033818900585,-0.012764779893821104
1746728594298258200,6.298258056640625,-0.054341246518492696,-0.040948096460103986,-0.012884908275306224
1746728594308277000,6.308277099609375,-0.0582210105612874,-0.03515080835819244,-0.006822165037086233
1746728594318296000,6.318296142578125,-0.05202054848596453,-0.038458033210039134,-0.007123851397400721
1746728594328315100,6.328315185546875,-0.0490276502802968,-0.03666296648681164,-0.011972716200677677
1746728594338334200,6.338334228515625,-0.06024301790818572,-0.040590369063615794,-0.009910385976545512
1746728594348353000,6.34835302734375,-0.04662555757462978,-0.04511515301167965,-0.01507943177805282
1746728594358372000,6.3583720703125,-0.05088964475989342,-0.031814357411861414,-0.02055548856896348
1746728594368391000,6.368390869140625,-0.061553954376280307,-0.033601825350522994,-0.013609952880535275
1746728594378410000,6.378409912109375,-0.045857203550636765,-0.039168811827898026,0.0014515139825642107
1746728594388428800,6.3884287109375,-0.04349076668024063,-0.03796469673514366,-0.011430261620739474
1746728594398447900,6.39844775390625,-0.05432429538369178,-0.04139057953059673,-0.008844939568964764
1746728594408466700,6.408466796875,-0.05234919591844082,-0.03586041793227195,-0.002521627432107925
1746728594418485800,6.41848583984375,-0.03874795606732368,-0.03196691762506962,-0.01122399845891632
1746728594428504800,6.4285048828125,-0.047903176295012236,-0.038430560681223865,-0.013849223262816667
1746728594438524000,6.43852392578125,-0.053228316840529435,-0.036948213168978686,-0.0085766714210622
1746728594448542700,6.448542724609375,-0.04648585684299469,-0.043534021300077434,-0.0059843625060748305
1746728594458561800,6.458561767578125,-0.05249298830330371,-0.03993745811283588,-0.014216074680676682
1746728594468580900,6.468580810546875,-0.05396335311681032,-0.039460488250851626,-0.016653412229660897
1746728594478600000,6.478599853515625,-0.059095747569203376,-0.03151800481379032,-0.0064359147990122436
1746728594488618800,6.48861865234375,-0.0538943795338273,-0.03693243107795715,-0.005469654449587687
1746728594498637800,6.498637939453125,-0.05084405205249786,-0.03918985461592674,-0.00409934334391728
1746728594508657000,6.508656982421875,-0.05391746814846992,-0.04141746753752231,-0.004491283537261187
1746728594518675700,6.51867578125,-0.05070552036464214,-0.0390390479683876,-0.010171375000290571
1746728594528694800,6.52869482421875,-0.04904357850179076,-0.03731704648137092,-0.0068807176907546815
1746728594538713900,6.5387138671875,-0.060442486003041265,-0.035549452286958695,-0.004010559948766604
1746728594548733000,6.54873291015625,-0.05431669659912586,-0.04033551751971245,-0.0092296463039238
1746728594558751700,6.558751708984375,-0.045426703178882595,-0.03941898719668388,-0.00908557992442511
1746728594568770800,6.568770751953125,-0.04950125914141536,-0.04060965828597545,-0.011706082887435331
1746728594578790000,6.578789794921875,-0.05731178676187992,-0.04359481157660484,-0.012475889082998036
1746728594588809000,6.58880908203125,-0.06377542981803416,-0.03838613701760769,-0.008592627042019739
1746728594598827800,6.598827880859375,-0.047061464773863554,-0.03601823884248733,-0.010395000288868323
1746728594608846800,6.608846923828125,-0.050892421238869424,-0.03337561537921428,-0.01235858284626156
1746728594618866000,6.618865966796875,-0.05471110274419188,-0.038215456625819204,-0.009950270462362095
1746728594628885000,6.628885009765625,-0.05431538142487406,-0.042726796570420264,-0.01562740278332494
1746728594638903800,6.63890380859375,-0.04952931619212031,-0.0505418542355299,-0.018418357809260485
1746728594648923000,6.6489228515625,-0.04264189476594329,-0.03815817348062992,-0.001665713855670765
1746728594658942000,6.65894189453125,-0.03715630296170711,-0.03402443467676639,-0.008255184381734578
1746728594668960800,6.668960693359375,-0.05384834843501448,-0.03272679608166218,-0.0035211050645448266
1746728594678979800,6.678979736328125,-0.04176905745416879,-0.04382569772303104,-0.013265340693946926
1746728594688999000,6.6889990234375,-0.04385886934027076,-0.03847206173539162,-0.000059639499057084316
1746728594699018000,6.69901806640625,-0.05801964277029037,-0.037137013739347455,0.0008083937734365463
1746728594709036800,6.709036865234375,-0.05064560687094927,-0.03969078987538814,-0.011040102392528206
1746728594719056000,6.719055908203125,-0.048673722276091576,-0.04508417335152626,-0.017065061770472675
1746728594729075000,6.729074951171875,-0.04718187628313899,-0.0412263288795948,-0.006772772937407716
1746728594739094000,6.739093994140625,-0.04792378069162369,-0.031386487388610836,-0.018246809767792
1746728594749112800,6.74911279296875,-0.04148863307759165,-0.03953472253084182,-0.01104567361678928
1746728594759132000,6.7591318359375,-0.036803690131753684,-0.040028059005737304,-0.008888504716055467
1746728594769151000,6.76915087890625,-0.05249298830330371,-0.03902092778980732,-0.01026411305135116
1746728594779170000,6.779170166015625,-0.05289397031962871,-0.03876782981157303,-0.006059820628771558
1746728594789188900,6.78918896484375,-0.0493064672216773,-0.04284077833890915,-0.0036513438480906186
1746728594799208000,6.7992080078125,-0.05164718512892723,-0.04273731796443462,0.004307058677310124
1746728594809228000,6.80922802734375,-0.058135231973975895,-0.036924832293391226,0.0027607516839168963
1746728594819247000,6.8192470703125,-0.049048693068325516,-0.04383271198570728,-0.011256494222721083
1746728594829265000,6.829264892578125,-0.049705257280915974,-0.0424725295484066,-0.01289595939228311
1746728594839285000,6.839284912109375,-0.0515220974445343,-0.027803952726721762,-0.008312120467051863
1746728594849304000,6.849303955078125,-0.0413289124712348,-0.0338280353218317,-0.0036273236516863104
1746728594859323100,6.8593232421875,-0.049368718802928924,-0.04225099575221538,-0.016769686419935897
1746728594869342000,6.869342041015625,-0.044130818149447436,-0.034954993525147436,-0.010532792191207408
1746728594879361000,6.879361083984375,-0.05706102687120437,-0.033628128835558886,-0.014961842413526027
1746728594889380000,6.889380126953125,-0.04792144260406494,-0.03830371943116188,-0.01013136265031062
1746728594899399000,6.89939892578125,-0.049177287884056564,-0.03383797219395637,-0.003245713056111708
1746728594909418000,6.90941796875,-0.04421878869384527,-0.03836509422957897,-0.006829380229162052
1746728594919437000,6.91943701171875,-0.058040393297374246,-0.04227613019347191,0.00316309454026632
1746728594929455900,6.929455810546875,-0.04482464563250541,-0.03836041805446148,-0.015308701356127857
1746728594939475000,6.939474853515625,-0.04506576091200113,-0.041182489737868304,-0.0033379487836733457
1746728594949493800,6.94949365234375,-0.047427229346334934,-0.0371481196552515,-0.014865332369646057
1746728594959512800,6.959512939453125,-0.048070495685935015,-0.03836860136091709,-0.004023118036240339
1746728594969532000,6.969531982421875,-0.05145195481777191,-0.044781975534558295,-0.013255001963023096
1746728594979550700,6.97955078125,-0.05137976636439562,-0.03982639895379543,-0.012510394140798598
1746728594989569800,6.98956982421875,-0.056196518996357914,-0.032786417314410204,0.010608286846522241
1746728594999588900,6.9995888671875,-0.0414355877161026,-0.053126610031723975,-0.03452189933750778
1746728595009608000,7.00960791015625,-0.041624388286471366,-0.045185880160331725,0.01178809861508198
1746728595019626800,7.019626708984375,-0.041085459104180336,-0.03286357420384884,-0.02496112138307653
1746728595029645800,7.029645751953125,-0.044727030476927755,-0.04560615139901638,0.019943421085225416
1746728595039665000,7.039664794921875,-0.04154840044081211,-0.04546411257982254,-0.050078374042781065
1746728595049683700,7.04968359375,-0.05029065595343709,-0.03168225546479225,0.02316510481177829
1746728595059702800,7.059702880859375,-0.045458267360925675,-0.03977262293994426,-0.015206985414167866
1746728595069721900,7.069721923828125,-0.05316489621549844,-0.044243046352267265,-0.010487044220184906
1746728595079741000,7.079740966796875,-0.053017596699297426,-0.039303836384415626,-0.000299165609665215
1746728595089759700,7.089759765625,-0.04816401918828487,-0.04362462219297886,-0.01965444807601161
1746728595099778800,7.09977880859375,-0.042272623062133786,-0.0298369198590517,0.011531173845101148
1746728595109798000,7.1097978515625,-0.053312487992644306,-0.04495850114524364,-0.01839520526253618
1746728595119817000,7.11981689453125,-0.048121933612227434,-0.04393500331640243,0.008075252104410902
1746728595129835800,7.129835693359375,-0.04856529346555471,-0.03436053476333618,-0.004103261467209085
1746728595139854800,7.139854736328125,-0.041543724265694616,-0.032712183034420014,-0.00344116256297566
1746728595149874000,7.1498740234375,-0.04354746530354023,-0.044371056646108624,-0.008448715926147998
1746728595159893000,7.15989306640625,-0.05435469052195549,-0.04227028497457504,-0.010708413619594648
1746728595169911800,7.169911865234375,-0.05072919350117445,-0.041646015596389765,-0.008782523590931669
1746728595179931000,7.179930908203125,-0.0487900421321392,-0.03898468743264675,-0.00218667812300846
1746728595189950000,7.189949951171875,-0.04707037873268127,-0.031071430090069768,-0.0014008615075610576
1746728595199968800,7.19996875,-0.053798517943918704,-0.034814708271622655,-0.0041547815918922424
1746728595209987800,7.20998779296875,-0.051179567617177964,-0.03423135542571545,-0.0073483443356584755
1746728595220007000,7.2200068359375,-0.051248979591578245,-0.04483984320163727,-0.017083693405706434
1746728595230026000,7.23002587890625,-0.05327186372131109,-0.03689326811134815,-0.003270947962068021
1746728595240044800,7.240044921875,-0.050152854917943475,-0.03224865717589855,-0.005075905891647562
1746728595250064000,7.25006396484375,-0.03886412979289889,-0.03360942413508892,-0.007221841012313961
1746728595260083000,7.2600830078125,-0.03751373809725046,-0.039596097329258916,-0.013244754563644528
1746728595270102000,7.27010205078125,-0.047187867632508276,-0.03972235405743122,-0.012038593644276261
1746728595280120800,7.280120849609375,-0.054825522904098034,-0.030927053183317184,-0.007023779423255473
1746728595290140000,7.290139892578125,-0.03926262759119272,-0.035302199527621266,-0.008435180591139941
1746728595300159000,7.300158935546875,-0.045369712294638154,-0.043539281997084615,-0.0072628123435191805
1746728595310177800,7.310177734375,-0.05855842582210898,-0.05026829799115658,-0.012371734588779508
1746728595320196900,7.32019677734375,-0.057709261646866794,-0.040831776604056354,-0.010712834066385403
1746728595330216000,7.3302158203125,-0.04967822314351797,-0.03240589356422424,-0.000387629344407469
1746728595340235000,7.340235107421875,-0.04883329675197601,-0.04320142834484577,-0.0066841813385020935
1746728595350253800,7.35025390625,-0.04076309528201818,-0.03527063534557819,-0.0019967541746329517
1746728595360273000,7.36027294921875,-0.043669630378484724,-0.03933072439134121,-0.016380522705568
1746728595370292000,7.3702919921875,-0.05282207412719726,-0.03453589133024215,-0.01033264824291691
1746728595380311000,7.38031103515625,-0.051084144418686625,-0.04380056328177452,-0.008458817195054143
1746728595390329900,7.390329833984375,-0.04115092555582523,-0.03588321428596973,-0.0011610157365445047
1746728595400349000,7.400348876953125,-0.049534723019599915,-0.03172901721596718,-0.014049157148553058
1746728595410368000,7.410367919921875,-0.043322132115066046,-0.03650280748903751,-0.010243855714611708
1746728595420387000,7.420386962890625,-0.046783086223900316,-0.04625906234979629,-0.02128457002849318
1746728595430406000,7.430406005859375,-0.04460661896765232,-0.04163900133371353,-0.01139083379264921
1746728595440425000,7.440425048828125,-0.04054594539999962,-0.0434744000673294,-0.0016895879216026514
1746728595450444000,7.450444091796875,-0.04157791879624128,-0.03573299216032028,-0.0007027505750302225
1746728595460462800,7.460462890625,-0.04730535653233528,-0.04219195904135704,0.0004129464487545192
1746728595470482000,7.47048193359375,-0.05321721092462539,-0.03962941507697105,-0.007349641243601218
1746728595480501000,7.4805009765625,-0.05351531708836555,-0.04022679644823074,-0.010532381199253722
1746728595490520000,7.49052001953125,-0.05246230090409517,-0.042323476466536517,-0.008570168615039437
1746728595500539000,7.500538818359375,-0.04397694276198744,-0.03965396499633789,-0.0022567294182255864
1746728595510558000,7.510557861328125,-0.04536474385857582,-0.04248597355186939,-0.0033490181669592854
1746728595520577000,7.520576904296875,-0.046782209441065786,-0.03394026352465153,-0.010545606007007881
1746728595530596000,7.53059619140625,-0.04346212510764599,-0.03574234451055527,-0.007842301865061744
1746728595540615000,7.540614990234375,-0.042917935228347776,-0.047585342517495154,0.003461282902397215
1746728595550634000,7.550634033203125,-0.04370645525753498,-0.04087736931145191,-0.00879849747819826
1746728595560653000,7.560653076171875,-0.054848319257795805,-0.03790332193672657,-0.007585459293471649
1746728595570672000,7.570672119140625,-0.04858195233941078,-0.030416765573620795,-0.010572667543869464
1746728595580691000,7.58069091796875,-0.03916851956695318,-0.04328209236562252,-0.013350872686086222
1746728595590710000,7.5907099609375,-0.04212444676309824,-0.039400867018103594,-0.012555146597977728
1746728595600729000,7.60072900390625,-0.04587123207598924,-0.030904256829619406,-0.004253766720648855
1746728595610748000,7.610747802734375,-0.050686523403227324,-0.03003448825776577,0.0018042729429900645
1746728595620767000,7.62076708984375,-0.03646700552329421,-0.03796820386648178,-0.005693782061664388
1746728595630786000,7.6307861328125,-0.04347556911110878,-0.036327450922131535,-0.006313831922458484
1746728595640805000,7.64080517578125,-0.05736000981777906,-0.030202246040105817,-0.009785499221552163
1746728595650824000,7.650823974609375,-0.05021335293352604,-0.03726210142374038,-0.006039517626259476
1746728595660843000,7.660843017578125,-0.05013678056597709,-0.047156303450465197,0.0030073833887465295
1746728595670862000,7.670862060546875,-0.04372092217430472,-0.038059973803162575,-0.0024061386931221933
1746728595680881000,7.680880859375,-0.04026011419594288,-0.03420914359390735,-0.008554971045907587
1746728595690900000,7.69089990234375,-0.03645458443313837,-0.03676759590506554,-0.004889854400791227
1746728595700919000,7.7009189453125,-0.03187982386350632,-0.042508769905567165,-0.006133954444061965
1746728595710937900,7.710937744140625,-0.040794221072643994,-0.038783027380704875,-0.007916481346124783
1746728595720957000,7.72095703125,-0.046102995005249975,-0.03614215748310089,-0.0011932557720225304
1746728595730975700,7.730975830078125,-0.038500557177513835,-0.044700726991891856,-0.01529544914891012
1746728595740994800,7.740994873046875,-0.04891776016503572,-0.03334171310961246,-0.01637789235706441
1746728595751014000,7.751013916015625,-0.046956250833719966,-0.039481531038880344,-0.015692732237651944
1746728595761032700,7.76103271484375,-0.049831660139560696,-0.049534723019599915,0.002895922370906919
1746728595771051800,7.7710517578125,-0.04558043243587017,-0.03880757730007171,0.004071295426366851
1746728595781070800,7.78107080078125,-0.033841771586239335,-0.03912321912050247,-0.006971556045673787
1746728595791090000,7.79108984375,-0.039028526574373244,-0.03902034326791763,0.0007781630319543182
1746728595801108700,7.801108642578125,-0.036207477804273365,-0.03426058152019977,-0.011728477382333949
1746728595811127800,7.8111279296875,-0.03754822488874197,-0.043425884750485415,-0.004737431184900925
1746728595821147000,7.82114697265625,-0.05103080679625272,-0.03896890534162521,-0.013151157996058463
1746728595831166000,7.831166015625,-0.044147623153775926,-0.04214636633396148,-0.006312297552498057
1746728595841184800,7.841184814453125,-0.03222966021448374,-0.04022621192634106,-0.001094197578029707
1746728595851203800,7.851203857421875,-0.036675241446495054,-0.04221767800450325,-0.01697502713315189
1746728595861223000,7.861222900390625,-0.04673661673367023,-0.03940203606188297,-0.005446638900181279
1746728595871241700,7.87124169921875,-0.04240457887873053,-0.04003331970274448,-0.006783769255457445
1746728595881260800,7.8812607421875,-0.04409165518283844,-0.03497019109427929,-0.0077546875136904414
1746728595891280000,7.89127978515625,-0.05214505164846778,-0.040398645883798594,-0.005798722007172182
1746728595901299000,7.901298828125,-0.047184652762115,-0.047885786768794056,-0.010477098214905708
1746728595911317800,7.91131787109375,-0.04747165300995111,-0.04935118314623833,-0.01068790055452846
1746728595921336800,7.9213369140625,-0.042843116426467896,-0.03782733409106731,-0.02227546249567531
1746728595931356000,7.93135595703125,-0.035601474735140796,-0.031259061616659166,0.00717629397069104
1746728595941375000,7.941375,-0.029692542952299117,-0.035949265259504315,-0.024525232450151816
1746728595951393800,7.951393798828125,-0.028816929161548613,-0.038224224454164506,0.005821701023960486
1746728595961412900,7.961412841796875,-0.04703355385363102,-0.05065349791646003,-0.006411684540053829
1746728595971432000,7.971431884765625,-0.06901333047151566,-0.036626726129651066,-0.011656517257820815
1746728595981451000,7.981450927734375,-0.04892272860109806,-0.0438186834603548,-0.016941736784903332
1746728595991469800,7.9914697265625,-0.043213703304529186,-0.03915186069309711,-0.012025131374504417
1746728596001489000,8.001489013671875,-0.041129298245906824,-0.04229425037205219,-0.005119160511484369
1746728596011508000,8.011508056640626,-0.041569443228840826,-0.04768237315118313,-0.016757310995552686
1746728596021526800,8.02152685546875,-0.036194179931282995,-0.04573240812718868,-0.009609101475030184
1746728596031545900,8.0315458984375,-0.025397914498299357,-0.04139934735894203,-0.0017346326397266237
1746728596041565000,8.04156494140625,-0.04305222913250327,-0.04263151950240135,0.0017847645249217748
1746728596051584000,8.051583984375,-0.051185997357964516,-0.04070844248533249,-0.007948246457567438
1746728596061602800,8.061602783203124,-0.05228475238010287,-0.040431379109621045,0.0012482830280438064
1746728596071622000,8.071621826171874,-0.04839198272526264,-0.04028174150586128,-0.008605057265330106
1746728596081641000,8.081640869140625,-0.05132043739259243,-0.0426554848998785,-0.010951985717657953
1746728596091660000,8.091659912109375,-0.04860474869310855,-0.0361895037561655,-0.007844621686311438
1746728596101678800,8.101678955078125,-0.032658991542458535,-0.04320668904185295,-0.00820412091477774
1746728596111698000,8.111697998046875,-0.04368482794761658,-0.03540273729264736,-0.015013408203981816
1746728596121717000,8.121717041015625,-0.04138064265847206,-0.04185176730155945,-0.010461654050601645
1746728596131736000,8.131736083984375,-0.040540684702992436,-0.04007774336636066,-0.01034840293447487
1746728596141755000,8.1417548828125,-0.04376607649028301,-0.036053894677758214,-0.009222969967965036
1746728596151774000,8.15177392578125,-0.05556991153061389,-0.04507189839184284,-0.0056627019368112085
1746728596161793000,8.16179296875,-0.053125148726999756,-0.04239069648385048,-0.005809316466422751
1746728596171811800,8.171811767578125,-0.042243104706704615,-0.037142274436354636,-0.01676173144234344
1746728596181831000,8.181830810546876,-0.04803425532877445,-0.03906184432208538,-0.010751522108959034
1746728596191850000,8.19185009765625,-0.037356209447979925,-0.0408691860049963,0.0005521631231997162
1746728596201869000,8.201869140625,-0.03321881738230586,-0.03367313702106475,-0.0029181159364059565
1746728596211887900,8.211887939453124,-0.03364244962185621,-0.03607376842200756,0.010974973867600784
1746728596221907000,8.221906982421874,-0.03850421043932438,-0.04390753078758716,0.008455136533780022
1746728596231926000,8.231926025390624,-0.042401802399754523,-0.043155835637450214,-0.02421452253316529
1746728596241945000,8.241945068359374,-0.050887891194224356,-0.0431651879876852,0.0016294095664285122
1746728596251964000,8.2519638671875,-0.04837722354754805,-0.04210954145491123,-0.02943610223950818
1746728596261983000,8.26198291015625,-0.036603345254063606,-0.04288169487118721,0.00884119497560896
1746728596272002000,8.272001953125,-0.04071253413856029,-0.04293722445070743,-0.007286056221788749
1746728596282020900,8.282020751953125,-0.04399272485300898,-0.038899931758642196,-0.010162725902954115
1746728596292040000,8.2920400390625,-0.047448856656253334,-0.03949439052045345,-0.009625066229142248
1746728596302059000,8.30205908203125,-0.04415039963275194,-0.037699908319115634,-0.013681438081013037
1746728596312078000,8.312078125,-0.05056801159009337,-0.05192074137330055,-0.015544309343444182
1746728596322097000,8.322096923828125,-0.0468970679923892,-0.042511107993125914,-0.004857888359948993
1746728596332116000,8.332115966796875,-0.041948213413357735,-0.03820844236314296,-0.020366313539259134
1746728596342135000,8.342135009765625,-0.041189796261489386,-0.03114449532628059,-0.008327235837792978
1746728596352154000,8.352154052734376,-0.03991232367157936,-0.048071080207824704,-0.020079505087668075
1746728596362173400,8.36217333984375,-0.04300079120621085,-0.03278758635818958,-0.00016940175015479325
1746728596372192500,8.372192626953124,-0.03273658682331443,-0.03909340850412845,0.0013057488363236189
1746728596382211300,8.38221142578125,-0.054826984208822246,-0.04359481157660484,0.000009772475343197584
1746728596392230400,8.39223046875,-0.048158758491277695,-0.03804360719025135,-0.0046874910959508265
1746728596402248700,8.402248779296874,-0.05572422530949116,-0.038922143590450285,-0.006370631010457873
1746728596412268300,8.412268310546875,-0.04854249711185694,-0.038323008653521534,-0.008406694282172247
1746728596422286600,8.42228662109375,-0.0337605230435729,-0.03565758883655071,-0.013717431843001395
1746728596432305700,8.4323056640625,-0.034934389128535984,-0.04437865543067455,-0.00815038143354468
1746728596442324500,8.442324462890625,-0.02850596351623535,-0.044562779825925825,-0.007892853875365109
1746728596452343600,8.452343505859375,-0.04149608573168516,-0.04292611853480339,-0.0030287915029563006
1746728596462362600,8.462362548828125,-0.03868950387835502,-0.03442424764931202,-0.00984508392168209
1746728596472381700,8.472381591796875,-0.0385556483656168,-0.0358019657433033,-0.006111623881245032
1746728596482400500,8.482400390625,-0.04212693098112941,-0.04077800059020519,-0.005799699254706502
1746728596492419600,8.492419677734375,-0.05051438170671463,-0.038680736050009726,-0.008042884204769507
1746728596502438700,8.502438720703125,-0.04964928930997848,-0.03302139511406421,-0.012475176696944982
1746728596512457700,8.512457763671875,-0.04337912299931049,-0.041214053919911384,-0.012838877176493405
1746728596522476500,8.5224765625,-0.04415697550401091,-0.04551204337477684,-0.0028381095027551055
1746728596532495600,8.53249560546875,-0.039324879172444344,-0.042046997612714763,-0.009235911647928878
1746728596542514700,8.5425146484375,-0.030667233203351497,-0.04267594316601753,-0.0043658396598417306
1746728596552533500,8.552533447265626,-0.045673955938220025,-0.039110359638929365,-0.011599069715850055
1746728596562552600,8.562552490234374,-0.04135492369532585,-0.042431613016128536,-0.008724190132971852
1746728596572571400,8.5725712890625,-0.05082184022068977,-0.04021276792287826,-0.007641144136618822
1746728596582590500,8.582590576171874,-0.040489246776700016,-0.03871872997283935,-0.006440828436147421
1746728596592609300,8.592609375,-0.044264381401240824,-0.03990881654024124,-0.009328695364762097
1746728596602628400,8.60262841796875,-0.0465332031160593,-0.045104631617665286,-0.007835698594339191
1746728596612647400,8.6126474609375,-0.04109598049819469,-0.04208849866688251,-0.007244564300775528
1746728596622666500,8.62266650390625,-0.04147051289901137,-0.04057634053826332,-0.011381947233295067
1746728596632685300,8.632685302734375,-0.0335134164147079,-0.0374748673915863,-0.004798331059282645
1746728596642704400,8.642704345703125,-0.03804068458080292,-0.047376083680987356,-0.014281559398630633
1746728596652723500,8.652723388671875,-0.04106821570843458,-0.046803836750984186,-0.012098835931532085
1746728596662742500,8.662742431640625,-0.054067398013174534,-0.04130640837848186,-0.006405346130812541
1746728596672761300,8.67276123046875,-0.0505493068896234,-0.046376551249623296,0.0015115462072659283
1746728596682780400,8.682780517578125,-0.04851093292981386,-0.04961947869360447,-0.010991212616348639
1746728596692799500,8.692799560546876,-0.037159225571155544,-0.03928922333717346,0.0006948229969013481
1746728596702818300,8.702818359375,-0.028670798689126968,-0.04455167391002178,-0.0012194953249767423
1746728596712837400,8.71283740234375,-0.036554683806747194,-0.040406829190254206,-0.010334940664703026
1746728596722856400,8.7228564453125,-0.04671440490186214,-0.040111645635962485,-0.012220270354114472
1746728596732875500,8.73287548828125,-0.04841682490557432,-0.03938566944897175,-0.010721510563185438
1746728596742894300,8.742894287109374,-0.045559681908786294,-0.032572482302784915,-0.004048800466768443
1746728596752913400,8.752913330078124,-0.03906418240964413,-0.02947802341878414,-0.008444870868092402
1746728596762932500,8.762932373046874,-0.03731222417578101,-0.03650163844525814,-0.008190603846078738
1746728596772951600,8.77295166015625,-0.04474909617826342,-0.03872223710417747,-0.015701974990032612
1746728596782970400,8.782970458984375,-0.045185880160331725,-0.044411388656497,-0.010323716017790138
1746728596792989400,8.792989501953125,-0.03518675645440816,-0.03336743207275867,-0.003167524120211601
1746728596803008500,8.803008544921875,-0.029583091228455302,-0.04044891476631164,-0.009163303069444373
1746728596813027600,8.813027587890625,-0.03236775351092219,-0.042594110101461406,0.005104629662632942
1746728596823046400,8.82304638671875,-0.04538812473416328,-0.03409866895675659,-0.0031298589909449217
1746728596833065500,8.8330654296875,-0.04663374088108539,-0.03861234698891639,0.005201550698466599
1746728596843084500,8.84308447265625,-0.03842939163744449,-0.03370236311554908,-0.01038013151329942
1746728596853103400,8.853103271484375,-0.040715310617536304,-0.04210778788924217,-0.012063033965788781
1746728596863122400,8.863122314453125,-0.036004210317134855,-0.04766308392882347,-0.006364831457333639
1746728596873141500,8.8731416015625,-0.039380993273854255,-0.045099955442547794,-0.011686154344258829
1746728596883160600,8.88316064453125,-0.03957622358500957,-0.042995092117786404,-0.009491722173057496
1746728596893179400,8.893179443359376,-0.030789398278295993,-0.04212356998026371,-0.007635317184031009
1746728596903198500,8.903198486328124,-0.04071428770422935,-0.0427466703146696,-0.0021329021091572938
1746728596913217500,8.913217529296874,-0.04637991225048899,-0.03844751181602478,-0.00772561668283306
1746728596923236600,8.923236572265624,-0.0393866923622787,-0.03952069400548935,-0.01713912252052687
1746728596933255400,8.93325537109375,-0.04574629052206874,-0.0494131424665451,-0.025561224434385073
1746728596943274500,8.9432744140625,-0.039310119994729754,-0.043427638316154475,-0.011895760240638627
1746728596953293600,8.95329345703125,-0.0300461786955595,-0.04061550350487232,-0.00827536865323782
1746728596963312400,8.9633125,-0.03511164539158344,-0.04855097267925739,-0.013904204853065311
1746728596973331500,8.97333154296875,-0.02696399477124214,-0.033040099814534186,-0.004801737725920975
1746728596983350500,8.9833505859375,-0.03898731778115034,-0.03740180215537548,-0.009846143367607146
1746728596993369600,8.99336962890625,-0.03553103984743357,-0.04368833507895469,-0.007772140971990302
1746728597003388400,9.003388427734375,-0.038447365685552355,-0.039815293037891386,-0.0020611703135073184
1746728597013407500,9.013407470703125,-0.036949382212758064,-0.03817161748409271,-0.0045902138670906424
1746728597023426600,9.023426513671875,-0.04627221409231424,-0.03262450475096702,-0.01160822113668546
1746728597033445600,9.033445556640626,-0.042859483039379115,-0.04485387172698974,-0.008567118141427636
1746728597043464400,9.04346435546875,-0.03196516405940056,-0.035270050823688504,-0.009360588340368122
1746728597053483500,9.0534833984375,-0.03810410520583391,-0.03661678925752639,-0.007429720742488279
1746728597063502600,9.063502685546876,-0.028936610018461942,-0.048181554844975466,-0.0056576239028945565
1746728597073521700,9.073521728515624,-0.036464521305263044,-0.04341653240025043,-0.002462471990240738
1746728597083540500,9.08354052734375,-0.038783904163539405,-0.04343406805694103,-0.005880984329991042
1746728597093559600,9.0935595703125,-0.040725393620133395,-0.032547932383418084,-0.01210585932736285
1746728597103578600,9.10357861328125,-0.03691898707449436,-0.03779986156225204,-0.011767284155916422
1746728597113597400,9.113597412109375,-0.038350481182336804,-0.041972178810834884,-0.010008896181266755
1746728597123616500,9.123616455078125,-0.04228182928189635,-0.04106441631615162,-0.014779288920853286
1746728597133634600,9.133634521484375,-0.040850919695943594,-0.03955284270942211,-0.014485329209268092
1746728597143653400,9.1436533203125,-0.02969809591025114,-0.03837269301414489,-0.018818965366249902
1746728597153672400,9.15367236328125,-0.04426978822872042,-0.04093757506608963,-0.01175596817745827
1746728597163691500,9.16369140625,-0.04220131139159202,-0.034681437280774115,-0.0021092015731614083
1746728597173710600,9.173710693359375,-0.04338964439332485,-0.03969137439727783,-0.009147667108895257
1746728597183729400,9.1837294921875,-0.04633329662978649,-0.04793313304185867,-0.0042081100811716165
1746728597193748500,9.19374853515625,-0.03890636149942875,-0.04376432292461395,-0.004914824445266276
1746728597203767600,9.203767578125,-0.041333150254935024,-0.04136193795800209,-0.008584105808846653
1746728597213786600,9.21378662109375,-0.03375467782467603,-0.04778466448187828,-0.013284008861798792
1746728597223805400,9.223805419921876,-0.030477994241565463,-0.0384685546040535,-0.008802169006317853
1746728597233824500,9.233824462890626,-0.035198739153146745,-0.036986791613698,-0.006959911273652687
1746728597243843600,9.243843505859376,-0.04131108455359935,-0.03534662319123745,-0.0028054950079414993
1746728597253862700,9.253862548828126,-0.0434244234457612,-0.043158173725008964,-0.008093628011317923
1746728597263881500,9.263881591796874,-0.034739012686908245,-0.04899637835919857,-0.0057466538932174445
1746728597273900500,9.273900634765624,-0.03877528246566653,-0.04241290831565857,-0.002162100804178044
1746728597283919600,9.283919677734374,-0.046074061171710486,-0.045263037049770354,-0.00939429881372489
1746728597293938400,9.2939384765625,-0.032045097427815195,-0.03702303197085857,-0.0027118345082737506
1746728597303957500,9.30395751953125,-0.043565000960230825,-0.04675064525902271,-0.01283445672970265
1746728597313976600,9.3139765625,-0.03371580711901188,-0.050369420278072355,-0.005266743155475705
1746728597323995600,9.32399560546875,-0.03563113922104239,-0.03840601076185703,-0.0005074928644113242
1746728597334014500,9.334014404296875,-0.03427738652452826,-0.036759997120499606,-0.013678268876392393
1746728597344033500,9.344033447265625,-0.039334085392206904,-0.03287701820731163,-0.006502057104092091
1746728597354052600,9.354052490234375,-0.03833674491792917,-0.0430430229127407,-0.006809890077402815
1746728597364071700,9.36407177734375,-0.034598727433383464,-0.04109539597630501,-0.006707872741343453
1746728597374090800,9.3740908203125,-0.03688274671733379,-0.03730827865302563,-0.005838177234726026
1746728597384109800,9.38410986328125,-0.03300064458698034,-0.040897243055701256,0.0052700493574142455
1746728597394128600,9.394128662109376,-0.03773717158958315,-0.03713409112989902,-0.005252194040315225
1746728597404147700,9.404147705078126,-0.04563216262310743,-0.04503974968791008,-0.005331634218385443
1746728597414166800,9.414166748046876,-0.03792553376853466,-0.041728433182835575,-0.0048569841776508835
1746728597424185600,9.424185546875,-0.023630758695304392,-0.03228489753305912,-0.006887384893558919
1746728597434204700,9.43420458984375,-0.032540625859797,-0.04034545439183712,-0.00634975261921063
1746728597444223700,9.4442236328125,-0.05462590867877006,-0.043351650470495225,-0.016685780129302292
1746728597454242800,9.454242919921874,-0.04910743751823902,-0.038408933371305465,-0.00751829407508485
1746728597464261600,9.46426171875,-0.044070320133864874,-0.04352057729661465,-0.008887509202212094
1746728597474280700,9.47428076171875,-0.0398963954500854,-0.046211131554841994,0.0024081114544998853
1746728597484299800,9.4842998046875,-0.03294131561517715,-0.03410626774132251,-0.0027798034442588684
1746728597494318800,9.49431884765625,-0.0333662630289793,-0.04249123424887657,-0.01051160327270627
1746728597504337700,9.504337646484375,-0.03600099544674158,-0.04579729005694389,-0.006296150135295465
1746728597514356700,9.514356689453125,-0.036987230005115265,-0.04311667267084122,-0.010951702589867636
1746728597524375600,9.52437548828125,-0.039678222654759884,-0.0371305839985609,-0.007691741812694817
1746728597534394600,9.53439453125,-0.03641922085881233,-0.04373977300524711,-0.005615529193682596
1746728597544413400,9.544413330078125,-0.0529587061189115,-0.03926642698347568,-0.006628469095891341
1746728597554432500,9.5544326171875,-0.04053279365748167,-0.04409223970472812,-0.01191957037448883
1746728597564451600,9.56445166015625,-0.032609307181835176,-0.04483984320163727,-0.009327206660574301
1746728597574470400,9.574470458984376,-0.044144700544327495,-0.03780336869359016,-0.009260662496695294
1746728597584488700,9.58448876953125,-0.03953706061840057,-0.039326632738113404,-0.0041242403231561186
1746728597594507800,9.5945078125,-0.04212941519916057,-0.042344519254565234,-0.011232455760007724
1746728597604526600,9.604526611328126,-0.03139277099892497,-0.04192132540643215,-0.009545635184226558
1746728597614545700,9.614545654296874,-0.035248131252825256,-0.04133154281973839,0.005106355828838422
1746728597624564700,9.624564697265624,-0.0372615169018507,-0.04269640143215656,-0.010535422539710997
1746728597634583800,9.634583740234374,-0.04595613388046622,-0.042241643401980396,0.00020204364443197846
1746728597644602600,9.6446025390625,-0.037681788140535355,-0.0425508554816246,-0.007235102352686226
1746728597654621700,9.65462158203125,-0.03855155671238899,-0.04004851727187633,0.0019601028255186973
1746728597664640800,9.664640869140625,-0.035355391019582745,-0.038679567006230355,-0.0006129990654997527
1746728597674659800,9.674659912109375,-0.0305342544734478,-0.04964636670053005,-0.0037802583242300897
1746728597684678700,9.6846787109375,-0.03810439746677875,-0.046367783421277994,-0.006300214389059693
1746728597694697700,9.69469775390625,-0.034643881749361755,-0.04146890546381473,-0.0025110695054754613
1746728597704716800,9.704716796875,-0.035490123315155504,-0.043240006789565084,-0.0035876583615783598
1746728597714735900,9.71473583984375,-0.03348521323353052,-0.042805122503638264,-0.01344746492835693
1746728597724754700,9.724754638671875,-0.03451017236709594,-0.046700376376509665,-0.009275156812928616
1746728597734773800,9.734773681640625,-0.04114215772747993,-0.04627542896270752,-0.006271280555520206
1746728597744792600,9.74479248046875,-0.035120851611346,-0.03876549172401428,0.000017480857763439414
1746728597754811600,9.754811767578126,-0.03215221106410027,-0.05121522345244884,-0.0010807809740304947
1746728597764830500,9.76483056640625,-0.03766892865896225,-0.04463818314969539,-0.010411887491587548
1746728597774849500,9.774849609375,-0.045208384253084655,-0.037892216020822524,-0.005800941363722086
1746728597784868600,9.78486865234375,-0.04031374407932162,-0.04263444211184978,-0.020147446624189613
1746728597794887400,9.794887451171874,-0.03492211416885257,-0.042300680112838746,-0.015000667453417554
1746728597804906500,9.804906494140624,-0.034872283677756785,-0.03954816653430462,-0.011103806145349516
1746728597814925600,9.814925537109374,-0.04421849643290043,-0.04462006297111511,-0.0038112379843834787
1746728597824944600,9.824944580078125,-0.040406244668364524,-0.05103694427609443,-0.00795139739587903
1746728597834963500,9.83496337890625,-0.027345395304262637,-0.04147182807326317,0.0029137320222333072
1746728597844982500,9.844982421875,-0.040179888566583395,-0.04986263979971409,-0.014578578716982156
1746728597855001600,9.855001708984375,-0.03189896695539355,-0.03700608083605766,-0.0117723713229876
1746728597865020400,9.8650205078125,-0.03053703095242381,-0.04673720125555992,-0.004514025092031806
1746728597875039500,9.87503955078125,-0.03493029747530818,-0.038494273567199706,-0.0006005505758803337
1746728597885058600,9.88505859375,-0.039251667805761094,-0.037599370554089545,-0.004839859512913972
1746728597895077600,9.89507763671875,-0.035944004562497134,-0.03565583527088165,-0.003799127421481535
1746728597905096400,9.905096435546875,-0.043080432313680646,-0.04539221638739109,-0.010910228935163467
1746728597915115500,9.915115478515625,-0.035814240702986715,-0.03613338965475559,-0.004557307111332193
1746728597925134600,9.925134521484376,-0.0419398839764297,-0.04152385052144527,-0.007765044510923326
1746728597935153700,9.935153564453126,-0.038887656798958774,-0.03644903147518635,-0.002159662251919508
1746728597945172500,9.94517236328125,-0.041455169199407095,-0.0346469504892826,-0.005681041311100125
1746728597955190800,9.955190673828126,-0.03829246738478541,-0.04018763348162174,-0.009523651681281626
1746728597965209600,9.965209716796876,-0.042352118039131165,-0.038871290186047555,-0.014411131461896001
1746728597975228700,9.975228759765624,-0.030125381411612032,-0.04394903184175491,-0.010838396674813702
1746728597985247500,9.98524755859375,-0.03963730612248182,-0.04830430444180965,-0.009093023445364088
1746728597995266600,9.9952666015625,-0.041649522727727886,-0.042971126720309255,-0.005004548555333167
1746728598005285600,10.00528564453125,-0.0365938467733562,-0.04165244533717632,-0.005903095697099342
1746728598015304400,10.015304443359375,-0.037243396723270414,-0.03954582844674587,-0.006580136442137881
1746728598025323500,10.025323486328125,-0.03634177170842886,-0.038650925433635706,-0.005491007764870301
1746728598035342600,10.035342529296875,-0.04343143770843744,-0.031339141115546226,-0.00642039756947197
1746728598045361400,10.045361328125,-0.032905952040851116,-0.044369303080439564,-0.0060079077784437685
1746728598055380500,10.05538037109375,-0.03364785644933581,-0.04350771781504154,0.0078119980583433056
1746728598065399600,10.065399658203125,-0.04358604374825954,-0.0382896909058094,-0.0076370068176183845
1746728598075418600,10.075418701171875,-0.03806289641261101,-0.035927637949585915,-0.005112630305998027
1746728598085437400,10.0854375,-0.02783653982207179,-0.04450374311506748,-0.01257146754511632
1746728598095456500,10.09545654296875,-0.023369039019197225,-0.035438393127918244,-0.006838896976178512
1746728598105475600,10.1054755859375,-0.03451134141087532,-0.040243747583031654,-0.007994752480415626
1746728598115494700,10.11549462890625,-0.031420681919157506,-0.04463993671536445,0.003078147070016712
1746728598125513500,10.125513427734376,-0.04267243603467941,-0.03542494912445545,-0.005416828283807263
1746728598135532500,10.135532470703126,-0.04309679892659187,-0.04504208777546882,-0.004817163623915985
1746728598145551600,10.145551513671874,-0.03366875310689211,-0.0402548534989357,-0.007707514770561829
1746728598155570700,10.15557080078125,-0.03957417775839567,-0.035486908444762225,-0.001371133089577779
1746728598165589500,10.165589599609374,-0.039300329253077505,-0.04296294341385364,-0.0063668407513294365
1746728598175608600,10.175608642578124,-0.04119812569841742,-0.04256137687563896,0.0043713195525575425
1746728598185627600,10.185627685546875,-0.03340250338613987,-0.03975450276136398,-0.002824948627082631
1746728598195646500,10.195646484375,-0.04323708418011665,-0.03632160570323467,-0.007990898289205507
1746728598205665500,10.20566552734375,-0.03913023338317871,-0.03532382683753967,-0.0038596893691457807
1746728598215684600,10.2156845703125,-0.026079467021673915,-0.04419570007920265,0.004964536205353215
1746728598225703700,10.22570361328125,-0.03237111451178789,-0.039704233878850935,-0.004042927848407998
1746728598235722500,10.235722412109375,-0.03923544732332229,-0.0406032285451889,-0.0003646046618465334
1746728598245741600,10.245741455078125,-0.030893735435605047,-0.039731121885776516,-0.003078713325597346
1746728598255760600,10.2557607421875,-0.03475099538564682,-0.04935176766812801,-0.010005032856902107
1746728598265779700,10.26577978515625,-0.04820055180639028,-0.042920273315906525,-0.0013166355565190314
1746728598275798500,10.275798583984376,-0.03807546363323927,-0.03950198930501938,-0.00849568773987703
1746728598285817600,10.285817626953126,-0.035969577395170926,-0.03998831151723861,-0.007292869555065408
1746728598295835600,10.295835693359376,-0.03424465329870582,-0.05081657952368259,-0.01616077900766395
1746728598305854500,10.3058544921875,-0.03740121763348579,-0.043779520493745804,0.0061616735680494455
1746728598315873500,10.31587353515625,-0.042970542198419566,-0.04287526513040066,0.005297476220456883
1746728598325892600,10.325892578125,-0.02465162617564201,-0.04876315412521362,-0.011125104661704972
1746728598335911400,10.335911376953124,-0.035710195806622505,-0.04397884245812893,0.0013809786301571874
1746728598345930500,10.345930419921874,-0.035551205852627756,-0.047124739268422124,-0.009334485784731806
1746728598355949600,10.355949462890624,-0.028990532162785528,-0.04442483265995979,-0.011082425430603325
1746728598365968600,10.36596875,-0.03697261695787311,-0.05372282235920429,-0.012675914300279692
1746728598375987500,10.375987548828125,-0.0262859493792057,-0.04894961660802364,-0.011397774990089237
1746728598386006500,10.386006591796875,-0.03975961732789874,-0.03701192605495453,0.005719035233929753
1746728598396025600,10.396025634765625,-0.029037293913960455,-0.04481763136982918,-0.01425474445694126
1746728598406044700,10.406044677734375,-0.0380108739644289,-0.044704818645119666,-0.0034285040108021345
1746728598416063500,10.4160634765625,-0.032413200087845324,-0.050555298238992685,-0.008204952031839638
1746728598426082600,10.42608251953125,-0.0316670578956604,-0.04190963496863842,0.0015859266177285461
1746728598436101600,10.4361015625,-0.03755845402181148,-0.04522270503938198,0.004358524003066122
1746728598446120700,10.44612060546875,-0.04016366808414459,-0.05227496163845062,-0.0062954742818605155
1746728598456139500,10.456139404296875,-0.04536065220534801,-0.03975041110813617,-0.008258700646227225
1746728598466158600,10.46615869140625,-0.04332227824553847,-0.04003858039975166,-0.005105588643858209
1746728598476177700,10.476177734375,-0.02749854003936052,-0.04796060557067394,-0.002418093992397189
1746728598486196500,10.486196533203126,-0.0225857796870172,-0.040024551874399183,-0.007557630571629852
1746728598496215600,10.496215576171876,-0.028787703067064283,-0.0437491253554821,-0.010190472426405176
1746728598506234600,10.506234619140624,-0.03625248598977923,-0.041323359513282774,-0.006595580606441945
1746728598516253700,10.516253662109374,-0.02497179804071784,-0.032174422895908356,-0.003761973748868331
1746728598526272500,10.5262724609375,-0.02473039050027728,-0.04293488636314869,-0.01007914840588346
1746728598536291600,10.53629150390625,-0.03875409354716539,-0.046236850517988204,-0.01205246690600179
1746728598546310700,10.546310546875,-0.030060207220911978,-0.03741173902750015,0.002796206589788198
1746728598556329700,10.556329833984375,-0.03640168520212173,-0.03904313962161541,-0.004475391848385334
1746728598566348500,10.5663486328125,-0.029767946276068685,-0.04414426215291023,-0.004896640334604308
1746728598576367600,10.57636767578125,-0.03386135306954384,-0.0454787256270647,-0.0034429709275718774
1746728598586385700,10.5863857421875,-0.034653964751958845,-0.03667407240271568,-0.012491625508246942
1746728598596404500,10.596404541015625,-0.02953676786869764,-0.035520226192474365,-0.008382007365487516
1746728598606423600,10.606423583984375,-0.02680938873142004,-0.046751814302802085,-0.0069449785660021
1746728598616442600,10.616442626953125,-0.03216390150189399,-0.037893385064601895,0.0011784874611534177
1746728598626461700,10.626461669921875,-0.030032150170207023,-0.03550795123279094,0.01161996637340635
1746728598636480500,10.63648046875,-0.033980303274095056,-0.05318623126447201,-0.02556327026099898
1746728598646499600,10.64649951171875,-0.0386380659520626,-0.03477612982690334,0.005024623228982091
1746728598656518700,10.6565185546875,-0.04678747013807297,-0.04493628931343555,-0.0037619554825592785
1746728598666537500,10.666537353515626,-0.030742928788065907,-0.03835807996690273,-0.0035200456186197694
1746728598676556500,10.676556640625,-0.03660860595107078,-0.048825113445520395,-0.006415785326436161
1746728598686575600,10.68657568359375,-0.02344868012666702,-0.044184594163298604,0.00224595229588449
1746728598696594700,10.6965947265625,-0.027648762165009975,-0.044185178685188294,-0.010535605202801526
1746728598706613500,10.706613525390624,-0.025451690512150526,-0.03672843293845653,0.0032745829575695096
1746728598716632600,10.716632568359374,-0.02676847219914198,-0.04376841457784176,-0.016505573857342824
1746728598726651600,10.726651611328125,-0.035572248640656466,-0.04092939175963402,-0.002626823105942458
1746728598736670700,10.736670654296875,-0.036369974889606235,-0.05154080214500427,-0.0012647957714274525
1746728598746689500,10.746689453125,-0.0317149886906147,-0.045375265252590176,-0.006476895263371989
1746728598756708600,10.75670849609375,-0.02955254995971918,-0.04356032478511333,-0.007784196735965088
1746728598766727700,10.766727783203125,-0.04477086961865425,-0.0356406377017498,-0.008135777519457042
1746728598776746800,10.776746826171875,-0.03602671440988779,-0.03771510588824749,-0.0048153826587833464
1746728598786765600,10.786765625,-0.029383623133599757,-0.03817804722487926,-0.016627976394305004
1746728598796784600,10.79678466796875,-0.03447320135757327,-0.043864276167750356,-0.004406536996411159
1746728598806803700,10.8068037109375,-0.02068038445711136,-0.042110710498690605,-0.006551156942825764
1746728598816822500,10.816822509765625,-0.04306465022265911,-0.04796002104878425,-0.0034717677637934683
1746728598826841600,10.826841552734376,-0.040718233226984736,-0.0460018727183342,-0.004398481554118916
1746728598836860700,10.836860595703126,-0.04223272944316268,-0.03653670975863933,-0.01154827111037448
1746728598846879700,10.846879638671876,-0.05021744458675384,-0.03948211556077003,-0.009983396413829178
1746728598856897500,10.8568974609375,-0.03941226519495249,-0.03814122234582901,-0.006703443161398172
1746728598866916600,10.86691650390625,-0.030818039850890634,-0.039352936223149296,-0.0036188480842858552
1746728598876935700,10.876935791015624,-0.017642478065937755,-0.0474351203918457,-0.014138315003039314
1746728598886954500,10.88695458984375,-0.024041969844698904,-0.0392132354915142,-0.007549502064101397
1746728598896973600,10.8969736328125,-0.02675882758796215,-0.04160393002033234,-0.01606080749821849
1746728598906992600,10.90699267578125,-0.02609846398308873,-0.046555999469757074,-0.004669544447306544
1746728598917011700,10.91701171875,-0.03634089492559433,-0.041003626039624215,-0.01501377353016287
1746728598927030500,10.927030517578125,-0.030802988412231204,-0.04549216963052749,-0.012521006866358219
1746728598937049600,10.937049560546875,-0.028394612096250056,-0.03965922569334507,0.0014205251892562955
1746728598947068700,10.947068603515625,-0.03637684302181005,-0.04552022668123245,-0.002921285141026601
1746728598957087500,10.95708740234375,-0.023975334349274634,-0.04342179309725761,-0.0004347746880725026
1746728598967106600,10.9671064453125,-0.027147242383658884,-0.03862696003615856,-0.0006510477872565388
1746728598977125600,10.977125732421875,-0.03234159615635872,-0.04091653227806091,-0.001234428032627329
1746728598987144700,10.987144775390625,-0.024037293669581412,-0.045987844192981714,-0.005553332411358133
1746728598997163500,10.99716357421875,-0.0349891880556941,-0.03344809609353542,-0.0032472748255357145
1746728599007182600,11.0071826171875,-0.026101240462064742,-0.04438566969335079,-0.01131074516060762
1746728599017201700,11.01720166015625,-0.04509513313695788,-0.0495920061647892,-0.005910721881128847
1746728599027220700,11.027220703125,-0.037511692270636554,-0.04341010265946388,-0.004535515404632315
1746728599037239600,11.037239501953126,-0.028717852701246736,-0.034389176335930825,-0.015511146859358995
1746728599047258600,11.047258544921876,-0.03162000388354063,-0.0420411523938179,-0.005253874540748074
1746728599057277700,11.057277587890624,-0.03289192351549863,-0.04265665394365787,-0.013754357186751439
1746728599067296800,11.067296875,-0.04084580512940884,-0.045379356905817986,-0.0026894217470660804
1746728599077315600,11.077315673828124,-0.04344985014796257,-0.035489246532320974,-0.00009244579011574387
1746728599087334700,11.087334716796875,-0.035176965712755914,-0.04971300219595432,-0.006855793312052264
1746728599097352700,11.097352783203124,-0.03694514442905784,-0.043100890579819674,-0.012421300218394025
1746728599107371500,11.10737158203125,-0.028216040658950805,-0.036790976780653,-0.0024230167626868933
1746728599117390600,11.117390625,-0.03612447569593787,-0.04696984096765518,-0.0069348407644778485
1746728599127409700,11.12740966796875,-0.03782236565500498,-0.04340133483111858,0.004165366917988285
1746728599137428500,11.137428466796875,-0.026876608748733995,-0.04071194961667061,-0.008004945080867036
1746728599147447600,11.147447509765625,-0.037866497057676314,-0.041595162191987035,-0.010762335763918236
1746728599157466600,11.157466552734375,-0.03591872399076819,-0.04174538431763649,0.0019261548901442437
1746728599167485700,11.167485595703125,-0.034820553490519525,-0.03906242884397507,-0.011992973537417129
1746728599177504500,11.17750439453125,-0.02879354828596115,-0.0432610495775938,-0.009093397904699667
1746728599187523600,11.187523681640625,-0.031658582328259945,-0.04636252272427082,-0.0027666151691228148
1746728599197542700,11.197542724609375,-0.035488662010431285,-0.04637596672773361,-0.011219130487553774
1746728599207561700,11.207561767578126,-0.015503712471574544,-0.051034021666646,-0.012251149549568071
1746728599217580500,11.21758056640625,-0.037335020529478784,-0.046099487873911854,-0.005332556666992605
1746728599227599600,11.227599609375,-0.03538388646170497,-0.049691959407925604,-0.005326601850241423
1746728599237618700,11.23761865234375,-0.04252338295280933,-0.04147124355137348,-0.0007799348639324307
1746728599247637800,11.2476376953125,-0.02421381928026676,-0.04223170652985572,0.0024155458422843367
1746728599257656600,11.257656494140624,-0.032820904105901716,-0.03981763112545013,-0.005140751288784668
1746728599267675600,11.267675537109374,-0.05051467396765947,-0.037680034574866295,-0.0063684390533715485
1746728599277694700,11.27769482421875,-0.027030045744776725,-0.04037351144254207,-0.009259000262571497
1746728599287713500,11.287713623046875,-0.030346769077330825,-0.05039397019743919,-0.007824492213735356
1746728599297732600,11.297732666015625,-0.02854863361418247,-0.045825347107648844,-0.010137984187342226
1746728599307751700,11.307751708984375,-0.03604205810949206,-0.03777823425233364,-0.004785234115691856
1746728599317770800,11.317770751953125,-0.04285626816898584,-0.033304303708672524,-0.0025059549389407037
1746728599327788500,11.32778857421875,-0.02965747163891792,-0.03750175539851188,-0.007845306672900915
1746728599337807600,11.3378076171875,-0.03690028237402439,-0.038384967973828316,0.003037440600292757
1746728599347826700,11.34782666015625,-0.0388156144760549,-0.03917641061246395,0.002080212940694764
1746728599357845500,11.357845458984375,-0.035640491571277376,-0.043188568863272665,-0.0026324856617487963
1746728599367864000,11.367864013671875,-0.030386662696301935,-0.04124678714573383,-0.016680245437659322
1746728599377883100,11.377883056640625,-0.027837854996323585,-0.04858019877374172,-0.005458201473811641
1746728599387902200,11.387902099609375,-0.03396773605346679,-0.045887890949845314,-0.00640770248468034
1746728599397921000,11.397921142578125,-0.035927053427696226,-0.05149111778438091,0.006364374799607321
1746728599407940000,11.407940185546876,-0.03273950943276286,-0.046563598254323005,-0.0048479332215152675
1746728599417959200,11.417959228515626,-0.028871289697289464,-0.04315174398422241,-0.008578087060013785
1746728599427978200,11.427978271484376,-0.040333617823570964,-0.045260698962211604,-0.0010531714478973298
1746728599437997000,11.4379970703125,-0.03728080612421036,-0.04221066374182701,-0.003939914998505265
1746728599448016100,11.44801611328125,-0.03675648998916149,-0.04593348365724086,0.0038694527113344516
1746728599458035200,11.45803515625,-0.02443944472968578,-0.04201660247445106,0.0010135700898710638
1746728599468054000,11.468053955078124,-0.03686754914820194,-0.04242752136290073,-0.012645811422960831
1746728599478073000,11.478072998046875,-0.03158493257015944,-0.042103111714124675,-0.0028927075005136427
1746728599488092200,11.488092041015625,-0.030708734257519243,-0.03988952731788158,-0.000850031824922189
1746728599498111200,11.498111328125,-0.027978432510793207,-0.04109481145441532,0.0029100148283410818
1746728599508130000,11.508130126953125,-0.02334215101227164,-0.04064589864313602,-0.0021811068987473846
1746728599518149000,11.518149169921875,-0.04329904350042343,-0.04354688078165054,-0.0021098226276692004
1746728599528168200,11.528168212890625,-0.03859598037600517,-0.03982055373489857,-0.005206281672511249
1746728599538186000,11.53818603515625,-0.03503682658970356,-0.046431496307253836,-0.002169352528871968
1746728599548205000,11.548205078125,-0.033319355147331954,-0.04165945959985256,-0.000028066183859482406
1746728599558224100,11.55822412109375,-0.026201778227090834,-0.04407411952614784,-0.00424215848124586
1746728599568243200,11.5682431640625,-0.024239538243412972,-0.04411269797086716,-0.00714554263940081
1746728599578262000,11.578261962890625,-0.030587445965409278,-0.042487142595648765,-0.001472017914475873
1746728599588281000,11.588281005859375,-0.04238777387440204,-0.04354045104086399,0.0011585954505950213
1746728599598300200,11.598300048828126,-0.03779869251847267,-0.046670565760135646,-0.01052139401435852
1746728599608319200,11.6083193359375,-0.03406652025282383,-0.04083294564783573,-0.0016991046686191111
1746728599618338000,11.618338134765626,-0.03321136472821235,-0.04489712634682655,0.0004419990133028477
1746728599628357000,11.628357177734374,-0.03583805996999145,-0.041138066074252126,0.0014446001845877616
1746728599638376200,11.638376220703124,-0.039269057331979274,-0.04233925855755806,-0.003134160706726834
1746728599648395000,11.64839501953125,-0.03606470833271742,-0.04459843566119671,-0.008690753654250875
1746728599658414000,11.6584140625,-0.035056992594897744,-0.04204465952515602,-0.009104987877793609
1746728599668433200,11.66843310546875,-0.02825271940752864,-0.037272038295865055,-0.009949046619655564
1746728599678452200,11.6784521484375,-0.028416823928058145,-0.040298692640662194,-0.00274096013805829
1746728599688471000,11.688470947265625,-0.03729644208475947,-0.04151917434632778,-0.005484925083955749
1746728599698490000,11.698489990234375,-0.029456396108865735,-0.05470072748064995,-0.003659481488773599
1746728599708509200,11.70850927734375,-0.044047816041111944,-0.05037818810641765,-0.0053391051387879996
1746728599718528300,11.7185283203125,-0.026172552132606504,-0.04366144707202911,0.006622441213903948
1746728599728547000,11.728547119140625,-0.02691518719345331,-0.038573184022307395,-0.005993513926910236
1746728599738565000,11.738565185546875,-0.034036709636449815,-0.0396358448177576,-0.005087139671714976
1746728599748584200,11.748584228515625,-0.04080591151043773,-0.038428807115554804,-0.0058870761440601195
1746728599758603000,11.75860302734375,-0.027188305046409365,-0.037794600865244866,-0.0012037223671097308
1746728599768622000,11.7686220703125,-0.02957856118381023,-0.04617372215390205,-0.0020273228428326546
1746728599778641200,11.77864111328125,-0.03555880463719368,-0.038428807115554804,-0.0037449312825221567
1746728599788660200,11.78866015625,-0.0401414562523365,-0.04188391600549221,-0.007068029556935653
1746728599798679000,11.798678955078126,-0.03481090887933969,-0.04306815735399723,-0.01293848335975781
1746728599808698000,11.808697998046876,-0.029766777232289314,-0.04724807338714599,-0.007128491039900109
1746728599818717200,11.81871728515625,-0.023214871370792388,-0.04129004176557064,-0.007849124331492931
1746728599828736000,11.828736083984374,-0.02190904946923256,-0.045320320194959636,0.0027972477694042023
1746728599838755000,11.838755126953124,-0.02944149080067873,-0.041301147681474686,-0.0037543932306114583
