time,seconds_elapsed,z,y,x
1746734327446230300,0.015230224609375,-0.044728199520707126,-0.0018813202345743774,-0.00949133858056739
1746734327456197000,0.025197021484375,-0.037245150288939474,0.013338789522647857,0.004453417478594929
1746734327466163200,0.0351630859375,-0.01764379324018955,-0.006265344005078077,-0.004017601610906422
1746734327476130000,0.045130126953125,-0.010459434694051742,-0.01697900918852538,0.005486139793507754
1746734327486097200,0.05509716796875,-0.027962942680716512,-0.008907638674788176,0.005402242636028677
1746734327496064300,0.065064208984375,-0.026915479454398154,0.007200140637159347,-0.0024349537956528363
1746734327506031000,0.075031005859375,-0.02511749012172222,-0.007524477220699191,-0.0052986726636998355
1746734327515997200,0.0849970703125,-0.017784663015604017,-0.004086977052688599,-0.01487308641783893
1746734327525964000,0.094964111328125,-0.010004092141985893,-0.002734722193516791,-0.0004892082890495657
1746734327535931100,0.10493115234375,-0.03887888897061348,-0.006450345183163881,0.009473967320658265
1746734327545898200,0.114898193359375,-0.019124971708655358,-0.0082705098150298,0.0016563158396631478
1746734327555865000,0.124864990234375,-0.002515197691321373,0.005973156125470996,-0.004514025092031806
1746734327565831200,0.1348310546875,-0.030050854870676994,-0.008803812974132597,0.0013760010609403252
1746734327575798000,0.144798095703125,-0.03139642426073551,0.0015977905854582786,-0.006359762556571513
1746734327585765000,0.15476513671875,-0.007905074036121368,-0.019929602622427045,-0.004807199352327734
1746734327595732200,0.164732177734375,-0.010147884526848793,0.004407258515618741,-0.002685476224310696
1746734327605699000,0.174698974609375,-0.04636193820238113,-0.003316467604227364,-0.003449738595075905
1746734327615665200,0.1846650390625,-0.027801614639163016,0.004504362214542925,-0.00023532485952600836
1746734327625632000,0.194632080078125,-0.025855741268396376,0.00626603812482208,0.0045906522585079075
1746734327635599000,0.20459912109375,-0.020468203011155126,-0.008034618699923158,-0.010272241558879614
1746734327645566200,0.214566162109375,-0.0290004690349102,-0.008133549029752612,-0.00722264472991228
1746734327655533000,0.224532958984375,-0.029303251373767852,-0.0002951104890555143,0.0057128977540880435
1746734327665499100,0.2344990234375,-0.023468553870916366,0.0042697497410699725,0.01716258559450507
1746734327675466000,0.244466064453125,-0.021223405292630195,-0.008303754497505724,0.0014432758771814405
1746734327685433000,0.25443310546875,-0.016585224097967147,0.004118212441168725,0.0032608466931618747
1746734327695400200,0.264400146484375,-0.03603752806484699,0.009028305912390351,-0.006585442804917693
1746734327705367000,0.274366943359375,-0.02136953576505184,-0.005452127926051617,-0.007475669642910361
1746734327715333000,0.2843330078125,-0.008052958074212075,-0.011433540423214435,0.001270403528306633
1746734327725300000,0.294300048828125,-0.01987374424934387,0.013011347666569053,-0.0021957564786076545
1746734327735267000,0.30426708984375,-0.0301987389087677,0.016566190603934227,-0.007826291445177049
1746734327745234000,0.31423388671875,0.00003156418204307556,-0.0006719444448128342,-0.0070321453928016125
1746734327755201000,0.324200927734375,-0.011337971094250679,0.0030005700554698706,-0.00900386559087783
1746734327765167400,0.33416748046875,-0.0207657246530056,0.006293547186255455,-0.009868190802633762
1746734327775134200,0.34413427734375,-0.01986906807422638,-0.009873086173459887,0.001557166314125061
1746734327785101000,0.35410107421875,-0.004758592703938484,-0.019534648488089442,-0.006050185150746255
1746734327795068000,0.36406787109375,-0.033793548530340195,-0.011352657206729054,0.0031739355946891006
1746734327805035000,0.374034912109375,-0.030498598638176916,0.00023556232154369353,0.008723112420737743
1746734327815001000,0.3840009765625,-0.022864742758870123,-0.010930340141430496,-0.0005147628554143011
1746734327824968200,0.39396826171875,-0.01807867752611637,-0.018974274658970534,0.006423438909929246
1746734327834935300,0.403935302734375,-0.022866496324539184,-0.017542890148982405,0.012035744100064038
1746734327844902100,0.413902099609375,-0.045757542568445206,-0.0034510172367095944,-0.0025874226773157714
1746734327854869200,0.423869140625,-0.02046411135792732,-0.001189392447657883,-0.009009436815138905
1746734327864835000,0.4338349609375,-0.019721184036135674,-0.011915880580060184,-0.007808627924323082
1746734327874802200,0.44380224609375,-0.028249942928552627,-0.0037586949463933703,-0.007096552398521453
1746734327884769000,0.45376904296875,-0.020768062740564346,-0.008290858483314513,0.005083459010440856
1746734327894736000,0.46373583984375,-0.04635258585214615,0.004320201286673545,-0.0019342742645181714
1746734327904703000,0.473702880859375,-0.018068740653991697,-0.00879741976596415,0.0066681161196902395
1746734327914668800,0.483668701171875,-0.0004085808008909225,-0.0005246814612299204,0.0046141427319496865
1746734327924636000,0.493635986328125,-0.012527473139762877,-0.0007839899845421313,0.0021568127077072857
1746734327934603000,0.50360302734375,-0.033923312389850614,0.004796403963677585,0.0007453567408956587
1746734327944569900,0.51356982421875,-0.02524257780611515,0.00251139829903841,0.005354019580129534
1746734327954537000,0.523536865234375,-0.003845569512248039,-0.001234656361490488,0.008562149705365299
1746734327964502800,0.533502685546875,-0.015963877329230308,-0.002782397260144353,0.004639057977497577
1746734327974470000,0.543469970703125,-0.029431261667609215,-0.003990859734453261,0.003785418556537479
1746734327984437000,0.55343701171875,0.000346036958694458,-0.0015943199867382645,0.00724187915334478
1746734327994403800,0.56340380859375,-0.01686053390800953,-0.009055011256225407,0.008325655802059918
1746734328004371000,0.573370849609375,-0.02359422607719898,-0.011755758114904164,-0.0058979171984829
1746734328014336800,0.583336669921875,-0.024639351215958595,0.005248166319169104,-0.013995518132019788
1746734328024303900,0.593303955078125,-0.0015934066712856292,-0.015756189395301042,-0.0001989749045111239
1746734328034271000,0.60327099609375,-0.02823182274997234,-0.0058550461711362,0.009156042211595923
1746734328044237800,0.61323779296875,-0.032122984969615936,0.014507541041076183,-0.005333890107553452
1746734328054205000,0.623204833984375,-0.013868366354703902,0.002720182211510837,0.008429116176534444
1746734328064170800,0.633170654296875,-0.01685878034234047,-0.002259578962437808,0.004795107055734843
1746734328074137900,0.643137939453125,-0.026885668838024138,-0.012565613193064927,0.007805887977965176
1746734328084105000,0.65310498046875,-0.035116321566700935,-0.007365268070995807,0.0038712336764670906
1746734328094071800,0.66307177734375,-0.01446457868218422,0.00498465654477477,-0.008819321070518344
1746734328104039000,0.673038818359375,-0.009677344405651092,-0.002315729596465826,0.0033081564336083827
1746734328114004700,0.683004638671875,-0.028534605088829993,-0.010449717017635703,-0.008093691943399609
1746734328123971800,0.692971923828125,-0.008928571864962577,0.00429261916000396,-0.027758378285635262
1746734328133939000,0.70293896484375,-0.023439327776432036,-0.00910133461598307,-0.019580898782610892
1746734328143905800,0.71290576171875,-0.023588380858302116,-0.01897146164737642,0.0074562160237692295
1746734328153873000,0.722872802734375,-0.006375964772701263,-0.009483173540420829,0.017725443641655146
1746734328163839000,0.7328388671875,-0.026127543947100637,-0.0051915772937238215,-0.01289095442360267
1746734328173806000,0.74280615234375,-0.020138532665371894,-0.004407258515618741,-0.018104159027244895
1746734328183773000,0.75277294921875,-0.017591770792007445,-0.01041884695533663,0.018171105049923062
1746734328193739800,0.76273974609375,-0.025970307558774948,-0.0027807532923296093,0.011212043159641324
1746734328203707000,0.772706787109375,-0.03988777375221252,0.0014199498005211353,-0.0007183774024248123
1746734328213673700,0.782673828125,-0.02582300804257393,-0.001602978217229247,-0.006457249847985804
1746734328223640000,0.79264013671875,-0.01714578059017658,-0.0003375613912940025,-0.002881217992119491
1746734328233607000,0.80260693359375,-0.019541151294112203,-0.009268800137378274,0.002924801405519247
1746734328243574000,0.812573974609375,-0.032709844946861265,-0.0008629004396498202,0.009192848824337125
1746734328253541000,0.822541015625,-0.022687632626295088,-0.0049868485018610955,-0.003011091449484229
1746734328263508000,0.832508056640625,-0.0054775546282529826,-0.0060573638102039695,0.016996416981052608
1746734328273474000,0.84247412109375,-0.025680969223380087,0.0011952741991728543,0.008747406611777841
1746734328283441000,0.85244091796875,-0.03765314656794071,0.014676285204105079,-0.013966310303844511
1746734328293408000,0.862407958984375,-0.028973581027984616,-0.009826908944174647,-0.009855294788442551
1746734328303375000,0.872375,-0.013410685715079307,-0.004454531723447144,0.014510335786361246
1746734328313341000,0.8823408203125,-0.035110476347804065,0.005805069549567997,0.011194178709387778
1746734328323308000,0.89230810546875,-0.027177345260977745,-0.009656009356677531,0.013718491288926452
1746734328333275000,0.90227490234375,-0.006377133816480636,-0.010724076979607342,0.007134765517059713
1746734328343242000,0.912241943359375,-0.010264204382896422,-0.011588694452308118,0.009547123888414352
1746734328353209000,0.922208984375,-0.03450491167008877,-0.012215338450670242,-0.0005916640165261924
1746734328363176000,0.932176025390625,-0.029569208833575247,-0.008435527651011944,-0.004448339444678277
1746734328373142000,0.94214208984375,-0.018797054928541182,-0.021089732442982494,-0.012847918999474494
1746734328383108900,0.95210888671875,-0.017301263412833213,-0.007610000079683959,0.003775719146430492
1746734328393076000,0.962075927734375,-0.022836101186275482,-0.012860358355939388,0.006393957087118179
1746734328403043000,0.97204296875,-0.03091711631119251,0.001439202490262687,-0.0013384089969098567
1746734328413010000,0.982010009765625,-0.011164368093013763,0.0011372238690033555,-0.0013779555560089647
1746734328422976000,0.99197607421875,-0.03241290782690048,-0.008850866986252367,-0.0030875907517969605
1746734328432942800,1.00194287109375,-0.011761164942383766,-0.010944587862491606,0.00550643366286531
1746734328442910000,1.011909912109375,-0.032411738783121105,-0.0037891266172751783,-0.0024884558148682116
1746734328452876800,1.021876708984375,-0.0304687880218029,-0.012692673638835548,-0.0002513444125652313
1746734328462844000,1.031843994140625,-0.012217676538228988,-0.019475392581522463,0.01730177486948669
1746734328472810000,1.04181005859375,-0.021346739411354065,-0.00117269704118371,0.012177490658313035
1746734328482776800,1.05177685546875,-0.04274199413955211,-0.0024340222138911484,-0.009989789621997624
1746734328492744000,1.061743896484375,-0.011913725155591965,-0.02418883096948266,-0.0061439826477318995
1746734328502710800,1.071710693359375,-0.012064531803131103,-0.01763272385690361,0.0006898088950663805
1746734328512678000,1.081677978515625,-0.0319675021469593,0.00048062312379479403,-0.001655073730647564
1746734328522643700,1.091643798828125,-0.03481412374973297,0.010575096962973474,0.010977668148186057
1746734328532610800,1.10161083984375,-0.011620295166969299,0.004623677745275199,0.0017777502622455357
1746734328542578000,1.111577880859375,-0.03421791142225265,-0.016083375523053108,-0.00843989329887554
1746734328552544800,1.121544677734375,-0.027632103291153905,-0.004945712773874402,-0.0012030373805202543
1746734328562512000,1.131511962890625,-0.03630991526544094,-0.003906761647574603,-0.017095657838135957
1746734328572477700,1.141477783203125,-0.014161211821436882,0.0012881035817787051,-0.0032372100892476734
1746734328582444800,1.15144482421875,-0.026432664373517035,0.0018263751769438386,0.0005802293070591986
1746734328592412000,1.161411865234375,-0.021498130580782888,0.0010297083739191292,0.003853515356685966
1746734328602378800,1.171378662109375,-0.01880582275688648,-0.001167984333448112,-0.0011151581676676868
1746734328612345000,1.181344970703125,-0.02808335418999195,-0.010894866969250142,0.007715652411244809
1746734328622312000,1.19131201171875,-0.008629296657443046,-0.01954294139239937,-0.011096508754882961
1746734328632279000,1.201279052734375,-0.025686229920387268,-0.004557772902213037,-0.007324954326916486
1746734328642246000,1.211245849609375,-0.02942717001438141,-0.002172960124909878,0.006453432189393788
1746734328652212700,1.221212646484375,-0.023292612782120702,0.004173376694507897,-0.007676726906653493
1746734328662179000,1.231178955078125,-0.009227262550592422,-0.02080441269557923,0.002955214810092002
1746734328672146000,1.24114599609375,-0.030774492970108983,0.003147906104288995,-0.002190386183746159
1746734328682113000,1.251113037109375,-0.03571311841607094,0.01438965028245002,-0.007722264815121889
1746734328692080000,1.261080078125,-0.017906243568658827,0.006178798232786357,-0.0029766594569198787
1746734328702047000,1.271046875,-0.020304536882042885,-0.010182517448812723,0.014721585650555789
1746734328712013000,1.281012939453125,-0.046340895414352413,0.0011958952536806464,0.007050685696490109
1746734328721980000,1.29097998046875,-0.019251812958717345,-0.0033804362185299395,0.01714009976806119
1746734328731947000,1.300947021484375,-0.011920154896378517,-0.011309110325947403,-0.006032813890837133
1746734328741914000,1.3109140625,-0.034067104774713516,-0.007079509932175278,-0.010697408168390392
1746734328751881000,1.320880859375,-0.01925122843682766,0.014607676947303116,-0.009287212576903403
1746734328761847000,1.330846923828125,-0.019994740280508995,-0.008686068345978855,-0.001545932534057647
1746734328771814000,1.34081396484375,-0.03016775924861431,-0.004118102843314409,0.015363701212685554
1746734328781781000,1.350781005859375,-0.016847089904546735,-0.013269633276574313,0.02170289590526372
1746734328791747800,1.360747802734375,-0.02656885797381401,-0.004124021127447486,0.0006108984399586916
1746734328801715000,1.37071484375,-0.019385668471455574,0.0010062909657135605,-0.013115593492332845
1746734328811682000,1.38068212890625,-0.003970657196640968,-0.007112316223233938,-0.004323945880029351
1746734328821648000,1.39064794921875,-0.024772622206807135,-0.013942125710658728,0.008114205008465797
1746734328831615000,1.400614990234375,-0.03464753501117229,-0.0208805101390928,0.006036412353720515
1746734328841581800,1.410581787109375,-0.02447393152117729,-0.012663776337914169,-0.0031304252465255557
1746734328851549000,1.420548828125,-0.008313654837012291,0.014274937861599028,-0.012529756428394465
1746734328861516000,1.43051611328125,-0.022679449319839475,0.01253580257669091,-0.0012160064599476754
1746734328871481900,1.44048193359375,-0.021185411369800566,-0.000744096365571022,0.0022589031090028584
1746734328881449000,1.450448974609375,-0.03690028237402439,-0.02175210534185171,-0.008509908061474562
1746734328891416000,1.460416015625,-0.029120880544185636,-0.007019669503718614,-0.009139401604048907
1746734328901383000,1.4703828125,-0.009516016364097594,-0.0048185427302494645,-0.010823829293344168
1746734328911350000,1.48035009765625,-0.023133622828125953,-0.011670710179954767,-0.010121507976576686
1746734328921315800,1.49031591796875,-0.03570551963150501,0.00557224717438221,-0.004972911308053881
1746734328931283000,1.500282958984375,-0.01670095943212509,-0.008942856118641793,0.003082530984189361
1746734328941250000,1.51025,-0.014006313520669937,-0.009971322383545339,0.01481907294197008
1746734328951217000,1.520216796875,-0.021937106519937515,-0.016561368298344314,0.00747870185021311
1746734328961184000,1.53018408203125,-0.04333645290136337,0.0020514891697093842,-0.018135430948343127
1746734328971149800,1.54014990234375,-0.036003625795245166,-0.015578969664871692,-0.015530728342663495
1746734328981117000,1.550116943359375,-0.027923779714107512,-0.013281542910076678,-0.017075327436160297
1746734328991084000,1.560083984375,-0.022688801670074463,0.006978351112641393,-0.0016447349997237323
1746734329001051000,1.57005078125,-0.036605098819732666,0.011909743100218475,0.020200583317223936
1746734329011018000,1.58001806640625,-0.008474982878565789,-0.015006649669632315,0.0007906571873463689
1746734329020983800,1.58998388671875,-0.01834872663915157,-0.019971870861575005,-0.0071909709500148885
1746734329030951000,1.599950927734375,-0.028973581027984616,0.005938815464451908,-0.01290520214466378
1746734329040918000,1.60991796875,-0.035408582511544225,0.005941518878191709,-0.018546021043229846
1746734329050884900,1.619884765625,-0.0035351883888244625,-0.006751812347769737,-0.00352187224952504
1746734329060852000,1.62985205078125,-0.015356559085845947,-0.009276946911215781,0.009765534145757555
1746734329070818000,1.639818115234375,-0.03451075688898563,-0.0026999066084623337,0.026865466300211846
1746734329080785200,1.64978515625,-0.029423662883043288,-0.0019974574275314805,0.017693842926993966
1746734329090752000,1.659751953125,-0.01476034675836563,-0.00807487764507532,-0.007480291019100695
1746734329100718800,1.66971875,-0.003988192853331566,0.005457461688295006,-0.009168335437588392
1746734329110686000,1.67968603515625,-0.03555938915908336,-0.011797368766926228,-0.008278565257322042
1746734329120652000,1.689652099609375,-0.04977262342870235,-0.000039820553734898566,0.0002294248417019844
1746734329130619100,1.699619140625,-0.01804945143163204,-0.009899060864932835,0.0006601992080919444
1746734329140586000,1.7095859375,-0.019243629652261732,0.005179083138331771,0.0034144663522951302
1746734329150553000,1.719552978515625,-0.016097732841968537,0.00795355282034725,0.006950768985971808
1746734329160520200,1.729520263671875,-0.04587269338071346,0.001934109867736697,-0.01663492672489956
1746734329170486000,1.739486083984375,-0.016395839005708693,-0.003090367230772972,-0.02772942618578672
1746734329180453000,1.749453125,-0.010708441019058226,-0.018813567671924828,0.0020237974451854826
1746734329190420000,1.759419921875,-0.042431028494238854,-0.01574665438197553,0.023519370742700992
1746734329200387000,1.769386962890625,-0.009959083956480026,0.00024538959581404924,0.003335702027659863
1746734329210354200,1.779354248046875,-0.01220540157854557,-0.00003123538848012685,-0.005745831909310072
1746734329220321000,1.789321044921875,-0.009210311415791511,0.004532492330484092,0.007883720720838755
1746734329230287000,1.799287109375,-0.04482113850116729,-0.009732033734954893,-0.013880878776405006
1746734329240254000,1.80925390625,-0.019383330383896828,-0.01722765018735081,0.007113576598558574
1746734329250221000,1.819220947265625,-0.005617839881777763,-0.006470584253594279,0.004951247465517372
1746734329260188200,1.829188232421875,-0.02477203768491745,0.0020853183740749954,-0.0010329415106214582
1746734329270155000,1.839155029296875,-0.03030512189269066,0.0049707376172766085,-0.01943593735396862
1746734329280121000,1.84912109375,-0.028357494956254958,-0.005379135755077004,-0.015314436977170406
1746734329290088000,1.859087890625,-0.0062122986435890195,-0.011779723512381315,-0.015450228718668222
1746734329300055000,1.869054931640625,-0.03494564117491245,0.004423953922092915,-0.01972111097089946
1746734329310022100,1.879022216796875,-0.04601823933124542,0.011587598473764955,-0.0005657623902894556
1746734329319989000,1.888989013671875,-0.027612229546904562,0.0006860825680196285,0.00789908268675208
1746734329329955000,1.898955078125,-0.002472527593374252,-0.003818754570558667,-0.004396371795423328
1746734329339922000,1.908921875,-0.024169980138540267,-0.008603102770261465,0.02150373833766207
1746734329349889000,1.918888916015625,-0.02327273903787136,0.003671820380538702,-0.005113434023596346
1746734329359855900,1.92885595703125,-0.030306875458359715,0.005947583292797208,-0.015299623000528662
1746734329369823000,1.938822998046875,-0.014442951372265814,-0.006516944145970046,-0.014735413246508686
1746734329379789000,1.9487890625,-0.014741057536005972,0.006140292853303253,-0.010342859109677374
1746734329389756000,1.958755859375,-0.03359364204406738,0.010297704793699085,0.012818309312500059
1746734329399723000,1.968722900390625,-0.04212240093648433,-0.010369308725185692,0.011636826176661997
1746734329409689900,1.97868994140625,-0.015492168164253233,-0.016509382382780314,-0.002879099100269377
1746734329419657000,1.988656982421875,-0.013250526717305183,-0.0018750366242602466,-0.027038429980631915
1746734329429622800,1.998622802734375,-0.031208792734146118,0.00923014862742275,-0.028801932521816342
1746734329439590000,2.00858984375,-0.028214287093281745,-0.004153502950258553,-0.007538030822016298
1746734329449557000,2.018556884765625,-0.007114800441265106,-0.001478876913525164,0.01072122743539512
1746734329459523800,2.02852392578125,-0.025818331867456433,-0.004245492082647979,0.01364664989542216
1746734329469491000,2.038490966796875,-0.036140988439321516,-0.003117364835552871,-0.00863431989243254
1746734329479457000,2.04845703125,-0.011000117442011832,-0.01184887975845486,-0.018963424471393226
1746734329489424000,2.058423828125,-0.012947159856557845,-0.007440233003348112,-0.02408332476839423
1746734329499391000,2.068390869140625,-0.03988075948953628,0.0032936712505295873,-0.0013406740192323922
1746734329509357800,2.07835791015625,-0.02835515686869621,-0.010559899393841624,0.016311284261103717
1746734329519325000,2.088324951171875,-0.02132160497009754,0.014297661150060594,0.014162636593542992
1746734329529291000,2.098291015625,-0.0208703540712595,-0.007135843229293823,0.0019894019852392374
1746734329539258000,2.108258056640625,-0.014884265398979185,0.005895122453197837,-0.0030150917711667716
1746734329549225200,2.11822509765625,-0.03508241929709911,0.006256941502913832,-0.007636650624591857
1746734329559192000,2.128192138671875,-0.022214169895648957,0.014741897786222397,-0.016376586315967143
1746734329569159000,2.138158935546875,-0.010391045632958411,-0.004138743772543967,-0.0035256899081170558
1746734329579125000,2.148125,-0.012933131331205367,-0.009542465979605912,0.00028511881800368427
1746734329589092000,2.158092041015625,-0.03328559900820255,0.0002776113649830222,0.01727660389561206
1746734329599059200,2.16805908203125,-0.020714286726713178,0.0033732758253812787,-0.007721223635505884
1746734329609026000,2.178026123046875,-0.011136895564198493,-0.021933343660272657,-0.003074091949407011
1746734329618993200,2.1879931640625,-0.010986088916659354,0.0019786065965890884,-0.0005295220331288874
1746734329628959000,2.197958984375,-0.011880991929769515,0.009082483785040675,-0.003545106994640082
1746734329638926000,2.207926025390625,-0.03492342934310436,-0.0008713760070502757,-0.0003439180668443441
1746734329648893000,2.217892822265625,-0.011879238364100455,-0.004754172257147729,0.0021947518316097554
1746734329658860000,2.227860107421875,-0.019063596910238265,0.0006486366344615816,-0.005685644420981407
1746734329668827100,2.2378271484375,-0.036268998733162874,0.0036058424722403286,-0.01952748809494078
1746734329678793000,2.24779296875,-0.022051088288426397,-0.018900917161814867,-0.0008363960252143442
1746734329688760000,2.257760009765625,-0.013373860836029051,-0.01792651917170733,0.003906944310665131
1746734329698727000,2.267726806640625,-0.02130465383529663,0.0007931596716865897,-0.000019782412704080344
1746734329708694000,2.277694091796875,-0.03282382671535015,0.0034075434211641546,0.005216437740344554
1746734329718661000,2.2876611328125,-0.009925766208767891,0.005606112911365926,-0.014033694717939943
1746734329728627000,2.297626953125,-0.01800678133368492,-0.005456109981425106,-0.0062311129419133065
1746734329738594000,2.307593994140625,-0.021596330258250234,-0.021327705917321145,-0.010944916656054555
1746734329748561000,2.317560791015625,-0.025187048226594923,-0.0005626388514414429,0.0016409173411317168
1746734329758528000,2.327528076171875,-0.0058820437759161,-0.009096037386357784,0.012642276892159134
1746734329768495000,2.3374951171875,-0.022792262044548987,-0.01925305506773293,0.012986304556857793
1746734329778461000,2.3474609375,-0.026983868515491484,-0.008279533371701836,-0.017261168864462523
1746734329788428000,2.357427978515625,-0.022492986837029456,-0.001137881456129253,-0.003216075969673693
1746734329798395000,2.367394775390625,-0.02608604289293289,-0.008152107599750161,0.0025317834999412296
1746734329808362000,2.377362060546875,-0.007683540239930152,-0.011182086412794888,0.00713582496298477
1746734329818329000,2.3873291015625,-0.012623334729671478,0.004424574976600706,0.016270842652861026
1746734329828295000,2.397294921875,-0.04135317012965679,-0.009403349769860505,-0.0011725691770203411
1746734329838262000,2.407261962890625,-0.01890343791246414,-0.012322050228156148,-0.0069160447324626145
1746734329848228900,2.417228759765625,-0.017257424271106717,0.004108640895225108,-0.014364223580248654
1746734329858196000,2.427196044921875,-0.011422142246365546,0.004578121570497751,-0.006133863112516701
1746734329868163000,2.4371630859375,-0.03566518762111664,0.001297163671068847,0.0077134969867765895
1746734329878129000,2.44712890625,-0.028481413596868514,-0.01099544126689434,0.013377842891402541
1746734329888095700,2.457095703125,-0.018607085314393042,0.003128543816693127,0.015438099889457225
1746734329898062800,2.467062744140625,-0.021598083823919294,0.007345905783399939,0.004984546946920454
1746734329908030000,2.477030029296875,-0.03072714669704437,0.0070941229794174426,-0.008197298448346555
1746734329917996000,2.48699609375,-0.02294599130153656,-0.00648801031243056,-0.009303999314922838
1746734329927963100,2.496963134765625,-0.003193243083357811,-0.006535685379058122,-0.007615753967035561
1746734329937930000,2.506929931640625,-0.032521628898382185,-0.00566069264281541,0.004086721324361861
1746734329947896800,2.516896728515625,-0.024587328767776487,-0.0001882525810971856,0.0017681969826109705
1746734329957863700,2.52686376953125,0.0002566051095724106,-0.01299147392231971,0.003945577554311603
1746734329967830000,2.536830078125,-0.009920505511760712,-0.008771919998526573,-0.008138846259377896
1746734329977797000,2.546797119140625,-0.01919979051053524,0.009213234025239945,-0.010501648134272545
1746734329987764000,2.556763916015625,-0.029074703314900398,-0.011010163911990821,-0.004962024587858468
1746734329997731000,2.56673095703125,-0.013362170398235321,-0.010848360946401953,-0.003079571842122823
1746734330007698000,2.576697998046875,-0.0275800808429718,-0.014406857145577668,0.004609320426359772
1746734330017664000,2.5866640625,-0.03401391328275204,0.007839242258295416,-0.009703775754850357
1746734330027630800,2.596630859375,-0.01889817721545696,0.00972249872162938,-0.020025628609117118
1746734330037598000,2.606597900390625,-0.009020926323533058,-0.0022654607139527797,0.00552722072256729
1746734330047565000,2.61656494140625,-0.027276713982224463,-0.01454904209524393,0.015580741496849805
1746734330057532000,2.626531982421875,-0.0239811795681715,-0.006721746003068983,0.0025826369043439627
1746734330067498000,2.636498046875,-0.018594810354709623,-0.0010285758627578616,-0.00983153032036498
1746734330077464800,2.64646484375,-0.010514964273571967,-0.009726773037947714,0.0025091332767158744
1746734330087432000,2.656431884765625,-0.004231938481330871,-0.0046361353680491445,-0.01223267317796126
1746734330097399000,2.66639892578125,-0.02098959653675556,0.0023268720449879762,0.006213814747240394
1746734330107366000,2.676365966796875,-0.03325929552316666,-0.012234006618522107,0.010292955553345381
1746734330117332000,2.68633203125,-0.00407645565867424,-0.00899502469729632,0.0018535189121961593
1746734330127298800,2.696298828125,-0.01918926911652088,-0.013935403708927332,-0.01147948019048199
1746734330137266000,2.706265869140625,-0.022481296399235726,0.0012245733588933945,-0.023833587791025637
1746734330147233000,2.71623291015625,-0.023083353945612905,0.0025206045188009736,-0.01695829519405961
1746734330157200000,2.726199951171875,-0.027425182542204857,-0.012585779198259114,0.0012358802041970193
1746734330167166000,2.736166015625,-0.025029227316379545,-0.008855433563515543,-0.0078030019011348485
1746734330177132800,2.7461328125,-0.0366992068439722,0.002636668646521866,0.015077449883520602
1746734330187100000,2.756099853515625,-0.020837036323547362,-0.0054661564514040945,0.002659958190564066
1746734330197067000,2.76606689453125,-0.011708557972311974,-0.011771211412362753,-0.008246160825062543
1746734330207032800,2.77603271484375,-0.012456161469221114,-0.014482297001965343,-0.008260298948269337
1746734330217000000,2.786,-0.021287118178606033,0.006805223035439848,-0.0017873766071163117
1746734330226966800,2.795966796875,-0.0247305366307497,-0.005268222726508975,0.009294044176489115
1746734330236934000,2.805933837890625,-0.02009293995797634,-0.01438391466140747,0.01216064912136644
1746734330246900700,2.815900634765625,-0.032364392510056496,-0.0030050270348787305,0.0011336071398109198
1746734330256866800,2.82586669921875,-0.018746786046028138,0.0025206775840371847,0.001140657935105264
1746734330266834000,2.835833984375,-0.03356149334013462,-0.0010619301430881023,-0.01815895795440301
1746734330276800800,2.84580078125,-0.025631869384646414,-0.018925868939980862,-0.012730631029047071
1746734330286767900,2.855767822265625,-0.023537527453899382,-0.010638188794441521,0.0011219897672533987
1746734330296734700,2.865734619140625,-0.030122751063108442,0.009718662796728313,0.0019171952655538916
1746734330306701000,2.875701171875,-0.013662030127644538,-0.0010744608310982585,0.008812197209987788
1746734330316668200,2.885668212890625,-0.00827624543607235,-0.008506875854171812,0.010725063360296189
1746734330326635000,2.895635009765625,-0.03446107252836227,-0.011299209986440836,-0.004310867202747613
1746734330336601900,2.905601806640625,-0.035057284855842585,-0.0028287206199020145,0.00210411440609023
1746734330346568700,2.915568603515625,-0.01575344944894314,-0.011989639936015008,-0.014929200519248842
1746734330356535000,2.92553515625,-0.008721651116013526,-0.010910320266708731,0.00721791375586763
1746734330366502000,2.935501953125,-0.02996960632801056,-0.00715425566881895,0.005091660583205521
1746734330376469000,2.945468994140625,0.00010638298392295837,0.00678626260664314,0.013039148988947272
1746734330386436000,2.95543603515625,-0.012014847442507743,0.002908727053552866,-0.01989425731441006
1746734330396402000,2.96540185546875,-0.031767011138796805,-0.009204794990457593,-0.03290527618741616
1746734330406369000,2.975369140625,-0.03491056986153126,-0.02147288654167205,-0.01385430129673332
1746734330416336000,2.9853359375,-0.025183541095256803,0.0049554304502904415,0.003876476107165217
1746734330426303000,2.995302978515625,-0.02787467987537384,-0.009702734575234353,0.017026245863735676
1746734330436270000,3.00527001953125,-0.00767184980213642,0.013112944877520202,0.04250297948559746
1746734330446236000,3.01523583984375,-0.013659107518196106,0.001189209784567356,0.015866974559705704
1746734330456203000,3.025203125,-0.059146600973606106,0.003286291661672294,-0.00652710021380335
1746734330466169900,3.035169921875,-0.023083353945612905,-0.016459624956920743,-0.00614107830459252
1746734330476137000,3.045136962890625,-0.01395429107248783,-0.005156104121543467,-0.01084821481592953
1746734330486104000,3.05510400390625,-0.053308980861306185,-0.01565086585730314,-0.004809774901904165
1746734330496070000,3.06506982421875,-0.03250760037302971,-0.014458769995905459,-0.00488589061172679
1746734330506037000,3.075037109375,-0.013804068946838378,-0.011888006192445755,-0.014170034448709339
1746734330516003800,3.08500390625,0.001758241844177246,-0.011630451234802603,0.0037049919977784154
1746734330525971000,3.094970947265625,0.0035550621330738066,0.024279468395002186,0.01353876907415688
1746734330535938000,3.10493798828125,-0.026073183411359786,0.008999920068122447,0.006675769703183323
1746734330545903900,3.11490380859375,-0.03400280736684799,-0.028568324695341287,0.011591927589010446
1746734330555871000,3.12487109375,-0.02023673234283924,-0.03530508560445159,0.00593247705521062
1746734330565837800,3.134837890625,-0.024131401693820952,0.012022555824927984,0.006635455959104001
1746734330575805000,3.144804931640625,-0.02682838569283485,0.02990636836607009,0.01444744488429278
1746734330585771800,3.154771728515625,-0.00064005146920681,0.007775164046138525,0.04143714035237208
1746734330595737900,3.16473779296875,-0.022035890719294546,-0.031168058864958582,0.006979648020584136
1746734330605705000,3.174705078125,-0.08517769880890846,-0.07219250849690288,-0.02485684815784916
1746734330615671800,3.184671875,-0.050158992397785186,-0.03460749526172876,-0.03243543018596247
1746734330625639000,3.194638916015625,0.022563129463791846,0.030842005248367783,-0.025856764181703327
1746734330635604700,3.204604736328125,0.00011515081226825714,0.05866875432878732,-0.00715553431045264
1746734330645571800,3.21457177734375,-0.028317162945866583,0.01877875208687037,0.025862353672273457
1746734330655538700,3.22453857421875,-0.06318214010000228,-0.0408037195533514,0.04280181630169973
1746734330665505800,3.234505859375,-0.055848728471994395,-0.0618354381987825,0.012639938804600388
1746734330675473000,3.244472900390625,-0.019933365482091903,-0.007402092950046062,-0.02300731130102649
1746734330685439000,3.25443896484375,0.020769816306233403,0.0337395898533985,-0.028910635326988992
1746734330695406000,3.264406005859375,-0.014246552017331122,0.0362063452931121,0.013369915313273667
1746734330705373000,3.274373046875,-0.009304419440031051,-0.02150218570139259,0.03877186666587368
1746734330715339800,3.28433984375,-0.009298574221134186,-0.04819112639091909,0.03029697511885315
1746734330725307000,3.294306884765625,-0.020966215661168096,-0.014627368028461932,-0.019853943570330736
1746734330735273000,3.30427294921875,-0.044159459722042084,0.0006557604949921369,-0.04910151923410594
1746734330745240000,3.314239990234375,-0.020670447584986686,-0.003880458162538707,-0.041583636150974775
1746734330755207000,3.32420703125,0.007014262676239013,0.0026620222834870216,-0.008669975727703422
1746734330765174000,3.334174072265625,-0.027550270226597784,-0.001144201599061489,0.023522293352149424
1746734330775139800,3.344139892578125,-0.044157706156373024,-0.013906506408005953,0.023764577675424513
1746734330785107000,3.35410693359375,-0.02066635593175888,-0.022791896718367934,0.013389989986922592
1746734330795074000,3.364073974609375,-0.013034253618121147,-0.021005269029922783,-0.004586980730388313
1746734330805041000,3.374041015625,-0.02320902615189552,0.01504515504911542,-0.0029491503954865036
1746734330815008000,3.384008056640625,-0.0119862058699131,0.0042135991070419545,-0.004363711634837091
1746734330824973800,3.393973876953125,-0.020814239969849584,-0.017761683998815714,0.011892043046746402
1746734330834941000,3.40394091796875,-0.038619361251592633,-0.03561382276006043,0.03537921028658748
1746734330844908000,3.413907958984375,-0.025448914033174515,-0.0036846798621118066,0.015661971773207186
1746734330854875000,3.423875,-0.030832360637187955,0.012824556390196085,-0.02787692663138732
1746734330864841000,3.433841064453125,-0.02334463523030281,0.012724347418732941,-0.031719208208005875
1746734330874807800,3.443807861328125,-0.009428338080644607,-0.007167115150392055,-0.029941914603486657
1746734330884775700,3.453775634765625,-0.043245267486572266,-0.02608388746846467,0.01335170380314812
1746734330894742500,3.463742431640625,-0.04578735318481922,-0.018679273767769334,0.026403511344268916
1746734330904709600,3.473709716796875,-0.02753039648234844,0.0022674700079485773,0.024555216596461833
1746734330914675500,3.483675537109375,-0.023788287344574926,0.005446721098572016,-0.008919438710436224
1746734330924642600,3.493642578125,-0.02737842079102993,0.002454480480030179,-0.024102339996118098
1746734330934609700,3.503609619140625,-0.03141688252687454,-0.010741210777498782,-0.02009712294274941
1746734330944576500,3.513576416015625,-0.03770283092856407,-0.017165654334425927,0.016756342881172896
1746734330954543600,3.523543701171875,-0.02438157706260681,-0.018151304370909928,0.006411218749172986
1746734330964509400,3.533509521484375,-0.035603812822699546,0.0028068741142749784,0.00784892340209335
1746734330974476500,3.5434765625,-0.02916822681725025,0.00820186502560973,-0.004771890576928854
1746734330984443400,3.553443359375,-0.0037274960905313488,0.00248743290156126,-0.01934986650571227
1746734330994410500,3.563410400390625,-0.01330547177493572,-0.022952055716142058,-0.002686955795343965
1746734331004376600,3.57337646484375,-0.023781857603788373,-0.011973602116666733,-0.0050998073570430276
1746734331014343400,3.583343505859375,-0.02647474994957447,0.004375950061902403,-0.014457728816289454
1746734331024310500,3.593310546875,-0.022132336831092832,0.01057648520246148,0.01067389942863956
1746734331034277400,3.60327734375,-0.01659457644820213,-0.009774228908866643,0.007463833074644208
1746734331044244500,3.613244384765625,-0.012998597782850264,-0.008788907665945589,0.010355627259705215
1746734331054210300,3.623210205078125,-0.04172375700771808,-0.010390241915360093,0.002774122622143477
1746734331064177400,3.633177490234375,-0.018526421293616292,-0.020800613303296266,-0.021044450262840835
1746734331074144500,3.64314453125,-0.016433248406648636,-0.01972534875459969,-0.007691303421277553
1746734331084111400,3.653111328125,-0.02435936523079872,0.00023245704900473355,0.003623122400604188
1746734331094078500,3.663078369140625,-0.0291442614197731,-0.00521769811566919,0.0022257862906903026
1746734331104044500,3.67304443359375,-0.018068740653991697,0.0032878260316327214,0.006327157194912433
1746734331114011600,3.68301171875,-0.024952070426940916,-0.013162154314108191,0.01019208899475634
1746734331123978500,3.692978515625,-0.035876200023293496,-0.012234481542557477,-0.009407952879741787
1746734331133945300,3.7029453125,-0.03198737589120865,0.0018446049533784388,0.0027627427116036414
1746734331143911700,3.71291162109375,-0.015377017351984977,-0.01146868480183184,0.004682951918151229
1746734331153878500,3.72287841796875,-0.024358196187019347,-0.023972777066007256,-0.007705441544484347
1746734331163845600,3.732845703125,-0.03452887706756592,0.008243658340722323,0.008531462306156755
1746734331173812700,3.742812744140625,-0.02839315079152584,-0.004628171257302165,-0.004344532010331749
1746734331183779600,3.752779541015625,-0.01926642600595951,-0.014764292281121015,0.016155198650248347
1746734331193745700,3.76274560546875,-0.03542904077768325,-0.011866780741326511,-0.0007808481793850659
1746734331203712500,3.77271240234375,-0.031689854249358176,-0.0014980200054123998,-0.01663291743090376
1746734331213679600,3.7826796875,-0.01522913331389427,0.00043119449149817227,-0.01572769395317882
1746734331223646700,3.792646728515625,0.0006312836408615112,0.0022469021439552304,-0.019603128880728037
1746734331233612500,3.802612548828125,-0.02750117038786411,0.0021081512603908776,0.0006263517374172806
1746734331243579600,3.81257958984375,0.0052688803136348725,-0.007613543743640184,0.004524016763083637
1746734331253546500,3.82254638671875,-0.027500585865974425,-0.0006123962773010134,-0.0034147220806218684
1746734331263513600,3.832513671875,-0.015381109005212782,0.003189370625838637,-0.0006004501111805438
1746734331273480700,3.842480712890625,-0.016127543458342553,-0.0065904112409800285,0.004046425846591591
1746734331283446500,3.852446533203125,-0.021662965753674508,-0.005138093540817499,0.00016238748747855424
1746734331293413600,3.86241357421875,-0.030642391023039815,-0.005279584370739758,0.0028850356507115066
1746734331303380500,3.87238037109375,-0.015829437294602393,0.0025144670389592645,-0.005888710978720337
1746734331313347600,3.88234765625,-0.010891396370530129,-0.010937427469342946,-0.009510737400781363
1746734331323313400,3.8923134765625,-0.02166238123178482,0.004267996175400912,-0.00012095949854701757
1746734331333280500,3.902280517578125,-0.03318096958994865,-0.015723529234714807,-0.017667776903975755
1746734331343247600,3.91224755859375,-0.014324877950549125,-0.017719781085848808,-0.009281476955860853
1746734331353214500,3.92221435546875,-0.011030512580275535,0.0021549130115658044,-0.004566467665322125
1746734331363181600,3.932181640625,-0.039460488250851626,0.0024771307032555342,-0.005698540435172617
1746734331373147400,3.9421474609375,-0.029437691408395767,-0.00688164927251637,-0.003137731770146638
1746734331383114500,3.952114501953125,-0.002800444373488426,-0.02039181330669671,0.0020881496519781647
1746734331393081300,3.962081298828125,-0.013279168289899826,0.003175049839541316,0.00037350948750972747
1746734331403048400,3.97204833984375,-0.03602525310516357,0.002478628540597856,0.003788341165985912
1746734331413014500,3.9820146484375,-0.023754969596862793,0.00380169383790344,0.0008430814943276346
1746734331422981400,3.9919814453125,-0.012235796716809272,-0.01815064678378403,0.0026877777792513368
1746734331432948500,4.001948486328125,-0.024805355432629583,-0.021864406609907745,0.004588588165584951
1746734331442915300,4.011915283203125,-0.02735094826221466,-0.00418831853531301,-0.008230524864513427
1746734331452882400,4.02188232421875,-0.024358196187019347,-0.0034418840821832416,-0.014214184117689727
1746734331462848500,4.0318486328125,-0.01583002181649208,-0.017942995382472873,0.0030329014224931596
1746734331472815600,4.041815673828125,-0.022267361387610433,-0.00785999278537929,-0.00590007262295112
1746734331482782700,4.05178271484375,-0.03333995954394341,-0.009675115915946662,-0.005133764425572007
1746734331492749600,4.06174951171875,-0.03229249631762504,-0.00382701094225049,-0.003231766729149967
1746734331502715600,4.071715576171875,0.007210662031173706,-0.009159458011388778,-0.0015991788249462842
1746734331512682500,4.0816826171875,-0.025263620594143867,0.0013554331969469785,0.013127338729053735
1746734331522649600,4.091649658203125,-0.0281073195874691,-0.0022302067374810573,-0.008243073818832635
1746734331532616700,4.10161669921875,-0.010301613783836365,-0.016836678108386693,-0.029552586492337284
1746734331542583600,4.11158349609375,-0.011348492488265038,-0.019962226250395176,0.01543678471520543
1746734331552549600,4.121549560546875,-0.031101240706443784,-0.020831885224394497,0.013788524317834526
1746734331562516500,4.1315166015625,-0.031850597769021986,-0.006780819246545434,0.00533211827557534
1746734331572483600,4.141483642578125,-0.01928162357509136,-0.009591638883575797,-0.020887871461641044
1746734331582450700,4.15145068359375,-0.012096095985174178,-0.018301636094413695,-0.0018108122816309332
1746734331592416500,4.16141650390625,-0.02481470778286457,-0.006817096136324107,0.00016123671000823378
1746734331602383600,4.171383544921875,-0.028854338562488556,0.0034897783445194362,-0.007929514357633888
1746734331612350500,4.1813505859375,-0.035438393127918244,-0.010458704041689634,-0.004130085542052984
1746734331622317600,4.191317626953125,-0.012094342419505119,-0.010924860248714684,0.002773318904545158
1746734331632284700,4.20128466796875,-0.03229483440518379,0.00028904607445001603,0.004240724575985223
1746734331642250500,4.21125048828125,-0.042920273315906525,0.00044825522415339945,-0.009776311268098652
1746734331652217600,4.221217529296875,-0.021375380983948707,0.011729162368923424,0.0014886676551774144
1746734331662184400,4.231184326171875,-0.015091186147928237,-0.009657909052819012,-0.0015052169311791657
1746734331672151600,4.241151611328125,-0.019879004946351052,-0.0072843848545104265,0.0003026544746942818
1746734331682117400,4.251117431640625,-0.029903555354475975,-0.004272708883136511,-0.003509706887695938
1746734331692084500,4.26108447265625,-0.011046879193186759,-0.0025310528475791213,-0.008642046541161835
1746734331702051600,4.271051513671875,-0.023915128594636917,-0.013616583550721406,-0.0065578972108662125
1746734331712018400,4.281018310546875,-0.036331542575359345,-0.007075345213711262,0.005341854218300432
1746734331721985500,4.290985595703125,-0.021366028633713723,-0.0005336684852838516,0.006200809135194867
1746734331731951400,4.300951416015625,-0.02629997790455818,-0.014532017895206807,-0.0010291421183384955
1746734331741918500,4.31091845703125,-0.01043430025279522,-0.009676358024962245,-0.0009488251574337482
1746734331751885600,4.320885498046875,-0.016865794605016707,0.0001530716698616743,0.002277406880073249
1746734331761852400,4.330852294921875,-0.030033319213986394,0.0019106193942949174,-0.02341437599826604
1746734331771818800,4.34081884765625,-0.02419686814546585,-0.023696480875276028,-0.019376133458130062
1746734331781785600,4.35078564453125,-0.010131517913937568,-0.005868124848417937,0.0032336298926733432
1746734331791752700,4.360752685546875,-0.02135609176158905,-0.002530541390925646,0.01161591125279665
1746734331801719600,4.370719482421875,-0.02450140404999256,-0.0038021322293207045,0.00010123188477009534
1746734331811686400,4.380686279296875,-0.021955811220407486,-0.013130699729919433,-0.010823390901926905
1746734331821652700,4.39065283203125,-0.004297404932975769,-0.02156834627278149,-0.016021836327854543
1746734331831619600,4.40061962890625,-0.010579846203327178,-0.019826982498168944,-0.009167001997027545
1746734331841586700,4.410586669921875,-0.038410686936974525,-0.0005616524707525968,0.0006939553472213447
1746734331851553500,4.420553466796875,-0.015666940209269523,0.002917787142843008,-0.0023043131533078847
1746734331861519600,4.43051953125,-0.01656710391938686,-0.008877207003906368,0.002566233758814633
1746734331871486500,4.440486572265625,-0.0288391409933567,-0.0037152941960841416,0.00820422137947753
1746734331881453600,4.45045361328125,-0.03018471038341522,-0.0019269494745880365,-0.008763992420397698
1746734331891420400,4.46042041015625,-0.006842413240671158,-0.012370090620964764,-0.009788659293018281
1746734331901387500,4.470387451171875,-0.008642740660905838,-0.012304660701937973,-0.006675440909620374
1746734331911353300,4.480353271484375,-0.014481529816985129,-0.00774239428769797,-0.0005312025335617363
1746734331921320400,4.490320556640625,-0.026302900514006612,0.007952493374422193,-0.0015630663319490849
1746734331931287300,4.500287353515625,-0.017321721678972245,-0.0010720496783033014,-0.009409688179101794
1746734331941254400,4.51025439453125,-0.025101123508810996,-0.02308817625120282,-0.007194679010752588
1746734331951220200,4.52022021484375,-0.03587327741384506,-0.011141827467642723,-0.0030454869094304737
1746734331961187300,4.530187255859375,-0.024051906716823578,0.010829400517605245,-0.0054175132703967385
1746734331971154400,4.540154541015625,-0.01073357546031475,-0.011870543600991367,0.0025707820697687565
1746734331981121300,4.550121337890625,-0.010585691422224043,-0.021382870170660314,0.006132109546847641
1746734331991088400,4.56008837890625,-0.015074819535017013,0.0038649683324620127,0.01533531536841765
1746734332001054200,4.57005419921875,-0.022106033346056937,-0.0010039894107729196,0.006416095853690058
1746734332011021300,4.580021240234375,-0.01955927147269249,-0.008254325865209102,-0.006630213528405875
1746734332020988400,4.589988525390625,-0.010580430725216866,0.006559139319881797,-0.0002386127951554954
1746734332030955300,4.599955322265625,-0.026441432201862333,0.0037292496562004087,0.012881930866930633
1746734332040921300,4.60992138671875,-0.04499649506807327,-0.01258486588280648,0.015741028358787296
1746734332050888200,4.61988818359375,-0.023899346503615377,-0.0004234130438417196,0.005286324638780206
1746734332060855300,4.629855224609375,-0.01103109710216522,-0.006394961734116077,-0.01790355842122808
1746734332070822400,4.639822509765625,-0.030481647503376005,-0.0023958456279709935,0.013475823373161255
1746734332080789200,4.649789306640625,-0.02793605467379093,0.0014453765027225016,0.0006043043023906648
1746734332090755600,4.659755615234375,0.0009428338080644607,-0.010793452421389519,-0.012111585815250873
1746734332100722400,4.669722412109375,-0.01956102503836155,-0.009981843777559698,-0.014167093572951853
1746734332110689300,4.679689208984375,-0.04290098409354687,-0.004689326860010624,-0.004293587274383753
1746734332120656400,4.689656494140625,-0.009384498938918113,-0.006588840338401496,-0.009352039707731455
1746734332130622500,4.69962255859375,-0.014170564171671866,-0.002718319047987461,-0.0128712450761348
1746734332140589600,4.709589599609375,-0.04439093039035797,-0.022617015075497328,-0.006049746759328991
1746734332150556400,4.719556396484375,-0.026730770537257195,0.0011224281586706638,0.004233892976399511
1746734332160523500,4.7295234375,-0.015805471897125244,-0.0031037381689995526,0.00017188596818596124
1746734332170490400,4.739490478515625,-0.0161035780608654,-0.019573701856844126,0.004300638069678097
1746734332180456400,4.74945654296875,-0.013854922351241111,-0.013103263733722269,-0.004677563356980681
1746734332190423600,4.759423583984375,-0.02552665544450283,-0.005061484640650451,-0.011626158652175218
1746734332200390400,4.769390380859375,-0.02417816344499588,0.010909954940527676,-0.005226118884142488
1746734332210357500,4.779357421875,-0.02312894665300846,-0.010259418609924614,0.01472659061923623
1746734332220323300,4.7893232421875,-0.02357902850806713,-0.025006613625772296,0.02364986525457352
1746734332230290400,4.79929052734375,-0.02612403681576252,0.01216327946987003,0.010113616931065916
1746734332240257300,4.80925732421875,-0.04677227256894111,0.0020946707243099808,0.00951207084134221
1746734332250224400,4.819224365234375,-0.021781623697280882,-0.021285839536972342,0.004727265983913094
1746734332260190500,4.8291904296875,-0.017591770792007445,-0.011427439475990831,-0.000625146161019802
1746734332270157300,4.8391572265625,-0.04198270020484924,-0.007291910573840141,-0.005907580075971782
1746734332280124400,4.84912451171875,-0.00936287162899971,-0.009833156021870673,-0.010212309798877686
1746734332290091300,4.85909130859375,-0.009212649503350257,-0.015405512794107198,0.000012658552173525094
1746734332300058400,4.869058349609375,-0.023127777609229086,-0.020828012766875327,-0.009706661831680684
1746734332310024200,4.879024169921875,-0.010558218893408775,-0.005886537287943065,0.003635415626596659
1746734332319991300,4.8889912109375,-0.028066987577080725,0.002398585574328899,0.01137943561580032
1746734332329958400,4.89895849609375,-0.01924012252092361,-0.017150675961002705,0.000890299903228879
1746734332339925200,4.90892529296875,-0.03555179037451744,-0.00908292217645794,-0.0011231222784146666
1746734332349891300,4.918891357421875,-0.03345744844377041,0.007212086803279816,-0.0055360616161488
1746734332359858200,4.928858154296875,-0.024328970092535016,-0.009557663548737765,0.006405483128130436
1746734332369825300,4.9388251953125,0.00021101240217685698,-0.0051908101087436076,0.005795260541606694
1746734332379792400,4.94879248046875,-0.01535246743261814,-0.002755801514163613,0.014765333460737018
1746734332389759200,4.95875927734375,-0.041239188361167904,0.009834617326594889,-0.007893182668928056
1746734332399725300,4.968725341796875,-0.04004091848731041,-0.012954795173741877,-0.009377886535041034
1746734332409692200,4.978692138671875,-0.004426584270596504,-0.009950791052170097,0.0003121529554016888
1746734332419659300,4.9886591796875,-0.018042437168955802,0.00808938109446317,0.0023141952265053984
1746734332429626400,4.99862646484375,-0.016246785923838613,0.00818929780498147,-0.00016582155358046293
1746734332439592400,5.008592529296875,-0.026119360640645024,-0.020184234970621762,-0.01706529923249036
1746734332449559600,5.0185595703125,0.00021276596784591673,-0.01425484492164105,0.002716090558283031
1746734332459526400,5.0285263671875,-0.012208324187994002,-0.006434490026906132,0.0010651084808632732
1746734332469493500,5.038493408203125,-0.042585926795005793,0.0013714344836771488,0.015137436442449689
1746734332479459300,5.048459228515625,-0.03704933545589447,-0.0026630817294120788,-0.0014703465471975505
1746734332489426400,5.058426513671875,-0.0071212301820516586,-0.0085054510820657,0.013480097689479588
1746734332499393500,5.0683935546875,-0.011008885270357132,-0.00949161257520318,-0.009271722746826708
1746734332509360400,5.0783603515625,-0.02223053650856018,-0.020020861102454362,-0.008477942020632326
1746734332519327500,5.088327392578125,-0.013704700225591658,-0.013534275562129914,0.004306519821193069
1746734332529293300,5.098293212890625,-0.003084522011876106,-0.007165142389014363,-0.005053063872177153
1746734332539260400,5.108260498046875,-0.034955578047037125,-0.003011274112574756,0.0009162380620837211
1746734332549227500,5.1182275390625,-0.024479776740074156,-0.012350655268132687,0.0012572152531705797
1746734332559194400,5.1281943359375,-0.01969254246354103,-0.008896496226266025,0.010571644630562513
1746734332569160400,5.138160400390625,-0.016551321828365325,-0.010367372496426105,-0.011424809127487242
1746734332579127300,5.148127197265625,-0.031515082204341884,-0.01321344610992819,-0.010809015316702425
1746734332589094400,5.158094482421875,-0.03675181381404399,0.004900375794805586,-0.01249298634827137
1746734332599061500,5.1680615234375,-0.014608955588936805,-0.0011153773633763193,-0.02014828687440604
1746734332609028400,5.1780283203125,-0.02269055523574352,-0.011851948498375713,0.006465962877403944
1746734332618994400,5.187994384765625,-0.034809447574615474,-0.023264738394506275,-0.00012316972194239496
1746734332628961300,5.197961181640625,-0.009523030626773834,-0.0062150385899469255,-0.001214362492132932
1746734332638928400,5.207928466796875,-0.012365560576319694,0.0007516220849007368,0.01205404694173485
1746734332648895200,5.217895263671875,-0.019998247411847112,-0.0104854824507609,-0.011816858918685466
1746734332658861300,5.227861328125,-0.02463993573784828,-0.009513495613448322,0.010046835305169224
1746734332668828400,5.237828369140625,-0.03256955969333648,-0.00985171459186822,0.00811612297091633
1746734332678795300,5.247795166015625,-0.0361591086179018,-0.009302410146035254,0.00588306668922305
1746734332688762400,5.257762451171875,-0.019992986714839935,-0.014377375322766601,-0.0029899025309830904
1746734332698728400,5.267728515625,-0.012063947281241416,-0.010900602590292692,-0.021369152172561735
1746734332708695300,5.2776953125,-0.02134206323623657,0.0010828268006443976,0.003779244544077664
1746734332718662100,5.287662109375,-0.017000819161534307,-0.020024075972847638,-0.0012088095341809093
1746734332728629200,5.297629150390625,-0.022091420298814772,-0.012331914035044609,-0.005658062294311821
1746734332738596400,5.307596435546875,-0.026429157242178914,-0.007738046906143426,-0.012559475713223219
1746734332748562400,5.3175625,-0.04498305106461048,-0.005227744585648179,-0.004473090293444693
1746734332758529500,5.327529541015625,-0.021192425632476804,-0.007752440757676959,-0.008021850549895316
1746734332768496400,5.337496337890625,-0.025679800179600715,-0.0041841903494670984,-0.017187939231470228
1746734332778463500,5.34746337890625,-0.02013970170915127,-0.019081497893109915,0.0016234364833682775
1746734332788429300,5.35742919921875,-0.031359599381685255,0.0027051307728514075,0.005766363240685314
1746734332798396400,5.367396484375,-0.018791209709644315,-0.007156520691141486,0.006864679871406406
1746734332808363500,5.377363525390625,-0.012210077753663062,-0.020534400115162135,0.005350110589992255
1746734332818330400,5.387330322265625,-0.01655190635025501,-0.01123151504509151,0.006485873154271394
1746734332828296400,5.39729638671875,-0.027477789512276647,0.005152377794496715,-0.010006649425253271
1746734332838263300,5.40726318359375,-0.009373393023014069,0.017465039139799774,-0.00324663550471887
1746734332848230400,5.41723046875,-0.024192191970348356,-0.012669621556811034,-0.00003682487905025482
1746734332858197500,5.427197509765625,-0.01925415104627609,-0.010874043376930057,-0.014710004810616373
1746734332868164400,5.437164306640625,-0.02793430110812187,0.007269662209413945,-0.007830912821367383
1746734332878130400,5.44713037109375,-0.02045066735446453,-0.01280110244937241,0.00200339397797361
1746734332888097000,5.457096923828125,-0.027187282133102415,-0.021419987310655413,-0.00006453486988320947
1746734332898064100,5.467064208984375,-0.022698738542199132,-0.011241671112924814,-0.007671119149774312
1746734332908031200,5.47703125,-0.020306290447711945,0.011360511719621717,0.0025741248043254015
1746734332917997000,5.4869970703125,-0.014023264655470847,-0.0019203005380928515,0.001263517129793763
1746734332927964200,5.496964111328125,-0.005794365492463111,-0.010105725885555148,0.007075582675728946
1746734332937931000,5.506930908203125,-0.018811667975783347,-0.006537256281636655,-0.007611260455008596
1746734332947898000,5.516898193359375,-0.025994272956252097,-0.0020499182671308517,0.000615282354131341
1746734332957864000,5.526864013671875,-0.02554360657930374,-0.013767755524441599,0.0006128712013363837
1746734332967831000,5.5368310546875,-0.017164485290646552,-0.014159933179803191,-0.005430591947678476
1746734332977798100,5.546798095703125,-0.031229251000285146,-0.011485562871396541,-0.009957366923429072
1746734332987765000,5.556764892578125,-0.01087386071383953,0.002747983533889055,-0.011590886409394442
1746734332997732000,5.566732177734375,-0.03631166883111,-0.014354980827867984,0.003570442365296185
1746734333007698200,5.5766982421875,-0.004288052582740783,-0.008087956322357058,0.005633512374944984
1746734333017665000,5.5866650390625,-0.0021913725644350053,-0.013078859944827853,0.003979297160822898
1746734333027632000,5.596632080078125,-0.02987374473810196,-0.0006853519156575202,-0.011403912469930947
1746734333037599000,5.606598876953125,-0.003986439287662506,-0.003851597394235432,0.01033242904720828
1746734333047565300,5.6165654296875,-0.006532032117247581,-0.007717698237858712,0.006630542321968824
1746734333057532200,5.6265322265625,-0.03241992208957672,-0.0047165436604991555,-0.007276749537326395
1746734333067499300,5.636499267578125,-0.04229951106905937,-0.014687244989536701,-0.010320976071432232
1746734333077466000,5.646466064453125,-0.021952304089069365,-0.01865264148917049,0.0004784676993265748
1746734333087432200,5.65643212890625,-0.013724573969841003,-0.019803163231164215,-0.0009845905905589462
1746734333097399300,5.6663994140625,-0.00938332989513874,-0.007291143388859927,-0.00005492679132148623
1746734333107366100,5.6763662109375,-0.02210194169282913,-0.000004858838208019733,0.0011948540740646422
1746734333117333200,5.686333251953125,-0.008632803788781165,-0.012174202722683549,0.001792692103050649
1746734333127300000,5.696300048828125,-0.02524550041556358,-0.003267842689529061,-0.007779566226620227
1746734333137266200,5.70626611328125,-0.04006079223155975,-0.0019121172316372394,-0.0075805547894909975
1746734333147233000,5.71623291015625,-0.03048573915660381,-0.011475552934035658,-0.003032682226784527
1746734333157200100,5.7262001953125,0.0003384381741285324,-0.022701989945210516,0.00658407283173874
1746734333167167200,5.736167236328125,-0.006994973453879356,-0.020893406153284014,0.006794756440352648
1746734333177133000,5.746133056640625,-0.02315641918182373,-0.01728456800635904,0.0003568871462717652
1746734333187100200,5.75610009765625,-0.024204466930031775,0.002603350898809731,0.007273096275515854
1746734333197067000,5.76606689453125,-0.0177723880559206,-0.013776048428751528,-0.01638513494860381
1746734333207034000,5.7760341796875,-0.012086743634939194,0.003013502602279186,-0.021043591746315357
1746734333217001200,5.786001220703125,-0.03064005293548107,-0.007817432285286486,-0.009654968177061527
1746734333226967000,5.795967041015625,-0.026605682852864264,-0.013252828272245824,0.010813801089674233
1746734333236934100,5.80593408203125,-0.026908465191721916,0.010162534106709063,0.008596161572821438
1746734333246901000,5.81590087890625,-0.015986089161038396,-0.0010243746116757391,0.013989745978359133
1746734333256868000,5.8258681640625,-0.02077741509079933,-0.010226027796976268,0.006075648385565727
1746734333266834000,5.835833984375,-0.03798749308884144,-0.013227365037426352,-0.007754523116908967
1746734333276801000,5.845801025390625,-0.009255319601297378,-0.011485599404014646,0.019351638337690383
1746734333286768000,5.85576806640625,-0.02421907997727394,-0.0013285086574032902,0.00021873905090615152
1746734333296735000,5.86573486328125,-0.02062894653081894,0.014408501113392412,-0.012926226666383444
1746734333306701000,5.875701171875,-0.035439562171697615,0.00011810995433479546,-0.037662352787703274
1746734333316668200,5.885668212890625,-0.009397942942380905,-0.01088087497651577,-0.008136983095854521
1746734333326635000,5.895635009765625,-0.02076514013111591,-0.01573982278238982,0.02808883408270776
1746734333336602000,5.90560205078125,-0.0340805487781763,-0.006799304751306772,0.013537581764068454
1746734333346568200,5.915568115234375,-0.023006197056174276,-0.006527940464019775,-0.03750995697127655
1746734333356535300,5.925535400390625,-0.008340542843937874,-0.003214468534477055,-0.03160535430368036
1746734333366502100,5.935502197265625,-0.015371756654977798,-0.014149886709824203,-0.01209313684310764
1746734333376469200,5.94546923828125,-0.03183130854666233,-0.00581157235559076,0.01369695531055331
1746734333386436000,5.95543603515625,-0.024350012880563734,-0.010177877806313336,0.012864541340712457
1746734333396402200,5.965402099609375,-0.012076222240924835,-0.01232259821742773,-0.010104739504866301
1746734333406369300,5.975369384765625,-0.015219780963659285,-0.010007197414524853,0.004785754705499857
1746734333416336100,5.985336181640625,-0.026143326038122177,-0.012941058909334242,-0.012967051867116242
1746734333426303200,5.99530322265625,-0.024346505749225616,-0.008899199640005826,-0.005831099039968103
1746734333436269000,6.00526904296875,-0.022850714233517644,-0.018631452570669352,0.016635712176188824
1746734333446236200,6.015236083984375,-0.01865735419690609,-0.014045001563243568,0.00039690862940624356
1746734333456203300,6.025203369140625,-0.021200608938932417,0.010781360124796628,-0.006190013746544719
1746734333466170000,6.035170166015625,-0.021795652222633362,0.0011279445840045809,-0.01566241016462445
1746734333476136200,6.04513623046875,-0.02329144373834133,0.0012672799894586206,-0.011339523730520159
1746734333486103000,6.05510302734375,-0.0014443535894155502,-0.014746208635158835,0.006627491848357021
1746734333496070100,6.065070068359375,-0.03436579546034336,-0.007108991754986345,0.005472184333391487
1746734333506037200,6.075037353515625,-0.02239654072523117,-0.011842486550286411,-0.002460800622962415
1746734333516003000,6.085003173828125,-0.01461480080783367,-0.01493789528235793,0.003264646085444838
1746734333525970200,6.09497021484375,-0.02778407898247242,-0.021386158106289802,-0.0009842617969959974
1746734333535937000,6.10493701171875,-0.035866847673058505,0.0015825930163264274,0.0009375731110572815
1746734333545904000,6.114904052734375,-0.02853343604505062,-0.00010360650494694709,-0.010117251926567405
1746734333555871000,6.12487109375,-0.011323942568898201,-0.0019101079376414418,-0.0016216829176992178
1746734333565837000,6.134837158203125,-0.013273323071002959,-0.009864756736531853,-0.011232245697453618
1746734333575804200,6.14480419921875,-0.030632454150915145,-0.0047573505949229,-0.005061557705886662
1746734333585771000,6.15477099609375,-0.012674188134074211,0.003223857417330146,-0.005882865759823471
1746734333595738000,6.164738037109375,-0.02853343604505062,-0.01942285867668688,0.006060706544760614
1746734333605704200,6.1747041015625,-0.028088614886999128,-0.00287716287150979,0.012867409151233732
1746734333615671000,6.184671142578125,-0.04095744881033897,-0.0012546762362122535,-0.0032622349326498806
1746734333625638000,6.194637939453125,-0.030630700585246085,-0.015346220354922115,-0.009139967859629542
1746734333635605000,6.20460498046875,0.0046831893801689145,0.0005548939364030957,-0.00453565240195021
1746734333645571300,6.2145712890625,-0.0063935004293918605,-0.014026844852045178,0.015531933919060974
1746734333655538200,6.2245380859375,-0.02075871039032936,0.0020179522262886167,0.0216244603741914
1746734333665505300,6.23450537109375,-0.01686521008312702,-0.0028809257311746476,0.010878482090029866
1746734333675472100,6.24447216796875,-0.00982815105319023,-0.007737352786399423,0.00213679283298552
1746734333685438200,6.254438232421875,-0.022101357170939445,-0.007664981669932604,-0.008044811300374566
1746734333695405000,6.264405029296875,-0.025392215409874914,-0.00872154151815921,-0.01585959497084841
1746734333705372200,6.2743720703125,-0.02299509114027023,0.00004997662156820297,-0.010367116768099366
1746734333715339300,6.28433935546875,-0.033764322435855865,-0.007201748072355985,0.004187861877586693
1746734333725306000,6.29430615234375,-0.022085575079917905,-0.013447400996275245,0.007333850019425154
1746734333735272200,6.304272216796875,-0.019688450810313222,-0.011521620565466581,-0.0023678433761931956
1746734333745239000,6.314239013671875,-0.027019524350762367,-0.009591894611902534,-0.007336297704838216
1746734333755206100,6.3242060546875,-0.02537234166562557,-0.008562515031546354,0.0028118973492644726
1746734333765173200,6.33417333984375,-0.009210895937681197,-0.008175086616538464,-0.013255677816458046
1746734333775139000,6.34413916015625,-0.03704524380266666,-0.010987696351855992,-0.0057541065473109484
1746734333785106200,6.354106201171875,-0.026418635848164555,-0.0016142302636057138,-0.011306772238388657
1746734333795073000,6.364072998046875,-0.011902619239687919,-0.024412118331342936,0.002482281802408397
1746734333805040000,6.3740400390625,-0.03794248490333557,-0.0005297594951465726,0.009668119919579476
1746734333815006000,6.384005859375,-0.02926408840715885,-0.005737739934399724,-0.01101617352766916
1746734333824973000,6.39397314453125,-0.018791794231534004,-0.011950367371551692,-0.021633465664554385
1746734333834940200,6.403940185546875,-0.016994389420747755,-0.01051916552465409,-0.006811031721718609
1746734333844907000,6.413906982421875,-0.019684359157085416,-0.0062660015922039744,-0.016710256983432918
1746734333854873000,6.423873046875,-0.026415713238716124,0.009676102296635508,-0.020434501670952884
1746734333864840000,6.43383984375,-0.009656301617622374,-0.007981829066760837,-0.013715824407804757
1746734333874807000,6.44380712890625,-0.011003624573349953,-0.0076382032608613365,0.0035949922846630214
1746734333884774100,6.453774169921875,-0.017290742018818854,-0.003535553715005517,0.0004738280568271875
1746734333894740700,6.46374072265625,-0.024172318226099013,0.0007973243901506066,-0.010074673160165548
1746734333904706800,6.473706787109375,-0.028662615382671355,-0.0102559480112046,-0.008547390527650713
1746734333914674000,6.483673828125,-0.02806581853330135,-0.01308956400193274,0.014404318128619342
1746734333924640800,6.493640869140625,-0.02611877611875534,-0.021646343412436545,-0.0005937829083763063
1746734333934608000,6.50360791015625,-0.033898177948594094,-0.004024981199763715,-0.004663059907592833
1746734333944574000,6.513573974609375,-0.03314765184223652,-0.012771109169907867,-0.008109346170257777
1746734333954540800,6.523540771484375,-0.00756079064309597,-0.010652582645975052,-0.002395681231189519
1746734333964508000,6.5335078125,-0.02940788079202175,-0.013936609285324811,-0.0003248480401933193
1746734333974475000,6.54347509765625,-0.031054478955268857,0.012409326652809976,0.0019280637194402516
1746734333984440800,6.55344091796875,-0.015787351718544958,0.005767331355065107,-0.007284823245927691
1746734333994408000,6.563407958984375,-0.0063590136379003525,-0.010575571887008845,-0.011043536458630114
1746734334004374800,6.573374755859375,-0.036735447201132775,-0.011200718048028647,-0.005160013111680746
1746734334014342000,6.583341796875,-0.033442835396528245,-0.0031949235837906596,-0.02166418959638104
1746734334024307700,6.5933076171875,-0.02431611061096191,-0.013938910840265452,0.0057360777002759275
1746734334034274800,6.60327490234375,-0.014440028762817383,-0.01776036882456392,-0.0015689480834640561
1746734334044242000,6.613241943359375,-0.016382395002245902,-0.014822854067943989,0.0013753434738144278
1746734334054208800,6.623208740234375,-0.030445407146215436,-0.013513086643628776,0.0042803989992477
1746734334064174800,6.6331748046875,-0.019669161587953565,-0.00963715852573514,-0.006432973923254758
1746734334074141700,6.6431416015625,-0.02146539735496044,-0.015178681768290698,-0.007129705749452113
1746734334084108800,6.65310888671875,-0.02670388253033161,-0.0003686506493017077,-0.005892035446967929
1746734334094075600,6.66307568359375,-0.02894903110861778,-0.010058671873435378,0.008589202109072358
1746734334104041700,6.673041748046875,-0.01698211446106434,-0.007082651737332343,-0.008185553211625665
1746734334114008800,6.6830087890625,-0.0127922615557909,-0.025303185419552027,0.0016214271893724799
1746734334123975700,6.6929755859375,-0.040027474483847615,-0.008056940129585563,-0.005567132607847452
1746734334133942800,6.70294287109375,-0.0451128149241209,0.0007338672325015068,-0.008743716817349196
1746734334143909600,6.71290966796875,-0.010096446600556372,0.001489069513976574,-0.0019430786254815756
1746734334153875700,6.722875732421875,-0.024762685334682462,-0.008906652294099331,0.005196600528713315
1746734334163842600,6.732842529296875,-0.042272623062133786,-0.01663702735044062,-0.004794960925262421
1746734334173809700,6.7428095703125,-0.024016250881552695,-0.02369096444994211,-0.00600619987854734
1746734334183776800,6.75277685546875,-0.008751461732387542,-0.021641009650193152,0.0013153934475034475
1746734334193742800,6.762742919921875,-0.024314357045292855,-0.024765388748422264,0.010003105761297046
1746734334203710000,6.7727099609375,-0.03074935852885246,0.009798413502052426,0.004649762034602463
1746734334213676800,6.7826767578125,-0.026857611787319182,0.00005194938294589519,-0.015734269824437794
1746734334223644000,6.792643798828125,-0.0015659341424703597,-0.018411599274910987,-0.0012516074962913989
1746734334233609700,6.802609619140625,-0.009342997884750365,-0.024491467177867886,-0.009509422226529568
1746734334243576800,6.812576904296875,-0.01667524046897888,-0.002197290848568082,0.002743343891389668
1746734334253544000,6.8225439453125,-0.034034371548891065,-0.005566292357631028,0.009857048354111612
1746734334263510800,6.8325107421875,-0.02341127072572708,-0.010578457963839173,0.0005103972075507045
1746734334273476900,6.842476806640625,-0.03643091129660606,-0.0003606500059366226,-0.0051864809934981165
1746734334283443700,6.852443603515625,-0.025506781700253486,-0.01395246444158256,0.000118201285880059
1746734334293410800,6.862410888671875,-0.03358195160627365,-0.0001565422685816884,-0.006211732388008385
1746734334303378000,6.8723779296875,-0.01741641422510147,-0.013597805785015224,0.001248502223752439
1746734334313343700,6.88234375,-0.011732523369789123,-0.011736468892544507,0.0008016900380142033
1746734334323310800,6.892310791015625,-0.04360416392683983,-0.006987557332403958,0.0038143158574588595
1746734334333277700,6.902277587890625,-0.03178162418603897,-0.002512092418782413,-0.006543996549677103
1746734334343244800,6.912244873046875,-0.007241641691327095,-0.006218436123430728,0.0009117993489839136
1746734334353210600,6.922210693359375,-0.0006575871258974075,0.0011274696599692107,-0.010479911226499826
1746734334363177700,6.932177734375,-0.0419581502854824,-0.008290054765716195,-0.011079667217936367
1746734334373144800,6.942144775390625,-0.021007716715335845,-0.015320537924394011,-0.02041859171576798
1746734334383111700,6.952111572265625,-0.01711713901758194,-0.01030738593749702,0.0023420696141198275
1746734334393078800,6.962078857421875,-0.03702010936141014,-0.004888685357011854,0.013877810036484152
1746734334403044600,6.972044677734375,-0.02938742252588272,-0.0029902678571641444,0.014939539250172674
1746734334413011700,6.98201171875,-0.029236031356453893,-0.015475984214432536,-0.00985900284918025
1746734334422978800,6.991978759765625,-0.017709844213724135,-0.006898015885427594,-0.022609288426768032
1746734334432945700,7.001945556640625,-0.023095628905296324,-0.007693952036090195,-0.0009088950058445334
1746734334442911700,7.011911865234375,-0.022797522741556168,0.0004214768150821328,0.0029978849080391228
1746734334452878600,7.021878662109375,-0.026536709269881248,-0.01192537906076759,-0.018365641241334378
1746734334462845700,7.031845703125,-0.008880641070008277,-0.016849829850904642,0.0039606472592800855
1746734334472812800,7.041812744140625,-0.00903086319565773,-0.0011279445840045809,0.00262636644821614
1746734334482779000,7.05177880859375,-0.02893558710515499,-0.005833163132891059,-0.007401983352191745
1746734334492746000,7.06174609375,-0.021903788772225378,-0.002055873083882034,-0.013082677603419869
1746734334502712800,7.071712890625,-0.020406828212738037,-0.022910919988155365,-0.008222597286384551
1746734334512680000,7.081679931640625,-0.010530161842703818,-0.004665872919186949,0.002681512435246259
1746734334522645800,7.091645751953125,-0.04180442102849483,0.008220971584878861,0.0007038556867279112
1746734334532612900,7.10161279296875,-0.021308160966634748,-0.006962605554237961,-0.0037200069038197396
1746734334542580000,7.111580078125,-0.016668226206302643,-0.01580390099454671,-0.01437452577855438
1746734334552546800,7.121546875,-0.010381693282723425,0.00046385465208441016,-0.007055197474826127
1746734334562513000,7.131512939453125,-0.030580431702733037,-0.004515796924009919,-0.012780863378942011
1746734334572479700,7.141479736328125,-0.031029344514012337,-0.006930676046013832,0.0016281491911038755
1746734334582446800,7.15144677734375,-0.014870236873626708,-0.010914119658991694,0.007138126517925411
1746734334592414000,7.1614140625,-0.023995792615413663,-0.010226064329594373,0.015067677408177405
1746734334602380800,7.171380859375,-0.044644612890481945,-0.015496077154390513,0.0005478979400359093
1746734334612347000,7.181346923828125,-0.010229717591404914,-0.006783595725521445,-0.004356624306924641
1746734334622313700,7.191313720703125,-0.017112462842464447,-0.021879677244275808,-0.013544340298417955
1746734334632280800,7.20128076171875,-0.02204524306952953,0.003874247617460787,-0.009405687857419251
1746734334642247700,7.21124755859375,-0.023093290817737578,-0.008381934300251305,0.003766713856067508
1746734334652213800,7.2212138671875,-0.04583996015489101,-0.002943615703843534,0.0030412856583483514
1746734334662180900,7.231180908203125,-0.023092706295847892,-0.019173560090735554,0.013051606611721217
1746734334672147700,7.241147705078125,-0.013666706302762031,-0.019131291851587594,-0.009099982909113168
1746734334682114800,7.25111474609375,-0.03341886999905109,-0.0035655104618519543,-0.011788381742872297
1746734334692080600,7.26108056640625,-0.03491524603664875,0.0039072365716099735,-0.009700396487675607
1746734334702047700,7.2710478515625,0.0005494505763053894,0.00150470547452569,-0.0010254705902189016
1746734334712014600,7.2810146484375,-0.009624152913689612,-0.013036299444735049,-0.002399955547507852
1746734334721981700,7.290981689453125,-0.029379239219427106,-0.0032779987573623654,-0.0015838351253420113
1746734334731947800,7.30094775390625,-0.025485154390335083,-0.0011073767200112342,-0.010302015642635524
1746734334741914600,7.31091455078125,-0.014113281026482582,-0.0141140847440809,0.004084474568348377
1746734334751881700,7.3208818359375,-0.030875030735135076,-0.007946246296726167,0.004118924827221781
1746734334761848600,7.3308486328125,-0.03656301324367523,-0.009269311594031751,-0.0006202690565027296
1746734334771815000,7.34081494140625,-0.021748305949568746,-0.007807641543634235,-0.01794843874257058
1746734334781781800,7.35078173828125,-0.01651098981797695,-0.012620558250695467,-0.011316727376822381
1746734334791748900,7.360748779296875,-0.01202069266140461,-0.0036592166272923347,-0.0033991226526908576
1746734334801716000,7.370716064453125,-0.034164719930291174,-0.0004240340983495116,-0.008354845363926142
1746734334811681800,7.380681884765625,-0.02040273655951023,-0.010797288346290589,-0.030006522538606077
1746734334821649000,7.39064892578125,-0.015168343037366866,-0.013099062482640146,-0.0053406121092848475
1746734334831615700,7.40061572265625,-0.0248918646723032,-0.0023804653957486153,-0.00044757937071844935
1746734334841582800,7.410582763671875,-0.02833469860255718,-0.005194390305317938,-0.002222991545405239
1746734334851550000,7.420550048828125,-0.023847324055433272,0.004383366183377802,0.011468757867068052
1746734334861515800,7.430515869140625,-0.02459901920557022,-0.009162490218691527,0.014672394480276851
1746734334871483000,7.44048291015625,-0.013076923716068268,-0.009007920711487531,0.004770593668986111
1746734334881449700,7.45044970703125,-0.022654314878582955,-0.0022515052538365126,0.0043195436995476484
1746734334891417000,7.4604169921875,-0.014123217898607253,-0.000038688042573630805,-0.006183565739449113
1746734334901383200,7.470383056640625,-0.025198738664388654,0.0013639818295836448,-0.010643065898958593
1746734334911350000,7.48035009765625,-0.03283201002180576,-0.005783588370122015,-0.01077050993721932
1746734334921317000,7.490317138671875,-0.02983925794661045,-0.0035298546265810724,-0.006614157442748546
1746734334931284200,7.5002841796875,-0.01636719743311405,-0.0187114224717021,-0.014042060687486082
1746734334941250000,7.51025,-0.02010112326443195,-0.011234729915484786,0.0005420344548299909
1746734334951217200,7.520217041015625,-0.020251345390081405,-0.014568039056658743,0.003934033246990293
1746734334961184000,7.53018408203125,-0.029829321074485778,-0.019221892744489013,0.004620298478100448
1746734334971151000,7.540151123046875,-0.022648469659686088,-0.013277962713502347,0.0022250008394010365
1746734334981117000,7.550116943359375,-0.024292729735374448,-0.003013027678243816,-0.00974133128626272
1746734334991084000,7.560083984375,-0.03147767280340195,-0.008507350778207183,-0.0034104842969216406
1746734335001051100,7.570051025390625,-0.010230302113294601,-0.008766001714393496,-0.01822782193953171
1746734335011018000,7.58001806640625,-0.01591594653427601,-0.012079802437499164,0.0057215377182699735
1746734335020984000,7.589984130859375,-0.03132628163397312,-0.01318016489483416,0.0005989157412201165
1746734335030951000,7.599950927734375,-0.023541034585237503,-0.009499942012131214,0.003652859951741993
1746734335040918000,7.60991796875,-0.043590719923377035,0.0069779857864603395,-0.0016868936410173773
1746734335050885000,7.619885009765625,-0.027433950370550155,-0.0026458383336663244,0.0007086414596997201
1746734335060851200,7.629851318359375,-0.012770634245872497,-0.02235160560496151,-0.007082651737332343
1746734335070818300,7.639818359375,-0.01980535518825054,-0.015143172063492237,-0.008686013547051697
1746734335080785200,7.64978515625,-0.02803366982936859,-0.002802051808685064,-0.007583020741213113
1746734335090752000,7.659751953125,-0.01247252808213234,-0.018298969213292,-0.003293726049456745
1746734335100718000,7.669718017578125,0.00039396775364875793,0.0009277823694050311,-0.008244699520338326
1746734335110685200,7.679685302734375,-0.030882629519701003,-0.014429397770948708,-0.010636325630918144
1746734335120652300,7.68965234375,-0.03073240739405155,-0.012520276213996111,-0.0022161782121285795
1746734335130619100,7.699619140625,-0.009334814578294753,-0.006519136103056371,-0.007454425925482064
1746734335140585200,7.709585205078125,-0.014870236873626708,-0.009816679811105131,-0.010651121341250836
1746734335150552000,7.719552001953125,-0.03402560372054576,-0.0069199354562908405,0.00580225653797388
1746734335160519200,7.729519287109375,-0.0323772519916296,-0.004700688504241407,-0.0009866912161000073
1746734335170486300,7.739486328125,-0.027145196557044983,-0.014610343828424811,0.008478544808831066
1746734335180452000,7.7494521484375,-0.02250935344994068,-0.010835099606029689,0.01382021636404097
1746734335190419200,7.759419189453125,-0.02490530867576599,-0.023206322738155722,-0.0041489363729953765
1746734335200386000,7.769385986328125,-0.022213000851869582,0.005554711517691612,-0.003987389135733247
1746734335210353200,7.779353271484375,-0.014880758267641066,0.011700995720364153,-0.007886095341015607
1746734335220319000,7.789319091796875,-0.012337503525614737,-0.017923377366550267,-0.01221917437557131
1746734335230286000,7.7992861328125,-0.031493454894423484,-0.01444386468771845,-0.006184734783228486
1746734335240253200,7.809253173828125,-0.04286766634583473,-0.013072137943096458,0.0028407763838768003
1746734335250220000,7.819219970703125,-0.013536942443251609,-0.00967854998204857,-0.0062726870613172645
1746734335260187100,7.829187255859375,0.0009784896433353424,-0.013178776655346154,-0.007267342388164252
1746734335270153000,7.839153076171875,-0.03359247300028801,0.00154244366902858,-0.011919862635433673
1746734335280120000,7.8491201171875,-0.03075286566019058,0.0011742679437622427,-0.0024532749036327004
1746734335290087200,7.859087158203125,-0.012048749712109565,-0.009141228234954177,0.01208645137399435
1746734335300054000,7.869053955078125,-0.018783026403188706,-0.009136807788163424,-0.001813990619406104
1746734335310020000,7.87902001953125,-0.021627309918403625,-0.0007445712896063923,-0.011674272110220044
1746734335319987000,7.888987060546875,-0.03644318625628948,0.0010639394370839,-0.021770170721504837
1746734335329954000,7.8989541015625,-0.008761398604512215,-0.010439926275983452,-0.010222173605766147
1746734335339921200,7.908921142578125,-0.02028115600645542,-0.02095996858347207,0.005749466904811561
1746734335349887200,7.91888720703125,-0.03823649941384792,-0.0003283551715314388,0.005274816864077002
1746734335359854300,7.928854248046875,-0.024170564660429952,-0.005898812247626483,0.024051961515750734
1746734335369821200,7.9388212890625,-0.02851122421324253,-0.008720080213434993,-0.005118530323822051
1746734335379788300,7.948788330078125,-0.014744564667344093,-0.022359460117854175,0.0031453853536397218
1746734335389754000,7.958754150390625,-0.020129764837026595,-0.0008888751311227678,-0.000844853326305747
1746734335399721200,7.96872119140625,-0.030003508597612378,0.0011276523230597376,-0.0023256847348995507
1746734335409688300,7.978688232421875,-0.019230185648798942,0.00039725568927824494,-0.0045722032863646745
1746734335419655200,7.9886552734375,-0.015040332743525503,-0.003022124300152063,-0.0062644306896254415
1746734335429621200,7.998621337890625,-0.025214520755410193,-0.005568703510425985,-0.0012148374161683022
1746734335439588000,8.008588134765626,-0.018481413108110425,-0.010219013534300029,-0.010139335894212126
1746734335449555200,8.01855517578125,-0.017132921108603476,-0.01057831183336675,-0.007894497843179851
1746734335459522000,8.02852197265625,-0.00965220996439457,-0.00515814994815737,-0.01775112607218325
1746734335469488000,8.038488037109374,-0.035388124245405196,-0.013882650608383118,-0.006399363914597779
1746734335479455200,8.048455322265625,-0.023117256215214727,-0.0025543241253122686,-0.000376085037086159
1746734335489422000,8.058422119140625,-0.004115618625283241,0.0011267390076071023,0.010664839339349419
1746734335499389200,8.06838916015625,-0.01788344721496105,-0.010978745860420167,-0.004856372256297618
1746734335509355000,8.07835498046875,-0.030301614761352538,-0.009648739365674555,-0.010599190224613994
1746734335519322000,8.088322021484375,-0.010700257712602615,-0.002393945931829512,-0.02116005773283541
1746734335529289000,8.0982890625,-0.026409868019819257,-0.011998773090541362,0.005584832661319524
1746734335539256000,8.108256103515625,-0.027013094609975814,-0.006657448595203459,-0.011443860887829213
1746734335549222100,8.11822216796875,-0.012801613906025886,-0.008831760426983236,0.001966696963086724
1746734335559189000,8.12818896484375,-0.0201338564902544,-0.000025024843402206896,0.004687043571379035
1746734335569156000,8.138156005859376,0.008448679393529892,-0.00998341468013823,0.0017440123894251881
1746734335579123000,8.148123046875,-0.012200725403428076,-0.02305617367774248,0.010512498321849853
1746734335589089300,8.15808935546875,-0.018334698113799095,-0.01109535797741264,-0.0040665187865495675
1746734335599056100,8.16805615234375,-0.020131518402695656,-0.011049326878599821,-0.0039253202175721525
1746734335609023000,8.17802294921875,-0.010106967994570731,-0.007424706640653312,0.01358987820688635
1746734335618990000,8.187989990234374,-0.031655951979756354,-0.029127492948062716,0.0019789719227701424
1746734335628956200,8.1979560546875,-0.024025018709897993,-0.017245039713568985,-0.01799172989502549
1746734335638923300,8.20792333984375,0.009943886387348175,0.0004893909521400928,-0.0031220592769794163
1746734335648890000,8.21789013671875,-0.032550270470976826,-0.013941979580186307,0.005224639313109219
1746734335658857200,8.227857177734375,-0.02357084520161152,-0.006287446239031851,0.001989675979875028
1746734335668824300,8.23782421875,-0.02357084520161152,-0.010887122054211794,-0.004078994675632566
1746734335678790100,8.2477900390625,-0.02147767231464386,-0.014977642770856617,0.0015320684054866433
1746734335688757200,8.25775732421875,-0.026567688930034635,-0.02041146785523742,0.006265380537696182
1746734335698724000,8.26772412109375,-0.013255202892422675,-0.013390958101302385,-0.0021077311352826656
1746734335708691200,8.277691162109376,-0.04453121564388275,-0.014256781150400638,-0.008347356177214533
1746734335718657000,8.287656982421876,-0.04663023374974727,0.0031585736287757754,0.005810786904301494
1746734335728624000,8.2976240234375,-0.014754501539468765,-0.0063519263099879025,-0.0012019048693589864
1746734335738591200,8.30759130859375,-0.023430559948086738,-0.005404270196333528,-0.008669044145941733
1746734335748558000,8.31755810546875,-0.030613164928555488,0.0023310367634519933,-0.006041727849654853
1746734335758524200,8.327524169921874,-0.011162614527344702,-0.0010854571491479873,-0.007628284655045717
1746734335768491000,8.337490966796874,-0.005479308193922043,-0.02063563199993223,-0.0017339111205190419
1746734335778458000,8.3474580078125,-0.02897475007176399,-0.019686076190136372,-0.008588325326237828
1746734335788425200,8.35742529296875,-0.02882745055556297,-0.00944240313861519,-0.004539707522559911
1746734335798391000,8.36739111328125,-0.025534254229068756,-0.012744878750108182,0.008881225591897964
1746734335808358100,8.377358154296875,-0.006230418822169304,-0.009294519100524484,0.004188373334240168
1746734335818325000,8.387324951171875,-0.01984802528619766,-0.0038749052045866845,0.003725943454261869
1746734335828292000,8.3972919921875,-0.02837912226617336,0.007388977740146219,-0.010486943755485117
1746734335838258000,8.4072578125,-0.033168110108375545,0.0003857113819569349,-0.005721135859470814
1746734335848225000,8.41722509765625,-0.015661679512262345,-0.008995499621331692,-0.0019828626465983688
1746734335858192100,8.427192138671876,-0.009676175361871719,-0.01065283837430179,-0.01035053095947951
1746734335868159000,8.437158935546876,-0.038403672674298284,0.00006784107182174921,-0.005755348656326532
1746734335878125300,8.447125244140626,-0.018650924456119537,-0.014469802846573293,0.006212061181571334
1746734335888092200,8.457092041015626,-0.007424597042798996,-0.013964337542466818,0.00022823753161355852
1746734335898058800,8.467058837890624,-0.01834931116104126,0.0015031711045652627,-0.01164723797282204
1746734335908025600,8.477025634765624,-0.018349895682930946,0.0034587986843660472,-0.008475238606892525
1746734335917991700,8.48699169921875,-0.03630640813410282,-0.015419723982550202,0.001441065653786063
1746734335927958500,8.49695849609375,0.009633505263924598,-0.01698982284348458,0.004350797354336828
1746734335937925600,8.506925537109375,-0.03226677735447883,-0.010512224327214062,-0.010163483954779803
1746734335947892500,8.516892578125,-0.027927286845445633,-0.004837028235010803,-0.016578721291944383
1746734335957858600,8.526858642578125,-0.012815057909488677,-0.011963153787888587,0.004782722498197108
1746734335967825700,8.53682568359375,-0.011319266393780707,-0.008511223235726355,0.0019525953724980354
1746734335977792500,8.54679248046875,-0.02119651728570461,0.0009494096793234348,-0.003726637574005872
1746734335987759600,8.556759521484375,-0.0319675021469593,-0.011397227000817656,-0.01034499626783654
1746734335997725400,8.566725341796875,-0.012961188381910323,0.011800985496118663,-0.007149634292628616
1746734336007692500,8.576692626953125,-0.015207506003975867,-0.007724054913409053,0.0002630165840499103
1746734336017659400,8.586659423828126,-0.037654315611720085,-0.0063413683833554385,0.005345982404146343
1746734336027626500,8.59662646484375,-0.04019640130996704,0.0032259032439440486,0.003038764907699078
1746734336037592600,8.606592529296876,-0.02552957805395126,-0.007015395187400281,-0.005343096327316016
1746734336047559400,8.616559326171876,-0.0066793316334486,-0.01514163769353181,0.015483254205435514
1746734336057526500,8.626526611328124,-0.019248890349268914,0.001945909903384745,0.01378746487190947
1746734336067493400,8.636493408203124,-0.04633563471734523,-0.003559555645100772,-0.009054645930044352
1746734336077459500,8.64645947265625,-0.021646014618873596,-0.012647409725002943,-0.004892320352513343
1746734336087426300,8.65642626953125,-0.008178045758605004,-0.031032157525606452,0.004324895728100091
1746734336097393400,8.666393310546875,-0.020301029750704764,-0.0015006503539159893,0.0022574052716605366
1746734336107360500,8.676360595703125,-0.03182487880587578,0.004375365540012717,-0.0038610045433975755
1746734336117327400,8.686327392578125,-0.03436579546034336,-0.00782671157028526,0.0078045180047862225
1746734336127293700,8.696293701171875,-0.008334113103151321,-0.021302936802245674,0.00032225422430783506
1746734336137260500,8.706260498046875,-0.01835924803316593,-0.018036299689114094,0.00034461218658834693
1746734336147227600,8.7162275390625,-0.03332417745292186,-0.003353584744222462,-0.015049593762215227
1746734336157194500,8.726194580078126,-0.025841712743043897,-0.0007687558827921747,-0.019925109110400078
1746734336167160600,8.73616064453125,-0.0036953473865985868,-0.0037527766622602937,0.0018898140682838856
1746734336177127700,8.746127685546876,-0.019259411743283272,-0.009250789556652306,0.0026540216401219367
1746734336187094500,8.756094482421876,-0.046045127338171,0.008302439323253929,-0.00008744082143530249
1746734336197061600,8.7660615234375,-0.02344926464855671,-0.022538287283480167,-0.020422829499468206
1746734336207027500,8.77602734375,-0.010877367845177649,-0.006302315014600753,-0.0075333181142807
1746734336216994600,8.78599462890625,-0.011324527090787887,-0.005407083207927644,-0.0023838081303052604
1746734336226961700,8.795961669921875,-0.03197393188774585,-0.004841521747037768,-0.005804777288623154
1746734336236928500,8.805928466796875,-0.02329319730401039,-0.014291048746183513,0.0011705050840973854
1746734336246894600,8.81589453125,-0.022691724279522894,-0.012243358968757093,0.016539065134990958
1746734336256861400,8.825861328125,-0.010571662896871566,-0.014148681133426724,0.0016778152854181826
1746734336266828500,8.83582861328125,-0.031218729606270788,-0.004179733370058238,-0.00211768627371639
1746734336276795600,8.845795654296875,-0.024782559078931808,-0.007181764730252325,-0.012520385811850427
1746734336286761500,8.855761474609375,-0.014307926815748214,-0.011951536415331065,-0.0016253727121278642
1746734336296728600,8.865728515625,-0.016701543954014776,-0.0016358575735241174,0.012591094694193452
1746734336306695400,8.8756953125,-0.033310733449459076,0.0035836671730503436,-0.00820685172798112
1746734336316662500,8.88566259765625,-0.026427403676509857,-0.0019675372133031487,0.0008042290549725294
1746734336326628400,8.89562841796875,-0.004430091401934623,-0.020514307175204156,-0.009882182795368134
1746734336336595500,8.905595458984376,-0.018193828338384628,0.002730046018399298,-0.01239376375749707
1746734336346562600,8.9155625,-0.02747252881526947,-0.0002256254494190216,0.0048027971718460315
1746734336356529400,8.925529296875,0.00036298809349536896,0.003591960077360272,0.0011944339489564299
1746734336366495500,8.93549560546875,-0.024026772275567054,0.0022657164422795173,0.013532850790023802
1746734336376462300,8.94546240234375,-0.020135610055923462,-0.006158047705702483,0.0017464600748382509
1746734336386429400,8.955429443359375,-0.03479775713682175,-0.005925407993607222,-0.01096816966747865
1746734336396396500,8.965396484375,-0.027762451672554013,-0.0038512320680543777,-0.006853884482756257
1746734336406362600,8.975362548828125,-0.021027005937695502,0.0011879676755517721,-0.00461240743258968
1746734336416329700,8.985329833984375,-0.022225860333442687,0.0026003917567431925,0.0145157608801499
1746734336426296600,8.995296630859375,-0.04092705367207527,-0.006904591756686567,0.000698156598303467
1746734336436263700,9.005263671875,-0.020126842227578164,-0.011988470892235635,-0.0033591559684835372
1746734336446229500,9.0152294921875,-0.0020195231288671492,-0.0067759969409555195,0.010070745903719217
1746734336456196600,9.025196533203125,-0.0349392114341259,-0.012017185530066489,0.0016881905489601193
1746734336466163700,9.035163818359376,-0.04316694155335426,-0.003391140275634825,-0.003282930660806596
1746734336476130600,9.045130615234376,-0.003363338953256607,-0.01311400432344526,-0.009280746303498745
1746734336486096600,9.0550966796875,0.0002326397120952606,0.002626731774397194,-0.010036295644845813
1746734336496063500,9.0650634765625,-0.035976737788319585,-0.005548099113814532,0.0026884353663772344
1746734336506030600,9.075030517578124,-0.010087094250321388,0.0027806802270933986,-0.0009299743264913558
1746734336515997700,9.084997802734375,-0.024300328519940375,-0.0010116977931931615,0.0012910627238452434
1746734336525963500,9.094963623046874,-0.02220481754541397,-0.01088931401129812,0.002003521842136979
1746734336535930600,9.1049306640625,-0.03237959007918834,0.002383461070433259,-0.020091496919561178
1746734336545897500,9.1148974609375,-0.023252865293622017,0.0022577157989144324,-0.005246759813372045
1746734336555864600,9.124864501953125,-0.010384615892171859,-0.009725750124640763,-0.006245945184864103
1746734336565830400,9.134830322265625,-0.01053834514915943,-0.014892740966379641,-0.0033349713752977546
1746734336575797500,9.144797607421875,-0.02505260819196701,0.004856828914023935,0.013857424835581332
1746734336585764600,9.1547646484375,-0.036575872725248336,-0.015723529234714807,-0.004897946375701576
1746734336595731500,9.1647314453125,-0.03418225558698177,-0.011037819103896618,0.0011763320366851985
1746734336605697500,9.174697509765625,-0.02370528523623943,-0.008385295301117002,-0.0025969759569503367
1746734336615664400,9.184664306640625,-0.034628245788812635,0.0077605875315144655,0.004116367543954402
1746734336625631500,9.194631591796876,-0.03103343616724014,0.0027383389227092266,-0.001896682200487703
1746734336635598600,9.2045986328125,-0.006489362019300461,-0.025197971479408443,-0.006363233155291527
1746734336645564700,9.214564697265626,-0.020555296772718428,-0.02192662165854126,-0.0009525332181714475
1746734336655531500,9.224531494140624,-0.03566986379623413,0.0007045680727809667,0.0021894728682935235
1746734336665498400,9.234498291015624,-0.019358195942640304,0.002134747006371617,-0.010782985826302318
1746734336675465500,9.244465576171875,-0.012623334729671478,-0.0010625146649777888,0.002882642764225602
1746734336685431600,9.254431640625,-0.024294483301043508,-0.00929535935074091,0.006731737674120813
1746734336695398700,9.264398681640625,-0.03611468495428562,-0.020534071321599186,0.005214684174675494
1746734336705365800,9.27436572265625,-0.018752046743035315,-0.01867182111367583,-0.017767693614494054
1746734336715332600,9.28433251953125,-0.0190489838629961,-0.01898026600833982,-0.005447944941278547
1746734336725299700,9.2942998046875,-0.02084580415189266,-0.006063026366010308,-0.003520703205745667
1746734336735265500,9.304265625,-0.02383914074897766,0.01146145134344697,0.0036598742144182323
1746734336745232600,9.314232666015625,-0.023091537252068518,-0.011919387711398303,0.013023896620888263
1746734336755199500,9.324199462890626,-0.018155249893665314,-0.010660583289340138,-0.001950312083866447
1746734336765166600,9.33416650390625,-0.019054829081892967,-0.011985475217550992,-0.00011955299274995922
1746734336775132700,9.344132568359376,-0.03356967664659023,-0.010045374000445008,-0.013578954954072832
1746734336785099500,9.354099609375,-0.031927170136570926,0.002626914437487721,-0.018366408426314592
1746734336795066600,9.364066650390624,-0.001250292322039604,-0.004033529832400381,-0.014645616071205585
1746734336805033500,9.374033447265624,-0.013967735075950621,-0.007954831461980939,0.0001372347799129784
1746734336814999600,9.38399951171875,-0.03312017931342125,-0.012184906779788434,0.008957797959446907
1746734336824966400,9.39396630859375,-0.022196634238958356,0.0022191008215770125,-0.012787439250200986
1746734336834933500,9.40393359375,-0.007830255234241485,-0.009620170858316122,-0.003841916250437498
1746734336844900600,9.413900634765625,-0.010225041416287422,-0.024092056064121424,-0.01183788344040513
1746734336854866400,9.423866455078125,-0.03880757730007171,0.012349705420061946,0.0014259046172723172
1746734336864833500,9.43383349609375,-0.04584171372056007,-0.0034727176118642088,-0.009038133186660706
1746734336874800400,9.44380029296875,-0.004843932899832725,0.0026065292365849016,0.005013919171877205
1746734336884767500,9.453767578125,-0.014569792622327804,-0.012395261594839394,0.0008441226739436387
1746734336894734000,9.463734130859375,-0.031027590948343276,-0.0010958689453080296,0.0016017726408317685
1746734336904701200,9.473701171875,-0.03701543318629265,-0.013748685497790574,-0.009156078744214027
1746734336914668300,9.483668212890626,-0.012174421918392181,-0.02123498613256961,-0.0036863238299265503
1746734336924635100,9.49363525390625,-0.021454291439056396,-0.014499394267238676,-0.004611548916064203
1746734336934601200,9.503601318359374,-0.010977905610203743,-0.0073514587413519615,-0.012708364398311823
1746734336944568000,9.513568115234374,-0.014119710767269134,0.0020966069530695677,-0.0063648588567972175
1746734336954535200,9.52353515625,-0.023847908577322958,-0.00831628518551588,0.000054597997758537527
1746734336964502300,9.533502197265625,-0.016068506747484206,-0.009181158386543393,0.00039762101545929906
1746734336974468400,9.54346826171875,-0.035518472626805304,0.0021255407866090535,-0.0036702860105782744
1746734336984435200,9.553435302734375,-0.03147825732529163,0.0009410802423954009,-0.00012260346636176108
1746734336994402000,9.563402099609375,-0.004245967006683349,-0.012408632533065974,0.006651384180597961
1746734337004369200,9.573369140625,-0.020557634860277174,-0.02329184559714049,-0.013863708445895462
1746734337014335200,9.583335205078125,-0.040758711367845535,0.006469926666468381,0.007406148070655763
1746734337024302300,9.59330224609375,-0.033276831179857254,0.002748494990542531,-0.008012005009315908
1746734337034269400,9.60326953125,-0.010831775137782097,-0.008200001862086356,-0.00674744669990614
1746734337044236300,9.613236328125,-0.027291327029466628,-0.014352021685801446,-0.01332666069343686
1746734337054202400,9.623202392578126,-0.02699146730005741,-0.0036180808993056413,-0.007453238615393638
1746734337064169200,9.633169189453126,-0.020258359652757643,0.002394128594920039,-0.0011938494270667434
1746734337074136300,9.64313623046875,-0.02130640740096569,-0.010617474799975752,0.0007576499668881297
1746734337084103400,9.653103515625,-0.03522504263818264,-0.02345456187818199,0.005008768072724342
1746734337094069200,9.6630693359375,-0.02220657111108303,-0.023580964736826717,-0.012973682537302375
1746734337104036400,9.673036376953124,-0.03836626327335834,-0.013156820551864802,0.0014117482277564704
1746734337114003200,9.683003173828125,-0.016371873608231544,-0.014301862401142715,0.005184654362592846
1746734337123970300,9.69297021484375,-0.012630933514237403,-0.012066358434036374,0.011637136703915894
1746734337133936000,9.70293603515625,-0.03537994093894958,0.0005939473051577806,0.010043656967394054
1746734337143903200,9.7129033203125,-0.026104747593402863,-0.0018960428796708582,-0.00012077683545649051
1746734337153870300,9.722870361328125,-0.0035100539475679394,-0.012631371905654668,-0.012740038178209215
1746734337163837200,9.732837158203125,-0.016675824990868567,0.0009486790269613265,-0.005454867872409523
1746734337173803300,9.74280322265625,-0.03268821763694286,-0.0008176365258172153,-0.011573040225449948
1746734337183770000,9.75277001953125,-0.015030395871400832,-0.012073920685984193,-0.01020598965594545
1746734337193737200,9.7627373046875,-0.013835048606991767,-0.002164703753218055,-0.006588146218657494
1746734337203704300,9.772704345703126,-0.019072364738583564,-0.0022983766028657556,0.011654416632279754
1746734337213670100,9.782670166015626,-0.034036709636449815,-0.002459193187765777,0.004653616225812584
1746734337223637200,9.79263720703125,-0.012787000858783721,-0.007854878218844532,-0.019476945217791943
1746734337233604000,9.80260400390625,-0.01338438223004341,-0.020597126620449123,-0.011272102783806621
1746734337243571200,9.8125712890625,-0.018170447462797164,-0.008837057656608522,-0.006019077626429498
1746734337253537300,9.822537353515624,-0.044507834768295285,-0.0027059710230678317,0.005265610644314438
1746734337263504400,9.83250439453125,-0.03328676805198193,0.0015251637406647205,-0.0005746032838709652
1746734337273471200,9.84247119140625,-0.019069442129135132,-0.02320361932441592,-0.0019192410921677946
1746734337283438000,9.85243798828125,-0.025354221487045286,-0.016925671566091476,-0.00655720309112221
1746734337293404400,9.862404296875,-0.03433481580018997,0.003372435575164854,-0.008101034999638795
1746734337303371300,9.872371337890625,-0.0326911402463913,-0.015271218889951706,-0.0024155001765117047
1746734337313338400,9.88233837890625,-0.01114449434876442,-0.008508081430569291,-0.015722707250807433
1746734337323305200,9.89230517578125,-0.01129471647441387,-0.014066190481744706,0.02264571144701913
1746734337333271300,9.902271240234375,-0.03359013491272926,-0.002443155368417501,0.012668562110885977
1746734337343238400,9.91223828125,-0.01907294926047325,-0.003559117253683507,-0.011702511824015526
1746734337353205200,9.922205322265626,-0.010543021324276923,-0.016723536590114236,-0.01038258833186701
1746734337363172400,9.93217236328125,-0.03463642909526825,-0.009649470018036663,0.005037080851756036
1746734337373138200,9.94213818359375,-0.025507366222143172,0.006315941681154072,0.0011726787748746574
1746734337383105300,9.952105224609374,-0.014884849920868873,0.0022682006603106856,0.00544911398505792
1746734337393072400,9.962072265625,0.0009738134682178497,-0.027443266188167035,-0.007522961117047816
1746734337403039200,9.972039306640625,-0.023268647384643553,-0.01281885730177164,-0.0046765221773646766
1746734337413005300,9.98200537109375,-0.041675241690874096,-0.0015741174489259718,-0.004217599428724498
1746734337422972200,9.99197216796875,-0.013094459372758865,0.0031835619395598766,-0.016113989857025442
1746734337432939300,10.001939208984375,-0.008905190989375113,-0.008905519782938062,-0.008070311067812145
1746734337442906000,10.011906005859375,-0.037186698099970814,-0.0020269392503425476,0.007814783670473844
1746734337452872200,10.0218720703125,-0.037486557829380034,-0.004090301520936191,0.004337462948728352
1746734337462839300,10.03183935546875,-0.039430093112587924,0.008893025627546012,0.0016139197363518177
1746734337472806100,10.04180615234375,-0.015341361516714095,-0.013346315241977571,-0.004772036707401275
1746734337482773200,10.051773193359375,-0.0199812962770462,-0.006253580502048135,0.004758848432265221
1746734337492739300,10.0617392578125,-0.04392506644427776,-0.004232084611803293,-0.021784783768747002
1746734337502706200,10.0717060546875,-0.025967384949326513,-0.009486388410814105,-0.008322404399048536
1746734337512673000,10.081673095703126,-0.015194062000513075,-0.019484087344631553,-0.01075774178719148
1746734337522640100,10.09164013671875,-0.020581015735864638,-0.00030986966677010056,-0.01227351664500311
1746734337532606500,10.1016064453125,-0.038087446331977845,-0.014196356200054288,-0.022559056076873092
1746734337542573300,10.1115732421875,-0.013998130214214324,-0.021304288509115577,-0.013466799816489218
1746734337552540400,10.12154052734375,-0.016691022560000417,-0.02959379528556019,-0.008295954783540218
1746734337562507300,10.13150732421875,-0.03270166164040565,0.00028758476972579955,0.00013984686210751532
1746734337572473300,10.141473388671875,-0.010702595800161361,0.013255422088131307,-0.0018332433091476559
1746734337582440200,10.151440185546875,-0.005911269870400428,-0.0005359700402244926,0.007795695377513766
1746734337592407300,10.1614072265625,-0.02671265035867691,0.002787292630970478,0.0019898403766565025
1746734337602374400,10.17137451171875,-0.021176643541455268,-0.003228606657683849,-0.006746368987672031
1746734337612340200,10.18134033203125,-0.032249826219677924,0.003155797149799764,-0.009206986947543919
1746734337622307300,10.191307373046875,-0.0199812962770462,-0.001888188366778195,-0.010099716269876807
1746734337632274200,10.201274169921875,-0.008609422913193701,0.00012099603116512298,-0.008250763934943825
1746734337642241300,10.2112412109375,-0.02910626749694347,-0.004081277964264154,0.003295114288944751
1746734337652207000,10.22120703125,-0.03868307413756847,0.0018940701182931661,-0.00957863327153027
1746734337662174200,10.23117431640625,-0.012944237247109412,-0.011719736953452228,0.0021746406253427266
1746734337672141300,10.241141357421874,-0.01713584371805191,-0.010307605133205652,0.004544475029222667
1746734337682108200,10.251108154296874,-0.038382045364379884,0.0027878771528601644,-0.003357311071269214
1746734337692074200,10.26107421875,-0.028802900636196133,-0.010463124488480389,-0.003630958647187799
1746734337702041000,10.271041015625,-0.013542203140258788,-0.012318871890380978,0.007552570804022252
1746734337712008200,10.28100830078125,-0.01743336535990238,-0.0162183270143345,0.002791256420034915
1746734337721975300,10.290975341796875,-0.03493979595601558,-0.0031138577042147514,0.0019492343716323375
1746734337731941000,10.300941162109375,-0.012794599643349646,0.0011157426895573735,-0.01495382350385189
1746734337741908200,10.310908203125,-0.043618776974081994,-0.004584149452485144,-0.00032689386680722233
1746734337751875000,10.320875,-0.019822890844941137,-0.008409552959538996,0.002028619750775397
1746734337761842200,10.33084228515625,-0.019821721801161766,0.0011541019385680556,0.0009547799741849303
1746734337771808300,10.340808349609375,-0.032841946893930433,-0.006913615313358604,0.009235171862412244
1746734337781775400,10.350775390625,-0.027156886994838713,-0.012308642757311463,-0.011030183786712586
1746734337791742200,10.3607421875,0.00815291131734848,-0.009701857792399822,-0.00522681300388649
1746734337801709000,10.370708984375,-0.03494447213113308,-0.010686704111285507,-0.006880187967792153
1746734337811675400,10.38067529296875,-0.028355741390585897,0.00298544555157423,0.004721585161797702
1746734337821642200,10.390642333984376,-0.01129822360575199,-0.013454561389423907,0.0027813743468374013
1746734337831609300,10.400609375,-0.025064298629760742,-0.012379552569054066,0.001819086919631809
1746734337841576400,10.410576416015624,-0.0323947876483202,0.013788104192726313,0.014335088817309587
1746734337851542300,10.420542236328124,-0.025662264522910115,0.012163133339397609,0.0026773111841641366
1746734337861509400,10.43050927734375,-0.014890110617876052,-0.01098422575313598,-0.004789846358727663
1746734337871476200,10.440476318359375,-0.03599251987934112,-0.027638058107905088,-0.011998535628523677
1746734337881443300,10.450443359375,-0.026265491113066673,0.00022069354597479104,-0.003669610157143324
1746734337891409400,10.460409423828125,-0.006216390296816826,0.013583448466099797,-0.009478150305431336
1746734337901376300,10.470376220703125,-0.021033435678482055,-0.002197765772603452,-0.00933114305017516
1746734337911343400,10.48034326171875,-0.021486440142989158,-0.002867262532003224,0.004514573081303388
1746734337921310200,10.490310302734375,-0.02433013913631439,-0.0007855974197387695,-0.011010017781518399
1746734337931276300,10.5002763671875,-0.023429975426197052,-0.0024467355649918318,-0.006294533566944301
1746734337941243100,10.5102431640625,-0.02432663200497627,-0.007698737809062004,-0.01261431117299944
1746734337951210200,10.520210205078126,-0.027466099074482917,-0.0013111556638032197,-0.010726104539912193
1746734337961177300,10.53017724609375,-0.014595511585474013,0.0035854938039556142,0.003161130912043154
1746734337971143200,10.54014306640625,-0.023723989936709402,0.013339593240246176,-0.005687452785577625
1746734337981110300,10.5501103515625,-0.01759235531389713,-0.0024289807125926015,-0.008965195814613252
1746734337991077000,10.5600771484375,-0.0087619831264019,-0.0011162906788289547,-0.010345726920198648
1746734338001044200,10.570044189453125,-0.027764205238223073,-0.013300211077928543,-0.0004395604610443115
1746734338011010300,10.58001025390625,-0.03434825980365276,-0.0004803673954680562,0.012957845647353678
1746734338020977200,10.58997705078125,-0.012050503277778625,-0.013539061335101722,0.0015776793791912496
1746734338030944300,10.5999443359375,-0.012649638214707375,-0.002152063467353582,-0.005445497255865484
1746734338040911000,10.6099111328125,-0.042133506852388376,-0.008330752102285623,0.0191694867038168
1746734338050877400,10.61987744140625,-0.027020693394541738,-0.011353643587417899,-0.000663450611103326
1746734338060844300,10.62984423828125,-0.008018471282720565,-0.02224270187038928,0.004463719676900655
1746734338070811400,10.639811279296875,-0.017149872243404387,-0.0059918608259409666,-0.00660931687084958
1746734338080778200,10.6497783203125,-0.024033202016353606,-0.0034355274066329,-0.020235070108715444
1746734338090744300,10.659744384765625,-0.02478197455704212,0.0016504340881481766,-0.013019293511006981
1746734338100711400,10.66971142578125,-0.011913725155591965,-0.006407857748307287,-0.006156458536814898
1746734338110678300,10.67967822265625,-0.0018909283131361007,-0.0015473025072366,-0.017514540837332605
1746734338120645400,10.689645263671874,-0.041245033580064774,-0.007257825641147792,-0.004463628345355391
1746734338130611200,10.699611083984376,-0.02912380315363407,-0.004291925040259957,-0.030804760244209316
1746734338140578300,10.709578369140624,-0.019842764589190483,-0.010482559841312468,0.006252521056123077
1746734338150545400,10.71954541015625,-0.03720423375666141,-0.013734803102910517,0.03162416860200465
1746734338160512300,10.72951220703125,-0.03974982658624649,-0.0004125628562644124,0.006274422360677272
1746734338170478300,10.739478271484375,-0.023740356549620627,-0.009677417470887302,-0.035402353700157256
1746734338180445200,10.749445068359375,-0.03406652025282383,-0.008929996637068689,-0.041320729164779184
1746734338190412300,10.759412353515625,-0.026434417939186095,-0.013441994168795645,-0.02096493701953441
1746734338200379400,10.76937939453125,-0.02763327233493328,-0.0005431669659912585,0.0018001995560713111
1746734338210345200,10.77934521484375,-0.023292612782120702,-0.0033996889082714915,0.007756075753178447
1746734338220312300,10.789312255859375,-0.010870938104391097,-0.013620492540858686,-0.0010842698390595615
1746734338230279200,10.799279052734375,-0.014313187512755393,0.0016838249010965227,-0.01309659653091803
1746734338240246300,10.809246337890626,-0.029276363366842268,-0.004502937442436814,-0.013619012969825416
1746734338250212000,10.819212158203126,-0.03197042475640774,-0.0010865531276911496,-0.0021827873991802334
1746734338260179200,10.82917919921875,-0.012667173871397971,-0.023123137966729698,-0.013034801607392727
1746734338270146300,10.839146240234374,-0.02075169612765312,-0.004650931078381836,-0.0021778372294269503
1746734338280113200,10.849113037109374,-0.026888006925582884,0.021267427097447215,0.002474829148314893
1746734338290079200,10.859079345703124,-0.02748947995007038,0.008361768295057118,0.0025514563147909937
1746734338300046000,10.869046142578124,-0.02314998944103718,-0.006292853066511452,-0.0029854638178832826
1746734338310013200,10.87901318359375,-0.03242752087414264,-0.026178981873393056,-0.01094365628072992
1746734338319980300,10.888980224609375,-0.02733867330253124,0.008335136016458272,-0.006418561805412173
1746734338329946400,10.8989462890625,-0.008483750706911087,-0.004985094936192035,0.0038864860445261
1746734338339913500,10.90891357421875,-0.024342998617887496,-0.012364610728248952,0.005193769250810146
1746734338349880300,10.91888037109375,-0.035865678629279134,-0.01433583773598075,0.004802230916265398
1746734338359847400,10.928847412109375,-0.033921558824181554,-0.0035344577364623546,-0.01372941454173997
1746734338369813200,10.938813232421875,-0.021649521750211714,-0.00925999577641487,-0.0077574822589755055
1746734338379780400,10.9487802734375,-0.014316110122203827,-0.005835756948776543,-0.007637892733607441
1746734338389747500,10.95874755859375,-0.02463818217217922,-0.012194514858350157,-0.0033063115363940595
1746734338399714300,10.96871435546875,-0.03166881146132946,-0.010434957839921117,-0.002772332523856312
1746734338409680400,10.978680419921876,-0.028527006304264066,-0.00310972951836884,-0.017544607182033357
1746734338419647200,10.988647216796876,-0.025833529436588287,-0.009288052827119827,-0.016419165082369
1746734338429614300,10.9986142578125,-0.031518589335680004,-0.002271232867613435,0.0024017273794859646
1746734338439581400,11.00858154296875,-0.020745850908756254,0.00010612725559622048,0.00023791867541149257
1746734338449547300,11.01854736328125,-0.0247872352540493,-0.023368381432071327,-0.011098426717333494
1746734338459514400,11.028514404296875,-0.015814239725470542,-0.012022957683727145,-0.007160447947587818
1746734338469481200,11.038481201171875,-0.014768530064821242,-0.0019098522093147039,-0.0096352040306665
1746734338479448300,11.0484482421875,-0.041404608055949206,0.007282156364805996,-0.00041680063996464014
1746734338489414100,11.0584140625,-0.009231354203820229,-0.0044317353697493666,-0.009851203135214745
1746734338499381200,11.06838134765625,-0.00040448914766311644,-0.0012539090512320398,0.011288706858735531
1746734338509348400,11.078348388671875,-0.03063303867280483,-0.016346848764829336,0.00834909147657454
1746734338519315200,11.088315185546875,-0.03976151702404022,-0.0064695978729054325,-0.0034571181839331984
1746734338529281300,11.09828125,-0.023600071296095846,-0.01186933802459389,-0.0025612653227522967
1746734338539248000,11.108248046875,-0.017469021195173264,-0.01313055359944701,-0.0017668452757410703
1746734338549215200,11.11821533203125,-0.015520809736847876,0.002394822714664042,-0.011260028753522782
1746734338559182300,11.128182373046876,-0.028089783930778503,-0.0037393691914156075,-0.005899908226169645
1746734338569148400,11.1381484375,-0.032580081087350846,-0.01298763799741864,-0.0011083448343910277
1746734338579115300,11.148115234375,-0.009684358668327332,-0.02062558552995324,0.0043729361209087075
1746734338589082400,11.158082275390624,-0.020910101559758185,-0.011162760657817124,-0.006922346609085798
1746734338599049200,11.16804931640625,-0.03572247076630592,-0.009119052935764193,-0.013807612610794603
1746734338609015300,11.178015380859375,-0.020460019704699513,-0.009547872807085514,-0.010817436085175722
1746734338618982400,11.187982421875,-0.017469021195173264,-0.008464972941204905,-0.010048935930710285
1746734338628949500,11.197949462890625,-0.023304303219914436,0.012487908314354717,0.0030971622977405784
1746734338638916400,11.207916259765625,-0.030936405533552168,0.010710304182581603,0.0024840719006955624
1746734338648882400,11.21788232421875,0.007967617878317833,0.004642053652182221,-0.0009628902154043316
1746734338658849300,11.227849365234375,-0.010738251635432242,0.004324804396554828,0.005233206212054938
1746734338668816400,11.23781640625,-0.020461773270368574,0.01311217769253999,0.0023413389617577196
1746734338678783200,11.247783203125,-0.029288053804636,0.008673354994878172,0.004643368826434016
1746734338688749300,11.257749267578125,-0.018814006063342093,0.012858970116451382,0.0019691629148088394
1746734338698716400,11.26771630859375,-0.023604747471213338,-0.006080562022700906,0.0039131548557430505
1746734338708683300,11.277683349609376,-0.03168225546479225,-0.008992357816174626,-0.00327418109877035
1746734338718650400,11.287650390625,-0.023897592937946317,0.002143697497807443,0.01406237282315269
1746734338728616200,11.2976162109375,-0.01611760658621788,0.002927212558314204,-0.011697780849970876
1746734338738583300,11.307583251953124,-0.005346621724963188,0.011704539384320378,-0.0027342655357904732
1746734338748550100,11.317550048828124,-0.018367431339621543,-0.006357661931030452,0.014954590688832103
1746734338758517200,11.327517333984375,-0.03302840937674045,-0.0010583134138956666,0.003125694272480905
1746734338768483300,11.3374833984375,-0.015222119051218033,-0.011808438150212168,0.0007171352934092283
1746734338778450200,11.3474501953125,-0.0034042554855346677,-0.01443414701130241,0.000328464769385755
1746734338788417300,11.357417236328125,-0.045453006663918494,-0.0108702805172652,-0.015178718300908804
1746734338798383400,11.36738330078125,-0.03033843964040279,-0.011174779889173805,-0.004748199174087494
1746734338808350200,11.37735009765625,-0.013579028019309044,-0.012677622200176118,0.0075499587218277155
1746734338818317000,11.387317138671875,-0.033930326652526856,-0.006717873545549809,0.007472929696552455
1746734338828284200,11.3972841796875,-0.038869536620378495,2.922609448432922e-7,0.010535696534346788
1746734338838251300,11.407251220703126,-0.019566285735368727,-0.002124700536392629,-0.015158698426187037
1746734338848217300,11.41721728515625,-0.011634908214211464,-0.006140438983775675,-0.021803451936598866
1746734338858184400,11.427184326171876,-0.025852234137058255,-0.0072616250334307545,0.013905921886116265
1746734338868151300,11.4371513671875,-0.019269348615407942,0.0042838513316586615,0.005119918563310057
1746734338878118400,11.447118408203124,-0.030343700337409973,0.005535897219367325,-0.009887425226066261
1746734338888084200,11.457084228515624,-0.01987199068367481,-0.0027833105755969883,-0.0007330269822850823
1746734338898051600,11.467051513671874,-0.0194236623942852,0.004220942163281142,0.014170217111799865
1746734338908018700,11.477018798828125,-0.01837619916796684,-0.007314853058010339,-0.012008709962666035
1746734338917984500,11.486984619140625,-0.034388591814041136,0.0018338278310373424,-0.014512107618339359
1746734338927951600,11.49695166015625,-0.0243646259278059,-0.011607033826597035,-0.010751969633530825
1746734338937918500,11.50691845703125,-0.01852700581550598,-0.007167005552537739,0.00915677286395803
1746734338947885600,11.516885498046875,-0.037082068681716915,0.0008029869459569454,0.001024758204165846
1746734338957851400,11.526851318359375,-0.029602526581287383,0.0035849092820659277,-0.012485478895250706
1746734338967818500,11.536818603515625,-0.002220014137029648,-0.010999825181066989,0.004799125643726438
1746734338977785600,11.54678564453125,-0.03259703222215175,-0.005323423512466252,-0.006101111620385199
1746734338987752400,11.55675244140625,-0.03140285400152206,0.00008541326113045214,0.003445573876611888
1746734338997718500,11.566718505859376,-0.021676994279026984,-0.01415708363559097,-0.0009760602242313325
1746734339007685400,11.576685302734376,0.00031739538609981536,-0.006644369917921722,-0.003443601115234196
1746734339017652500,11.586652587890624,-0.0233276840955019,-0.002300751223042607,0.011776417310442775
1746734339027619600,11.59661962890625,-0.017643208718299865,-0.0013670871021226048,-0.00031646380433812736
1746734339037585400,11.60658544921875,-0.03605038754642009,-0.009578888999857009,-0.004008778983633965
1746734339047552500,11.616552490234374,-0.02272854915857315,-0.002953296847641468,0.012441128296870737
1746734339057519400,11.626519287109375,-0.017488894939422607,-0.005237717990390956,-0.004667151560820639
1746734339067486500,11.636486572265625,-0.01644610788822174,0.01508384309168905,-0.009295998671557754
1746734339077452500,11.64645263671875,-0.04128595011234283,0.002533829326555133,0.00024414748679846526
1746734339087419400,11.65641943359375,-0.009116787913441657,-0.011016191793978213,0.013588489967398344
1746734339097386500,11.666386474609375,-0.008817512705922126,-0.006795066967606544,-0.0023279314909130334
1746734339107353300,11.676353271484375,-0.05610358001589775,-0.007206424247473478,-0.01745504746874794
1746734339117319700,11.686319580078125,-0.03425707438886166,-0.002845817885175347,-0.021955482426844537
1746734339127286500,11.69628662109375,-0.012113047119975089,0.004262516282685101,-0.007029697707388549
