time,seconds_elapsed,z,y,x
1746575901325760800,0.0567607421875,-0.02069850463569164,0.009281294292770326,0.01482150236107409
1746575901335724800,0.066724853515625,-0.01935001263618469,0.0173771233943291,0.001368749336246401
1746575901345688800,0.076688720703125,-0.022043489503860474,0.0018450068121775983,-0.0076017528411466626
1746575901355654000,0.08665380859375,-0.02967442277371883,0.00297322539081797,0.006552526916004717
1746575901365617700,0.09661767578125,-0.007528057417273521,0.0049589649810921396,0.006987137207295745
1746575901375581700,0.106581787109375,-0.017853052076697348,0.0020280945943901315,0.0008100925401784479
1746575901385547000,0.116547119140625,-0.031020576685667035,-0.0005222383423941209,-0.0023776067183818666
1746575901395510800,0.1265107421875,-0.020545944422483444,0.00227408697840292,-0.014252890426572412
1746575901405474800,0.136474853515625,-0.009024433454871177,0.01500558109055273,0.005412672698497772
1746575901415438800,0.14643896484375,-0.007827917146682739,0.011276806358387693,0.012772807936649769
1746575901425404000,0.15640380859375,-0.01695581097602844,-0.010125859924708493,-0.005786118253925815
1746575901435368000,0.166367919921875,-0.028328853383660316,0.015414655081788077,0.00648027453054674
1746575901445331700,0.176331787109375,-0.015609072542190551,0.0005964360897662118,-0.011697305925935507
1746575901455296800,0.186296875,0.0012999766826629637,0.0051444776158314194,-0.004557023983541876
1746575901465260800,0.1962607421875,-0.005133855757117271,0.008884801221895031,0.002459549380792305
1746575901475224800,0.206224853515625,-0.007827332624793052,-0.010591029751044697,-0.003085298330010846
1746575901485190000,0.21618994140625,-0.013214286360144614,-0.010560187088209204,0.01441281196232885
1746575901495154000,0.22615380859375,-0.017104279536008835,0.0071195907808141775,0.0017857509056106208
1746575901505118000,0.236117919921875,-0.009623568391799927,-0.0064448835567571215,-0.0014648027224000543
1746575901515082000,0.24608203125,-0.00812543878853321,-0.005589170909719541,0.017585414116457105
1746575901525046800,0.256046875,-0.02757832727730274,0.00371135323990602,0.01574817961878143
1746575901535010800,0.2660107421875,-0.008723404681682586,-0.0001301017862278968,0.00264199327561073
1746575901544974800,0.275974853515625,-0.01919803694486618,-0.007218913836288266,-0.008811804484343155
1746575901554939600,0.285939697265625,-0.010817746612429619,0.004803870317502878,-0.015461535563971847
1746575901564903700,0.295903564453125,-0.0033346973806619644,0.005541655673296191,0.007155379046825692
1746575901574867700,0.30586767578125,-0.014705401700735091,0.0021052925830241293,0.01722433485225774
1746575901584833000,0.3158330078125,-0.019193945291638374,0.014736993282241746,0.01189705714858137
1746575901594796800,0.325796875,-0.017995675417780875,-0.005587563474522903,-0.001277856182400137
1746575901604760800,0.3357607421875,-0.004376899909973145,-0.00813324306907598,-0.008461447543557732
1746575901614726000,0.345725830078125,0.004751578441262245,0.006334596149274147,0.0038907146950718013
1746575901624690000,0.35568994140625,0.004302081108093261,-0.00042921716354321686,0.017806208127131684
1746575901634653700,0.36565380859375,-0.0051245034068822855,-0.0008828107165172696,0.005928385401982814
1746575901644617700,0.37561767578125,-0.017544424518942833,-0.00045275330275762823,0.017773922425881026
1746575901654582800,0.385582763671875,-0.011408698242902755,-0.008153363408497535,0.012217302078893407
1746575901664546800,0.395546875,-0.0241249719530344,-0.003981849877513014,-0.010851429686322807
1746575901674510600,0.405510498046875,-0.015295768809318542,0.01368273498895578,-0.006156111476942896
1746575901684476000,0.415475830078125,-0.00916062705516815,0.01194409746096935,0.002365167361916974
1746575901694440000,0.42543994140625,0.0008656769186258316,0.00424450113538187,0.00697320001348853
1746575901704404000,0.435404052734375,-0.002874678653478622,0.0053064769442426035,0.008251403255760669
1746575901714368800,0.44536865234375,-0.01514554668366909,0.017047448481968604,-0.0024981552249751984
1746575901724332800,0.455332763671875,-0.012452069815993309,0.010667898946115747,0.0017764807537663727
1746575901734296800,0.465296875,-0.013798808249831198,0.01267661755317822,0.004150068884156644
1746575901744261600,0.47526171875,-0.016193594431877137,0.011348149994970299,0.00685846019317396
1746575901754225700,0.4852255859375,-0.013348726394772529,0.011269897126988507,-0.002991528232488781
1746575901764189700,0.495189697265625,-0.017836685463786126,0.013214788683643564,-0.006374832261539995
1746575901774153700,0.50515380859375,-0.014694880306720733,0.002186760321399197,0.003930142523162067
1746575901784118800,0.515118896484375,0.0016167875468730926,0.0019001984649803488,-0.0049918808700051154
1746575901794082800,0.525082763671875,-0.010204583150148392,0.012773922181501984,0.0030903854970820246
1746575901804046800,0.535046875,-0.020230887123942373,0.0038476564380573106,0.009129738726560026
1746575901814012000,0.545011962890625,-0.014543489137291907,-0.00382981482069008,0.0023040756912901996
1746575901823975700,0.5549755859375,-0.013197335225343703,-0.0020844826904358343,-0.006397656014701351
1746575901833939700,0.564939697265625,-0.023971242696046828,-0.004626951981172897,0.0008237374730408191
1746575901843904800,0.57490478515625,-0.025765724897384643,-0.007898571230098605,0.01568412880608812
1746575901853868800,0.584868896484375,-0.019629998621344565,0.003914291933481581,0.0055717265845742076
1746575901863832800,0.594832763671875,-0.004515431597828865,-0.0086091626182897,0.005550181473046541
1746575901873796900,0.604796875,-0.016186580169200895,0.0029693118341034275,0.007299390627397224
1746575901883762000,0.614761962890625,-0.014839257213473319,-0.0019933064087992534,-0.0017016984845045953
1746575901893726000,0.624725830078125,-0.01289338384270668,0.00461675024756696,0.0037641017738729715
1746575901903690000,0.63468994140625,-0.007656067711114883,0.007461937945079989,-0.0005711783509235829
1746575901913654800,0.64465478515625,-0.0040641806989908215,0.002307295128260739,-0.009404674077266827
1746575901923618800,0.654618896484375,-0.012144611302018165,0.010876472796034067,0.015650199137022716
1746575901933582800,0.664582763671875,-0.004811784195899963,-0.002173846040898934,0.002794617420900613
1746575901943547600,0.674547607421875,-0.014089900150895118,-0.003467593912174925,-0.007250327321281656
1746575901953511700,0.68451171875,-0.029352351212501526,0.01058602934894152,0.0006746935243252664
1746575901963476000,0.69447607421875,-0.01049742861688137,-0.005390812493138946,0.015966261082561686
1746575901973440800,0.704440673828125,0.005065466696023941,0.004569203045102767,0.013240726842498406
1746575901983404800,0.71440478515625,-0.008550970724225044,0.005443529061065055,0.0042458117430564015
1746575901993368800,0.724368896484375,-0.010496259573101997,-0.006679363599489442,-0.006815306038036942
1746575902003332900,0.734332763671875,-0.020969722792506217,0.003548732856987044,-0.0010557195980101823
1746575902013298000,0.7442978515625,-0.012141688692569732,0.00741982953613624,0.008020681506115943
1746575902023261700,0.75426171875,-0.008700023806095122,0.00929905371174682,0.014247711927955969
1746575902033225700,0.764225830078125,-0.021866963893175124,-0.003908601978211664,-0.0001845901861321181
1746575902043190800,0.774190673828125,-0.016031681868433952,-0.007757422893471084,-0.010649605237599462
1746575902053155000,0.784155029296875,-0.02456102528274059,0.012339882712368853,-0.008737688935361802
1746575902063118800,0.794118896484375,-0.015581600013375281,0.009842449006601237,0.006916647520661354
1746575902073084000,0.804083984375,0.0020750527083873748,0.0055784029205329716,0.005473097648844122
1746575902083048000,0.8140478515625,-0.009447627303004264,0.004074304800783283,0.01283290409343317
1746575902093012000,0.824011962890625,-0.026955226942896843,0.004881862890580669,0.0020642755860462783
1746575902102976800,0.833976806640625,-0.008549801680445671,0.003310594985866919,0.008134919002931564
1746575902112940800,0.84394091796875,-0.015882044264674187,-0.009682216943590902,-0.0008930672490503639
1746575902122904800,0.85390478515625,-0.013189151918888092,-0.0043795530913630495,0.00616183796483092
1746575902132868900,0.863868896484375,-0.015882044264674187,-0.00546675467302557,0.00015833236686885356
1746575902142833700,0.873833740234375,-0.007650222492218017,0.0029563427546760064,-0.004737988307327032
1746575902152798000,0.8837978515625,-0.02216390101313591,0.004155539643717929,0.012647382325539365
1746575902162762000,0.893761962890625,-0.018421207353472708,0.0017535017369780688,-0.006076479502627625
1746575902172726800,0.903726806640625,-0.014829320341348647,0.0017165900929598137,-0.010032660649344324
1746575902182690800,0.91369091796875,-0.017373159605264664,-0.00411525786567945,0.0005919288780074566
1746575902192654800,0.92365478515625,-0.0045043256819248196,-0.004717274312861263,0.005532317022792995
1746575902202620000,0.933619873046875,0.002529226216673851,0.006897504428774118,0.002224041858175769
1746575902212583400,0.94358349609375,-0.012733809366822241,0.002373236503941007,0.012385434320569037
1746575902222547200,0.953547119140625,-0.012584756284952163,0.00580809262371622,0.010966991490544751
1746575902232511200,0.96351123046875,-0.014080547800660132,-0.009681116398470475,-0.010205852658627555
1746575902242476300,0.973476318359375,-0.017672434812784195,0.006247360823815688,-0.018741708012111485
1746575902252440300,0.9834404296875,-0.02111468422114849,0.008415868535893968,0.01809279738301411
1746575902262404000,0.993404052734375,-0.02141395942866802,0.0137927438352257,0.011934274753276257
1746575902272369200,1.003369140625,-0.016625556108355522,0.01150619010089431,-0.010795178587595
1746575902282333200,1.013333251953125,-0.026052725145220754,0.004767798923701047,0.000881943066837266
1746575902292297200,1.023297119140625,-0.016475333982706068,0.014824342772131785,-0.002461887468351051
1746575902302262300,1.03326220703125,-0.007047580423951149,0.005039610735559836,-0.00006748487879522144
1746575902312226300,1.043226318359375,-0.019917583391070366,0.0024431051360676065,0.006268960734270513
1746575902322190300,1.0531904296875,-0.0028588965624570845,0.00466943941602949,0.007448918633302673
1746575902332154400,1.063154296875,-0.004054828348755837,0.003901907375943847,0.003145312288403511
1746575902342119200,1.073119140625,-0.016474164938926696,0.003428074752539396,-0.00015883469036780297
1746575902352083200,1.083083251953125,-0.02724807240962982,0.004582094492716715,-0.009439955453202128
1746575902362047200,1.093047119140625,-0.005250175613164902,0.004249186443653889,-0.001433302472438663
1746575902372012000,1.103011962890625,-0.021859365108609197,0.003312617979594506,-0.008072018967708572
1746575902381976000,1.11297607421875,0.004476268631219864,-0.003563966958737001,0.002892095579160377
1746575902391940000,1.122940185546875,-0.008691840499639511,-0.00042619408939499403,0.0012391772729810327
1746575902401905400,1.132905517578125,-0.013778934505581856,0.006340496167098171,0.000892245265142992
1746575902411869200,1.142869140625,-0.005700257468223571,0.007799636333691887,0.011151855671312659
1746575902421833200,1.152833251953125,-0.01348199738562107,-0.007419350045523606,0.008326961843157187
1746575902431797200,1.16279736328125,-0.0160252521276474,0.000575009709247388,-0.012737252566078676
1746575902441762300,1.17276220703125,-0.001959317374229431,0.01214346965770237,0.00038322716392576693
1746575902451726000,1.18272607421875,-0.01946691701412201,0.007959165143803694,0.012229805367439985
1746575902461690000,1.192690185546875,-0.014230185404419898,0.007855426208116113,0.010920978658040984
1746575902471655200,1.2026552734375,-0.005551204386353492,-0.002458124608686194,0.0233283782152459
1746575902481619200,1.212619140625,-0.007496493235230445,-0.006322357722208835,-0.004965623050741851
1746575902491583200,1.222583251953125,-0.027247487887740132,0.005691530739073641,-0.005818239558394998
1746575902501548300,1.23254833984375,-0.008543371939659119,0.017604292346863074,0.0037663393967319278
1746575902511512300,1.24251220703125,0.014649872121214866,0.009692592207132839,0.023261240396322682
1746575902521476400,1.252476318359375,-0.018269816184043882,0.012942721143458038,0.009321936830412596
1746575902531440400,1.2624404296875,-0.01991466078162193,0.0021159098751610144,0.002647865893971175
1746575902541405200,1.2724052734375,-0.008241174122691155,-0.008542321626888588,-0.008127530280919745
1746575902551369200,1.282369140625,-0.017367898908257483,-0.007167220181669108,-0.0049848574741743505
1746575902561333200,1.292333251953125,-0.012280804902315139,-0.008315897026448511,-0.0015359773956239223
1746575902571298000,1.302298095703125,-0.013179215046763419,0.008437034621508792,-0.0032632395796477792
1746575902581262000,1.312261962890625,-0.007342179456353187,0.012430460772383958,-0.009186583480332047
1746575902591226000,1.32222607421875,-0.027093174108862875,-0.0067986836967989794,0.005122128786705434
1746575902601191200,1.332191162109375,-0.021107669958472252,0.016551824151864274,-0.0005829601202625781
1746575902611155200,1.3421552734375,-0.024847441008687018,0.005558615941251628,0.002365395690780133
1746575902621119200,1.352119140625,-0.027691724523901937,-0.003140088124014437,0.0036689160373993214
1746575902631083300,1.362083251953125,-0.02245440839231014,0.0033399854771327224,-0.00894444528752938
1746575902641048300,1.37204833984375,-0.015270634368062018,0.006794633142766542,-0.0078416625442449
1746575902651012000,1.38201220703125,-0.0422065720885992,0.006476105245505459,0.0014069898542482405
1746575902660976000,1.39197607421875,0.006425064611434936,0.003295360884116962,0.0013285634563304483
1746575902670941200,1.401941162109375,-0.02754267144203186,-0.008206399636832066,-0.006279189867340028
1746575902680905200,1.4119052734375,-0.014224924707412719,0.001115756389289163,-0.0021283720645122227
1746575902690869000,1.421868896484375,-0.0010574000984430313,0.01596579072510358,-0.009417898885020986
1746575902700834300,1.431834228515625,-0.019313187757134437,0.0149534627442481,0.0035763058505021033
1746575902710798300,1.44179833984375,-0.01946340988278389,0.004671352811902761,0.011529721673531458
1746575902720762400,1.451762451171875,-0.007042904248833656,-0.0054453967911656945,-0.002962201673304662
1746575902730726100,1.46172607421875,-0.007192541852593421,0.000571621308918111,-0.0004946151165291666
1746575902740691200,1.471691162109375,-0.02679506794512272,-0.001634396268799901,0.004412756674643606
1746575902750655200,1.4816552734375,-0.005845218896865845,0.002277347514568828,0.000353982803132385
1746575902760619300,1.491619384765625,-0.004648118066787719,0.0012301080505363643,-0.010929664287995546
1746575902770584000,1.501583984375,-0.031283027014136315,0.0058431274044793095,-0.010490989742940292
1746575902780548000,1.511548095703125,-0.004497311419248581,0.001259685771469958,-0.00646209041988477
1746575902790512000,1.52151220703125,-0.008088029387593268,0.0034700096315471453,-0.003636219344194978
1746575902800477200,1.531477294921875,0.0035831191837787627,0.00015790310860611497,-0.006572976048989221
1746575902810441200,1.541441162109375,-0.012727379626035689,0.008974671462434344,0.007779200900439173
1746575902820405200,1.5514052734375,-0.020658172625303266,0.00438224280537106,0.0016118099776562301
1746575902830369300,1.561369384765625,-0.016616788280010224,0.0017496932115405796,0.00007031615669839083
1746575902840334000,1.571333984375,-0.017962942191958427,0.005436414333689027,-0.007108388966787606
1746575902850298000,1.581298095703125,-0.005693243205547332,0.009020848691719584,0.01029038000376895
1746575902860262100,1.59126220703125,-0.007338672325015068,0.0015291686289245262,0.004979605910321697
1746575902870227200,1.601227294921875,-0.013772504764795303,-0.0017405737567460164,-0.0067724532769992945
1746575902880191000,1.61119091796875,-0.013324176475405692,-0.009617974334652534,-0.006145471351919695
1746575902890155300,1.6211552734375,-0.008684826236963272,0.015213670883281155,-0.005001507214875892
1746575902900120300,1.631120361328125,-0.005541852036118507,0.006040599905070849,0.007249295274820178
1746575902910084400,1.64108447265625,-0.004044306954741478,0.00729505694557447,0.0051087395821698
1746575902920048000,1.651048095703125,-0.021701544198393822,-0.0075342770955059675,-0.007180230360291898
1746575902930012200,1.66101220703125,-0.010926467683911322,0.0066328073442913586,-0.008880449273763224
1746575902939977200,1.670977294921875,-0.005240823262929916,0.0006883156243013218,-0.0062032568206079304
1746575902949941200,1.680941162109375,-0.020205168160796164,-0.004013642388419248,0.00023342516338452696
1746575902959905000,1.690905029296875,-0.0037450317472219464,0.0020934788476442917,-0.014985305487504229
1746575902969870000,1.7008701171875,0.00029576807618141173,0.006468095468985848,0.002253943806095049
1746575902979834400,1.71083447265625,-0.03666530457437038,0.0006693140963092446,-0.012710638553788884
1746575902989798400,1.72079833984375,0.006131050100922584,0.0011255471309414133,-0.02005149370273575
1746575902999763200,1.73076318359375,-0.01003039562702179,0.0037341130609856916,-0.003976182755129411
1746575903009727200,1.740727294921875,-0.03891103767454624,0.004345490991557017,-0.011415164516307414
1746575903019691300,1.750691162109375,-0.0070388125956058496,0.011631204720051027,-0.003538247995590791
1746575903029655300,1.7606552734375,-0.01721416965126991,0.016086946586472913,-0.009629130482906475
1746575903039620000,1.7706201171875,-0.03187923934161663,0.008759151848498731,-0.011997384851053356
1746575903049584000,1.780584228515625,-0.028436989933252332,0.002957036874420009,0.001781357858283445
1746575903059548200,1.790548095703125,-0.005992518413066863,0.0037713260991033165,-0.0003795647689606994
1746575903069513200,1.80051318359375,-0.007190203765034675,0.014323092418839223,-0.011403748073149473
1746575903079477200,1.810477294921875,-0.00554477464556694,-0.003469100882671773,0.010439697947120293
1746575903089441300,1.820441162109375,-0.01901098994016647,0.0053186788386898115,-0.0030735622264444827
1746575903099406300,1.83040625,-0.0038970074385404584,0.015300659613567403,-0.01074116511172615
1746575903109370000,1.8403701171875,-0.004046060520410537,0.007170786678511649,-0.01033928804625757
1746575903119334100,1.850334228515625,-0.013622867161035538,-0.004952946232259273,-0.004662493652012199
1746575903129298200,1.860298095703125,-0.016316344028711318,-0.00010235526277683674,0.014483447779435664
1746575903139263200,1.87026318359375,-0.004195698124170303,0.007355034371349029,-0.0012396887296345085
1746575903149227300,1.880227294921875,-0.004795417582988739,0.014511769691621884,0.0038254674391355365
1746575903159191000,1.89019091796875,-0.02589431971311569,-0.0029921949527692048,-0.020266798687539993
1746575903169156400,1.90015625,-0.013773089286684989,-0.007466271626902744,-0.004582633348833769
1746575903179120400,1.910120361328125,-0.014670914909243583,0.014358241364033892,0.010838661536294966
1746575903189084400,1.92008447265625,-0.008687164324522018,0.008704681714903562,0.009938232964696363
1746575903199049200,1.93004931640625,-0.007639116576313972,0.0041822541207075115,0.004824022622965276
1746575903209013500,1.940013427734375,-0.006142740538716316,0.0007585267497226595,-0.01183184642526321
1746575903218977500,1.9499775390625,-0.005992518413066863,0.0009694204208906739,-0.0023817805700004097
1746575903228941600,1.959941650390625,-0.003298457023501396,0.0014560668600955978,-0.001791449994035065
1746575903238906400,1.96990625,-0.006591653349995613,-0.0018291196898790076,0.012393398431316018
1746575903248870400,1.979870361328125,-0.008537526720762252,-0.00016380769300740211,0.005448976987740025
1746575903258834400,1.98983447265625,-0.004497895941138267,-0.0045400134832365435,-0.0018268227015156297
1746575903268799500,1.999799560546875,-0.01841419309079647,-0.006999905357323586,-0.007913467405131087
1746575903278763500,2.009763427734375,-0.001654196947813034,0.001333056968357414,-0.006896280586067587
1746575903288727600,2.0197275390625,-0.0022521628409624098,0.004819364714156836,-0.008692562018847093
1746575903298691600,2.029691650390625,0.0020879121899604796,0.00970488543312531,-0.0106252197150141
1746575903308656400,2.039656494140625,-0.017664251506328582,0.01730775708570145,-0.012560261164512485
1746575903318620400,2.049620361328125,-0.019310265147686002,-0.007068714543525129,-0.0018159816470928489
1746575903328584400,2.05958447265625,-0.01871171473264694,-0.005371331474534236,0.010723602055571973
1746575903338549200,2.06954931640625,-0.003299626067280769,-0.008362896239641123,0.00852964480840601
1746575903348513300,2.07951318359375,-0.012726795104146003,0.015402804813790133,-0.00029001418882980943
1746575903358477300,2.089477294921875,-0.029635844328999517,0.0023614045022521167,0.014877799125574529
1746575903368442600,2.099442626953125,-0.005245499438047409,0.006900659933662973,0.011896061634737998
1746575903378406400,2.109406494140625,0.005827683240175247,-0.0011242639227304607,0.013128937031095847
1746575903388370400,2.119370361328125,-0.023202011889219283,-0.006666988175106235,0.014484790353151037
1746575903398334500,2.12933447265625,-0.0149707746386528,0.0012561695069773123,-0.006841244196891784
1746575903408299500,2.139299560546875,-0.01347498312294483,-0.004079163638991304,-0.0025213808369357136
1746575903418263600,2.149263671875,-0.006592237871885299,-0.0008315965525107458,0.003165688356151804
1746575903428227300,2.159227294921875,-0.022303601744771,0.0018751370889600366,0.011719399026734753
1746575903438192400,2.1691923828125,-0.013325345519185065,0.0062126457034610205,-0.005895049387961626
1746575903448156400,2.179156494140625,-0.016467735198140144,0.0032555905627319587,-0.010409302808856592
1746575903458120400,2.189120361328125,-0.004196867167949677,0.00630308676615823,0.008630365236522629
1746575903468085500,2.19908544921875,-0.00958382090330124,0.0009342806088505312,0.0030638810826465485
1746575903478049500,2.209049560546875,-0.014372224223613738,-0.0033839022506726903,0.004887671576859429
1746575903488013600,2.219013671875,-0.012428104418516158,0.004596643607877195,0.007624740991089492
1746575903497977600,2.2289775390625,-0.02005903768837452,0.005190860341093503,0.013549126071389764
1746575903507942400,2.2389423828125,-0.01901098994016647,-0.0010895031366031616,0.00436519120587036
1746575903517906400,2.248906494140625,-0.017813304588198662,-0.005883833874203264,-0.003137265979265794
1746575903527870500,2.258870361328125,-0.010182371318340301,0.0045419816780369725,-0.003936380467703566
1746575903537835300,2.268835205078125,-0.004944470664858818,0.0071690833451924845,0.0015619612202513963
1746575903547799300,2.27879931640625,-0.004645779979228973,0.002362441115290858,-0.0012075674251653254
1746575903557763300,2.288763427734375,-0.016916063487529755,0.006520643073553219,-0.011094325930951162
1746575903567728600,2.298728759765625,-0.018562077128887175,0.0010218355947174131,0.015534518601791933
1746575903577692400,2.3086923828125,-0.007638532054424285,0.01564619424876291,0.001812437983136624
1746575903587656400,2.318656494140625,-0.015420271971821784,0.0065296209644526235,0.00378353712670505
1746575903597620500,2.328620361328125,-0.023201427367329597,0.00508694330889266,-0.006857674741884693
1746575903607585500,2.33858544921875,-0.01886252138018608,0.016675089771929195,-0.021978178315842523
1746575903617549300,2.34854931640625,-0.010034487280249594,0.021629040651186367,0.005605975914048031
1746575903627513300,2.358513427734375,-0.018413608568906784,0.010823135173600167,0.0035088849037885664
1746575903637478400,2.368478515625,-0.010482815569639205,-0.005381231814040802,0.0053112490174826235
1746575903647442400,2.3784423828125,-0.016167875468730927,-0.007642687639733776,-0.012310971711715683
1746575903657406500,2.388406494140625,-0.01811316431760788,0.004635450381459668,-0.001551165831601247
1746575903667371500,2.39837158203125,-0.007788169658184051,-0.007672827049670741,0.002351522429054603
1746575903677335600,2.40833544921875,0.004631166931986809,-0.0022131414382485673,0.00003150938311591744
1746575903687299600,2.418299560546875,-0.01826397096514702,-0.010323971746116876,-0.007425117632606997
1746575903697263400,2.428263427734375,-0.020657003581523895,-0.009030666832835413,0.0029999216014984995
1746575903707228400,2.438228515625,-0.019608955833315848,-0.0011386760405730455,0.005075129573512822
1746575903717192400,2.4481923828125,0.002686462604999542,0.007128066348214633,0.0034423407399095593
1746575903727156500,2.458156494140625,0.0043313072025775905,0.003945362925180234,0.012900790831027551
1746575903737121300,2.468121337890625,-0.011381810235977173,0.00028981325943022967,-0.00020492972126230597
1746575903747085300,2.478085205078125,-0.019762100568413734,0.010158268923545256,0.011307101031951606
1746575903757049600,2.488049560546875,-0.023054127851128578,0.0049687831222079695,-0.010855274744378402
1746575903767014400,2.498014404296875,-0.01497428176999092,0.015922020082036033,-0.0016803086366038768
1746575903776978400,2.507978515625,-0.012730302235484122,0.0034070456642424684,0.010437094998080283
1746575903786942500,2.5179423828125,-0.009288052827119827,-0.006485567193594761,-0.008879371561529114
1746575903796906500,2.527906494140625,-0.02215688675045967,-0.00888367784388829,-0.010413193532684818
1746575903806871300,2.537871337890625,-0.005697334858775139,-0.009226737394207157,0.005163602441409602
1746575903816835300,2.54783544921875,-0.029340076252818106,-0.009634783905558287,-0.0032662991864141075
1746575903826799400,2.55779931640625,-0.0199117381721735,0.005411197694041766,0.013598582103149964
1746575903836764400,2.567764404296875,-0.029488544812798497,0.0021566209114622322,-0.004131318517914042
1746575903846728400,2.577728515625,-0.013628127858042717,0.0037567084852838887,0.011084169863117858
1746575903856692500,2.5876923828125,-0.005697919380664825,0.009430292575713246,0.01507848192998208
1746575903866657500,2.597657470703125,-0.011983283260464668,0.009948439264879561,0.01451578827961348
1746575903876621600,2.60762158203125,-0.03412964861690998,0.004781471256026998,0.0009831018863711506
1746575903886585600,2.617585693359375,-0.013479074776172637,0.007211954372539185,0.000577133167674765
1746575903896549400,2.62754931640625,0.008666706058382987,0.016693936036294325,0.0058360674760304385
1746575903906514400,2.637514404296875,-0.014078209713101386,0.014018369284644722,0.000015699892630800605
1746575903916478500,2.647478515625,-0.015574001228809356,0.005500602143700234,0.002194660500064492
1746575903926442500,2.6574423828125,-0.008690086933970451,0.002909425739874132,-0.004743842659378424
1746575903936407600,2.667407470703125,-0.01871522186398506,-0.00044767070226371284,0.005421614056779071
1746575903946371600,2.67737158203125,-0.004199789777398109,0.01447832407974638,0.008359192745480686
1746575903956335600,2.687335693359375,-0.005996025544404983,-0.001434101623459719,-0.0009195716634858399
1746575903966299600,2.697299560546875,-0.026795652467012404,0.0009345409037545322,-0.012854321340797469
1746575903976264400,2.707264404296875,-0.01976151604652405,0.005186946784378961,-0.006019031960656866
1746575903986228500,2.717228515625,0.0032826749324798583,0.003931106070964597,0.0016472740166820585
1746575903996192500,2.727192626953125,-0.013178046002984046,-0.0012035031714010983,0.012321383507875724
1746575904006157300,2.7371572265625,-0.009886018720269202,-0.010740690187690779,0.012165745421592145
1746575904016121300,2.747121337890625,-0.01542261005938053,-0.008940965555654838,0.01441135979075916
1746575904026085400,2.75708544921875,-0.014974866291880606,0.003558395734475925,0.004932698028674349
1746575904036050400,2.767050537109375,-0.015423779103159903,0.007630960669321939,-0.004085177821246907
1746575904046014500,2.777014404296875,-0.01452595348060131,-0.006597233707411214,-0.007798115663463249
1746575904055978500,2.786978515625,-0.020362989071011542,0.008519548106077126,-0.0021639000356197357
1746575904065942500,2.796942626953125,-0.005249006569385528,0.01050303637376055,0.005494880222389475
1746575904075907600,2.806907470703125,0.0032809213668107983,-0.009439293299498967,-0.0051641230312176045
1746575904085871400,2.816871337890625,-0.005847556984424591,0.001091580929257907,-0.0058709743926301594
1746575904095835400,2.82683544921875,-0.005398059651255607,-0.00047362256085034456,-0.005899935625633224
1746575904105800400,2.836800537109375,-0.020661679756641387,0.01678592516868375,0.020177586034126577
1746575904115764500,2.846764404296875,-0.0064472764432430265,0.0026095477441558613,0.003016370412800461
1746575904125728300,2.856728271484375,-0.0003121346890926361,-0.010551122432341799,-0.00536665073283948
1746575904135693600,2.866693603515625,-0.007196633505821228,-0.007164658331824466,-0.015430464572273194
1746575904145657600,2.87665771484375,-0.027098434805870056,0.006972409995622001,0.015561735402280464
1746575904155621600,2.88662158203125,-0.0033060558080673214,0.00014402984688058495,0.004466715351585299
1746575904165585400,2.89658544921875,-0.008693009543418884,-0.006253749465406872,0.005185942137381061
1746575904175550500,2.906550537109375,-0.014529460611939429,0.004244044477655552,-0.007917531658895314
1746575904185514500,2.916514404296875,-0.0037555531412363052,0.0013751882101874797,0.0022506010715384033
1746575904195478500,2.926478515625,-0.0062993924051523206,-0.00014408464580774306,0.006168486901326105
1746575904205443300,2.936443359375,-0.0215630125105381,-0.010426906964206136,-0.0010127663722727448
1746575904215407400,2.946407470703125,-0.004204465952515602,-0.006343341144733131,-0.009444202370056881
1746575904225371400,2.956371337890625,0.004773205751180649,0.00818272650029976,0.01421845843400806
1746575904235336400,2.96633642578125,-0.0037555531412363052,-0.008170054248394443,-0.01479588386262767
1746575904245300500,2.976300537109375,-0.004204465952515602,0.0076605794894509015,-0.008811512223398313
1746575904255264500,2.986264404296875,-0.010040332499146461,-0.0007052302264841273,0.013145897299051284
1746575904265228500,2.996228515625,-0.010789105039834976,0.013655659752362407,0.013666624104371293
1746575904275193300,3.006193359375,-0.015278233152627944,0.0031850004113977773,0.004855824267026037
1746575904285157400,3.016157470703125,0.0007329904496669769,-0.004715826707868837,-0.009545224192272871
1746575904295121400,3.026121337890625,0.0019295067578554152,0.007300509438826702,0.005615529193682596
1746575904305086500,3.03608642578125,-0.015277648630738258,0.007123577402764931,-0.011852350357174872
1746575904315050200,3.04605029296875,-0.015427286234498024,0.0029445655519142744,-0.006002391353109851
1746575904325014300,3.05601416015625,-0.011685761618614196,0.005618401570781134,-0.011486722782021388
1746575904334979600,3.0659794921875,-0.029492051944136618,-0.006850738111021928,0.004001362862158566
1746575904344943600,3.075943603515625,-0.011834230178594588,-0.007466344692138954,-0.0018887637555133551
1746575904354907400,3.085907470703125,0.0037280806124210357,0.006956198646337725,0.0038039405939169226
1746575904364871400,3.095871337890625,-0.008691840499639511,0.016986311145569196,-0.009251529342168942
1746575904374836500,3.10583642578125,-0.026947628158330916,0.0036994344732491297,0.0238051562809851
1746575904384800500,3.115800537109375,-0.017520459121465683,0.004559827861981466,0.0019983798761386423
1746575904394764500,3.1257646484375,-0.01767009672522545,-0.0011832732341252267,-0.008606052779173479
1746575904404729300,3.135729248046875,-0.023504794228076935,0.00588967909310013,-0.00806018239944242
1746575904414693400,3.145693359375,-0.019763854134082794,-0.006808218710124493,0.005252714630123227
1746575904424657400,3.155657470703125,-0.01617372068762779,-0.0013411215438041836,0.0041512744605541226
1746575904434622500,3.16562255859375,-0.01767126576900482,0.006317320787487551,-0.008411580519843847
1746575904444586500,3.17558642578125,-0.009591419687867165,-0.0000821664246963337,0.006140082790749147
1746575904454550500,3.185550537109375,-0.01482873581945896,0.0012602246275870128,0.013127996316179632
1746575904464514600,3.1955146484375,-0.02964227406978607,-0.009974893446965142,0.007701057630311698
1746575904474479400,3.205479248046875,-0.018569091391563413,0.005736520658270456,-0.00517142042168416
1746575904484443400,3.215443359375,-0.015875614523887634,-0.008953633240982889,-0.02027379468390718
1746575904494407400,3.225407470703125,-0.008392565292119979,-0.0033941268171649424,0.004613156351260841
1746575904504372500,3.23537255859375,0.0022328736186027526,-0.005842488083662465,0.000642563086701557
1746575904514336300,3.245336181640625,-0.0033037177205085754,0.00489434334624093,-0.012107932553440332
1746575904524300300,3.25530029296875,-0.022606384083628653,0.011472895186068489,-0.0029809794390108437
1746575904534265600,3.265265625,-0.02126023017168045,-0.00029537991711404174,0.0040614133531693365
1746575904544229600,3.275229736328125,0.005375263297557831,0.007693965735821985,-0.000034185397392138834
1746575904554193400,3.285193359375,-0.010634791260957717,0.003363937174878083,-0.006567779284063727
1746575904564157400,3.295157470703125,-0.019015081593394278,-0.00030876455507241186,-0.020816596323717386
1746575904574122500,3.30512255859375,-0.017817980763316154,0.01416477375170216,0.00040165786975994704
1746575904584086500,3.31508642578125,-0.014077040669322013,-0.010227493668277748,-0.00028647965802811086
1746575904594050300,3.32505029296875,-0.0064461073994636535,-0.0027317128191003573,0.003018060046387836
1746575904604015400,3.335015380859375,-0.01512508841753006,-0.006500938292662612,-0.013234872490447015
1746575904613979400,3.3449794921875,-0.03382978888750076,-0.005211336873541586,-0.009358907839935272
1746575904623943700,3.354943603515625,-0.004798340192437172,0.0064151094730012116,0.0185779231519904
1746575904633907500,3.364907470703125,-0.010334347009658813,0.0026372349021025,-0.002962201673304662
1746575904643872500,3.37487255859375,-0.015572247663140295,0.006344797882880084,0.0027581670011859387
1746575904653836500,3.38483642578125,-0.007940145349502563,0.005887793096690438,-0.021492687220685182
1746575904663800600,3.394800537109375,0.002683539995551109,0.0002387497924733907,0.0024520145283080637
1746575904673765400,3.404765380859375,-0.021108839002251623,0.01521530115136411,0.013079691061889751
1746575904683729400,3.4147294921875,-0.013626374292373657,0.01276333685540594,-0.00011179894455708563
1746575904693693400,3.424693359375,-0.014973697248101233,-0.007688284913706593,-0.008771134547237306
1746575904703658200,3.434658203125,-0.017218261304497717,0.00566509025671985,0.0013709047607146202
1746575904713622500,3.44462255859375,-0.015870938348770142,0.0172896323405439,-0.004002075248211622
1746575904723586600,3.454586669921875,-0.018714052820205686,-0.0015845520779723301,0.0031325441383756696
1746575904733550600,3.464550537109375,-0.02080839475095272,-0.0004589044823311269,-0.009441124496981501
1746575904743515400,3.474515380859375,-0.017964695757627488,0.01171286882124841,0.0002183189257979393
1746575904753479400,3.4844794921875,-0.011529694274067878,0.015105698730470612,0.002696326411888003
1746575904763443500,3.494443359375,-0.0202080907702446,-0.010656898061488755,-0.002738539852108806
1746575904773408500,3.504408447265625,-0.004196867167949677,0.0002608383266953751,0.005097989859292283
1746575904783372300,3.514372314453125,-0.01556990957558155,0.01117097593031358,-0.0016019279044587164
1746575904793336300,3.52433642578125,-0.005842880809307098,0.02561521507736761,0.0024136826787609605
1746575904803301400,3.53430126953125,-0.015568740531802176,-0.00118861156294588,-0.012895173940993845
1746575904813265700,3.544265625,-0.02245148578286171,0.0073514085090020664,-0.001271353376377374
1746575904823229400,3.5542294921875,-0.02065583453774452,0.008011621416825801,-0.0021247918679378926
1746575904833193500,3.564193359375,-0.015268296280503272,0.007215292540518566,0.004761460514459759
1746575904843158500,3.574158447265625,-0.02170329776406288,-0.005051693898998201,0.004503832491580396
1746575904853122600,3.58412255859375,-0.010480477482080459,-0.001393180524604395,-0.008928781927516683
1746575904863086300,3.59408642578125,-0.012125906601548194,-0.008647608632268383,-0.007450745264207944
1746575904873051400,3.604051513671875,-0.013172785305976866,-0.00987339213413652,-0.0001197904547676444
1746575904883015400,3.614015380859375,-0.02275076099038124,-0.011409515660232863,-0.0011379545213654637
1746575904892979500,3.6239794921875,-0.021405191600322723,-0.0048942200486548244,-0.004982839047024026
1746575904902944500,3.633944580078125,-0.0149707746386528,0.004157749867113307,0.0037694172698073086
1746575904912908500,3.643908447265625,-0.007638532054424285,0.01635119614638388,0.005164369626389816
1746575904922872600,3.65387255859375,-0.007339256846904754,-0.00023389552084263413,-0.006544444074248894
1746575904932836600,3.663836669921875,-0.006140986973047256,-0.000028449776349589228,-0.0016445340703241525
1746575904942801400,3.673801513671875,-0.011228665500879286,0.011090490006050094,0.00867581181344576
1746575904952765400,3.683765380859375,-0.014521277305483818,0.0071058636495610695,0.0007619425495155155
1746575904962729500,3.6937294921875,-0.011976853519678116,-0.0030167174726724623,-0.00921003742115572
1746575904972694300,3.7036943359375,-0.018560908085107804,-0.010810380723304114,-0.021506204289384184
1746575904982658300,3.713658203125,-0.004344751206040382,-0.0016154449731577186,0.0004973641960415989
1746575904992622300,3.723622314453125,-0.022000819405913353,0.012960567327402531,0.012571102218935265
1746575905002587600,3.733587646484375,0.0016425065100193024,0.004878278127429075,-0.012644943773280829
1746575905012551400,3.743551513671875,-0.013320669344067573,-0.002026377561339177,-0.01659753559026867
1746575905022515500,3.753515380859375,-0.019455226576328276,-0.003410032205772586,0.002651829683035612
1746575905032479500,3.7634794921875,-0.019455226576328276,-0.0006813287610886619,0.014008414146210997
1746575905042444500,3.773444580078125,0.005534837773442268,-0.001595680826762691,0.00937458946625702
1746575905052408600,3.78340869140625,-0.003743278181552887,0.000274008335522376,-0.011078534706775098
1746575905062372400,3.793372314453125,-0.010028057539463042,-0.010804261509771458,0.0002536094348877668
1746575905072337400,3.80333740234375,-0.016312836897373197,0.0160384221364744,0.01879999580429867
1746575905082301400,3.813301513671875,-0.022149287965893744,0.010083797181537374,0.0032731581854633985
1746575905092265500,3.823265380859375,-0.009730535897612571,0.004022533514350652,-0.013122699086554347
1746575905102230500,3.83323046875,-0.0055406829923391335,0.0031677707153838124,0.010215835196524858
1746575905112194600,3.843194580078125,-0.005989595803618431,-0.005881632783962414,-0.0018557017361279576
1746575905122158600,3.85315869140625,-0.020056115078926084,0.004166124969813972,0.003437965958891436
1746575905132122600,3.86312255859375,-0.01900923637449741,-0.0012950539123732596,-0.012108845868892966
1746575905142087400,3.87308740234375,-0.019758593437075613,0.006882754384214058,0.011705388767691328
1746575905152051500,3.883051513671875,-0.006292378142476082,0.0034932854758575557,0.0013447930719237774
1746575905162015500,3.893015380859375,-0.015122165808081626,0.007865993267903104,-0.004091571029415354
1746575905171980300,3.902980224609375,-0.011979191607236862,0.004200278401165269,0.0015976535881403833
1746575905181944300,3.9129443359375,-0.02978606645464897,0.010112767547694966,-0.003619103812612593
1746575905191908400,3.922908447265625,-0.016169629034399984,0.022850910596339962,-0.0005781286815181374
1746575905201872400,3.932872314453125,-0.017815642675757408,0.0028898762226104734,-0.008907638674788176
1746575905211837700,3.942837646484375,-0.004348258337378502,-0.006305507052107714,-0.005208245300734415
1746575905221801700,3.9528017578125,-0.009136661657691001,0.004002664336678572,0.00014976546792313457
1746575905231765800,3.962765869140625,-0.013176292437314987,0.012201424089749342,0.006734632884105667
1746575905241730800,3.972730712890625,-0.012278466814756393,0.0038007805224508045,-0.0044619752443861216
1746575905251694800,3.98269482421875,-0.009735212072730063,-0.00838606705267448,-0.0008011237824335694
1746575905261659000,3.992658935546875,-0.011081365984678267,-0.007066125294216908,-0.0036675369310658424
1746575905271624000,4.0026240234375,-0.012428688940405845,0.0005353855183348059,-0.0019701492954976854
1746575905281587700,4.012587646484375,-0.011980360651016235,0.0032905020459089427,0.0140712137167342
1746575905291551700,4.0225517578125,-0.013327683606743811,0.0035089168698294085,-0.004430758122215047
1746575905301515800,4.032515869140625,-0.01093406646847725,0.007032761880732141,-0.005922037859586999
1746575905311480800,4.042480712890625,-0.014824059644341468,0.003591407521511428,-0.000015389365376904606
1746575905321444900,4.05244482421875,-0.018714637342095376,0.01673101664367132,-0.00194935310264118
1746575905331408600,4.06240869140625,-0.019462825360894203,0.015347430497896856,0.005984892229037359
1746575905341374000,4.0723740234375,-0.013777765461802483,0.008773436102177947,0.014333764509903266
1746575905351338000,4.082337890625,-0.016621464455127716,-0.0014359556538285686,-0.019544165235105902
1746575905361302000,4.092302001953125,-0.019914076259732245,-0.008486581984814256,-0.009133748181397094
1746575905371266800,4.102266845703125,-0.014228431838750838,-0.00787094800423365,-0.01208502660188824
1746575905381230800,4.11223095703125,-0.01871697542965412,0.006460492117842659,0.0031830139502882957
1746575905391195000,4.12219482421875,-0.008093290084600448,-0.000690882040723227,0.014135081866336986
1746575905401159000,4.132158935546875,-0.012432780593633652,0.005742448075558059,-0.002942008268646896
1746575905411123700,4.142123779296875,-0.00405249026119709,0.006434033369179815,-0.015676676151994615
1746575905421087700,4.152087646484375,-0.019165888240933418,-0.0030678174722474066,0.0004263630527537316
1746575905431051800,4.1620517578125,-0.030688568252325056,0.0003033485944382846,-0.0015214282804634422
1746575905441016800,4.172016845703125,-0.021112346133589744,0.002782821951829828,-0.001329723366955295
1746575905450980900,4.18198095703125,-0.014229600882530212,0.005038491924130357,0.004405395352095365
1746575905460945000,4.19194482421875,-0.005251344656944275,0.00007534852484241127,0.015177932849619536
1746575905470910000,4.201909912109375,-0.02126198373734951,-0.0070957075817277655,0.003461191570851952
1746575905480873700,4.211873779296875,-0.026049802535772323,-0.002834606937994249,-0.005855155768990516
1746575905490837800,4.221837646484375,-0.01677285562455654,0.004682933651842177,0.0034411260303575542
1746575905500801800,4.2318017578125,-0.010488076266646384,0.017305629060696808,0.0004554156173020601
1746575905510766800,4.241766845703125,-0.015576339316368102,0.012579290091968141,-0.002103374620573595
1746575905520730600,4.251730712890625,-0.017971710020303726,0.014989424540195613,0.00012387297484092413
1746575905530694700,4.261694580078125,-0.016176643297076226,0.005856722104991786,0.004372981786681339
1746575905540660000,4.271659912109375,-0.010789689561724661,-0.0011021388558903708,-0.009401742334663867
1746575905550624000,4.2816240234375,-0.00016600421667099,0.008419699894217774,0.005649038737639785
1746575905560587800,4.291587890625,-0.0064507835745811455,-0.0015486724804155527,0.0000746452719438821
1746575905570552800,4.301552734375,-0.014980711510777473,-0.006596037264168262,-0.005113534488296136
1746575905580516900,4.311516845703125,-0.012885785058140755,-0.009681385826529004,0.003722527654469013
1746575905590481000,4.32148095703125,-0.01842296091914177,0.004858331317943521,0.0004641195135656744
1746575905600444700,4.331444580078125,0.0010293430477380753,0.00021136859520338473,-0.005651084564253688
1746575905610409700,4.34140966796875,-0.01363455759882927,0.0075644439049065105,-0.00043823615363799035
1746575905620373800,4.351373779296875,-0.005555296039581299,0.010125964955985545,0.0003722947779577225
1746575905630337800,4.361337890625,-0.008698270240426064,0.011550020109466276,0.014190054323431104
1746575905640302800,4.371302734375,-0.0034609541088342663,0.002017733030579984,-0.009483082208875566
1746575905650267000,4.381266845703125,-0.010195230799913406,0.00670835679853335,-0.00827594404197298
1746575905660231000,4.39123095703125,-0.007801613661646842,0.009719251885195263,0.004782978226523846
1746575905670195700,4.40119580078125,-0.017677695509791373,0.01325390141790267,0.007385909000225364
1746575905680159700,4.41115966796875,-0.014835165560245512,0.0034062693461077284,0.005014238832285627
1746575905690123800,4.421123779296875,-0.011393500673770905,0.006733249211194925,-0.005741868120245635
1746575905700087800,4.431087890625,-0.01618248851597309,-0.006081406839494593,-0.001859775123046711
1746575905710052600,4.441052490234375,-0.014536474874615669,0.006231154041108675,0.0006492211563512683
1746575905720016600,4.4510166015625,-0.010496259573101997,0.0005335954200476408,0.000520790737401694
1746575905729981000,4.46098095703125,-0.0061573535859584805,0.007880067459028214,0.004441699641337618
1746575905739946000,4.470946044921875,-0.016332710641622544,0.0017495516476454212,-0.00045150662716478106
1746575905749909800,4.48090966796875,-0.0030149639070034023,0.006950280362204648,0.007214580154465511
1746575905759873800,4.490873779296875,-0.013940262547135353,-0.0018085152932675553,0.0041543797330930825
1746575905769838800,4.5008388671875,-0.004213818302750587,-0.007265780618740245,-0.003815987224737182
1746575905779803000,4.510802978515625,-0.020225626426935196,0.008339739126339554,0.006979629754275083
1746575905789767000,4.520766845703125,-0.012145195823907851,0.027059975092159582,0.0032813323587644844
1746575905799730700,4.530730712890625,-0.005411503654718399,0.004772570996941067,-0.005134851270960644
1746575905809695700,4.54069580078125,-0.026959903118014335,0.013538476813212037,-0.003646695072436705
1746575905819659800,4.55065966796875,-0.004216156390309334,0.013511776035954244,-0.008379075622884556
1746575905829624000,4.5606240234375,-0.011848258703947066,0.0006934256242588162,0.002733644481282681
1746575905839588900,4.5705888671875,-0.0006248539000749588,0.015578586072381585,0.011847601116821168
1746575905849553000,4.580552978515625,-0.023220716589689255,0.011600699983933009,-0.006257726954203098
1746575905859517000,4.590516845703125,-0.013494272345304488,-0.005161647946340963,-0.007295308107323944
1746575905869481700,4.600481689453125,-0.010052607458829878,-0.004611590015259571,-0.0011094864787068218
1746575905879445800,4.61044580078125,-0.006461304968595504,0.02532055667946115,0.011766471305163577
1746575905889409800,4.620409912109375,-0.003319499811530113,-0.0056634828215232115,0.0007402695738244801
1746575905899373800,4.630373779296875,-0.012447393640875815,0.0026827499776845795,-0.012390886813821271
1746575905909338600,4.640338623046875,-0.01259703124463558,0.0062852497153682635,-0.003001492504077032
1746575905919303000,4.650302978515625,-0.01738601908683777,0.01803826788391452,-0.004202922449400648
1746575905929267000,4.660266845703125,-0.007211246553063392,0.010807339382846838,0.004954672398464754
1746575905939232000,4.67023193359375,-0.021876316243410108,-0.0039520255614072086,0.011275271988427265
1746575905949195800,4.68019580078125,-0.011551906105875968,0.011484699788293801,0.004866710987221449
1746575905959159800,4.690159912109375,-0.017538579300045966,0.005550743162049911,-0.008834290310787037
1746575905969123800,4.700123779296875,-0.018137714236974717,0.005930412962287664,-0.004920103408582508
1746575905979089000,4.7100888671875,-0.010804887130856514,0.015615689512644894,0.007649391375156119
1746575905989052700,4.720052734375,-0.009158288967609405,-0.009153151568188331,0.016010684746177867
1746575905999016700,4.7300166015625,-0.020232640689611434,-0.007755938755860552,0.002451658335281536
1746575906008982000,4.73998193359375,-0.009758008426427841,0.008921269907918758,-0.008360151726705954
1746575906018946000,4.749946044921875,-0.004520107772946358,0.004032835712656379,-0.00879499034686014
1746575906028909800,4.759909912109375,-0.018287936362624168,0.012755646739294751,0.0019335070795379577
1746575906038875000,4.769875,-0.0241249719530344,0.017098909241147337,-0.002307034833356738
1746575906048839000,4.7798388671875,-0.006916647520661354,0.003707238753791898,-0.006984214597847312
1746575906058803000,4.789802978515625,-0.027865327525138855,0.010743626496871002,-0.011985922742122783
1746575906068766700,4.7997666015625,-0.015295768809318542,0.019319325236976145,0.0032312096067238596
1746575906078731800,4.809731689453125,0.006101239484548568,0.009232093989336863,0.0028406759191770105
1746575906088695800,4.81969580078125,-0.02038403185904026,-0.0029293771159369496,-0.009758428551536052
1746575906098659800,4.829659912109375,-0.014547580790519713,0.007061330388090573,0.001164468068955466
1746575906108625000,4.839625,-0.019335399588942526,-0.003495080140721984,0.01518508410961367
1746575906118589000,4.8495888671875,-0.017689385947585106,0.007729343009879812,0.013100542053673416
1746575906128553000,4.859552978515625,-0.010357143363356589,-0.0004569682535715401,-0.007699915985995903
1746575906138517800,4.869517822265625,-0.013948445853590964,-0.0024396710699656978,0.004705510809831321
1746575906148481800,4.879481689453125,-0.0073643912881612775,-0.0008181936482433229,-0.0003442377272527665
1746575906158445800,4.88944580078125,-0.015444237369298935,0.0042458071764791385,0.002024984755273908
1746575906168409900,4.899409912109375,-0.017988661155104637,0.015183864833484403,0.006542781840125098
1746575906178374700,4.909374755859375,-0.016492869639396668,0.016080247417627834,-0.004632409041002392
1746575906188338700,4.919338623046875,-0.019486206236481667,0.0013632055114489049,-0.003563583366246894
1746575906198302700,4.929302734375,-0.020235563299059865,0.0004770337940659374,0.006235094997286797
1746575906208268000,4.93926806640625,-0.01634557012319565,0.013987490089191123,-0.0005763294500764459
1746575906218231600,4.9492314453125,-0.02068681419789791,-0.008933417003438807,0.0053370958447922015
1746575906228195300,4.9591953125,-0.017243980267643927,-0.005718838871107437,0.0014087160204537211
1746575906238160400,4.969160400390625,-0.01709434266388416,-0.005271058570989407,-0.001174660669406876
1746575906248124400,4.97912451171875,-0.019487959802150723,0.0024984246530337256,-0.005408051322307437
1746575906258088400,4.98908837890625,-0.02906535096466541,0.014267777468450366,-0.006067373747564852
1746575906268052200,4.99905224609375,-0.021284780091047287,0.006545229525538161,-0.0009517569000367075
1746575906278017300,5.009017333984375,-0.0164957922488451,-0.006673691910528578,-0.0045729156724177294
1746575906287981300,5.018981201171875,-0.0067693480044603346,0.014792285399744287,-0.00901904489370063
1746575906297945300,5.0289453125,-0.015448913544416427,0.012440461576590314,-0.009579729250073433
1746575906307910400,5.038910400390625,-0.005871522381901741,0.018885185303143225,0.014441024276660755
1746575906317874400,5.04887451171875,-0.01799158376455307,0.0025448439109139144,0.001563221595576033
1746575906327838500,5.05883837890625,-0.00946224035024643,0.0006392431850312277,-0.010569553138175978
1746575906337803300,5.06880322265625,-0.01559913567006588,0.007445475434046238,-0.003733441774128005
1746575906347767300,5.078767333984375,-0.006022913551330566,0.0002294476745883003,0.022556389195751397
1746575906357731300,5.0887314453125,-0.003927987098693847,0.007420537355612032,0.003678323186561465
1746575906367695400,5.0986953125,-0.018741525349020956,0.008665797309507615,-0.007805924510583281
1746575906377660200,5.10866015625,-0.00003682487905025482,0.0025942086111288517,0.00026205760282464323
1746575906387624200,5.118624267578125,-0.019638181927800178,0.010109511578106321,0.010412755141267552
1746575906397588200,5.128588134765625,-0.015896657311916352,0.007508809294109233,0.014688541897479444
1746575906407553500,5.138553466796875,-0.0034761516779661175,-0.001347505618818104,0.0036187567527405915
1746575906417517300,5.148517333984375,-0.020534838506579396,-0.0000738324211910367,0.006761493491567671
1746575906427481300,5.1584814453125,-0.01858896513581276,0.018630648853071034,0.014032991465041413
1746575906437446400,5.1684462890625,0.005053776258230209,-0.008605865549505688,0.0037361086552496997
1746575906447410400,5.178410400390625,-0.026969839990139004,0.00576190169469919,-0.008426303164940327
1746575906457374200,5.188374267578125,-0.028018472260236738,0.004349413681426086,-0.006698173331236466
1746575906467338200,5.198338134765625,-0.020835867279767988,0.011821261099167167,0.03132601677249185
1746575906477303300,5.20830322265625,-0.017394202393293378,0.010441940136556513,0.011297538619162514
1746575906487267300,5.218267333984375,-0.017694062122702598,0.006757479470153338,-0.016499025385547428
1746575906497231400,5.2282314453125,-0.015300444984436034,0.00675782653002534,-0.0188866146418266
1746575906507196400,5.238196533203125,-0.010062544330954552,0.0035385493896901606,0.00031109350947663186
1746575906517160400,5.248160400390625,-0.021285364612936973,0.004166042771423235,0.014869661484891548
1746575906527124500,5.25812451171875,-0.005723638343811035,0.0019474762393860146,-0.0049770212275907395
1746575906537089300,5.26808935546875,-0.018592472267150877,-0.003894358823727816,0.007014381407247856
1746575906547053300,5.27805322265625,-0.012606968116760254,-0.004864491630671546,0.002559593955473974
1746575906557017300,5.288017333984375,-0.010811316871643066,0.0008136864364845678,0.011520287124905734
1746575906566981400,5.2979814453125,-0.007519289588928222,-0.0012650423665996641,0.006283765577757731
1746575906576946200,5.3079462890625,-0.007370236507058143,-0.004349573511630296,-0.0029836189206689594
1746575906586910200,5.31791015625,-0.013804068946838378,0.002804645624570548,-0.0022595332966651766
1746575906596874200,5.327874267578125,-0.01784253068268299,0.012013687531882896,-0.0007476308963727205
1746575906606839300,5.33783935546875,-0.007667758148908615,0.010214634186704643,0.005009115132596343
1746575906616803300,5.34780322265625,-0.010360065972805022,-0.0003620702114654705,-0.00012063070498406886
1746575906626767400,5.357767333984375,-0.020535423028469085,0.0009788595360936596,-0.0010467234408017248
1746575906636731400,5.3677314453125,-0.008714636853337288,0.009520098884170875,0.006483270205231383
1746575906646696400,5.377696533203125,-0.011557166802883148,0.014269873527414165,0.030424519621813667
1746575906656660200,5.38766015625,-0.008265724042057991,0.006755789836565963,-0.0076447060668841
1746575906666624300,5.397624267578125,-0.01874094082713127,0.007666611938015557,-0.006867456350382417
1746575906676589300,5.40758935546875,-0.021733692902326584,-0.008514839964918792,-0.0017908746052999048
1746575906686553300,5.41755322265625,-0.00961246247589588,0.027482356089539823,0.02308206617082469
1746575906696517000,5.42751708984375,-0.02218202119171619,0.0017933405570220201,0.020355983941489828
1746575906706482400,5.437482421875,-0.031310499542951585,0.0011718522243900223,0.00616541816140525
1746575906716446500,5.447446533203125,-0.016645429852604865,0.00010268862291704862,-0.00909389109504409
1746575906726410500,5.457410400390625,-0.0003343465209007263,-0.0035001673077931627,-0.019365009275916962
1746575906736374300,5.467374267578125,-0.017691724035143852,0.01743327859493438,0.001982113727927208
1746575906746339300,5.47733935546875,-0.011855272966623306,0.007910389532055705,0.008344104774203151
1746575906756303400,5.487303466796875,-0.02831424033641815,-0.00793370190898422,0.021244283683877437
1746575906766267400,5.497267333984375,-0.02053250041902065,-0.004355546594690531,-0.010571863826271146
1746575906776232200,5.507232177734375,0.0032592940568923947,-0.0056034825628623365,-0.001752003899635747
1746575906786196200,5.5171962890625,-0.00018178630769252776,0.015698787519102916,0.0013224899085704236
1746575906796160300,5.52716015625,-0.006318097105622291,0.005696111016068608,0.0023391744041349736
1746575906806125300,5.537125244140625,-0.02158171721100807,0.008678300598054193,0.0054998851910699155
1746575906816089300,5.54708935546875,-0.015445990934967993,-0.0061432337290607385,-0.005313815433904528
1746575906826053400,5.557053466796875,-0.00796294170320034,0.015627078556339255,0.007029515044298023
1746575906836017400,5.567017333984375,0.0059533554464578625,0.015359276199317536,0.0115354207619559
1746575906845982200,5.576982177734375,-0.027566052317619324,0.015783835454052313,-0.003831778448913246
1746575906855946200,5.5869462890625,-0.02936170356273651,0.0032027095980243754,-0.011604768804274499
1746575906865910300,5.59691015625,-0.016193009909987448,0.01378625929551199,0.0149991239503026
1746575906875875300,5.606875244140625,-0.0033230069428682326,0.006538525790115818,0.0026644699689000843
1746575906885839000,5.616839111328125,-0.018735095608234404,0.0021236228241585196,0.00013006525360979138
1746575906895803100,5.62680322265625,-0.005267711269855499,0.0032858898028731345,-0.007377460832288489
1746575906905768400,5.6367685546875,0.017177929294109343,-0.003692173615400679,0.01010368919209577
1746575906915732500,5.646732421875,-0.01978314335644245,-0.007284284389810636,-0.001070670571969822
1746575906925696300,5.6566962890625,-0.005567570999264717,-0.005095902933483012,0.010489446239825338
1746575906935660300,5.666660400390625,-0.003622282150387764,-0.0021516616085544226,0.007392283942084759
1746575906945625300,5.676625244140625,-0.004369301125407218,-0.008499199437792412,-0.0017854769109748303
1746575906955589400,5.68658935546875,-0.00945697965323925,0.0036780537585029377,0.001228080490231514
1746575906965553400,5.696553466796875,-0.018733926564455033,0.011543288974580354,0.0050955056412611156
1746575906975518200,5.706518310546875,-0.007660743886232376,0.0010157666135346517,-0.010263720325706526
1746575906985482200,5.716482177734375,-0.012598784810304641,-0.006767247378919273,0.015330365198664367
1746575906995446500,5.726446533203125,-0.010953355690836906,0.0074165781331248576,-0.0027994397264905274
1746575907005411300,5.736411376953125,-0.004070025917887687,-0.006189100431092083,-0.010006119702290744
1746575907015375400,5.746375244140625,-0.011252630898356437,-0.007559763163211755,0.0022850787298753857
1746575907025339400,5.75633935546875,-0.02472059975862503,0.012709716105181724,0.006955225965380668
1746575907035303400,5.766303466796875,-0.026665304085612296,-0.00038798553743399675,0.015753303318470715
1746575907045268200,5.776268310546875,-0.012898060017824172,0.005095322978170588,-0.008329994050459935
1746575907055232300,5.786232177734375,-0.012149871999025345,0.004893261067429557,-0.013538686875766143
1746575907065196300,5.7961962890625,-0.00601531476676464,-0.004929305061767809,-0.020113215561024845
1746575907075161300,5.806161376953125,-0.003769581666588783,0.00408178942091763,0.014273741418356075
1746575907085125000,5.816125,-0.0158902275711298,0.004207858919422142,0.01351953465072438
1746575907095089400,5.82608935546875,-0.015740589967370034,0.004222508499282412,-0.011015707736788317
1746575907105053400,5.836053466796875,-0.008258709779381751,0.00324458054495044,-0.003578497807588428
1746575907115018200,5.846018310546875,-0.018434066835045813,-0.006409994906466454,-0.0003574077360797673
1746575907124982300,5.855982177734375,-0.0012263269245624542,-0.009433397848252206,0.007529363458370789
1746575907134946300,5.8659462890625,-0.01604044969677925,-0.00623021332619246,-0.004695701801870018
1746575907144911400,5.875911376953125,-0.0184346513569355,-0.0044862648688489565,-0.010800521482992917
1746575907154875400,5.88587548828125,-0.022474866658449173,0.004512198461126536,0.0013581822764594108
1746575907164839200,5.895839111328125,-0.019482699105143546,0.005843853490264154,-0.004151374925253913
1746575907174804200,5.90580419921875,0.00341243879199028,-0.007252350315009243,-0.016873557786364107
1746575907184768500,5.9157685546875,-0.027562545186281203,-0.010529636686318553,0.00017424232205376028
1746575907194732500,5.925732666015625,-0.019331892457604406,0.015761048233509063,-0.008649362197937443
1746575907204696300,5.9356962890625,-0.007211831074953079,0.01727118336840067,-0.00410470450562425
1746575907214662000,5.945661865234375,-0.005566401955485344,0.00043049580517690625,-0.007700893233530223
1746575907224626200,5.955626220703125,-0.02247545118033886,-0.007808979550772346,0.002910234024049714
1746575907234590000,5.96558984375,-0.01948211458325386,0.016853122353111392,-0.001729645937355235
1746575907244555000,5.975554931640625,-0.02636544435620308,0.021155669252085497,-0.0020452146925497797
1746575907254519000,5.98551904296875,-0.026366028878092765,-0.010377720360504463,0.0006731591543648392
1746575907264483000,5.995483154296875,-0.007661912930011749,-0.009894558219751343,0.0010165566314011812
1746575907274448000,6.00544775390625,-0.006913140389323234,0.006689432902354747,0.0030942031556740403
1746575907284412000,6.015411865234375,-0.016489947029948233,-0.0038990578317316246,0.0007786562222987413
1746575907294376000,6.0253759765625,-0.0075111062824726104,0.003967054167180322,-0.010179713570373132
1746575907304340000,6.035340087890625,-0.00855856950879097,0.00158610471424181,0.0018008206105791032
1746575907314305000,6.045304931640625,-0.020230302602052688,-0.0008473603772232309,0.0022812976039014755
1746575907324269000,6.05526904296875,-0.005565817433595657,0.0050621650606626645,0.0021378157462924718
1746575907334233000,6.065233154296875,0.002065115836262703,-0.007578924521408043,-0.0006995631041005253
1746575907344198000,6.075197998046875,-0.007810966011881828,0.0015045273780124261,0.0011554993112105876
1746575907354162000,6.085161865234375,-0.017836685463786126,0.021221464497293344,0.011816283529950304
1746575907364126000,6.0951259765625,-0.013346972829103469,0.01282825988435652,0.00006397774745710194
1746575907374091000,6.105091064453125,-0.003471475502848625,-0.001050226005562581,-0.006473707792442292
1746575907384054800,6.1150546875,-0.01289864453971386,0.004498325199401006,0.003222003386961296
1746575907394018800,6.125018798828125,-0.01304886666536331,0.014919049017992802,-0.00016836970369331537
1746575907403982800,6.13498291015625,-0.001976268509030342,0.006082772246096282,0.025463335284171624
1746575907413948200,6.1449482421875,-0.024721184280514716,-0.006665924162603914,-0.006978871702449396
1746575907423912000,6.154911865234375,-0.016640753677487373,0.01521869411827065,-0.007783621347229927
1746575907433876000,6.1648759765625,-0.00945697965323925,0.013202801418327725,0.009821310320449993
1746575907443841000,6.174841064453125,0.003861351603269577,0.0076217270500957965,0.013389706859132273
1746575907453805000,6.18480517578125,-0.012149871999025345,-0.003914981486648321,-0.009957065529329701
1746575907463768800,6.194768798828125,0.010294599521160125,0.007930094312946312,0.00018320194664411246
1746575907473734000,6.20473388671875,-0.000630114597082138,0.004555896038957871,0.012946666666213422
1746575907483698000,6.214697998046875,-0.029959669455885886,-0.007809901999379508,0.01181456649689935
1746575907493662000,6.224661865234375,-0.006765840873122215,0.0006809360354440286,0.000738506875000894
1746575907503626000,6.2346259765625,-0.027114801418781278,0.006416986336256377,-0.0027893749902024863
1746575907513591000,6.244591064453125,-0.017836685463786126,0.003701064741332084,0.016907587920129297
1746575907523555000,6.25455517578125,-0.0028729250878095627,0.00917990257779602,0.002098241787729785
1746575907533519000,6.26451904296875,-0.004368716603517532,-0.005601815762161277,-0.004165841842023656
1746575907543484000,6.27448388671875,-0.01379530111849308,-0.010289882246847263,-0.00013831249214708803
1746575907553448000,6.284447998046875,-0.01933130793571472,0.002838780789612792,0.0028161168666556474
1746575907563412000,6.294411865234375,-0.01424362940788269,0.009563321537966839,0.011944376022182405
1746575907573376800,6.304376708984375,-0.011400514936447143,0.004525870793452486,-0.005617328425124287
1746575907583340800,6.3143408203125,-0.02441898646354675,0.011366598967113532,0.002052566881943494
1746575907593304800,6.324304931640625,-0.015441314759850501,0.0025645715246908366,-0.010358449404453858
1746575907603268900,6.334268798828125,-0.007062777993083,-0.010458192585036158,0.0036830176279880104
1746575907613234000,6.34423388671875,-0.018284429231286047,-0.006950686787581071,-0.008627159499283879
1746575907623198000,6.354197998046875,-0.011700959187746046,0.006820548468735069,-0.0021843948343768715
1746575907633162000,6.364161865234375,-0.013197335225343703,0.0021733071847818792,0.013531508216308429
1746575907643127000,6.374126953125,-0.005115735578536987,0.0016423558129696175,0.00032088425112888213
1746575907653091000,6.384091064453125,-0.027560791620612143,-0.007204908143822103,0.003729331854591146
1746575907663054800,6.394054931640625,-0.014541735571622848,-0.0059396191820502275,0.0026765987981110808
1746575907673020000,6.40402001953125,-0.008556231421232224,0.015560653123469092,0.0001677029834128916
1746575907682984000,6.41398388671875,-0.019031448206305503,0.004729544705967419,-0.00017952128536999224
1746575907692948000,6.423947998046875,0.0037128830432891845,0.0044513716519810256,0.007160557545442134
1746575907702911700,6.433911865234375,-0.005714870515465736,0.0079269707740983,0.006184579519601539
1746575907712877000,6.443876953125,-0.014394436055421829,0.005284767435933463,0.0053288851388730105
1746575907722841000,6.453841064453125,-0.017836685463786126,0.008731843716464936,0.017352792670670896
1746575907732805000,6.46380517578125,-0.008110241219401359,0.01547347259693779,0.008217875445494427
1746575907742770000,6.47377001953125,-0.01095452473461628,-0.000054739561653696,0.007669493448268621
1746575907752734000,6.48373388671875,-0.014845102432370185,0.004485054725874215,-0.00009642784548923372
1746575907762698000,6.493697998046875,-0.017988076633214948,0.005518503126571886,-0.0003480279863812029
1746575907772662000,6.503662109375,-0.021878654330968854,0.0026542773684486744,0.0017422314242925493
1746575907782626800,6.513626708984375,-0.021428572475910186,0.003348155083856545,0.0005090729001443832
1746575907792590800,6.5235908203125,-0.01574292805492878,0.006899093597661703,0.014655799538502469
1746575907802555000,6.533554931640625,-0.018137714236974717,-0.009593748642271385,-0.008058237037528306
1746575907812520000,6.54352001953125,-0.007662497451901435,0.0038781337747117502,-0.008236141754547134
1746575907822484000,6.55348388671875,-0.011553075149655341,0.001023018338228576,0.0051029308958910405
1746575907832448000,6.563447998046875,-0.007214753684401512,0.004314346934622153,0.0008589092511218041
1746575907842413000,6.5734130859375,-0.01215221008658409,0.003897619359893724,-0.011540672325808554
1746575907852376800,6.583376953125,-0.012302432212233544,-0.011295036134822294,-0.01692010947498493
1746575907862340900,6.5933408203125,-0.002426350364089012,-0.003499537120130844,-0.007620685870479792
1746575907872305000,6.603304931640625,-0.021730185770988463,-0.00020331771948840468,0.00994585001557134
1746575907882270000,6.61327001953125,-0.019188100072741507,0.004193848660378717,0.013794954058621078
1746575907892233700,6.623233642578125,-0.019636428362131118,0.003856250736466609,-0.007755043706716969
1746575907902197800,6.63319775390625,-0.004373977300524711,-0.010553688848763704,0.017540862588677555
1746575907912163000,6.6431630859375,-0.006320435193181037,0.010402576240547932,0.010269693408766762
1746575907922127000,6.653127197265625,-0.015447744500637054,0.005602993939095176,0.008746429364243523
1746575907932091000,6.6630908203125,-0.015746435186266897,-0.003268331313296221,-0.0035584322670940307
1746575907942056000,6.673055908203125,-0.00362637380361557,0.006590762867429293,-0.01752988453693688
1746575907952020000,6.68302001953125,-0.014700141003727912,0.003623218298726715,-0.004965577384969219
1746575907961984000,6.69298388671875,-0.024576222851872442,0.0017013468580553306,0.016474448066717013
1746575907971948000,6.702947998046875,-0.011858195576071739,0.003231766729149967,-0.005313440974568948
1746575907981912800,6.712912841796875,-0.009013912060856819,0.015179832545761019,-0.008981050970871
1746575907991876900,6.722876953125,-0.006319850671291351,0.004131587945972569,0.008601869794400408
1746575908001841200,6.732841064453125,-0.010958616387844086,-0.0008694032456725836,-0.005271136202802881
1746575908011806000,6.742805908203125,-0.028165771776437757,0.01649700239181984,0.009214540066337212
1746575908021770000,6.75277001953125,-0.023975334349274634,0.015189550222177058,0.005780254768719896
1746575908031734000,6.762734130859375,-0.012154548174142837,-0.008058063507592306,0.010073184455977753
1746575908041698800,6.77269873046875,0.005951601880788803,0.0007161078135250136,0.016191758667817337
1746575908051662800,6.782662841796875,-0.003324760508537292,0.005133084005559794,-0.006137361110700294
1746575908061627000,6.792626953125,-0.003325345030426979,-0.009979578755237162,-0.004459116567019373
1746575908071591000,6.8025908203125,-0.021281857481598852,-0.0017813350253971293,0.0019842326197773217
1746575908081556000,6.812555908203125,-0.0004816460371017456,0.0009256771772867068,0.015474605108099058
1746575908091519700,6.822519775390625,-0.02023322521150112,-0.007512599553237668,0.004976528037246316
1746575908101484000,6.832484130859375,-0.0030249007791280746,-0.0055587438054149965,-0.012680362146534025
1746575908111449000,6.842448974609375,-0.005868599772453307,0.0015455946073401718,-0.0012848887113854287
1746575908121413000,6.8524130859375,-0.016343816557526588,0.0036931097637396305,0.0029276692160405218
1746575908131377000,6.862376953125,-0.003475567156076431,0.0015580156974960117,0.0022730412322096525
1746575908141342000,6.872342041015625,-0.016494623205065725,-0.003306950857210904,0.0005143975292332471
1746575908151306000,6.882305908203125,-0.004672667986154556,0.005764869969920255,0.00569680513581261
1746575908161270000,6.89227001953125,-0.010208674803376198,-0.002210798784112558,-0.00014697072263807057
1746575908171233800,6.90223388671875,-0.012602876463532448,-0.0016023434629896655,-0.006581086290208623
1746575908181198800,6.91219873046875,-0.012902736192941664,-0.008605043565598316,-0.00460258929147385
1746575908191163100,6.9221630859375,-0.02262918043732643,0.0058266100945184,-0.01125039327549748
1746575908201127200,6.932127197265625,-0.009161796098947525,0.0055481721790507435,0.005201450233766809
1746575908211092000,6.942092041015625,-0.01724164218008518,0.020985048225801436,0.008143147975159809
1746575908221056300,6.95205615234375,-0.021282442003488538,-0.010867558837216346,-0.005161647946340963
1746575908231020300,6.962020263671875,-0.019636428362131118,0.014530383060546591,-0.01247915875231847
1746575908240984300,6.971984375,-0.016194763475656508,0.01565625441847369,0.009003618995705618
1746575908250949000,6.98194921875,-0.0097597619920969,-0.005958597877155989,0.006427128704357892
1746575908260913200,6.9919130859375,-0.013650339689850806,-0.009834900454385205,0.0016168606121093035
1746575908270877200,7.001877197265625,-0.02053308494091034,0.006554390079528093,0.015263437442295252
1746575908280842000,7.011842041015625,-0.004521276816725731,-0.0026226492543239147,0.0015895433469209819
1746575908290806000,7.021805908203125,-0.02247720474600792,-0.004967098055197857,0.005481911142962053
1746575908300770000,7.03177001953125,-0.0073632222443819045,0.0019345391259994356,-0.007463467748463153
1746575908310735000,7.041735107421875,-0.012750175979733467,0.012545209725853055,0.002452726914361119
1746575908320699100,7.05169921875,-0.004220248043537139,0.01603045802572742,0.007447429929114878
1746575908330663200,7.0616630859375,-0.01858545800447464,0.003283574548200704,0.001027680813614279
1746575908340627200,7.071627197265625,-0.013797639206051825,0.006353300849744118,-0.007643674020422622
1746575908350592300,7.08159228515625,-0.012300678646564483,-0.005259925255621783,-0.007620731536252424
1746575908360556000,7.09155615234375,-0.0057160395592451094,0.00021581187488045543,0.009101910004718229
1746575908370520000,7.10152001953125,-0.006763502785563469,-0.0033584344492759554,0.00086475447001867
1746575908380485000,7.111485107421875,-0.031153847676515578,0.0011033444322878494,0.008467119232518599
1746575908390449200,7.12144921875,-0.011400514936447143,-0.006328613933059386,0.0026058990489225835
1746575908400413000,7.131412841796875,-0.01828384470939636,0.0045074355210410425,0.0036620205057319253
1746575908410378200,7.141378173828125,-0.00421674091219902,0.014305022472608833,0.005998948153853416
1746575908420342300,7.15134228515625,-0.013792378509044646,0.013213236047374084,-0.005588650319911539
1746575908430306300,7.161306396484375,-0.008106149566173552,0.012322315089637412,-0.012021222384367137
1746575908440270000,7.17127001953125,-0.022619828087091443,0.012129806458530948,0.008973835778795182
1746575908450235100,7.181235107421875,-0.028305472508072853,0.009013779630116186,0.0012496530012227594
1746575908460199200,7.19119921875,-0.004362871384620666,-0.0007448909500148147,0.0006067519878037274
1746575908470163200,7.2011630859375,-0.015285831937193869,-0.0021015023238956927,-0.016932384434668345
1746575908480128000,7.2111279296875,-0.016033435434103013,-0.01122199829807505,-0.01389451457611285
1746575908490092000,7.221092041015625,-0.0010690905362367629,0.004384137934935279,-0.006024612318072468
1746575908500056000,7.23105615234375,-0.003613514322042465,-0.009540237489901482,0.003728400272829458
1746575908510021000,7.241021240234375,-0.02201835506260395,-0.0008703256942797452,0.006556097979424521
1746575908519985200,7.250985107421875,-0.013039514315128325,-0.0027007240257924422,0.0038253213086631146
1746575908529949200,7.26094921875,-0.002714519655704498,-0.008446450903825462,-0.0017003741770982741
1746575908539913200,7.270913330078125,0.004618307450413704,-0.012686536158993839,-0.00547172767566517
1746575908549878000,7.2808779296875,-0.02052080998122692,0.0005132193522993474,0.008123776554409413
1746575908559842000,7.290842041015625,-0.004211480215191841,0.008590709079569206,0.014881160126440226
1746575908569806000,7.30080615234375,-0.002715104177594185,0.00785168161476031,0.006785120962327346
1746575908579771100,7.310771240234375,-0.019323709151148796,-0.0019504079819889738,-0.0002966905247885734
1746575908589735000,7.32073486328125,-0.006155600020289421,0.0017573741944972424,0.0025469902022276073
1746575908599699000,7.330698974609375,-0.019024433943629265,0.0037631975915748623,-0.0011288213668391109
1746575908609664300,7.340664306640625,-0.004510755422711372,0.006736454948433675,-0.006636031347839162
1746575908619628300,7.350628173828125,-0.02216740814447403,-0.0011911414467496797,0.007260592986969277
1746575908629592000,7.360592041015625,-0.013040098837018012,-0.007765555967576801,-0.009642282225424422
1746575908639556000,7.37055615234375,-0.02216682362258434,0.004910554695525206,0.006473853922914713
1746575908649521200,7.380521240234375,-0.003312485548853874,0.00038957927289884537,-0.000576539512630552
1746575908659485200,7.390485107421875,-0.008699439284205437,0.0055508892925223334,-0.013802753772586582
1746575908669449200,7.40044921875,-0.021567688685655593,-0.006706721963873133,0.005139938438031822
1746575908679414000,7.4104140625,-0.007053425642848015,-0.004253853485616855,0.02046731709516607
1746575908689378000,7.4203779296875,-0.020819500666856765,-0.010691298088012263,0.01590396383553743
1746575908699342000,7.430342041015625,-0.016180150428414343,-0.003566853035567328,-0.0019298720840364694
1746575908709307100,7.44030712890625,-0.009895955592393875,-0.007697993456968106,-0.01974530469723977
1746575908719271200,7.450271240234375,-0.016029928302764892,-0.0014528200236614793,0.00889615829954855
1746575908729235200,7.460235107421875,-0.014981296032667159,0.022558224959811194,0.011398450843524187
1746575908739199200,7.47019921875,-0.006601005700230598,0.0003029147695982829,0.015289896190958097
1746575908749164000,7.4801640625,-0.01243628772497177,-0.0011825106157222762,0.007138948501832783
1746575908759128000,7.490128173828125,-0.005403320348262786,0.0029006168123334643,0.007677521491097286
1746575908769092000,7.500092041015625,0.0034258827954530714,0.014876319554541259,0.0015290635976474732
1746575908779057200,7.51005712890625,-0.00959200420975685,-0.012688367356476373,0.014642337268730625
1746575908789021000,7.52002099609375,-0.012884031492471694,0.000029363091802224514,-0.007038739530369639
1746575908798985000,7.52998486328125,-0.005851064115762711,0.00021442820196971297,0.016973812423599882
1746575908808950300,7.5399501953125,-0.0010614917516708372,0.00799648321319837,0.0004998392809182406
1746575908818914000,7.5499140625,-0.0036047464936971663,-0.000021417247364297508,-0.018768258092319592
1746575908828878000,7.559878173828125,-0.006598083090782165,0.011895207684789784,-0.010613903736555947
1746575908838842000,7.569842041015625,-0.020813070926070213,-0.008510789410886354,-0.0003424293626565486
1746575908848807200,7.57980712890625,-0.0033048867642879484,0.0008416567222215235,0.0035653277987614273
1746575908858771200,7.589771240234375,-0.0052495910912752144,0.0073906445408472785,-0.01401849714880809
1746575908868735000,7.59973486328125,-0.01811784049272537,0.002877386633795686,-0.009670759401237591
1746575908878700000,7.609699951171875,-0.015723638832569123,0.0021851985519751906,0.0035858682632911947
1746575908888664000,7.6196640625,-0.00824175864458084,-0.003415288336202502,-0.0012466025276109576
1746575908898628400,7.62962841796875,-0.016022914040088654,0.0006837627467699348,0.004523368309112265
1746575908908592000,7.639592041015625,-0.009138415223360062,0.0036153957518748935,0.0008346059269271791
1746575908918557200,7.64955712890625,-0.0006084872871637344,0.0013774806319735943,0.011548782567027956
1746575908928521200,7.659521240234375,-0.019613047486543654,-0.008121310602687299,0.006623509792983532
1746575908938485200,7.6694853515625,-0.004500234028697013,-0.008977050649188459,-0.006513765808194875
1746575908948450000,7.679449951171875,-0.008091536518931389,0.005249819420138374,0.005296855165949091
1746575908958414000,7.6894140625,0.00492693500816822,0.0025683709169737994,0.014135538524063303
1746575908968378000,7.699378173828125,-0.020811317360401153,-0.010252007055026479,-0.0006318407632876187
1746575908978343000,7.709343017578125,-0.026346739655733108,0.010359805677901021,-0.00012457622773945332
1746575908988307000,7.719306884765625,-0.009437690430879593,-0.0009523779545444995,-0.005237964585563168
1746575908998271200,7.729271240234375,-0.005396890607476234,-0.002557543562282808,-0.001093476058822125
1746575909008235300,7.7392353515625,-0.01631926663815975,0.0072039582957513625,0.015052151045482605
1746575909018200000,7.749199951171875,-0.01931260323524475,0.00285145760809537,-0.01034950804617256
1746575909028164000,7.7591640625,-0.022154548662900925,0.0006696794224902987,0.006639520212868229
1746575909038128000,7.769128173828125,-0.007339841368794441,0.005329597524926066,-0.0017949297259096054
1746575909048093200,7.77909326171875,0.004631166931986809,0.004155119518609717,0.016297694127168506
1746575909058057000,7.789056884765625,-0.005393967998027801,-0.002906137804244645,-0.008879042767966165
1746575909068021000,7.79902099609375,-0.017964695757627488,-0.0056250505072763185,-0.007197190628247335
1746575909077986000,7.808986083984375,-0.006294131708145141,-0.0009086712435586378,0.013836729107424617
1746575909087950300,7.818950439453125,-0.004348258337378502,0.0028964338275603947,0.023422120913304388
1746575909097914000,7.8289140625,-0.014224340185523033,0.00860500703298021,0.012012491088639944
1746575909107878100,7.838878173828125,-0.005694996771216392,-0.0010035966851282864,-0.008172291871253401
1746575909117843200,7.84884326171875,-0.0049468087524175645,0.0004774767520604655,-0.004725713347643614
1746575909127807200,7.85880712890625,-0.009884849676489829,0.019236921350262125,-0.001320818541292101
1746575909137771000,7.86877099609375,-0.015869769304990768,0.014754364542150868,0.011364959565876052
1746575909147736000,7.878736083984375,-0.012577742022275924,0.010114416082086972,0.013015147058852016
1746575909157700000,7.8887001953125,-0.018113748839497564,0.00037135862961877136,-0.005043985516577959
1746575909167664000,7.8986640625,-0.004645779979228973,-0.0029214267049217594,-0.010153437484800815
1746575909177629200,7.908629150390625,-0.009584405425190925,-0.006862775608687661,0.00038115393784828483
1746575909187593200,7.91859326171875,-0.004646949023008346,-0.010349138153414242,-0.007014664535038173
1746575909197557200,7.92855712890625,0.0008896423161029815,0.0006387682609958574,0.01085788682657294
1746575909207521300,7.938521240234375,-0.012877601751685142,-0.0030218777049798515,-0.0030851339332293717
1746575909217485800,7.94848583984375,-0.017217092260718346,-0.007914778012805618,-0.014921574335219338
1746575909227449900,7.958449951171875,-0.012430442506074904,-0.009601114531396887,-0.003926671924442053
1746575909237414000,7.968413818359375,-0.010484569135308265,-0.00016917342129163442,0.0066877067361492655
1746575909247379000,7.97837890625,-0.008839140015840529,0.001906048250454478,0.015698577456548807
1746575909257342700,7.9883427734375,-0.006145078626275062,0.0023976128933718426,-0.01013767366008833
1746575909267306800,7.998306640625,-0.014524784436821937,-0.0028913009947165846,0.0037288660637103017
1746575909277271800,8.008271728515625,-0.010634206739068031,-0.0021196453353622925,-0.010200317966984585
1746575909287235800,8.01823583984375,-0.014224924707412719,0.000391666198708117,-0.0034711558424402027
1746575909297199600,8.02819970703125,-0.010932897424697875,-0.001376124358526431,-0.0017203757855109869
1746575909307163600,8.03816357421875,-0.009585574468970298,-0.009676819249265826,-0.0006920556510798633
1746575909317129000,8.04812890625,-0.023052958807349203,0.0024233135902089996,0.010974197549466044
1746575909327093000,8.058093017578125,-0.014074702581763267,-0.004461189793096855,0.0011015680337324739
1746575909337056800,8.068056884765625,-0.007191957330703735,-0.0026063694063806907,-0.01456962822554633
1746575909347021800,8.078021728515624,-0.005245499438047409,0.0028363787699723616,-0.008273834283277392
1746575909356985900,8.08798583984375,-0.01781505815386772,0.006375343718193471,0.020928943257546052
1746575909366950000,8.097949951171875,-0.007190788286924362,-0.003329075924050994,0.0028186741499230264
1746575909376914700,8.107914794921875,-0.01497252820432186,-0.0023786433314206077,-0.006622614743839949
1746575909386878700,8.117878662109375,-0.025896657800674436,-0.008281985623692163,-0.02740240445481613
1746575909396842800,8.1278427734375,-0.01617079807817936,-0.0031964442540192975,-0.000556017314409837
1746575909406807000,8.13780712890625,-0.039214404535293575,0.009201689717918633,0.008249485293310136
1746575909416771800,8.147771728515625,-0.02021101337969303,0.01404095100921113,0.011701689840108156
1746575909426735900,8.15773583984375,-0.014973697248101233,0.004597926816088147,-0.003702489513438195
1746575909436700000,8.167699951171874,-0.015122165808081626,0.005316208320390433,-0.010663953423360363
1746575909446664700,8.177664794921874,-0.0012058686584234238,-0.009496302450052462,-0.008454533745581284
1746575909456628700,8.187628662109375,-0.007789923223853111,-0.0021661239587469024,0.01194343530726619
1746575909466592800,8.1975927734375,-0.020659926190972327,-0.0026371435705572367,-0.0014294208817649632
1746575909476557800,8.207557861328125,-0.01617079807817936,0.019080164452549068,0.015302280748495831
1746575909486521600,8.217521484375,-0.014075287103652953,-0.0013732154488097876,0.014515103293024002
1746575909496485600,8.227485595703126,-0.008389642682671547,0.004975669520720839,-0.006462364414520561
1746575909506450000,8.237449951171875,-0.010184124884009362,0.010609446757147088,-0.0014669764131773262
1746575909516415000,8.2474150390625,-0.007940145349502563,0.013007388444081879,0.01061577603323385
1746575909526378800,8.257378662109375,-0.020360650983452796,-0.012270068879169411,0.007012061585998162
1746575909536342800,8.2673427734375,-0.0052472530037164684,-0.011091124760289676,-0.008542303360579534
1746575909546307800,8.277307861328126,-0.02200608010292053,0.004467911794828251,-0.01068935272609815
1746575909556271900,8.28727197265625,-0.011830138525366782,-0.00839926446096506,0.0019725513151381165
1746575909566236000,8.29723583984375,-0.01856324617266655,-0.0022297500797547397,-0.0005124339010100812
1746575909576200700,8.30720068359375,-0.021256138518452643,0.00014668302827049046,0.004688422677712515
1746575909586164700,8.317164794921876,-0.01886193685829639,0.010151131363282911,-0.007902936877962202
1746575909596129000,8.32712890625,-0.015419687449932098,0.002593496225075796,0.014513240129500627
1746575909606093000,8.337093017578125,-0.003897591960430145,-0.001901545605272986,0.013202367593487724
1746575909616057900,8.347057861328125,-0.00883563288450241,0.003142786971176974,0.0011113861748483032
1746575909626022000,8.35702197265625,-0.017814473631978033,-0.01252872894851025,-0.002762578314822167
1746575909635986000,8.36698583984375,-0.019160627543926237,0.011848792993486857,0.011737857132032513
1746575909645950700,8.37695068359375,-0.010182371318340301,0.009720763422269374,0.009781179239461198
1746575909655914800,8.386914794921875,-0.00793722274005413,-0.001239136173785664,-0.004446430615382269
1746575909665878800,8.396878662109375,-0.024996494090557098,-0.008304412084631622,-0.005270734344003721
1746575909675843800,8.40684375,-0.020956278789043426,0.009030607467330991,-0.009184829914662986
1746575909685807900,8.416807861328126,-0.021852935367822644,0.006590982063137926,0.006742688326397911
1746575909695772000,8.42677197265625,-0.013024901267886161,-0.0008832582410890609,-0.009798714896151795
1746575909705736000,8.43673583984375,-0.027839608561992645,0.01358895575827919,-0.013220067646959795
1746575909715701000,8.446700927734375,-0.021855273455381394,0.0011397354864981024,-0.0013713979510590433
1746575909725664800,8.456664794921876,-0.010932897424697875,0.0003430504171643406,-0.00399379147705622
1746575909735628800,8.46662890625,-0.008689502412080764,0.0005554601919837296,-0.011262458172626793
1746575909745593900,8.47659375,-0.021858196064829825,0.005912922971369698,0.006822895689448341
1746575909755558000,8.486557861328125,-0.004200958821177482,0.0008264089207397773,0.0007137103604618459
1746575909765521700,8.496521728515624,-0.008391396248340606,-0.012341586045688017,0.016627775464905424
1746575909775487000,8.506487060546876,-0.017518705555796623,-0.01192589508399833,-0.008550340536562725
1746575909785451000,8.516450927734375,-0.00839081172645092,-0.008012320103147067,-0.016670144168753176
1746575909795415000,8.5264150390625,-0.007343933022022247,-0.010173589790263213,-0.009619832931598647
1746575909805378800,8.53637890625,-0.01796761836707592,0.01390686260103248,-0.0008223035677801817
1746575909815343900,8.54634375,-0.009288052827119827,0.0037169975294033064,0.00137809255332686
1746575909825308000,8.556307861328126,-0.01886427494585514,0.003186589580285363,0.0023804653957486153
1746575909835272000,8.56627197265625,-0.022006664624810216,0.019510431928862815,0.00463374248156324
1746575909845236700,8.57623681640625,-0.026944705548882484,0.002306158050522208,-0.009119308664090931
1746575909855200800,8.58620068359375,-0.008839140015840529,0.010093364160903728,-0.001298844171501696
1746575909865164800,8.596164794921876,-0.01961363200843334,-0.0014077342063421384,0.0029276144171133636
1746575909875128800,8.60612890625,-0.017219430348277092,0.012564430449553765,0.006069446973642334
1746575909885094000,8.616093994140625,-0.008989362141489982,-0.009478926623566076,0.005445104530220851
1746575909895058000,8.626057861328125,-0.018416531178355216,-0.00939257264751941,0.002440945145022124
1746575909905022000,8.63602197265625,-0.009138999745249747,-0.004272731716022826,-0.0043046018587425345
1746575909914986800,8.64598681640625,-0.007044073292613029,-0.008937321426998823,-0.005202427481301128
1746575909924950800,8.65595068359375,-0.017369652473926543,0.000778519224980846,0.002483962302841246
1746575909934914800,8.665914794921875,-0.014526538002490997,-0.011064049523696303,0.012110453304089604
1746575909944879900,8.6758798828125,-0.02006371386349201,-0.0071086127290735015,0.0004128094514366239
1746575909954843600,8.68584375,-0.01976443865597248,0.005539016191638074,0.003389669837756082
1746575909964807700,8.6958076171875,-0.01348024381995201,-0.008657659668824634,-0.0012232033857144415
1746575909974771700,8.705771728515625,-0.005399813216924667,0.0033146318401675668,-0.004681052222009748
1746575909984737000,8.715737060546875,-0.02784545378088951,0.00819789666996803,-0.010339242380484937
1746575909994700800,8.72570068359375,-0.008541618373990058,0.0035897178879240525,-0.005286552967643365
1746575910004664800,8.735664794921876,-0.019165888240933418,0.003885924355522729,-0.009336924336990342
1746575910014630000,8.7456298828125,-0.0037532150536775588,-0.006239583942736499,-0.015838077258784323
1746575910024594000,8.755593994140625,-0.012431611549854277,-0.0017736586090177297,-0.012438333551585674
1746575910034557700,8.7655576171875,-0.007642623707652092,-0.011936991866747848,0.004255027095973491
1746575910044521700,8.775521728515624,-0.020959785920381543,0.004870181585941463,0.007759491552971303
1746575910054486800,8.78548681640625,0.0035813656181097027,0.001341523402603343,0.0034017073354218152
1746575910064450800,8.795450927734375,-0.013327683606743811,-0.005490952965943143,-0.008699795477231964
1746575910074414800,8.805414794921875,-0.01961246296465397,-0.01171357207414694,-0.011904427604284137
1746575910084380000,8.8153798828125,-0.012578911066055297,0.007249902629596181,0.007971088477037846
1746575910094344000,8.825343994140624,-0.013775427374243735,-0.0005864352855598553,0.009749624190572648
1746575910104308000,8.835307861328126,-0.00883738645017147,0.0062593298228224735,-0.010434455516422168
1746575910114272800,8.845272705078125,-0.018863105902075766,0.0046290663064457475,0.0004556348130106926
1746575910124236800,8.85523681640625,-0.006143909582495689,0.01148754476592876,0.012123824242316186
1746575910134200800,8.865200927734374,-0.011231003588438034,-0.0020881405188236386,0.013408639888465404
1746575910144164900,8.875164794921876,-0.014373393267393111,0.0025921034190105273,-0.0011665412950329483
1746575910154129700,8.885129638671875,-0.02903787843585014,0.0016049007462570443,-0.011797286568535492
1746575910164093700,8.89509375,-0.004198620733618736,0.01634698119556997,0.006763256190391257
1746575910174057700,8.9050576171875,-0.02200491105914116,-0.003830531773320399,-0.010061402686638757
1746575910184022800,8.915022705078124,-0.011979191607236862,0.005884390996629372,-0.003188621707167476
1746575910193986800,8.92498681640625,-0.012129413732886314,-0.010540034782746807,0.0029932452655397354
1746575910203950800,8.934950927734375,-0.013924480456113815,0.004969554873765446,0.0045836836616043
1746575910213916000,8.944916015625,-0.003748538878560066,-0.001017976836930029,-0.00999135139142163
1746575910223880000,8.9548798828125,-0.02754033335447311,0.006491764038940891,-0.00404152134261094
1746575910233844000,8.964843994140624,-0.011827800437808036,0.0030256816638400776,0.004719073544302955
1746575910243808000,8.97480810546875,-0.013922726890444754,0.016288752768887207,-0.001085603279620409
1746575910253773300,8.984773193359375,-0.021405191600322723,0.008342332942225038,-0.00043485688646323974
1746575910263737000,8.994737060546875,-0.004795417582988739,0.00779847642306704,0.005113671485614031
1746575910273701000,9.004701171875,0.0056780456364154816,0.0048565549193881445,-0.0029290300560649483
1746575910283666200,9.014666259765624,-0.010482815569639205,0.010445218939031473,0.0009694386871997267
1746575910293630200,9.024630126953125,-0.007639701098203658,-0.0017086168490583076,0.00051033327546902
1746575910303594200,9.03459423828125,-0.02006079125404358,-0.0010985358264297247,-0.008128553194226697
1746575910313559000,9.04455908203125,-0.020660510712862012,0.007103657992742955,-0.0051131052300333974
1746575910323523000,9.054523193359374,-0.026046295404434202,0.009564764576382003,-0.009802925280388444
1746575910333487000,9.064487060546876,-0.005994271978735924,0.004755747726303525,0.002863700601737946
1746575910343451100,9.074451171875,0.0013385551273822783,0.01085901020457968,0.005669807531032711
1746575910353416200,9.084416259765625,-0.01048223104774952,-0.0017381169381784274,-0.002580636743502691
1746575910363380200,9.094380126953125,-0.0038987610042095183,0.013242836601193993,0.01017503739525564
1746575910373344300,9.10434423828125,-0.014223755663633346,0.008016503087920136,0.012520659806486218
1746575910383309000,9.11430908203125,-0.017216507738828657,-0.008751785959373228,-0.003764485366363078
1746575910393273000,9.124273193359375,-0.020957447832822797,-0.0011312644856749101,0.006413337641023099
1746575910403237000,9.134237060546875,0.0017868834167718887,0.011183387887314893,0.009276216258853673
1746575910413202000,9.144201904296875,-0.009584989947080612,0.0026256175295449793,0.0010362933783326297
1746575910423166000,9.154166015625,-0.016318682116270064,0.0015552985840244218,-0.00016039645979180932
1746575910433130000,9.1641298828125,-0.021706220373511314,-0.0016277655986137688,-0.010465316445566713
1746575910443094000,9.174093994140625,-0.019910569128394125,0.016232784797949717,0.01573879073592834
1746575910453059000,9.18405908203125,-0.018714052820205686,0.014780567562486975,0.008622264128457754
1746575910463023000,9.194023193359374,-0.013027823877334595,0.0010021536467131227,-0.008137914677616208
1746575910472987100,9.203987060546876,-0.014674422040581702,0.0018209044173825531,-0.007837570891017094
1746575910482952200,9.2139521484375,-0.017517536512017248,0.0024326522407121954,0.0026302663051988927
1746575910492916200,9.223916259765625,-0.005845218896865845,-0.009663188016135246,0.014250077414978295
1746575910502880000,9.2338798828125,-0.019013328027725217,0.0063538534055929624,0.0031547833696473388
1746575910512844000,9.243843994140626,-0.01781681171953678,0.0008658002162119374,-0.001300141079444438
1746575910522809000,9.25380908203125,-0.015272387933731079,-0.005099556195293553,0.023332223273301495
1746575910532773000,9.263773193359375,-0.010483400091528892,-0.0048008655096637085,0.010914539784099906
1746575910542737000,9.27373681640625,-0.013775427374243735,0.0036917215242516246,-0.011354703033342958
1746575910552702200,9.2837021484375,-0.007789923223853111,-0.008452131725940852,-0.012818902967544272
1746575910562666200,9.293666259765626,-0.02035948193967342,-0.004135866828868165,0.004718461622949689
1746575910572630300,9.30363037109375,-0.017965280279517173,0.0027350372873479497,0.001593507135985419
1746575910582595000,9.313594970703125,-0.007790507745742798,0.008506263932818546,-0.00866452323445119
1746575910592559000,9.32355908203125,-0.014523615393042564,0.0031954624399077145,-0.011480201709689572
1746575910602523100,9.333523193359374,-0.010184124884009362,0.0000045757104177027935,0.0031675515196751803
1746575910612487200,9.343487060546876,-0.01646831972002983,0.0010815618587424979,0.011041435833089053
1746575910622452000,9.353451904296875,-0.015122750329971313,0.00036215240985620765,0.005930312497587874
1746575910632416000,9.363416015625,-0.019762100568413734,-0.004602534492546692,-0.010201194749819115
1746575910642380300,9.37338037109375,-0.012130582776665687,-0.007922532060998492,-0.0005977832300588489
1746575910652345000,9.383344970703124,-0.017367898908257483,-0.00554136797892861,0.0027553174569737164
1746575910662309000,9.39330908203125,-0.008390227204561233,0.0030193706540623676,0.004295706166233867
1746575910672273200,9.403273193359375,-0.004799509236216545,-0.005494953287625685,-0.00839699487206526
1746575910682238200,9.41323828125,-0.020362404549121856,-0.0016903505400056018,-0.0031674601881299166
1746575910692202000,9.423201904296874,-0.008988777619600296,-0.0010140998128335922,0.009366113898856564
1746575910702166000,9.433166015625,-0.01946340988278389,0.0017804947751807049,0.0001017068088054657
1746575910712130000,9.443130126953125,-0.007493570625782013,-0.00042787915640510614,0.0021507300267927347
1746575910722095000,9.45309521484375,-0.011684592574834823,0.005806964679132215,-0.007748239506594836
1746575910732059000,9.463058837890625,-0.009438859474658966,0.007129856446501799,-0.0008180566509254277
1746575910742023200,9.473023193359374,-0.002405307576060295,-0.005971640021819621,0.0004165723111014813
1746575910751988200,9.48298828125,-0.0033037177205085754,0.0034953541353577745,-0.010712176479259506
1746575910761952300,9.4929521484375,-0.01961363200843334,-0.011189150907821022,0.003504400524916127
1746575910771916000,9.502916015625,-0.011982114216685295,-0.001608234347659163,0.012020126405823976
1746575910781881000,9.512881103515625,0.0013350479960441588,0.00837272808048874,0.0008660605111159384
1746575910791845000,9.52284521484375,-0.015274726021289825,-0.006268412744998932,-0.0032049791869241742
1746575910801809200,9.53280908203125,-0.012581249153614044,-0.011637607061374,-0.006167016463447362
1746575910811773200,9.542773193359375,-0.015125672939419745,-0.0037614257595967497,-0.007666735235601663
1746575910821738000,9.552738037109375,-0.02171031202673912,0.0030112284468021243,0.006559760374389588
1746575910831702300,9.562702392578124,-0.016771686580777167,0.01608411074199248,-0.005086692147143185
1746575910841666300,9.572666259765626,-0.013330606216192245,0.004591894367523491,0.001695579270971939
1746575910851631000,9.582631103515626,-0.013630465945601463,0.006354743888159282,0.0029527488583698867
1746575910861595100,9.59259521484375,-0.008542202895879744,0.0014827539376216009,-0.005747722472297027
1746575910871559200,9.60255908203125,-0.020513211196660993,0.000015229535172693431,-0.015455306752584873
1746575910881523200,9.612523193359374,-0.019914076259732245,0.006545978444209322,0.007265634488267824
1746575910891488000,9.622488037109376,-0.019314941322803498,0.009945388791267759,0.015890857758792117
1746575910901452000,9.6324521484375,-0.02021276694536209,-0.009851878988649695,-0.005213688660832122
1746575910911416000,9.642416015625,-0.004949731361865997,-0.008966346592083573,-0.01205367248239927
1746575910921381000,9.652381103515625,-0.007943067958950997,0.004398673350363969,-0.009930469783348963
1746575910931345200,9.66234521484375,-0.022309446963667868,0.00712205216595903,0.012922683002427219
1746575910941309200,9.67230908203125,-0.008391980770230293,0.0012159379612887277,-0.0034485786844510582
1746575910951274200,9.682274169921875,-0.007045242336392402,-0.006547946639009751,0.006260750028351321
1746575910961238300,9.69223828125,-0.0039040217012166973,-0.004252232350688428,0.0034586251544300463
1746575910971202000,9.7022021484375,-0.0037549686193466183,-0.011393327143834904,0.0038045433821156617
1746575910981166000,9.712166015625,-0.02021452051103115,-0.0021038632443407547,0.0014858729098923503
1746575910991131100,9.722131103515625,-0.0291921922147274,0.0016244274306343868,-0.004818031273595988
1746575911001095200,9.73209521484375,-0.0037543840974569318,-0.0031443761400645597,0.004767497529601678
1746575911011059000,9.742058837890625,-0.009291559958457946,0.004187423486169428,0.004395001822244376
1746575911021024300,9.752024169921874,-0.023356910189986226,0.014417022346565498,0.00042320298128761347
1746575911030988300,9.76198828125,-0.0068967737764120095,-0.011515396320656873,0.0046304362796247
1746575911040952300,9.771952392578125,-0.021861703196167946,0.0010425404560286552,0.00633442718591541
1746575911050917000,9.781917236328125,-0.01752221268713474,0.015852795337303542,0.01215451164152473
1746575911060881200,9.791881103515625,-0.011686346140503883,0.015146816192148253,0.003742565795499831
1746575911070845200,9.80184521484375,-0.04026654393672943,0.0014975496479542926,0.007159699028916657
1746575911080809200,9.811809326171876,-0.02799626042842865,0.005864677082584239,0.011197978101670742
1746575911090774000,9.82177392578125,-0.015576923838257789,0.014796669313916936,-0.00609712956501171
1746575911100738000,9.831738037109375,-0.008393734335899353,0.0013819924103096127,0.00453264759411104
1746575911110702000,9.8417021484375,-0.007046411380171776,0.015251180748920887,0.0006180496999528259
1746575911120667100,9.851667236328124,-0.02141103681921959,0.0002483213384170085,0.006630944180767983
1746575911130631200,9.861631103515625,-0.018717559951543807,0.004438662867457605,0.0014097389337606727
1746575911140595200,9.87159521484375,-0.00734334850013256,0.0031080307516269385,0.0010264387045986949
1746575911150559200,9.881559326171875,-0.01676934849321842,-0.011011488219397143,-0.00562763975658454
1746575911160524000,9.89152392578125,-0.02275602168738842,-0.00530503390582744,-0.001217833090852946
1746575911170488000,9.901488037109376,-0.007193126374483108,0.01188883274293039,0.0046106082011479884
1746575911180452000,9.9114521484375,-0.020510873109102247,0.00846204576517921,0.0017089684755075723
1746575911190417200,9.921417236328125,0.0043289691150188445,-0.009812040168605745,-0.0014134287281893194
1746575911200381000,9.931380859375,-0.0047989247143268585,-0.009382275015790946,0.008158062416501343
1746575911210345000,9.941344970703126,-0.016171382600069045,0.015351873777573927,0.015169996138336136
1746575911220309500,9.9513095703125,-0.0050970308780670165,-0.007259894300648011,0.007167608340736478
1746575911230273500,9.9612734375,-0.035922377252578734,-0.002191651125648059,0.009561782601429149
1746575911240237600,9.971237548828125,-0.01482347512245178,0.005393657470773906,0.0004790796206798404
1746575911250201300,9.981201416015624,-0.007940729871392249,0.005412544834334403,-0.010712578338058665
1746575911260166700,9.991166748046876,-0.014375731354951857,0.0008808836209122091,-0.000256796905817464
1746575911270130700,10.001130615234375,-0.020810732838511467,0.006315357159264385,-0.0036758298353757705
1746575911280094700,10.0110947265625,0.005076572611927986,-0.004443960097082891,0.005777313892962411
1746575911290059500,10.0210595703125,-0.012730302235484122,0.002913891852437518,0.010509466114547103
1746575911300023600,10.0310234375,-0.01647124232947826,-0.01225155140836723,0.006226683361968025
1746575911309987600,10.040987548828125,-0.019763269612193105,-0.008804328997363336,-0.01081333529879339
1746575911319952400,10.050952392578125,-0.02006196029782295,-0.00007023852488491684,0.004285239571146667
1746575911329916400,10.06091650390625,-0.013029577443003653,0.003549847101839259,0.0023524722771253435
1746575911339880400,10.07088037109375,-0.021558920857310294,0.0006429147131508216,-0.00040407815570943053
1746575911349844700,10.0808447265625,-0.01856616878211498,-0.002632695724302903,0.0034688999532721935
1746575911359809500,10.0908095703125,-0.014376315876841544,0.0003409360918914899,0.014677719109365715
1746575911369773600,10.100773681640625,-0.01632102020382881,0.00539284462002106,0.015518654312379657
1746575911379737600,10.110737548828125,-0.007342763978242873,0.018268350312742404,-0.009929319005878642
1746575911389702700,10.12070263671875,-0.017068623700737952,-0.0004524153760401532,-0.010092391479946672
1746575911399666400,10.13066650390625,-0.02140752968788147,0.005250276077864691,-0.010160022489214316
1746575911409630500,10.14063037109375,-0.022154548662900925,0.004771118825371377,0.005289877435890957
1746575911419595500,10.150595458984375,-0.019461656317114828,0.001254662536480464,0.006469342144578695
1746575911429559600,10.1605595703125,-0.008687164324522018,-0.005041067473706789,-0.011087804858619347
1746575911439523600,10.170523681640624,0.00253624047935009,-0.004907294159359299,0.0023518238231539723
1746575911449487600,10.180487548828125,-0.020807225707173346,0.0038648678677622225,0.0008738054261542856
1746575911459452700,10.19045263671875,-0.006440846702456474,0.001249333340814337,-0.0026038075565360487
1746575911469416700,10.200416748046875,-0.007787585136294364,-0.00018359010571148245,0.002819130807649344
1746575911479380500,10.21038037109375,-0.020955694267153737,0.015061663225921802,0.0006049984221346676
1746575911489345500,10.220345458984376,-0.02080605666339397,0.006112272335216403,-0.002612566251726821
1746575911499309600,10.2303095703125,0.0031377135038375852,0.008077110701357014,-0.003818836768949404
1746575911509273600,10.240273681640625,0.0020890812337398526,0.0036355754568008704,-0.007959818164352327
1746575911519238400,10.25023828125,-0.019608371311426162,0.002627786653744988,0.00015088884592987596
1746575911529202400,10.260202392578124,-0.004944470664858818,0.0027802646685624495,0.01006209680638276
1746575911539166700,10.270166748046876,-0.019607786789536476,0.008677885039523244,0.0011588785783853382
1746575911549130800,10.280130859375,-0.021553075638413428,-0.012043657978461124,-0.014978948811953887
1746575911559095600,10.290095458984375,-0.0032961189359426496,0.0021439714924432335,0.003953989189630374
1746575911569059600,10.3000595703125,-0.004043722432851791,0.003983617142913863,0.01220868038102053
1746575911579023600,10.310023681640626,-0.02933247746825218,-0.005481719346717,0.01595463457684964
1746575911588988400,10.319988525390626,0.004186345773935318,-0.011067634286847896,-0.011416689753113314
1746575911598952400,10.329952392578125,-0.017511106771230696,-0.004467208541929722,0.008056054213596507
1746575911608916500,10.33991650390625,-0.010029811105132102,-0.009545183093077503,-0.0017832301549613474
1746575911618881500,10.349881591796875,-0.0074859718412160865,-0.005793452177010476,0.007638148461934178
1746575911628845600,10.359845458984376,-0.009432429733872413,-0.0061710944169433785,-0.01545639359797351
1746575911638809600,10.3698095703125,-0.02185235084593296,-0.0034988932327367364,-0.0016811762862838804
1746575911648773600,10.379773681640625,-0.004195113602280616,0.0035109398635569957,-0.005736534358002245
1746575911658738700,10.38973876953125,-0.008384381985664368,0.0033396521169925105,0.0033591377021744847
1746575911668702700,10.39970263671875,0.005830021327733993,0.00323993633587379,0.00031237215111032125
1746575911678666500,10.40966650390625,0.06583353139162063,-0.009640067435451783,0.00042328517967835067
1746575911688631600,10.419631591796875,-0.03771335232257843,-0.024510715301032177,0.014109920025616883
1746575911698595600,10.429595703125,-0.17448095311522482,-0.011276381666702218,0.0015788940887432545
1746575911708559600,10.4395595703125,0.0867874720931053,0.004614827718539163,-0.021107532961154356
1746575911718524700,10.449524658203124,-0.04414484667479992,0.0021919251202838492,-0.004493566825892776
1746575911728488700,10.45948876953125,-0.011524433577060698,0.024106550380354745,0.01927032586294226
1746575911738452700,10.46945263671875,0.0463853190779686,0.011608536230516619,0.005853584866411984
1746575911748416800,10.479416748046875,-0.020502689802646634,0.0013115438228705897,-0.028848803870845586
1746575911758381600,10.489381591796874,-0.040403906580805775,-0.021299721931852398,-0.01779612512453459
1746575911768345600,10.499345703125,-0.03501812188923359,-0.052066689182631666,0.011653485050518065
1746575911778309600,10.5093095703125,0.014810615640878676,-0.07302377168927342,-0.002690572524536401
1746575911788274400,10.5192744140625,0.0011947627425193785,-0.08392789054405875,-0.09500967665384523
1746575911798238500,10.529238525390625,-0.02259644721150398,-0.0691600180663634,-0.05580221331599168
1746575911808202500,10.539202392578124,-0.01586217052042484,0.004097270117839798,0.06055864146230742
1746575911818166500,10.54916650390625,-0.02843231375813484,0.05492470896225422,0.07580370299769565
1746575911828131600,10.559131591796875,-0.026187749701738355,0.10418330018790438,0.0570036797939334
1746575911838095600,10.569095703125,-0.017658406287431715,0.12766714295949785,0.028852055273856966
1746575911848059600,10.5790595703125,-0.014815876337885855,0.12533468142393975,0.018298960080137476
1746575911858024700,10.589024658203124,-0.007784078004956245,0.11623046073112636,0.010519950975943356
1746575911867988500,10.598988525390626,-0.02125321590900421,0.1004802261525765,-0.01735215334985405
1746575911877952500,10.608952392578125,-0.02469488079547882,0.07340114906772505,-0.014247474465938284
1746575911887917600,10.61891748046875,-0.016165537381172178,0.023060827019973657,-0.01264408525675535
1746575911897881600,10.628881591796874,-0.003894669350981712,-0.02058090157143306,-0.026917086889594793
1746575911907845400,10.638845458984376,0.0035872108370065686,-0.0795224677924998,-0.029394875179976222
1746575911917810700,10.648810791015626,-0.004640519282221794,-0.09957785221906379,-0.0051833300551865245
1746575911927774700,10.658774658203125,-0.004788987842202186,-0.09181686282875016,0.014988072833325714
1746575911937738800,10.66873876953125,-0.0031429742008447646,-0.09647435151208192,0.0482256862476468
1746575911947702500,10.67870263671875,0.0029921675533056257,-0.07575983645650558,0.05367035238645039
1746575911957667600,10.68866748046875,-0.007782324439287185,-0.042883585434174164,0.004644921462703496
1746575911967631600,10.698631591796875,-0.004040799823403358,-0.02718071996157523,-0.03982947682687081
1746575911977595600,10.708595703125,-0.015712532916665075,0.0016682391728973015,-0.012568791530840099
1746575911987560400,10.718560546875,-0.016011808124184606,0.05384532536086626,-0.0014864756980910896
1746575911997524500,10.7285244140625,-0.03157411891520023,0.07165026397951878,0.011651640153303743
1746575912007488500,10.738488525390625,-0.01750759963989258,0.08417631234717556,-0.008026289262995123
1746575912017453600,10.74845361328125,-0.03172375651896,0.08533943784241564,-0.011491088429884985
1746575912027417600,10.75841748046875,-0.011671733093261718,0.06362468253599946,-0.008411324791517108
1746575912037381600,10.768381591796874,-0.014814122772216796,0.04134036544701084,0.0153866254305467
1746575912047345700,10.778345703125,-0.019902385821938512,0.022799723831797018,0.022465541707677766
1746575912057310500,10.788310546875,0.002841360905766487,-0.007537628963217139,-0.0178684231757652
1746575912067274500,10.7982744140625,-0.019005729243159294,-0.017248391581280154,-0.02938706633285619
1746575912077238500,10.808238525390625,0.008978256225585938,-0.03110726858843118,0.007183006839267909
1746575912087203600,10.81820361328125,-0.0013467384338378906,-0.017973290056036786,0.020359271877119316
1746575912097167600,10.828167724609376,-0.011222235760092734,-0.012332653820561245,0.013601943104015662
1746575912107131400,10.83813134765625,-0.021098902130126954,-0.010858567246585153,-0.0011360365589149295
1746575912117096700,10.8480966796875,-0.003441664886474609,-0.018539303608075715,-0.02207847861885093
1746575912127060700,10.858060791015625,-0.003740355572104454,-0.008872690658993087,-0.02777984119877219
1746575912137024800,10.868024658203124,-0.02274550029337406,0.009240784185868687,-0.014674257643800228
1746575912146989600,10.877989501953126,-0.015412673187255858,0.013697708795801736,0.026189850327279416
1746575912156953600,10.88795361328125,-0.018705284991860388,0.02712543697722722,0.018764193838555366
1746575912166917600,10.897917724609375,-0.03007715835571289,0.023171539119142107,0.003214158007223159
1746575912176881700,10.907881591796874,0.0007487725406885147,0.029531424973299726,-0.012249806975852697
1746575912186846500,10.917846435546876,-0.02154723041951656,0.010921800641948356,-0.026890061885351313
1746575912196810500,10.927810546875,-0.01900456019937992,0.0024483612664975224,-0.0027202735430561006
1746575912206774500,10.9377744140625,-0.02783376334309578,0.010111356475320644,0.016967565345903858
1746575912216739600,10.947739501953125,-0.02603811209797859,0.031772317501576615,0.02595990489576943
1746575912226704000,10.957703857421874,-0.008231821772456169,0.021408260340243578,0.019145092048076913
1746575912236668000,10.96766796875,-0.006285948401689529,0.0038014289764221757,0.010152816430293024
1746575912246632700,10.9776328125,-0.011672902137041091,0.001098079168703407,-0.0034143658875953405
1746575912256596700,10.9875966796875,-0.01077449199259281,-0.011601398670254275,-0.030262881053006275
1746575912266560800,10.997560791015625,-0.003741524615883827,-0.01701382020700257,-0.014847805846109986
1746575912276524800,11.00752490234375,-0.03052724021077156,-0.00955816130565945,-0.004618380515649914
1746575912286489900,11.01748974609375,-0.011073182678222656,-0.010399443568545393,0.00011895933770574629
1746575912296454000,11.027453857421875,0.0035918870121240615,-0.0069948775557568295,-0.0008246051227208226
1746575912306418000,11.03741796875,-0.018853753551840782,-0.0131084559320705,-0.014452139325719326
1746575912316383000,11.047383056640625,-0.028130115941166878,-0.013164524367707781,0.001199018792528659
1746575912326346800,11.0573466796875,-0.00613338818848133,0.0008797282768646255,0.004047704488225281
1746575912336310800,11.067310791015625,0.0016477672070264815,-0.005047702710470185,0.01394139505829662
1746575912346275800,11.07727587890625,0.004340659552812576,-0.003975689564784989,-0.005622059399168938
1746575912356240000,11.087239990234375,-0.010772153905034065,0.018470905413827857,-0.010887989703891798
1746575912366204000,11.097203857421874,-0.017206570866703987,0.01809473817835096,-0.0034350890152156353
1746575912376167700,11.107167724609376,-0.02004968533813953,0.018546719729551114,0.0016321129801683126
1746575912386133000,11.117133056640625,-0.028579028752446174,0.015620954776229335,0.007265725819813087
1746575912396097000,11.127096923828125,-0.01989946321249008,0.009927917066658846,-0.013858192020561546
1746575912406061000,11.13706103515625,-0.020497429105639457,0.011901596326380968,-0.003493422473175451
1746575912416025900,11.14702587890625,0.0020978490620851514,-0.003617163017275743,0.0018710728351958095
1746575912425990000,11.156989990234376,-0.016008885514736174,-0.008198494891589508,-0.0051315816016402095
1746575912435954000,11.166953857421875,-0.005384615647792816,-0.008023147457838059,0.003987142540561035
1746575912445918700,11.176918701171875,0.005838204634189605,-0.009377612540405244,-0.005442437649099156
1746575912455882800,11.1868828125,-0.01795358984172344,-0.009157686179410665,0.008766029113857075
1746575912465846800,11.1968466796875,-0.014660393515229225,-0.013724290842050686,0.009271156491246074
1746575912475810800,11.206810791015625,-0.013463292685151099,0.01352381810019724,0.01328706846856512
1746575912485776000,11.21677587890625,-0.020794950747489927,0.010225867966772056,0.023435473585221914
1746575912495740000,11.226739990234375,-0.005682137289643287,0.039150349156023,0.0178993023712188
1746575912505704000,11.236703857421874,-0.01660509784221649,0.029863113746233284,0.010220639235805719
1746575912515669000,11.2466689453125,0.005691489639878273,0.01940126333280932,-0.016595690693054346
1746575912525632800,11.2566328125,-0.005381108516454697,0.009015957887470722,-0.026449953435035423
1746575912535596800,11.2665966796875,-0.011816110000014304,-0.0010758353708544745,0.0010469426365103572
1746575912545561900,11.276561767578125,-0.004632335975766182,-0.003918520584027282,0.009048691113293171
1746575912555526000,11.28652587890625,-0.023486089527606963,-0.008446519402484408,-0.01240674197007902
1746575912565489700,11.29648974609375,-0.017948913666605948,-0.01958073895240668,-0.020847055394062772
1746575912575453700,11.30645361328125,-0.004181669598817825,-0.015344151695421896,-0.005548765834094956
1746575912585419000,11.3164189453125,-0.007473696881532668,-0.006363479750463739,0.0077746799889486275
1746575912595383000,11.326383056640625,-0.013758476239442825,-0.020949935813224872,0.0019469602161552755
1746575912605346800,11.336346923828126,-0.019144260931015015,-0.011528881423315032,0.007420532789034769
1746575912615312000,11.346311767578126,-0.0029839842468500134,-0.013906437909347005,-0.002119202377367765
1746575912625276000,11.35627587890625,-0.019893033471703528,0.006105605132412165,0.00984029814871028
1746575912635240000,11.366239990234375,-0.028721067571640013,0.018256084486213513,-0.002329885985981673
1746575912645204700,11.376204833984374,-0.009867314019799232,0.029805743836075996,-0.021000830316822976
1746575912655168800,11.386168701171876,-0.006128127491474151,0.025446187786548398,-0.006964121657889336
1746575912665132800,11.3961328125,-0.016004793861508368,0.022775726468279026,-0.004711219031410292
1746575912675096800,11.406096923828125,-0.0133107324719429,0.016838390574860387,-0.021700110293133183
1746575912685062000,11.416061767578125,-0.01345978555381298,0.0015184280392015353,0.005535276164859533
1746575912695026000,11.42602587890625,-0.01495733063519001,-0.012304939263151026,-0.006827973723364993
1746575912704990000,11.435989990234376,-0.008522913673520087,-0.008298064542235806,-0.003846144900983199
1746575912714954800,11.445954833984375,0.0037479543566703794,-0.008460625559650362,-0.0005656071266625076
1746575912724918800,11.455918701171875,0.00030628947019577024,-0.005339570929668844,0.028185444591287523
1746575912734882800,11.4658828125,0.014222586619853973,-0.010626210662280209,0.023732620767736808
1746575912744848000,11.475847900390624,-0.009569207856059074,-0.012291093400889075,0.004975176330376416
1746575912754811600,11.485811767578125,-0.011214052453637123,-0.010716893753572366,0.00026019443930126723
1746575912764775700,11.495775634765625,0.0034510172367095944,-0.013194636378181166,-0.00500949872508645
1746575912774740000,11.505739990234375,-0.0044791912406682965,0.0021574337622150778,0.012893730902578681
1746575912784705000,11.515705078125,-0.02063888340294361,0.010788534217677078,0.008195572282141074
1746575912794668800,11.525668701171876,-0.014953238981962203,0.022994278289517386,-0.0012459449404850602
1746575912804632800,11.5356328125,-0.016898527830839154,0.006722134162136353,-0.012495653229393064
1746575912814598000,11.545597900390625,-0.006273673442006111,0.01728461367213167,-0.012379223775491117
1746575912824562000,11.55556201171875,-0.014203297397494315,0.016000126819545404,0.001199174056155607
1746575912834525700,11.565525634765624,-0.012257424026727675,0.017423350855964234,-0.019491832259669897
1746575912844490800,11.57549072265625,-0.020337270107865332,0.019056783576961604,0.004855869932798669
1746575912854454800,11.585454833984375,-0.01614800172448158,-0.011884668024466373,0.01121032612659037
1746575912864419000,11.595419189453125,-0.010163082095980644,-0.009222376312920824,-0.0066724087023176245
1746575912874384000,11.6053837890625,-0.019590835654735565,-0.012994602027744986,-0.002561046127043664
1746575912884348000,11.615347900390624,0.006296469795703887,-0.0135670042213751,0.005214492378430441
1746575912894312000,11.62531201171875,-0.011809680259227752,-0.010891323305293917,0.024059569433471185
1746575912904276000,11.63527587890625,-0.005973229190707206,-0.011420201451028697,0.020011791880009695
1746575912914240800,11.64524072265625,-0.012855974441766739,-0.009119888619403355,-0.0025877788703422993
1746575912924204800,11.655204833984374,-0.020487492233514783,-0.0001882936802925542,-0.007181216740980744
1746575912934168800,11.6651689453125,-0.006721417209506034,0.013142481499258427,-0.0001061820545233786
1746575912944133600,11.675133544921875,-0.008068740165233611,0.022766890141274778,0.005140367696294561
1746575912954098000,11.685097900390625,-0.007170330020785332,-0.0017746084570884704,-0.007595861956477165
1746575912964062000,11.69506201171875,-0.025426702201366422,0.02265638353808317,-0.0002665967806242406
1746575912974026000,11.70502587890625,-0.020788521006703375,0.010277374391723423,0.0023509744397830217
1746575912983990800,11.71499072265625,-0.006124620360136032,0.003717011229135096,0.0006094554015435278
1746575912993954800,11.724954833984375,-0.0040296939074993135,-0.013106579068815336,-0.0002771821067202836
1746575913003918800,11.7349189453125,-0.022584172251820564,-0.013424243882973677,-0.006920017654681578
1746575913013884000,11.7448837890625,-0.01944236709475517,-0.006123770976765081,0.008931366610247642
