time,seconds_elapsed,z,y,x
1746729356111358200,0.024358154296875,-0.14886135869026182,0.009748656076192855,0.021556564503442496
1746729356121375000,0.034375,-0.285968858961761,0.009631751698255538,-0.04731695563858375
1746729356131392300,0.044392333984375,-0.35173633937984705,0.015298106896877288,-0.008620081304525956
1746729356141409300,0.0544091796875,-0.27516367956995963,0.009481529572606087,-0.04002506333105266
1746729356151426000,0.064426025390625,-0.17870295472443104,0.007002572238445281,-0.012191464384738355
1746729356161443300,0.074443359375,-0.14876228222995996,0.00850362445116043,-0.0404593996277079
1746729356171461000,0.084461181640625,-0.17503040369153022,0.0069195701301097865,-0.03204508829466067
1746729356181478100,0.09447802734375,-0.16689853516221045,0.005558803170919418,-0.03897842208864167
1746729356191495200,0.1044951171875,-0.16740677694529293,-0.006218143862485885,-0.0413470052503515
1746729356201512200,0.11451220703125,-0.19035861346572636,-0.00022737901508808136,-0.025170590282138437
1746729356211529200,0.124529296875,-0.2321583583191037,0.007107786178588866,-0.027711607401305807
1746729356221547000,0.134547119140625,-0.255282044275105,0.009483867660164833,-0.016470411212416363
1746729356231564000,0.14456396484375,-0.23843787698000668,0.009349427625536918,-0.033070695882197465
1746729356241581300,0.154581298828125,-0.22362287742495535,0.00789279907643795,-0.018800507260952143
1746729356251598000,0.16459814453125,-0.19665566778331994,-0.0012035305708646773,-0.035332914326293395
1746729356261615000,0.174614990234375,-0.18798633137643336,0.005236147087812423,-0.028299581623403354
1746729356271632100,0.184632080078125,-0.17446838589459657,-0.0009492635488510131,-0.03592321750279516
1746729356281650200,0.194650146484375,-0.1821241613447666,0.00686930124759674,-0.03558479759497568
1746729356291667200,0.204667236328125,-0.20130992332994938,0.004664484679698944,-0.036231817661086095
1746729356301684200,0.214684326171875,-0.2322068736359477,0.007407061386108398,-0.025470769671956075
1746729356311701000,0.224700927734375,-0.23300445375442502,0.006933598655462264,-0.029540220201108604
1746729356321718300,0.23471826171875,-0.218813723577559,0.009782558345794678,-0.03005712021468207
1746729356331736000,0.244736083984375,-0.20868542053401468,0.006802081230282783,-0.021217350011179224
1746729356341753300,0.25475341796875,-0.19220979429036378,0.002308276942372322,-0.0315824940179009
1746729356351770000,0.26477001953125,-0.20553426302671432,0.0034299744486808773,-0.029244287728145718
1746729356361787100,0.274787109375,-0.19034049328714608,0.004905307698249817,-0.039349593488592655
1746729356371804200,0.28480419921875,-0.19309739077985286,-0.0037228199154138563,-0.027662608027271926
1746729356381821200,0.2948212890625,-0.18706950879245995,0.0022445640563964844,-0.02590726139307953
1746729356391839000,0.3048388671875,-0.1997904586777091,-0.003378536522388458,-0.02162602214361541
1746729356401856300,0.314856201171875,-0.2159068962201476,0.00658697717487812,-0.03961281100204214
1746729356411873000,0.324873046875,-0.21867782223820684,0.00760696787238121,-0.02747504956591874
1746729356421890300,0.334890380859375,-0.20130583167672156,0.005499766460061073,-0.029835531619563697
1746729356431907000,0.344906982421875,-0.19946224963665007,0.005810732105374336,-0.024618244495848193
1746729356441925000,0.354925048828125,-0.18481997630000113,0.005951601880788803,-0.029220596325304358
1746729356451942100,0.364942138671875,-0.19077771566063165,0.011276011773943901,-0.032172185273049395
1746729356461959200,0.374959228515625,-0.18990619352310895,0.004303834673762321,-0.033882094463473185
1746729356471976000,0.384975830078125,-0.19534458518475292,0.00003156418204307556,-0.031240073788398874
1746729356481993200,0.3949931640625,-0.18122925833165646,0.000713116705417633,-0.015186536281183362
1746729356492010200,0.40501025390625,-0.1939759271800518,0.0037672435790300366,-0.02995838168109767
1746729356502028300,0.4150283203125,-0.19425912803560494,0.004305588239431381,-0.023959780587116255
1746729356512045000,0.425045166015625,-0.1974681532099843,-0.0015694412738084791,-0.031278003779146815
1746729356522062000,0.43506201171875,-0.20697569400668142,-0.0012649053692817688,-0.028693467178661374
1746729356532079000,0.4450791015625,-0.19010756131410597,0.0047141690403223035,-0.030980290341051292
1746729356542096100,0.45509619140625,-0.17376199119091032,0.00797989283800125,-0.029136836165143176
1746729356552114200,0.4651142578125,-0.16911621121168136,0.003022562691569328,-0.03958480875026434
1746729356562131200,0.475131103515625,-0.17025456759184598,-0.0037479543566703794,-0.02993106441590935
1746729356572148000,0.48514794921875,-0.17087620662152767,-0.0021539631634950635,-0.029872904487885533
1746729356582165200,0.495165283203125,-0.18892945744544268,-0.0007294833183288574,-0.020429268373409287
1746729356592182300,0.505182373046875,-0.1807686550825834,-0.00006254384219646453,-0.012310496787680312
1746729356602199000,0.515198974609375,-0.1874918258577585,0.0031651860326528548,-0.02135120552391745
1746729356612217000,0.525217041015625,-0.18315058178305624,0.007566051340103149,-0.029853085542563346
1746729356622234000,0.535234130859375,-0.18286825771033763,-0.004787818798422813,-0.029275048192590473
1746729356632251100,0.545251220703125,-0.1694108102440834,-0.005620762491226196,-0.026908017667150123
1746729356642268200,0.55526806640625,-0.1675306955859065,0.0013017302483320236,-0.015795480226073414
1746729356652285200,0.56528515625,-0.16709288869053124,0.0013654431343078613,-0.021638169239135457
1746729356662303200,0.57530322265625,-0.1579270009383559,-0.004611877709627152,-0.0312623312859796
1746729356672320000,0.585320068359375,-0.16888853993564842,-0.007726794859766959,-0.02718754699458368
1746729356682337000,0.5953369140625,-0.1725911938458681,-0.004874328038096428,-0.029015155147388574
1746729356692354300,0.605354248046875,-0.17096388490498066,-0.00365033920109272,-0.02985658354074694
1746729356702371000,0.61537109375,-0.17453122199773788,-0.004085223487019538,-0.022476538025727494
1746729356712388000,0.62538818359375,-0.1651949461147189,-0.008379705810546874,-0.021435111814551055
1746729356722406100,0.63540625,-0.16691782438457012,-0.002913257098197937,-0.0312429598652292
1746729356732423200,0.645423095703125,-0.15937106226682662,-0.010013444492220878,-0.022018062801659105
1746729356742440200,0.655440185546875,-0.16248276454657315,-0.00442541522681713,-0.02502378395628184
1746729356752457200,0.665457275390625,-0.16279489923566579,-0.004102174621820449,-0.029418420452345162
1746729356762474000,0.675473876953125,-0.17035481309592723,-0.0024146599262952805,-0.021175620628148317
1746729356772492300,0.6854921875,-0.16666005023121833,-0.0041787469893693925,-0.01689416218297556
1746729356782509000,0.695509033203125,-0.15471037697941065,-0.01103811136484146,-0.021413804165041073
1746729356792526300,0.7055263671875,-0.1666328699633479,-0.010801379999518393,-0.020227900582412257
1746729356802543000,0.715543212890625,-0.1556722077488899,-0.001284194591641426,-0.011225222301622852
1746729356812560100,0.72556005859375,-0.15929302859455347,-0.0050672202616930005,-0.02487240192000754
1746729356822577200,0.7355771484375,-0.15274141499400137,-0.004810030630230903,-0.025512690851232034
1746729356832595200,0.74559521484375,-0.151986797234416,-0.005609072053432464,-0.016464666458219288
1746729356842612000,0.755612060546875,-0.1463382699534297,-0.0010486322700977325,-0.01798051438126713
1746729356852629200,0.765629150390625,-0.14875088405311107,-0.01534896030128002,-0.02060600404664874
1746729356862646000,0.77564599609375,-0.16316197898238896,-0.009744564422965049,-0.0641002139261458
1746729356872663300,0.785663330078125,-0.16275339818149803,0.001602174499630928,0.05516260937135666
1746729356882681000,0.79568115234375,-0.14815145685523748,-0.014324293428659438,-0.09487166555579751
1746729356892698000,0.805697998046875,-0.15494769286662338,0.0050648821741342545,0.050435060259653254
1746729356902715100,0.815715087890625,-0.15849778656363486,-0.01862988166809082,-0.0964303297072649
1746729356912732200,0.825732177734375,-0.1698585540115833,-0.0003752630531787872,0.03198014243282377
1746729356922749000,0.8357490234375,-0.1571668302208185,-0.010844050097465514,-0.07634929938279092
1746729356932767200,0.845767333984375,-0.15213614257723093,-0.007943652480840682,0.012806226149061694
1746729356942784000,0.855783935546875,-0.1520914266526699,-0.00821603968143463,-0.060778467358602206
1746729356952801300,0.86580126953125,-0.15417846205979585,-0.006871639335155486,-0.005378532966878265
1746729356962818000,0.875818115234375,-0.14857318939864633,-0.00838555102944374,-0.05176984339421615
1746729356972835000,0.8858349609375,-0.15111352153122423,-0.0061824880272150036,0.004946306428918614
1746729356982852000,0.89585205078125,-0.1570411580145359,-0.007736731731891632,-0.031366367049189284
1746729356992870100,0.9058701171875,-0.16142098053395748,-0.0019289222359657287,-0.0073423986520618195
1746729357002887200,0.91588720703125,-0.16140578296482563,-0.015699088913202285,-0.04976945422408171
1746729357012904200,0.925904296875,-0.15512714108675718,-0.007615151178836822,-0.01451292960224673
1746729357022921000,0.9359208984375,-0.14743454075753687,-0.00961772317290306,-0.042928365290816874
1746729357032938200,0.945938232421875,-0.14478519529253245,0.0002712181568145752,-0.015047794530773534
1746729357042956000,0.9559560546875,-0.1427259246751666,-0.01076455512046814,-0.029252288371510803
1746729357052973000,0.96597314453125,-0.1483069396778941,-0.009144260442256927,-0.024783992984192444
1746729357062990000,0.975989990234375,-0.1586795728713274,-0.008423544952273368,-0.026848295969702302
1746729357073007000,0.986007080078125,-0.15147826319038868,0.004251812225580215,-0.012200332677783443
1746729357083024100,0.996024169921875,-0.14754296956807375,-0.007510521760582923,-0.03162695421413518
1746729357093041200,1.006041259765625,-0.15475158577263354,-0.0076233344852924345,-0.021371654656901953
1746729357103059000,1.016058837890625,-0.16060177310556173,-0.005084171396493912,-0.03172224041530862
1746729357113076200,1.026076171875,-0.1455105869576335,-0.00942950712442398,-0.04338335164985619
1746729357123093200,1.03609326171875,-0.1404042037293315,-0.010685060143470763,-0.022608658239105715
1746729357133110000,1.046110107421875,-0.14003624719977378,-0.01225157880783081,-0.01581314374692738
1746729357143127300,1.056127197265625,-0.14877251136302946,-0.006233925953507423,-0.013385103749250992
1746729357153144000,1.06614404296875,-0.14961071575284005,-0.019961422532796858,-0.029166062259627503
1746729357163162000,1.076162109375,-0.1543921048104763,-0.013580197063088417,-0.011556052558030933
1746729357173179100,1.08617919921875,-0.1498933320865035,-0.0024526538491249084,-0.014296839166153222
1746729357183196200,1.096196044921875,-0.15513298630565403,-0.004939209967851638,-0.007210543300164863
1746729357193213200,1.106213134765625,-0.1374000534772873,-0.007106032612919807,-0.01977473172112368
1746729357203230200,1.116230224609375,-0.14644377615451812,-0.010129764348268509,-0.03515341130723245
1746729357213248300,1.126248291015625,-0.14197247595936058,-0.01308686058819294,-0.025205067940475417
1746729357223265300,1.136265380859375,-0.1332753747627139,-0.012694646400213241,-0.03586651887949556
1746729357233282000,1.146281982421875,-0.13966010736376047,-0.012160393393039703,-0.02147263994649984
1746729357243299300,1.15629931640625,-0.1340112878218293,-0.007754267388582229,-0.025001599523937327
1746729357253316000,1.166316162109375,-0.13331746033877134,-0.012620996642112732,-0.017863427340239286
1746729357263333000,1.1763330078125,-0.13640198235064743,-0.01594166549742222,-0.018033011753484606
1746729357273351200,1.18635107421875,-0.14236059849411248,-0.020150807625055313,-0.01703905054638162
1746729357283368200,1.1963681640625,-0.14402794718444348,-0.009980126744508743,-0.015747604230046272
1746729357293385000,1.206385009765625,-0.13175824819803236,-0.011785714861750602,-0.017784023694787172
1746729357303402200,1.21640234375,-0.12753332397937775,-0.014797756159305571,-0.017721014061709867
1746729357313419000,1.2264189453125,-0.13314561090320348,-0.010040332499146461,-0.013883015934564173
1746729357323437300,1.236437255859375,-0.13056933067440987,-0.014848025041818617,-0.01887333503514528
1746729357333454000,1.2464541015625,-0.13764876754134892,-0.014207973572611807,-0.017233066147984935
1746729357343471000,1.25647119140625,-0.12662819183319807,-0.00935059666931629,-0.012834840322192757
1746729357353488100,1.266488037109375,-0.13579086471498011,-0.005992518413066863,-0.019303278284473344
1746729357363505200,1.276505126953125,-0.13493512466847896,-0.009513093754649161,-0.013353265572572126
1746729357373522000,1.28652197265625,-0.13145926525145768,-0.016118775629997254,-0.028344553276291116
1746729357383540200,1.296540283203125,-0.12654635876864195,-0.016125205370783807,-0.016942814497137443
1746729357393557000,1.306556884765625,-0.11965016951411962,-0.013300211077928543,-0.02063890166925266
1746729357403574300,1.31657421875,-0.11044979497045278,-0.011197101318836212,-0.018795447493344546
1746729357413591000,1.326591064453125,-0.12197890472263097,-0.011806173127889633,-0.020458768462529406
1746729357423608000,1.336608154296875,-0.1285840020760894,-0.010616086560487747,-0.026841427837498485
1746729357433626000,1.346626220703125,-0.1250628422126174,-0.01558861427605152,-0.017169079267373308
1746729357443643100,1.35664306640625,-0.12312398310452699,-0.02008767926096916,-0.021229058715282006
1746729357453660200,1.36666015625,-0.12090163087993859,-0.02099135010242462,-0.015508525644009933
1746729357463677200,1.37667724609375,-0.13007862454801797,-0.014853870260715484,-0.01484924888452515
1746729357473694200,1.386694091796875,-0.12874299203008413,-0.016958149063587186,-0.023769856638740747
1746729357483712300,1.396712158203125,-0.12969663949310778,-0.02009820065498352,-0.029082165102148425
1746729357493729000,1.40672900390625,-0.12893150033950804,-0.0205652336448431,-0.016277884315000848
1746729357503746000,1.41674609375,-0.12251491129547357,-0.015634206983447075,-0.018543728621443732
1746729357513763000,1.42676318359375,-0.11993716976195573,-0.01535772812962532,-0.00801978645697236
1746729357523780000,1.436780029296875,-0.12395721905827521,-0.02315641918182373,-0.013656522835465148
1746729357533797000,1.446797119140625,-0.12246581145673989,-0.02137304289638996,-0.013073434851039201
1746729357543815200,1.456815185546875,-0.1274690265715122,-0.01781856528520584,-0.009875314663164316
1746729357553832000,1.46683203125,-0.11904781970679759,-0.01660334427654743,-0.00758317600484006
1746729357563849200,1.47684912109375,-0.11265607284307479,-0.015405658924579619,-0.014954983414476736
1746729357573866200,1.4868662109375,-0.1226373686313629,-0.019429507613182066,-0.018154464442376048
1746729357583883000,1.496883056640625,-0.12084990069270134,-0.01809387509524822,-0.011886024297913536
1746729357593900300,1.506900390625,-0.11160948639959097,-0.019745149433612823,-0.017995374023681506
1746729357603918000,1.51691796875,-0.10380816499888897,-0.012433949637413025,-0.011359086947515607
1746729357613935400,1.526935302734375,-0.11018003811836243,-0.01003039562702179,-0.005811298360954969
1746729357623952100,1.5369521484375,-0.12189677939713,-0.020505027890205384,-0.014922597248526289
1746729357633969200,1.54696923828125,-0.12473784804195165,-0.019280454531311986,-0.023355732013052327
1746729357643986200,1.556986083984375,-0.11754033775329589,-0.025349545311927794,-0.012258401274261995
1746729357654004200,1.567004150390625,-0.11977145780622958,-0.017393617871403692,-0.01657985380310565
1746729357664021200,1.577021240234375,-0.13166004852056504,-0.019674422284960746,-0.014413442149991169
1746729357674038300,1.587038330078125,-0.11322627394646405,-0.016253800186514854,-0.01979501645732671
1746729357684055000,1.597054931640625,-0.10553542718291282,-0.01923544634580612,-0.021681451258435843
1746729357694072300,1.607072265625,-0.11929390342235564,-0.023102643167972562,-0.020545286835357546
1746729357704089000,1.617089111328125,-0.11522387750446796,-0.020838789889216423,-0.0210663059016224
1746729357714107100,1.627107177734375,-0.12398439932614565,-0.01454465818107128,-0.02109069142420776
1746729357724124200,1.637124267578125,-0.11204349390268326,-0.02423603111207485,-0.018651198450755326
1746729357734141200,1.64714111328125,-0.11280366462022065,-0.01664309176504612,-0.01686033297860995
1746729357744158000,1.657157958984375,-0.12134995916932821,-0.018854922595620154,-0.01915899270926602
1746729357754175200,1.66717529296875,-0.1121808565467596,-0.022837270230054853,-0.019608033384708685
1746729357764193000,1.677193115234375,-0.11133096171915531,-0.018946108010411262,-0.010906283412408083
1746729357774210300,1.687210205078125,-0.12035861004441976,-0.02582768421769142,-0.014105152518954127
1746729357784227000,1.69722705078125,-0.11197247449308634,-0.018919220003485678,-0.016572547279484567
1746729357794244000,1.707244140625,-0.12030308046489953,-0.016021160474419593,-0.012746550117386504
1746729357804261000,1.71726123046875,-0.11733283248245716,-0.024177578923106194,-0.019169596301671116
1746729357814278100,1.727278076171875,-0.10724544597119093,-0.024725860455632208,-0.011570592540036886
1746729357824296200,1.737296142578125,-0.10585574517846107,-0.02037175689935684,-0.012690828741621226
1746729357834313200,1.747313232421875,-0.11090659882724284,-0.01137538049519062,-0.00853427531775087
1746729357844330000,1.757330078125,-0.10576719011217355,-0.023332944792509077,-0.018844264204287902
1746729357854347300,1.76734716796875,-0.11224223134517669,-0.021988544446229934,-0.018772678539110348
1746729357864364000,1.777364013671875,-0.1077165706142783,-0.019918752434849737,-0.010726935656974091
1746729357874382300,1.78738232421875,-0.10498539208471774,-0.02498947982788086,-0.009364415132114664
1746729357884399000,1.797399169921875,-0.10731383503228425,-0.023334113836288452,-0.015795407160837202
1746729357894416100,1.807416015625,-0.11142770009189844,-0.02822539300918579,-0.018450817040447143
1746729357904433200,1.81743310546875,-0.10833324120789765,-0.01965630210638046,-0.011924730606796219
1746729357914450200,1.8274501953125,-0.09693184948861598,-0.02712006211578846,-0.014925455925893038
1746729357924467200,1.83746728515625,-0.09587444939017295,-0.02181611048877239,-0.016299365494446827
1746729357934485200,1.8474853515625,-0.10289747989475727,-0.02294774486720562,-0.010656692565511912
1746729357944502000,1.857501953125,-0.09063216482251882,-0.014989479339122772,-0.012847133548185228
1746729357954519000,1.86751904296875,-0.10480828195214272,-0.018076339438557625,-0.01426894651222974
1746729357964536000,1.8775361328125,-0.0989767993196845,-0.03057517100572586,-0.017072642288729546
1746729357974553000,1.887552978515625,-0.10051292284578084,-0.021816695010662076,-0.008208477429486811
1746729357984571100,1.897571044921875,-0.09970511359423398,-0.024648119044303893,-0.01089484870294109
1746729357994588200,1.907588134765625,-0.10293401251286267,-0.028936756148934362,-0.015890775560401377
1746729358004605000,1.91760498046875,-0.0961252092808485,-0.02275602168738842,-0.01698135640923865
1746729358014622200,1.927622314453125,-0.08975421294420957,-0.028099136281013487,-0.020225270233908667
1746729358024639200,1.93763916015625,-0.09521949261277914,-0.023711130455136297,-0.0038427017017267644
1746729358034656000,1.947656005859375,-0.09414368007481097,-0.02384264788031578,0.00017630641497671604
1746729358044674000,1.957674072265625,-0.09383505251705646,-0.018282675665616987,-0.013234150971239433
1746729358054691000,1.967691162109375,-0.10967530346661805,-0.021363106024265287,-0.016140877863951027
1746729358064708400,1.977708251953125,-0.11177490609437227,-0.022342764711380005,-0.013955661045666784
1746729358074725000,1.98772509765625,-0.10188830285221338,-0.02097439896762371,-0.013693840904859825
1746729358084742100,1.9977421875,-0.08901508501470089,-0.02640460732281208,-0.012117814626637845
1746729358094759200,2.00775927734375,-0.08789163394272327,-0.024563363370299338,-0.013354955206159501
1746729358104777500,2.017777587890625,-0.09546996024250984,-0.015574585750699043,-0.02009286689274013
1746729358114794500,2.02779443359375,-0.09774404265433549,-0.025267712247371673,-0.012665785631909966
1746729358124811800,2.037811767578125,-0.0948836847871542,-0.023003274446725844,-0.02366717258240096
1746729358134828500,2.04782861328125,-0.08873129963725805,-0.019988895061612128,0.0009979797950945793
1746729358144845600,2.057845458984375,-0.09010200346857308,-0.019956746357679366,-0.01295498696998693
1746729358154863600,2.067863525390625,-0.10103431637138127,-0.025274141988158225,-0.015759641727712003
1746729358164880600,2.077880615234375,-0.09063596421480179,-0.02791910353899002,-0.01683185580279678
1746729358174897700,2.087897705078125,-0.09544920971542596,-0.02605038705766201,-0.017161096890317275
1746729358184914700,2.097914794921875,-0.08271569260954856,-0.023185060754418372,-0.006494275656435638
1746729358194931500,2.107931396484375,-0.09144961868524551,-0.026734862190484997,-0.016448802168807015
1746729358204948700,2.11794873046875,-0.0962602338373661,-0.02101531549990177,-0.021076352371601388
1746729358214966500,2.127966552734375,-0.09331658160090446,-0.01988777277469635,-0.02178671086435206
1746729358224983600,2.137983642578125,-0.09081248982548713,-0.026434417939186095,-0.01170300501435995
1746729358235000600,2.14800048828125,-0.08824526968598365,-0.03171791130006313,-0.016846368385339153
1746729358245017600,2.158017578125,-0.09222060305774211,-0.02343874325454235,-0.011416379225859417
1746729358255034400,2.168034423828125,-0.09197510386407375,-0.022907412856817244,-0.009385704515315592
1746729358265052700,2.178052734375,-0.08927285916805267,-0.019209142860770224,-0.01063808832974173
1746729358275069400,2.1880693359375,-0.09453443295806646,-0.022877017718553543,-0.01811286292350851
1746729358285086700,2.198086669921875,-0.09166764535009861,-0.028352234259247776,-0.011349077010154723
1746729358295103500,2.208103515625,-0.08099719825387,-0.03128828771114349,-0.016313330087717622
1746729358305120500,2.21812060546875,-0.07917407447993755,-0.027786417070031166,-0.016237269176822156
1746729358315137500,2.228137451171875,-0.09162731333971023,-0.029397359398007392,-0.018774514303170144
1746729358325155600,2.238155517578125,-0.09809680161476135,-0.028124855244159697,-0.011159271792788058
1746729358335172600,2.248172607421875,-0.09758037652522325,-0.025681553745269772,-0.0034431170580442993
1746729358345189600,2.258189697265625,-0.09202771083414554,-0.024570377632975576,-0.013227337637962773
1746729358355206400,2.268206298828125,-0.09194967716187238,-0.026019991919398307,-0.010182179522095247
1746729358365223700,2.2782236328125,-0.0795639505803585,-0.02698971373438835,-0.01799868935877457
1746729358375240400,2.288240478515625,-0.091933602809906,-0.027684125739336013,-0.00835162136037834
1746729358385258800,2.2982587890625,-0.07765840921998024,-0.03096738519370556,-0.0250280674057547
1746729358395275500,2.308275634765625,-0.07617460040301084,-0.018475567889213562,-0.013838354808930307
1746729358405292500,2.31829248046875,-0.08923165037482976,-0.020043840119242668,-0.0007865472678095102
1746729358415309600,2.3283095703125,-0.08409136487692594,-0.025336101308465003,-0.007868970676278696
1746729358425326600,2.33832666015625,-0.08189210126698017,-0.03318681480884552,-0.007958155930228531
1746729358435344400,2.348344482421875,-0.08936901301890611,-0.03705401163101196,-0.01755767672616057
1746729358445361700,2.358361572265625,-0.09429156411290168,-0.028272154760360716,-0.017960046981973572
1746729358455378400,2.36837841796875,-0.07999883486628533,-0.01965805567204952,-0.013382564732292667
1746729358465395500,2.3783955078125,-0.08689970029592514,-0.028263386932015418,-0.012748687275545671
1746729358475412500,2.38841259765625,-0.0876245074391365,-0.023264555731415747,-0.013735460690036415
1746729358485430500,2.398430419921875,-0.08361118014454841,-0.025925883895158767,-0.007828456002799794
1746729358495447600,2.408447509765625,-0.08753770593851805,-0.027642624685168263,-0.007890899380296468
1746729358505464600,2.418464599609375,-0.07460866626054048,-0.015130349114537239,-0.003923804113920778
1746729358515481600,2.428481689453125,-0.07652297544926405,-0.025845804396271703,-0.01190522218872793
1746729358525498600,2.43849853515625,-0.07993336841464042,-0.029444705671072005,-0.012939780267700552
1746729358535515600,2.448515625,-0.08444500062018633,-0.030270635101199147,-0.019045020073931662
1746729358545533700,2.45853369140625,-0.08028612737506628,-0.03049450698494911,-0.01423603975647129
1746729358555550500,2.468550537109375,-0.08601356511116028,-0.022635025656223298,-0.008673528524814173
1746729358565567500,2.4785673828125,-0.08220774308741093,-0.0312660758793354,-0.009773900115303694
1746729358575584800,2.488584716796875,-0.08470394381731748,-0.021636077746748923,-0.013677437759330495
1746729358585601500,2.4986015625,-0.07649754874706267,-0.02949497455358505,-0.004762921819183975
1746729358595618600,2.50861865234375,-0.08028963450640439,-0.02447568508684635,-0.00880998698659241
1746729358605636600,2.51863671875,-0.08659574891328811,-0.027396540969610212,-0.016280204136250538
1746729358615653600,2.528653564453125,-0.0870601515546441,-0.029376316609978675,-0.009934524903958663
1746729358625670700,2.538670654296875,-0.08076689662933349,-0.021979776617884635,-0.01588536873292178
1746729358635687700,2.548687744140625,-0.0806312875509262,-0.02135258463025093,-0.00704840240785852
1746729358645704400,2.558704345703125,-0.078248191806674,-0.030261282750964163,-0.016947919930517672
1746729358655722500,2.568722412109375,-0.07642009959667921,-0.028558570486307142,-0.01244212381071411
1746729358665739500,2.578739501953125,-0.0722702864408493,-0.02343406707942486,-0.009452440475439652
1746729358675756500,2.588756591796875,-0.06912643545717001,-0.028262802410125732,-0.02166791592342779
1746729358685773600,2.598773681640625,-0.07707534863501787,-0.031930092746019365,-0.010706888382788746
1746729358695790600,2.60879052734375,-0.09029138856083155,-0.02990530892014503,-0.008922114724712446
1746729358705807400,2.618807373046875,-0.07751081744283438,-0.02372106732726097,-0.003850181755283847
1746729358715825700,2.62882568359375,-0.07305500707775354,-0.028542203873395917,-0.014483438646281138
1746729358725842400,2.638842529296875,-0.08010551011115312,-0.030822423765063285,-0.010197112229745835
1746729358735859700,2.648859619140625,-0.06666998221576213,-0.028801147070527076,-0.006846943285316228
1746729358745876500,2.65887646484375,-0.07689648493677377,-0.03006663696169853,-0.007837333428999409
1746729358755893500,2.6688935546875,-0.07741232550442219,-0.03506839077174664,-0.007005239119566977
1746729358765910500,2.67891064453125,-0.07927578128874302,-0.03318681480884552,-0.020246961475908754
1746729358775928600,2.688928466796875,-0.08325520631372928,-0.03324468247592449,-0.014494982953602447
1746729358785945600,2.698945556640625,-0.08257599187791347,-0.03296645005643368,-0.00826820826008916
1746729358795962600,2.708962646484375,-0.07944938428997993,-0.029110943672060966,-0.014696652138698845
1746729358805979400,2.7189794921875,-0.0731073217868805,-0.030514380729198452,-0.00905925817308016
1746729358815996700,2.72899658203125,-0.08346475741118192,-0.030589784052968024,-0.013408639888465404
1746729358826014500,2.739014404296875,-0.0742766578271985,-0.028744448447227476,-0.012963590401550755
1746729358836031700,2.74903173828125,-0.0660506812736392,-0.029017420169711112,-0.012161297575337812
1746729358846048500,2.759048583984375,-0.08310323062241078,-0.021471827095746993,-0.009673928605858235
1746729358856065500,2.7690654296875,-0.07820376814305782,-0.02588379831910133,-0.018160611055372283
1746729358866082600,2.77908251953125,-0.07760901712030172,-0.03116203098297119,-0.01071136362850666
1746729358876099600,2.789099609375,-0.06450958931148051,-0.03182429428398609,-0.006774188576359301
1746729358886117400,2.799117431640625,-0.06989683530777692,-0.02348667404949665,-0.006037115606619045
1746729358896134700,2.809134765625,-0.06932312707304954,-0.024459318473935125,-0.011487736562173813
1746729358906151400,2.8191513671875,-0.06994213575422763,-0.028385552006959913,-0.006050477411691099
1746729358916168400,2.82916845703125,-0.07659779425114392,-0.02799976755976677,-0.007527646425319835
1746729358926185700,2.839185791015625,-0.06925795288234948,-0.031227497434616086,-0.0049400958838406945
1746729358936203500,2.84920361328125,-0.07022855148017407,-0.03054068421423435,-0.003916515856608748
1746729358946220500,2.859220458984375,-0.07109861231297254,-0.0318283859372139,-0.007115795955108478
1746729358956237600,2.869237548828125,-0.07978840698599815,-0.03160919022858143,-0.015416436046920716
1746729358966254600,2.879254638671875,-0.08741028016656636,-0.02346387769579887,-0.010652911439538
1746729358976271600,2.889271728515625,-0.0793608292236924,-0.024134908825159073,-0.0033928390423767266
1746729358986288600,2.89928857421875,-0.07025164009481669,-0.035436639562249184,-0.01002951884418726
1746729358996306700,2.909306640625,-0.06085428167432546,-0.035810733571648594,-0.0002783602836541831
1746729359006323500,2.919323486328125,-0.070368544472754,-0.03063303867280483,-0.015297595440223813
1746729359016340500,2.929340576171875,-0.07773995002359152,-0.02647474994957447,-0.008452277856413275
1746729359026357800,2.939357666015625,-0.07240648004114628,-0.029643443113565444,-0.009192620495473966
1746729359036374500,2.94937451171875,-0.071302902713418,-0.024462825605273245,-0.010615757766924798
1746729359046391600,2.9593916015625,-0.0680395170032978,-0.02169452993571758,-0.011281902658613398
1746729359056409600,2.96940966796875,-0.07138736612647771,-0.023109072908759114,-0.01039112783134915
1746729359066426600,2.979426513671875,-0.06746347068101168,-0.03074935852885246,-0.011387107465602456
1746729359076443600,2.989443603515625,-0.06171148302555084,-0.032712767556309696,-0.007296312754321843
1746729359086460700,2.999460693359375,-0.07008855848759413,-0.0301028773188591,-0.009041585519071667
1746729359096477400,3.0094775390625,-0.06434241605103015,-0.03001169190406799,-0.00814049022719264
1746729359106495700,3.019495849609375,-0.06992781496793031,-0.03068096946775913,-0.015660948859900235
1746729359116512800,3.0295126953125,-0.07835720513910055,-0.035389877811074257,-0.008055643221642822
1746729359126529800,3.03952978515625,-0.07293488782942295,-0.03150865246355533,-0.010398671816987917
1746729359136546800,3.049546875,-0.06485737983584404,-0.025713702449202538,-0.009054097940772771
1746729359146563800,3.059563720703125,-0.06405570806413889,-0.031156185764074324,-0.012560315963439643
1746729359156580600,3.06958056640625,-0.07143529692143201,-0.02983925794661045,-0.0029080512001179158
1746729359166599000,3.079598876953125,-0.06630728638321161,-0.03228665109872818,-0.015781954024219884
1746729359176615700,3.08961572265625,-0.06666676734536886,-0.031796237233281135,-0.014869296158710493
1746729359186633000,3.099633056640625,-0.06528495759814977,-0.03439268346726894,-0.002353111597942188
1746729359196649700,3.109649658203125,-0.06853343800008296,-0.035793197914958,-0.00860164146553725
1746729359206666800,3.119666748046875,-0.062416708685457706,-0.03736497727632522,-0.008527809044346213
1746729359216684800,3.129684814453125,-0.06858516818732023,-0.029423662883043288,-0.00990112495785579
1746729359226701800,3.139701904296875,-0.07415010883808136,-0.028408932882547377,-0.007091848823940381
1746729359236718600,3.149718505859375,-0.07483750658035278,-0.03550093697011471,-0.006800245466222986
1746729359246736000,3.15973583984375,-0.07064765367507934,-0.042317046725749964,-0.009367419939953834
1746729359256752600,3.169752685546875,-0.06868336786478757,-0.030733576437830923,-0.009504353325767443
1746729359266769700,3.179769775390625,-0.07446253578811883,-0.02405775193572044,-0.005754243544628843
1746729359276787700,3.18978759765625,-0.0667521075412631,-0.03410451417565345,-0.012869208382675423
1746729359286804700,3.1998046875,-0.052020694616436956,-0.03207096252143383,-0.002714483123086393
1746729359296821800,3.20982177734375,-0.06478460686057806,-0.03288929316699505,-0.007432963012345134
1746729359306838800,3.2198388671875,-0.07519464945495129,-0.03923427827954292,-0.006637976709753275
1746729359316855600,3.22985546875,-0.07226181087344885,-0.03461947796046733,-0.01034559905603528
1746729359326873900,3.239873779296875,-0.06265402457267046,-0.038518238964676856,-0.013132215833570807
1746729359336890600,3.249890625,-0.06632628334462642,-0.029451719933748243,-0.014026141599146648
1746729359346908000,3.259907958984375,-0.06170213067531585,-0.03087736882269382,-0.007714035842893645
1746729359356924700,3.269924560546875,-0.06428980908095837,-0.027123569247126576,-0.0016808200932573525
1746729359366941700,3.279941650390625,-0.056312546591460705,-0.035624271088838574,-0.00901125431288965
1746729359376958700,3.289958740234375,-0.061007718670368194,-0.039433600243926045,-0.01037965658926405
1746729359386976800,3.299976806640625,-0.07022416756600142,-0.026176059263944625,-0.012730996355228126
1746729359396993800,3.309993896484375,-0.0740565853357315,-0.036817280265688895,-0.0019785517976619303
1746729359407010800,3.3200107421875,-0.06250614053457974,-0.026800328642129896,-0.006128803344909102
1746729359417027600,3.330027587890625,-0.06489741958528757,-0.030585692399740218,-0.011314060495700686
1746729359427044900,3.340044921875,-0.05324848284572362,-0.03151975837945938,-0.01645982588632032
1746729359437062000,3.350061767578125,-0.06417115113735199,-0.028313071292638776,-0.011049884001025929
1746729359447079700,3.36007958984375,-0.05883417402356863,-0.02538987732231617,-0.004305085915932432
1746729359457096700,3.3700966796875,-0.05897124440670013,-0.032765374526381494,-0.006053829279402271
1746729359467113700,3.38011376953125,-0.06280950739532709,-0.024847441008687018,-0.010214620486972853
1746729359477130800,3.390130859375,-0.07480769596397877,-0.031764673051238056,-0.012777776372712105
1746729359487147800,3.400147705078125,-0.062469900177419185,-0.029730536875128746,-0.006123442183202132
1746729359497165600,3.41016552734375,-0.06659837828427553,-0.0327823256611824,-0.011366895794635639
1746729359507182800,3.420182861328125,-0.06327420229762792,-0.028601240584254263,-0.008776979766134172
1746729359517200000,3.430199951171875,-0.05964665945023298,-0.03029927667379379,-0.013869836792582645
1746729359527216600,3.440216552734375,-0.06434796900898218,-0.03237608294785022,-0.0075817147001158445
1746729359537234000,3.45023388671875,-0.06569324613809585,-0.03271744373142719,-0.011185739674605429
1746729359547250700,3.460250732421875,-0.05522212100625038,-0.027072131320834157,-0.012661356051964685
1746729359557268700,3.470268798828125,-0.05701718772947788,-0.031046880170702933,-0.007709679328184575
1746729359567285800,3.48028564453125,-0.061248833949863905,-0.03755202428102493,-0.010130275804921984
1746729359577302800,3.490302734375,-0.05396949059665203,-0.037279637080430986,-0.015523650147905573
1746729359587319800,3.50031982421875,-0.06557020428031683,-0.03640168520212173,-0.010942048845533282
1746729359597336800,3.5103369140625,-0.06099924310296773,-0.03118599638044834,-0.011922456451319157
1746729359607353600,3.520353515625,-0.061891515767574304,-0.026439094114303587,-0.009716808766359462
1746729359617372000,3.530371826171875,-0.059415481042861935,-0.03828443020880222,-0.004690066645527258
1746729359627388700,3.540388671875,-0.056360477386415,-0.029922844576835632,-0.009168682497460395
1746729359637406000,3.550406005859375,-0.06707359458059071,-0.03128770318925381,-0.011075630363635718
1746729359647422700,3.560422607421875,-0.06364975761175155,-0.03495850065648556,-0.012024665583623572
1746729359657439700,3.570439697265625,-0.065213645927608,-0.029444705671072005,-0.00916473697470501
1746729359667457800,3.580457763671875,-0.06273351954966783,-0.03261164526939392,0.0016953874747268854
1746729359677474800,3.590474853515625,-0.05650748464167118,-0.03563070082962513,-0.013659354113368317
1746729359687491600,3.60049169921875,-0.05638181243538856,-0.03192483204901218,-0.01994439833275974
1746729359697508900,3.6105087890625,-0.059198038899898525,-0.04001461500227451,-0.008959460193570704
1746729359707525600,3.620525634765625,-0.059359366941452024,-0.03346913888156414,-0.00806416445481591
1746729359717542700,3.630542724609375,-0.06413257269263267,-0.03819558288156986,-0.009059440836170688
1746729359727560700,3.640560791015625,-0.06338730728328228,-0.03359890274107456,-0.008940554563701152
1746729359737577700,3.65057763671875,-0.06298632526695729,-0.03362637526988983,-0.004455088845873251
1746729359747594800,3.6605947265625,-0.0536222845941782,-0.03739420337080955,-0.007026674633240327
1746729359757611800,3.67061181640625,-0.05244038133323192,-0.03877893572747707,-0.004956480763060972
1746729359767628500,3.680628662109375,-0.05240501775890589,-0.03778291042745113,-0.004277248060936108
1746729359777646800,3.690646728515625,-0.06403466527611017,-0.021674071669578552,-0.0032318763270042833
1746729359787663600,3.70066357421875,-0.06134528006166219,-0.030991350591182708,-0.006696401499258354
1746729359797681000,3.710680908203125,-0.0596393529266119,-0.026518589091300962,-0.007639107443159446
1746729359807697700,3.72069775390625,-0.059016252592206,-0.03015899142026901,-0.009004888504184782
1746729359817714700,3.730714599609375,-0.05962064822614192,-0.031844168028235434,-0.012034419792657717
1746729359827732000,3.74073193359375,-0.058276832401752465,-0.029897125613689422,-0.005760454089706764
1746729359837749800,3.750749755859375,-0.05408960984498262,-0.03169219233691692,-0.011945335003407671
1746729359847766800,3.760766845703125,-0.05596534058898687,-0.03874561797976494,-0.012776972655113785
1746729359857783800,3.77078369140625,-0.0582601735278964,-0.034732875207066534,-0.007060586035996675
1746729359867800800,3.78080078125,-0.05953706159591674,-0.03329787396788597,-0.009394225748488678
1746729359877817900,3.79081787109375,-0.05167056600451469,-0.0402460856705904,-0.00560056908656843
1746729359887835000,3.8008349609375,-0.05885901620388031,-0.03894084829092025,0.0022258319564629346
1746729359897852700,3.810852783203125,-0.0627177374586463,-0.03734744161963462,0.0006539338640868664
1746729359907869700,3.82086962890625,-0.05867372276484966,-0.03993336645960808,-0.004555115154245868
1746729359917886700,3.83088671875,-0.04396130680143833,-0.03849193547964096,-0.012592154140118508
1746729359927903700,3.84090380859375,-0.05913052662163973,-0.038817514172196387,-0.0077908000066876405
1746729359937920800,3.850920654296875,-0.054258536671102045,-0.029071780705451963,-0.01234751346297562
1746729359947938600,3.8609384765625,-0.06085135906487703,-0.03520458437204361,-0.01534956308947876
1746729359957955800,3.870955810546875,-0.05658960996717214,-0.035415596774220466,-0.00826231737541966
1746729359967972900,3.880972900390625,-0.05016162274628878,-0.03171674225628376,-0.010325122523587197
1746729359977989600,3.89098974609375,-0.05743132148832082,-0.03712356973588466,-0.017268128328211604
1746729359988007000,3.9010068359375,-0.05754150386452674,-0.03613163608908653,-0.005464064959017559
1746729359998023700,3.911023681640625,-0.055364744347333905,-0.03245499340295791,-0.003341775575419888
1746729360008042000,3.9210419921875,-0.05854337438344955,-0.03237959007918834,-0.00994186796019785
1746729360018058800,3.931058837890625,-0.04525222339481115,-0.028524083694815634,-0.01639409457319416
1746729360028075800,3.94107568359375,-0.05950111349970102,-0.040078912410140034,-0.0072898647472262375
1746729360038092800,3.9510927734375,-0.06660889967828988,-0.030824177330732342,-0.0034281934835482387
1746729360048109800,3.96110986328125,-0.05848141506314277,-0.03806289641261101,-0.005139025122579187
1746729360058128000,3.9711279296875,-0.05786766707897186,-0.032573066824674604,-0.002964631092408672
1746729360068145000,3.981144775390625,-0.061143912270665166,-0.04129822507202625,-0.011162934187753125
1746729360078161700,3.99116162109375,-0.0638593087092042,-0.03250643132925033,-0.009842663635732605
1746729360088179000,4.001178955078125,-0.05448562342524528,-0.030139117676019667,-0.0019496910293586552
1746729360098195700,4.01119580078125,-0.04377396753579378,-0.03978548242151737,-0.009481401708442718
1746729360108213000,4.021212890625,-0.050532501885294914,-0.031333295896649356,0.0012578089082147925
1746729360118231000,4.03123095703125,-0.05682984846383333,-0.03237783651351928,-0.008453803093219175
1746729360128248000,4.041248046875,-0.05683569368273019,-0.03586100245416164,-0.002236298551550135
1746729360138265000,4.05126513671875,-0.04549918389320373,-0.04367372203171253,-0.006882306859642267
1746729360148282000,4.0612822265625,-0.06234831962436437,-0.03785422209799289,-0.015082116925483568
1746729360158299000,4.071298828125,-0.06535860735625028,-0.03489946394562721,-0.0036547779141925273
1746729360168316200,4.081316162109375,-0.05174772289395332,-0.03523848664164543,-0.009745349874254315
1746729360178334000,4.091333984375,-0.05234422748237848,-0.029146599507331845,-0.020925280862580983
1746729360188351000,4.10135107421875,-0.06188157889544964,-0.03723696698248386,-0.0014168262616731226
1746729360198368000,4.111367919921875,-0.05403115765601396,-0.04069733656942844,-0.008704042394086718
1746729360208385000,4.121385009765625,-0.04586392555236816,-0.03747194478213787,-0.013055963126430287
1746729360218401800,4.13140185546875,-0.05763794997632503,-0.032547932383418084,-0.004862509736139327
1746729360228420000,4.141420166015625,-0.05307838697582483,-0.026583471021056175,-0.010332319449353963
1746729360238436900,4.151436767578125,-0.048048576115071774,-0.037084991291165346,-0.019821164678735657
1746729360248454100,4.1614541015625,-0.04395429253876209,-0.034897710379958154,-0.005037747572036459
1746729360258471000,4.171470947265625,-0.051965749558806416,-0.03147591923773289,-0.009544968463946134
1746729360268488000,4.181488037109375,-0.06525514698177576,-0.036165538358688354,-0.007064558958215638
1746729360278505000,4.1915048828125,-0.05149667074233293,-0.03391863621473312,0.004917975383577868
1746729360288523000,4.20152294921875,-0.052904199452698225,-0.04247311407029628,-0.011601042477227748
1746729360298540000,4.2115400390625,-0.049286593477427955,-0.034251229169964786,-0.012723306239116937
1746729360308557000,4.22155712890625,-0.05575988114476203,-0.024855039793252945,-0.006396039446350187
1746729360318573800,4.23157373046875,-0.0538093315988779,-0.036080782684683795,0.003938325829617679
1746729360328591000,4.241591064453125,-0.054197454133629794,-0.02656359727680683,-0.01029158558016643
1746729360338608000,4.251608154296875,-0.06014993279725313,-0.036896190720796584,-0.01226099509014748
1746729360348626000,4.2616259765625,-0.045512627896666526,-0.032739655563235284,-0.002329940784908831
1746729360358643000,4.271642822265625,-0.04855360302776098,-0.03052724021077156,-0.006898682605708017
1746729360368660000,4.281659912109375,-0.04854512746036052,-0.03955167366564274,-0.0008991133973468094
1746729360378677200,4.29167724609375,-0.055819210116565224,-0.03223579769432545,-0.006182762021850794
1746729360388694000,4.301694091796875,-0.052310032951831814,-0.03494681021869182,-0.011011908344505354
1746729360398711800,4.3117119140625,-0.05295300703048706,-0.029741058269143104,-0.012924226505542173
1746729360408729000,4.32172900390625,-0.05019114110171795,-0.03170563634037971,-0.0181760734859854
1746729360418746000,4.33174609375,-0.03909282398223877,-0.03613514322042465,-0.0065783098112326115
1746729360428763000,4.341762939453125,-0.046963995748758314,-0.032304186755418775,-0.004535935529740527
1746729360438780200,4.3517802734375,-0.04461655583977699,-0.036117607563734055,-0.01328652047929354
1746729360448797000,4.361796875,-0.04757131399214268,-0.029093992537260055,-0.011897924798261374
1746729360458815000,4.37181494140625,-0.05537964965552091,-0.03500760049521923,-0.013592024498200043
1746729360468832000,4.38183203125,-0.0456271941870451,-0.03475684060454368,-0.0027481479306705296
1746729360478849000,4.39184912109375,-0.04554302303493023,-0.03448094627261162,-0.010671680072089657
1746729360488866000,4.401865966796875,-0.05294891537725925,-0.03076163348853588,-0.0027481753301341087
1746729360498883000,4.411883056640625,-0.049990065571665764,-0.03658756316304207,-0.021415274602919816
1746729360508899800,4.42189990234375,-0.05745090297162533,-0.04227905280292034,-0.014047284851875156
1746729360518918100,4.431918212890625,-0.04823328503221273,-0.04170739039480686,-0.00034329701233655214
1746729360528935000,4.441934814453125,-0.041485856598615645,-0.033223055166006085,0.0031397045315243303
1746729360538952200,4.4519521484375,-0.05107902985215187,-0.035248423513770104,-0.0034809100514743476
1746729360548969000,4.461968994140625,-0.04323883774578571,-0.03231704623699188,-0.00843463260186836
1746729360558986000,4.471986083984375,-0.055094110712409015,-0.03747837452292442,-0.008981124036107211
1746729360569004000,4.482004150390625,-0.041374212917685504,-0.04133329638540745,-0.011734870590502395
1746729360579021000,4.49202099609375,-0.044165012679994106,-0.03655950611233711,-0.003579685117676854
1746729360589038000,4.5020380859375,-0.0425312739983201,-0.03300678206682205,-0.008341666221944615
1746729360599055000,4.51205517578125,-0.04036094422191381,-0.03336801659464836,-0.013471795652015135
1746729360609071900,4.52207177734375,-0.04490063347816467,-0.034442367827892305,-0.015203715744847432
1746729360619089200,4.532089111328125,-0.0489709516569972,-0.043452772757411,-0.0034136261020787056
1746729360629107000,4.54210693359375,-0.05326777206808328,-0.034337738409638406,-0.0071824131842236965
1746729360639124000,4.5521240234375,-0.045075697784125804,-0.030180034208297728,-0.0027638752227649092
1746729360649141000,4.56214111328125,-0.046966041575372215,-0.0352834948271513,-0.014335691605508327
1746729360659158000,4.572157958984375,-0.05302782583236694,-0.03874503345787525,-0.017857125463616102
1746729360669174800,4.5821748046875,-0.05215425786823034,-0.03114975602328777,-0.010121115250932053
1746729360679192000,4.592192138671875,-0.04722030859738588,-0.03358604325950146,-0.0013878924281336366
1746729360689209900,4.6022099609375,-0.037088790683448315,-0.03351063993573188,-0.0042182935484685
1746729360699227100,4.61222705078125,-0.04307546387761831,-0.02696750190258026,-0.008914406342292205
1746729360709244000,4.622243896484375,-0.04155161531120539,-0.037898645761609076,-0.009057111881766469
1746729360719261000,4.632260986328125,-0.038652094477415085,-0.03372399042546749,-0.010443926597665994
1746729360729278200,4.6422783203125,-0.04328092332184314,-0.03411035939455032,-0.013235511811263858
1746729360739296000,4.6522958984375,-0.04865034140050411,-0.034756256082653994,-0.0024465711682103574
1746729360749313000,4.66231298828125,-0.04141688301563263,-0.03462181604802608,-0.011784500152198597
1746729360759330000,4.672330078125,-0.04645867657512426,-0.037734979632496835,-0.025460403541568664
1746729360769347000,4.68234716796875,-0.04125350914746523,-0.039863808354735374,-0.01050819660606794
1746729360779364000,4.692364013671875,-0.0507855998635292,-0.037332244050502776,-0.014418867243779823
1746729360789381000,4.702381103515625,-0.05270020131319761,-0.03364098831713199,-0.010712377408659084
1746729360799399000,4.71239892578125,-0.04932487966120243,-0.03475391799509525,-0.004520171705028042
1746729360809416000,4.722416015625,-0.04265197776854038,-0.039160043999552724,-0.01598998901802115
1746729360819433000,4.732432861328125,-0.0385118092238903,-0.03922843306064606,-0.010950031222589314
1746729360829450200,4.7424501953125,-0.050749651767313476,-0.03748480426371097,-0.015439241533773018
1746729360839467000,4.752467041015625,-0.05650602333694696,-0.040543022790551185,-0.011611034148279577
1746729360849484000,4.762484130859375,-0.04678425526767969,-0.045182373028993604,-0.011769348248839377
1746729360859502000,4.772502197265625,-0.03554652967751026,-0.034304420661926266,-0.005173365783598274
1746729360869519000,4.78251904296875,-0.0454679119721055,-0.04106850796937942,-0.0036766609524376687
1746729360879535900,4.792535888671875,-0.06150514679849147,-0.04155132305026054,-0.013506118046725168
1746729360889553200,4.80255322265625,-0.04871639237403869,-0.04007423623502254,-0.00850750604183413
1746729360899570000,4.81256982421875,-0.047674189844727516,-0.04261573741137981,-0.006641456441627815
1746729360909588200,4.822588134765625,-0.04085223487019539,-0.036355507972836494,-0.014992146220244466
1746729360919605000,4.83260498046875,-0.042243396967649456,-0.03877893572747707,-0.017848394167888908
1746729360929622000,4.8426220703125,-0.045078035871684546,-0.03799100022017955,-0.011176232060743495
1746729360939639000,4.85263916015625,-0.055277942846715444,-0.03663607847988605,-0.008268600985733792
1746729360949656000,4.862656005859375,-0.04727525365501642,-0.0362070394128561,-0.0002724693989846855
1746729360959672800,4.8726728515625,-0.03110240975022316,-0.030865093863010406,-0.014832124219788238
1746729360969691100,4.882691162109375,-0.04754705633372068,-0.04179506867825985,-0.013610080744698643
1746729360979708000,4.8927080078125,-0.04370645525753498,-0.03998597342967987,-0.011155271471105515
1746729360989725200,4.90272509765625,-0.05251783048361539,-0.04223462913930416,-0.011955838131112978
1746729360999742000,4.912741943359375,-0.04700315871536732,-0.035683892321586606,-0.008192503542220219
1746729361009759000,4.922759033203125,-0.042246611838042736,-0.03845277251303196,-0.0029913821020163592
1746729361019776000,4.93277587890625,-0.046636663490533824,-0.04350245711803436,-0.005665368817932903
1746729361029794000,4.9427939453125,-0.060767187912762165,-0.035297523352503773,-0.017561019460717215
1746729361039811000,4.95281103515625,-0.0376686363980174,-0.036060908940434455,-0.019352962645096703
1746729361049828000,4.962828125,-0.04702507828623056,-0.04390285461246967,-0.011324134365143254
1746729361059844900,4.972844970703125,-0.04497954393327236,-0.03899228621721267,-0.0031639347904827446
1746729361069862100,4.982862060546875,-0.04102057717442512,-0.04230360272228718,-0.006630176995787769
1746729361079879200,4.992879150390625,-0.040758711367845535,-0.03256605256199836,-0.013919923012005165
1746729361089897000,5.00289697265625,-0.042459670066833495,-0.034089901128411294,-0.010091286368248983
1746729361099914000,5.0129140625,-0.038679274745285507,-0.03728606682121754,-0.018407644619001073
1746729361109931000,5.022930908203125,-0.04490647869706153,-0.03599485796689987,-0.004126076087215915
1746729361119948000,5.032947998046875,-0.042221769657731056,-0.02776128262877464,-0.015002192690223454
1746729361129964800,5.04296484375,-0.035980829441547395,-0.037217677760124204,-0.008343520252313464
1746729361139982800,5.05298291015625,-0.03761164551377296,-0.040811902859807014,-0.0032721535384654995
1746729361149999900,5.062999755859375,-0.0421282461553812,-0.03601414718925953,-0.01362556144162081
1746729361160017000,5.073016845703125,-0.041922494450211525,-0.036628479695320126,-0.00417579698045738
1746729361170034000,5.083033935546875,-0.03253594968467951,-0.0368517670571804,-0.01202046433254145
1746729361180051000,5.093051025390625,-0.04012538190037012,-0.0367559054672718,-0.012834429330239072
1746729361190068000,5.10306787109375,-0.051752399069070816,-0.04025251541137695,-0.012998159391433
1746729361200085800,5.113085693359375,-0.038547465059161186,-0.042611645758152,-0.006950257529318332
1746729361210102800,5.123102783203125,-0.04495733210146427,-0.038428807115554804,-0.009011436975980176
1746729361220120000,5.1331201171875,-0.04543313291966915,-0.030937574577331543,-0.00859019762291573
1746729361230136800,5.14313671875,-0.037463761475682256,-0.03274374721646309,-0.005085395239200443
1746729361240153900,5.15315380859375,-0.052471653254330154,-0.04145195432901382,-0.006778453759523108
1746729361250172000,5.163171875,-0.04847469257265329,-0.039836335825920104,-0.005053977187629789
1746729361260189000,5.17318896484375,-0.044913492959737775,-0.03563771509230137,-0.013744657776644452
1746729361270206000,5.1832060546875,-0.03166355076432228,-0.042843116426467896,-0.009841247996781021
1746729361280223000,5.193222900390625,-0.025746727935969826,-0.039574470019340516,-0.014184811892732976
1746729361290239700,5.20323974609375,-0.03839285901933908,-0.039893034449219704,-0.010783113690465689
1746729361300257000,5.213257080078125,-0.0353247036203742,-0.03602349953949451,-0.0076001728054136035
1746729361310274800,5.22327490234375,-0.04859890347421169,-0.034836920103430744,-0.01375550796422176
1746729361320292000,5.2332919921875,-0.031198855862021445,-0.04038461735844612,0.0019168390725273637
1746729361330308900,5.243308837890625,-0.04009849389344453,-0.035060791987180706,-0.0033933230995666233
1746729361340326000,5.253325927734375,-0.03414952236115932,-0.033148236364126206,-0.0043167854868806895
1746729361350343000,5.263343017578125,-0.04387918147593736,-0.03898351838886738,-0.010341699199052527
1746729361360360000,5.27335986328125,-0.05306698879897594,-0.03578267652094364,-0.0051668903770390896
1746729361370377700,5.283377685546875,-0.043158758246898646,-0.04088029192090034,-0.0064213656838517635
1746729361380395000,5.29339501953125,-0.04717267006337642,-0.04073883762359619,-0.0014348733750171958
1746729361390411800,5.303411865234375,-0.04239186552762985,-0.04032967230081558,0.0035251601851545274
1746729361400428800,5.3134287109375,-0.038753509025275704,-0.03884615574479103,-0.0009176537010353058
1746729361410445800,5.32344580078125,-0.04111731554716825,-0.03979541929364204,-0.012194679255131631
1746729361420462800,5.333462890625,-0.040761633977293966,-0.039404374149441715,-0.00843360968856141
1746729361430481000,5.34348095703125,-0.0408233010366559,-0.043618776974081994,-0.0074824647098779675
1746729361440498000,5.353497802734375,-0.04270721508711576,-0.037456747213006014,-0.005071805105265229
1746729361450514700,5.3635146484375,-0.05599982738047838,-0.03596796995997429,-0.0007637600472662597
1746729361460532000,5.373531982421875,-0.03779840025752783,-0.03659340838193893,-0.009884073358355089
1746729361470549000,5.383549072265625,-0.04382774354964494,-0.046049803513288495,-0.007893785457126795
1746729361480567000,5.393567138671875,-0.04136632187217474,-0.03828676829636097,-0.005858580701937899
1746729361490583800,5.403583740234375,-0.04265869977027178,-0.04294073158204555,-0.00871976055302657
1746729361500600800,5.413600830078125,-0.041103579282760615,-0.034171734192967415,-0.007387662565894425
1746729361510617900,5.423617919921875,-0.043047406826913354,-0.03402326563298702,-0.011046486467542126
1746729361520635000,5.433634765625,-0.03448737601339817,-0.04271159900128841,-0.006746716047544032
1746729361530652000,5.44365185546875,-0.0431719099894166,-0.043351065948605536,0.0023473394442815334
1746729361540670000,5.453669921875,-0.04876403090804815,-0.0390390479683876,0.0007885474286507814
1746729361550686700,5.463686767578125,-0.03574585164189339,-0.03010404636263847,-0.011891011000284925
1746729361560704000,5.4737041015625,-0.03863046716749668,-0.03817278652787209,-0.011407529199123382
1746729361570721000,5.483720947265625,-0.044378070908784865,-0.040890228793025014,-0.01926329333395697
1746729361580737800,5.49373779296875,-0.04076192623823881,-0.03625789281725883,-0.0075793492130935185
1746729361590755000,5.503755126953125,-0.03887625862210989,-0.04152151243388653,-0.000010265665687620638
1746729361600772900,5.51377294921875,-0.04033201038837433,-0.040187048959732054,-0.00991347298277542
1746729361610790000,5.523789794921875,-0.04106266275048256,-0.034654549273848534,-0.0025650829813443124
1746729361620807000,5.533806884765625,-0.03827712368518114,-0.04395896871387958,-0.009617640974512323
1746729361630824000,5.543823974609375,-0.04020458461642265,-0.04560790496468544,-0.017595825912617147
1746729361640841000,5.553841064453125,-0.03661678925752639,-0.04415244545936584,-0.0029950353638269005
1746729361650858000,5.56385791015625,-0.04504296455830335,-0.037895723152160644,-0.0043729178545996545
1746729361660875800,5.573875732421875,-0.03904401640444994,-0.03774959267973899,-0.015739475722517816
1746729361670893000,5.58389306640625,-0.04508475787341595,-0.037924364724755286,-0.0021349114031530914
1746729361680909800,5.593909912109375,-0.0425204603433609,-0.04141337588429451,-0.011056980462092905
1746729361690926800,5.6039267578125,-0.03763356508463621,-0.033061727124452586,-0.004703337119054049
1746729361700944000,5.61394384765625,-0.04455605782419443,-0.03394786230921745,-0.002448607861669734
1746729361710962000,5.6239619140625,-0.041159985645115374,-0.03887187470793724,0.0022387827695813027
1746729361720979000,5.63397900390625,-0.03153992438465357,-0.044720016214251514,-0.009857157951965928
1746729361730996000,5.643995849609375,-0.036436171993613244,-0.041888007658720014,-0.005635987459821626
1746729361741012700,5.6540126953125,-0.039650750125944614,-0.037270869252085684,-0.0007799257307779043
1746729361751030000,5.664030029296875,-0.03295183700919151,-0.03471650859415531,-0.004968682657508179
1746729361761046800,5.674046875,-0.02327741521298885,-0.038485505738854404,-0.010650655550369993
1746729361771065000,5.684065185546875,-0.03137421242892742,-0.04046995755434036,-0.016434207387873902
1746729361781081900,5.694081787109375,-0.0290396320015192,-0.03656242872178554,-0.004937858260981739
1746729361791099000,5.704098876953125,-0.038568800108134745,-0.036873978888988496,-0.0058592200227547435
1746729361801116000,5.714115966796875,-0.041349955259263514,-0.03992752124071121,-0.005803946171561256
1746729361811133000,5.7241328125,-0.0444134344831109,-0.038303134909272195,-0.00771309512797743
1746729361821150000,5.73414990234375,-0.03698737613558769,-0.04053250139653682,-0.008606354173272848
1746729361831168000,5.74416796875,-0.034731121641397474,-0.04487608355879783,-0.015129499731166287
1746729361841184800,5.754184814453125,-0.030609657797217367,-0.040111061114072796,-0.008455702789360657
1746729361851201800,5.764201904296875,-0.04492722922414541,-0.04127893584966659,-0.001634734195517376
1746729361861218800,5.77421875,-0.03741495389789343,-0.03669160805940628,-0.008006442918209358
1746729361871235800,5.78423583984375,-0.04239917205125093,-0.04420271434187889,-0.00841495065386407
1746729361881254000,5.79425390625,-0.04147065902948379,-0.039572716453671455,-0.00498786228201352
1746729361891271000,5.80427099609375,-0.04854717328697443,-0.03616027766168117,-0.0008783811365719884
1746729361901287700,5.81428759765625,-0.037899522544443606,-0.03137830408215522,-0.013173095833230763
1746729361911305000,5.824304931640625,-0.031019407641887663,-0.044244799917936325,-0.002569092436181381
1746729361921322000,5.834322021484375,-0.03608721242547035,-0.04095803333222866,-0.011243853936856611
1746729361931338800,5.8443388671875,-0.04166384351402521,-0.04203764526247978,0.002140564825804904
1746729361941356800,5.854356689453125,-0.040430502326786515,-0.03819967453479767,-0.0065362881672568615
1746729361951373800,5.864373779296875,-0.030615795277059075,-0.03717734574973583,-0.0032439046915154904
1746729361961390800,5.874390869140625,-0.031498131069540976,-0.042461423632502555,-0.00793782552825287
1746729361971408000,5.884407958984375,-0.03449994323402643,-0.034270518392324444,-0.0005909881630912423
1746729361981425000,5.8944248046875,-0.03947802390754223,-0.04047755633890628,-0.009160471791541204
1746729361991442000,5.90444189453125,-0.032171500286459924,-0.040320319950580594,-0.013041797603759914
1746729362001459700,5.914459716796875,-0.028460370808839796,-0.038815760606527326,-0.009158106304518878
1746729362011477000,5.92447705078125,-0.03018850977569818,-0.039433015722036356,-0.007651026209816336
1746729362021494000,5.934493896484375,-0.034950609610974785,-0.03704641284644603,-0.012765400948328896
1746729362031510800,5.9445107421875,-0.0350634223356843,-0.03665186057090759,-0.008216861665342003
1746729362041528000,5.954528076171875,-0.04375964674949646,-0.04487842164635658,-0.01192810987397097
1746729362051545900,5.9645458984375,-0.0312923793643713,-0.03617138357758522,-0.004833320174273103
1746729362061563000,5.97456298828125,-0.030290801106393334,-0.04009177189171314,-0.003838637447962537
1746729362071580000,5.984579833984375,-0.04466799376606941,-0.03410159156620502,-0.00041840807516127824
1746729362081597000,5.994596923828125,-0.04746756135672331,-0.03680558982789516,-0.009839960221992804
1746729362091614000,6.004614013671875,-0.04087503122389316,-0.03621054654419422,-0.008888093724101782
1746729362101631000,6.014630859375,-0.04233516690433025,-0.03947100964486599,-0.014469190925220027
1746729362111648500,6.0246484375,-0.03885901522636413,-0.03873451206386089,-0.009980848263716325
1746729362121665800,6.034665771484375,-0.04301847299337387,-0.04109539597630501,0.00015283420784398914
1746729362131682600,6.0446826171875,-0.03401245197802782,-0.04379647162854671,-0.008672140285326167
1746729362141699600,6.054699462890625,-0.027644085989892483,-0.033494857844710346,-0.005165903996350243
1746729362151716600,6.064716552734375,-0.03428659274429083,-0.04294833036661148,-0.005939372586878016
1746729362161733600,6.074733642578125,-0.04628711940050125,-0.04787818798422813,-0.005575379846384749
1746729362171751700,6.084751708984375,-0.024293314257264137,-0.03770049284100532,-0.007251158438343554
1746729362181768700,6.094768798828125,-0.03341916225999594,-0.035605566388368606,-0.008566487953765318
1746729362191785500,6.104785400390625,-0.028351065215468405,-0.04517652781009674,-0.005033582853572443
1746729362201802800,6.114802734375,-0.025452421164512632,-0.04085281939208507,-0.011354127644607796
1746729362211819800,6.12481982421875,-0.03573211537748575,-0.04400689950883388,-0.00886445712018758
1746729362221837800,6.134837890625,-0.0340197585016489,-0.03938742301464081,-0.015024285791022702
1746729362231854600,6.1448544921875,-0.03171674225628376,-0.0376098919481039,-0.00679412625269033
1746729362241871600,6.15487158203125,-0.030180034208297728,-0.04106207822859287,0.0008747187416069209
1746729362251888600,6.164888671875,-0.04493979644477367,-0.044776130315661425,-0.017455010936129837
1746729362261905700,6.17490576171875,-0.050371173843741415,-0.04816343466639519,-0.009116851845523343
1746729362271922700,6.184922607421875,-0.029841303773224352,-0.04398293411135673,-0.00892899199007079
1746729362281940700,6.194940673828125,-0.031190964816510677,-0.03833703717887401,-0.005721912177605554
1746729362291957500,6.20495751953125,-0.030581308485567567,-0.03494096499979496,-0.0031082773467991497
1746729362301974500,6.214974609375,-0.032901275865733624,-0.047082069170475006,-0.007722684940230101
1746729362311991800,6.22499169921875,-0.038643618910014624,-0.040374680486321445,-0.010159830692969262
1746729362322008600,6.235008544921875,-0.03701046475023031,-0.042916181662678715,-0.0063370666675735265
1746729362332025600,6.245025634765625,-0.03348521323353052,-0.04065291290581226,-0.007352198526868596
1746729362342043600,6.255043701171875,-0.036079905901849264,-0.030763971576094624,-0.007802819238044321
1746729362352060700,6.265060791015625,-0.04221884704828262,-0.03948270008265972,-0.005775761256692931
1746729362362077700,6.27507763671875,-0.045024552118778226,-0.04278524875938892,-0.009344851915119216
1746729362372094700,6.2850947265625,-0.04125029427707195,-0.04384147981405258,-0.007181993059115484
1746729362382111500,6.295111572265625,-0.027933716586232185,-0.042537411478161806,-0.00874931544107385
1746729362392128800,6.305128662109375,-0.028354572346806526,-0.037564883762598034,-0.0022865491677541284
1746729362402146600,6.315146484375,-0.04169569995701313,-0.04279401658773422,-0.004883543391013517
1746729362412163800,6.325163818359375,-0.03898497969359159,-0.03991232367157936,-0.005621758005069568
1746729362422180600,6.3351806640625,-0.03242693635225296,-0.03765899178683758,-0.0012247286225203424
1746729362432197600,6.34519775390625,-0.039271395419538016,-0.03377835096120834,-0.0053053581328131256
1746729362442214700,6.355214599609375,-0.050605859382450574,-0.03842646902799606,-0.008585357051016762
1746729362452231700,6.365231689453125,-0.04322890087366104,-0.03873685015141964,-0.010112520952522753
1746729362462249700,6.375249755859375,-0.039109775117039676,-0.03587327741384506,-0.00560134540470317
1746729362472266800,6.385266845703125,-0.044187516772747036,-0.0427601143181324,-0.009094466483779252
1746729362482283500,6.395283447265625,-0.03866904561221599,-0.047884033203124995,-0.0027647702719084915
1746729362492300800,6.40530078125,-0.0351201209589839,-0.033847909066081046,-0.006114911816874518
1746729362502317600,6.415317626953125,-0.039975744296610355,-0.04344809658229351,-0.004599968076124787
1746729362512335600,6.425335693359375,-0.031900866651535034,-0.04244096536636352,-0.0005219415148720145
1746729362522352600,6.4353525390625,-0.0460822444781661,-0.044993572458624835,-0.010358230208745225
1746729362532369700,6.44536962890625,-0.038213118538260454,-0.039438860940933226,-0.010847749025048687
1746729362542386400,6.455386474609375,-0.030799627411365507,-0.042752515533566474,-0.011252977958228438
1746729362552403700,6.46540380859375,-0.03748801913410425,-0.04261573741137981,-0.0170610157830175
1746729362562420500,6.47542041015625,-0.03721387836784124,-0.036922494205832476,-0.0020903964079916474
1746729362572438800,6.485438720703125,-0.031443186011910436,-0.03679448391199112,-0.002228206576639786
1746729362582455600,6.49545556640625,-0.03592296177446842,-0.04073182336091995,-0.007420432324334978
1746729362592472600,6.50547265625,-0.044593174964189526,-0.0458230090200901,-0.012010582259343936
1746729362602489600,6.515489501953125,-0.047719782552123065,-0.039542905837297436,-0.0054543838152196255
1746729362612506600,6.525506591796875,-0.04087035504877567,-0.042676527687907216,-0.010004210872994735
1746729362622523600,6.535523681640625,-0.0473480266302824,-0.047644963750243186,-0.010937071276316419
1746729362632541700,6.545541748046875,-0.036839492097496984,-0.04286591278016567,-0.014671572496369481
1746729362642558500,6.555558349609375,-0.03931201969087124,-0.031919571352005,-0.006714110685884952
1746729362652575700,6.56557568359375,-0.029984511636197565,-0.037321722656488414,-0.01108128378628753
1746729362662592800,6.5755927734375,-0.03326221813261509,-0.0363204366594553,-0.00011999138416722417
1746729362672609500,6.585609619140625,-0.04306698831021785,-0.04333002316057682,-0.005279173378786072
1746729362682626800,6.595626708984375,-0.03527034308463335,-0.039893618971109386,-0.006841216797428205
1746729362692644600,6.60564453125,-0.033569384385645384,-0.04784136310517788,-0.0034817868343088774
1746729362702661600,6.61566162109375,-0.039411972934007646,-0.04319909025728702,-0.006658325378037989
1746729362712678700,6.6256787109375,-0.03118248924911022,-0.035565818899869914,-0.002562096439814195
1746729362722695700,6.63569580078125,-0.02797054146528244,-0.037979309782385826,0.0012370766474399716
1746729362732712700,6.645712646484375,-0.034788404786586756,-0.04139759379327297,-0.012261059022229164
1746729362742730500,6.65573046875,-0.040400399449467654,-0.04257540540099144,-0.004170828544395044
1746729362752747500,6.66574755859375,-0.0403919238820672,-0.0355447761118412,-0.0011820950571913272
1746729362762764800,6.675764892578125,-0.03040478287488222,-0.042458501023054124,-0.0030195396174211055
1746729362772781600,6.685781494140625,-0.031547815430164335,-0.03992927480638027,-0.004026479037106037
1746729362782798600,6.695798583984375,-0.04123042053282261,-0.042185529300570485,-0.002195847810152918
1746729362792815600,6.705815673828125,-0.030008184772729873,-0.039492052432894706,-0.006506578015582636
1746729362802833700,6.715833740234375,-0.030269758318364617,-0.03407411903738975,-0.002645719602657482
1746729362812850700,6.7258505859375,-0.03831687117367983,-0.03688508480489254,-0.0028707239975687116
1746729362822867700,6.73586767578125,-0.03892857333123684,-0.03134498633444309,-0.005083121083723381
1746729362832884500,6.745884521484375,-0.035729777289927,-0.0361503407895565,-0.0037304369662888347
1746729362842901800,6.75590185546875,-0.03688070089071989,-0.04135843082666397,-0.013617990056518465
1746729362852918500,6.76591845703125,-0.04512713571041822,-0.03940905032455921,-0.005936778770992532
1746729362862936800,6.775936767578125,-0.04328384593129158,-0.045857495811581606,-0.007746321544144302
1746729362872953600,6.78595361328125,-0.03502192128151655,-0.04287468060851097,0.0035818679416086525
1746729362882970600,6.795970703125,-0.037652854306995866,-0.0418014984190464,-0.006684382267901674
1746729362892987600,6.805987548828125,-0.03372223685979843,-0.04690086738467216,-0.004968618725426495
1746729362903004700,6.816004638671875,-0.03677724051624536,-0.041648353683948515,-0.01708886277116835
1746729362913021400,6.826021484375,-0.030471126109361646,-0.03207680774033069,0.003731377681205049
1746729362923039700,6.836039794921875,-0.02775689871460199,-0.03766074535250664,-0.0045090475228149445
1746729362933056500,6.846056396484375,-0.039650457864999766,-0.04187339461147785,-0.00744930222579278
1746729362943073800,6.85607373046875,-0.035522272019088266,-0.03980126451253891,-0.002522312418697402
1746729362953090600,6.866090576171875,-0.04319470634311438,-0.03788637080192566,-0.011889814557041972
1746729362963107600,6.876107666015625,-0.0369260013371706,-0.04076631015241146,0.0016710476179141551
1746729362973125600,6.886125732421875,-0.03297930953800678,-0.03644377077817917,0.0030558530398178845
1746729362983142700,6.896142578125,-0.034224925684928895,-0.04061901063621044,0.0037037042229901996
1746729362993159400,6.906159423828125,-0.034660102231800556,-0.041028760480880735,0.0008626447113230824
1746729363003176700,6.9161767578125,-0.03402501919865608,-0.040590369063615794,-0.008740940338373185
1746729363013193700,6.92619384765625,-0.0367167425006628,-0.042236967226862904,-0.013681328483158721
1746729363023210500,6.93621044921875,-0.03716039461493492,-0.039887189230322834,-0.005977092515071854
1746729363033228500,6.946228515625,-0.036895606198906895,-0.0417144046574831,0.004118842628831044
1746729363043245600,6.95624560546875,-0.03893851020336151,-0.040831776604056354,-0.017024364433903247
1746729363053262600,6.9662626953125,-0.04274140961766243,-0.04440671248137951,-0.005287502815714106
1746729363063279600,6.976279541015625,-0.038887656798958774,-0.03691431089937687,-0.008889518496207892
1746729363073296600,6.986296630859375,-0.03578384556472301,-0.04233399786055088,-0.0032877347000874577
1746729363083313700,6.996313720703125,-0.0288762581333518,-0.03770107736289501,-0.00483197760055773
1746729363093331500,7.00633154296875,-0.03914192382097244,-0.03936404213905334,-0.007145022049592807
1746729363103348700,7.0163486328125,-0.04451923294514418,-0.03791325880885124,-0.0009758866942953318
1746729363113365200,7.026365234375,-0.03764116386920213,-0.04693360061049461,-0.004176061841938645
1746729363123382300,7.03638232421875,-0.02679506794512272,-0.04455868817269802,-0.0035074601316824553
1746729363133399300,7.0463994140625,-0.04049889138787985,-0.03140811469852924,0.0009709913234692066
1746729363143416000,7.056416015625,-0.036493162877857685,-0.039222003319859505,-0.0017151150885038077
1746729363153434400,7.066434326171875,-0.02849778020977974,-0.04552607190012931,-0.006329440483544021
1746729363163451100,7.076451171875,-0.034439445218443866,-0.040107553982734676,-0.010083413589047267
1746729363173468400,7.086468505859375,-0.042618075498938555,-0.03653028001785278,-0.017827113917842505
1746729363183485200,7.096485107421875,-0.02949497455358505,-0.0425029246866703,-0.008692269757902249
1746729363193502200,7.106502197265625,-0.031637247279286386,-0.04028641768097877,-0.002481788612063974
1746729363203520300,7.116520263671875,-0.03125847709476948,-0.04191197305619716,-0.0011791541814338414
1746729363213537300,7.126537353515625,-0.028111995762586592,-0.04995148712694645,-0.008817814100021497
1746729363223554300,7.13655419921875,-0.04118278199881315,-0.03482230705618858,-0.009091242480231448
1746729363233571300,7.1465712890625,-0.03226706961542368,-0.030613749450445173,0.004797773936856538
1746729363243588000,7.156588134765625,-0.02828063032776117,-0.04096446307301521,-0.004344860803894698
1746729363253605400,7.16660546875,-0.035195232021808624,-0.039842765566706656,-0.0010140358807519078
1746729363263623200,7.176623046875,-0.029163258381187915,-0.046780455875396726,-0.006001980361156165
1746729363273640200,7.18664013671875,-0.03407587260305881,-0.03815057469606399,-0.010168753784941508
1746729363283657200,7.1966572265625,-0.03714987322092056,-0.03906827406287193,-0.005847803579596802
1746729363293674200,7.20667431640625,-0.030154315245151518,-0.04474573517739772,-0.001345505457976833
1746729363303691300,7.216691162109375,-0.025731238105893135,-0.03658054890036583,-0.0004942771898116916
1746729363313708300,7.226708251953125,-0.035408874772489066,-0.044267596271634096,-0.006735820194194093
1746729363323726000,7.23672607421875,-0.042538872782886025,-0.042485389029979705,-0.004052535926969722
1746729363333743400,7.246743408203125,-0.042103696236014364,-0.04517535876631736,-0.010920430668769405
1746729363343760100,7.256760009765625,-0.025171558396518228,-0.04383446555137634,0.00987999083828181
1746729363353777200,7.266777099609375,-0.026885961098968982,-0.04565291315019131,-0.00847755842814222
1746729363363794400,7.27679443359375,-0.02853431282788515,-0.04744739535152912,-0.00468487901375629
1746729363373811200,7.286811279296875,-0.027718320269882676,-0.03564531387686729,-0.011446792630432173
1746729363383829200,7.296829345703125,-0.0448252301543951,-0.044460488495230675,-0.007972312319744377
1746729363393846300,7.30684619140625,-0.04030921403467655,-0.036086627903580665,-0.005812083812244236
1746729363403863300,7.31686328125,-0.03909691563546657,-0.03448620696961879,0.008070849923929199
1746729363413880300,7.32688037109375,-0.01995470053106546,-0.04301204325258732,-0.006511920910980552
1746729363423897300,7.3368974609375,-0.03132920424342155,-0.0434615405857563,-0.010117480255430564
1746729363433914000,7.3469140625,-0.02918868508338928,-0.04253565791249275,-0.001051701010018587
1746729363443932400,7.356932373046875,-0.02536415835916996,-0.04046352781355381,-0.0026766627301927654
1746729363453949200,7.36694921875,-0.03911737390160561,-0.0472433972120285,-0.0069917037845589215
1746729363463966500,7.376966552734375,-0.020957155571877956,-0.047750177690386766,-0.004132167901284993
1746729363473983200,7.386983154296875,-0.02912117280513048,-0.03844868085980415,-0.004268142305873334
1746729363484000300,7.397000244140625,-0.03617781331837177,-0.04352992964684963,-0.013857324370881541
1746729363494017300,7.407017333984375,-0.03193447666019201,-0.043289106628298754,-0.012709305113228037
1746729363504035300,7.417035400390625,-0.023349311405420303,-0.03716916244328022,-0.008048455429030581
1746729363514052000,7.427052001953125,-0.029650457376241682,-0.04034837700128555,0.0002569339031353593
1746729363524069400,7.4370693359375,-0.03728548229932785,-0.03825111246109009,-0.002015869867056608
1746729363534086100,7.447086181640625,-0.045208091992139814,-0.03870177883803844,-0.0057470740183256565
1746729363544103400,7.457103515625,-0.03653466393202543,-0.037546179062128066,-0.0111658019982744
1746729363554121200,7.467121337890625,-0.042379882828891276,-0.036795068433880807,0.003416265583736822
1746729363564138200,7.47713818359375,-0.03363601988106966,-0.03621346915364265,-0.0029265732374973595
1746729363574155300,7.4871552734375,-0.03646276773959398,-0.04030044620633125,-0.004955677045462653
1746729363584172300,7.49717236328125,-0.03151829707473516,-0.04583820658922195,-0.007628942242171615
1746729363594189000,7.50718896484375,-0.031985330064594746,-0.042733226311206816,-0.013311170863360165
1746729363604206300,7.517206298828125,-0.02822013231217861,-0.034060090512037275,-0.0019832919048611074
1746729363614224100,7.52722412109375,-0.024931612160801885,-0.04188333148360252,0.0011259444231633095
1746729363624241400,7.537241455078125,-0.03399754666984081,-0.0349088162958622,0.00015242321589030325
1746729363634258200,7.547258056640625,-0.03457885368913412,-0.045239656174182886,-0.0023775975852273405
1746729363644275200,7.557275146484375,-0.021539631634950637,-0.038511224702000614,-0.015269684519991278
1746729363654292200,7.567292236328125,-0.025697335836291312,-0.04176993423700332,-0.008237246866244823
1746729363664309200,7.577309326171875,-0.042324060988426206,-0.0401198289424181,-0.008307508224016056
1746729363674327300,7.587327392578125,-0.023483166918158528,-0.04026654393672943,-0.007887355716340243
1746729363684344300,7.59734423828125,-0.03861994577348232,-0.0341243879199028,-0.004744445447577164
1746729363694361000,7.607361083984375,-0.030121289758384226,-0.04339315152466297,-0.0053092397234868255
1746729363704378400,7.61737841796875,-0.034307051010429856,-0.040292847421765324,-0.009697245549364015
1746729363714395400,7.6273955078125,-0.036682255709171295,-0.03839490484595299,-0.004585272830491885
1746729363724413200,7.6374130859375,-0.036054771460592744,-0.0406903223067522,0.00008690196531824767
1746729363734430200,7.64743017578125,-0.03742722885757684,-0.03818155435621738,-0.008566414888529106
1746729363744447200,7.657447265625,-0.03785129948854446,-0.041780455631017684,-0.004304044736316427
1746729363754464300,7.66746435546875,-0.03591477846801281,-0.03983282869458198,-0.010273638931522146
1746729363764481300,7.677481201171875,-0.029740473747253415,-0.04119067304432392,-0.007129879279388115
1746729363774498300,7.687498291015625,-0.017531565037369728,-0.04016717521548271,-0.0018506145690567791
1746729363784516400,7.697516357421875,-0.01728051288574934,-0.04274082509577274,-0.0024470460922457276
1746729363794533400,7.707533447265625,-0.043264848969876764,-0.04529927740693092,-0.007981317610107362
1746729363804550100,7.717550048828125,-0.043945232449471947,-0.038542788884043694,-0.005782866850914433
1746729363814567400,7.7275673828125,-0.043409518137574196,-0.03852349966168404,-0.0029708599037956444
1746729363824584200,7.737584228515625,-0.031050679562985895,-0.042695232388377184,-0.005577151678362861
1746729363834601200,7.747601318359375,-0.026626141119003296,-0.03994038072228431,-0.0036551706398371604
1746729363844619300,7.757619384765625,-0.030317981374263763,-0.046046880903840064,-0.009643387337122111
1746729363854636300,7.76763623046875,-0.031849428725242615,-0.04858019877374172,-0.004122578089032322
1746729363864653300,7.7776533203125,-0.038352819269895554,-0.03490121751129627,-0.009737166567798704
1746729363874670300,7.78767041015625,-0.026622633987665175,-0.03801847274899482,-0.002137459553265944
1746729363884687000,7.79768701171875,-0.026143326038122177,-0.04491057035028934,-0.0018298731751274317
1746729363894704400,7.807704345703125,-0.03138064216971397,-0.043159342768788335,-0.002357221517479047
1746729363904722200,7.81772216796875,-0.0437011945605278,-0.0376098919481039,-0.008112031317688524
1746729363914739500,7.827739501953125,-0.043272155493497846,-0.04482873728573322,-0.001531438217824325
1746729363924756200,7.837756103515625,-0.025543022057414055,-0.042753100055456156,-0.0005135116132441908
1746729363934773200,7.847773193359375,-0.02334200488179922,-0.04363865071833133,0.0005497154377866536
1746729363944790300,7.857790283203125,-0.023303718698024747,-0.04200374299287796,-0.007133559940662235
1746729363954807300,7.867807373046875,-0.0264668589040637,-0.05097849208712577,-0.007724968228861689
1746729363964825000,7.8778251953125,-0.03564589839875698,-0.043674306553602216,-0.012409089190792292
1746729363974842400,7.88784228515625,-0.03615121757239103,-0.04459785113930702,-0.010117809048993513
1746729363984859100,7.897859130859375,-0.033846155500411985,-0.04016951330304146,-0.013158793313242495
1746729363994876400,7.90787646484375,-0.03294686857312917,-0.040512043130397794,-0.004246231868164614
1746729364004893200,7.91789306640625,-0.02587386144697666,-0.04022504288256168,-0.0056858270840719335
1746729364014910200,7.92791015625,-0.03594283551871776,-0.038865444967150685,-0.013437856849795206
1746729364024928300,7.93792822265625,-0.033870120897889135,-0.03990706297457218,-0.003291397095052525
1746729364034945300,7.9479453125,-0.025152561435103415,-0.036519174101948736,-0.009998950175987556
1746729364044962000,7.957962158203125,-0.02284428449273109,-0.038224224454164506,-0.0027486137215513733
1746729364054979300,7.967979248046875,-0.0421437359854579,-0.042864743736386296,-0.0010863704646006226
1746729364064996400,7.977996337890625,-0.028547172309458253,-0.03901099091768265,-0.008841523769171907
1746729364075014400,7.988014404296875,-0.026635201208293435,-0.04532850350141525,-0.0028842958651948717
1746729364085031200,7.99803125,-0.03406915060132742,-0.03456687099039554,-0.00980421305517666
1746729364095048200,8.008048095703124,-0.03221037099212408,-0.040759880411624906,-0.003781564365327358
1746729364105065500,8.0180654296875,-0.026704174791276455,-0.041949382457137106,-0.006237798411026597
1746729364115082500,8.02808251953125,-0.03172258747518063,-0.03553367019593715,0.0013041140016634017
1746729364125099800,8.038099853515625,-0.01614770946353674,-0.03658639411926269,-0.014192748604016378
1746729364135117600,8.04811767578125,-0.03247369810342789,-0.04630757766664028,-0.0027465404954738915
1746729364145134300,8.05813427734375,-0.032201310902833936,-0.042599955320358276,-0.0004241893619764596
1746729364155151600,8.068151611328124,-0.023992285484075546,-0.040840544432401656,-0.003682360040862113
1746729364165168600,8.078168701171874,-0.029886604219675064,-0.03483925819098949,-0.006713471365068107
1746729364175185400,8.088185302734376,-0.03010638445019722,-0.037361470144987106,-0.003944719037786126
1746729364185202700,8.09820263671875,-0.04062631715983152,-0.041539632612466806,-0.011211138977343216
1746729364195220500,8.108220458984375,-0.03708586807399988,-0.031392332607507706,-0.011009049667138606
1746729364205237500,8.118237548828125,-0.03150602211505175,-0.04228665158748626,-0.002534770041471347
1746729364215254500,8.128254638671875,-0.027517244739830492,-0.04490004895627498,-0.009659690017951653
1746729364225271600,8.138271484375,-0.04137275161296129,-0.04136895222067833,-0.010144980183709412
1746729364235288600,8.14828857421875,-0.03215425689071417,-0.04019757035374641,-0.00012230207226239143
1746729364245305600,8.1583056640625,-0.021816695010662076,-0.03705927232801914,-0.003364352733409032
1746729364255323600,8.16832373046875,-0.02891600562185049,-0.0339414325684309,-0.00009368789913132786
1746729364265340700,8.178340576171875,-0.028147651597857475,-0.04745733222365379,-0.004219161198148504
1746729364275357400,8.188357421875,-0.03298720058351755,-0.040004093608260155,-0.002607570416200906
1746729364285374700,8.198374755859374,-0.027860066828131674,-0.041812019813060756,-0.008087919789738952
1746729364295391500,8.2083916015625,-0.02899403929412365,-0.044780806490778924,-0.010081294697197154
1746729364305408500,8.218408447265626,-0.023738602983951567,-0.04489420373737812,-0.004758455706620588
1746729364315426600,8.228426513671875,-0.028840894559025762,-0.04174655336141586,-0.002892479171650484
1746729364325443600,8.238443603515625,-0.03934533743858337,-0.04154547783136368,-0.0034849743052385745
1746729364335460600,8.248460693359375,-0.03628068917095661,-0.04287058895528316,-0.00560367435910739
1746729364345477600,8.2584775390625,-0.03267477363348007,-0.0439233128786087,0.0028307664465159177
1746729364355494400,8.268494384765624,-0.03434884432554245,-0.04301847299337387,-0.0027796755800954995
1746729364365512700,8.2785126953125,-0.03156564334779978,-0.041056233009696005,-0.003250809356337413
1746729364375529500,8.288529541015626,-0.026524142049252984,-0.036596330991387364,-0.004732179621048271
1746729364385546500,8.29854638671875,-0.028736849662661552,-0.04846913961470127,-0.008261148331640288
1746729364395563500,8.3085634765625,-0.03164659962952137,-0.04355623313188552,-0.0073375398138538
1746729364405580500,8.31858056640625,-0.03188683812618255,-0.034551088899374006,-0.006409382985113188
1746729364415597300,8.328597412109374,-0.03565057457387447,-0.04172609509527683,-0.003770823775604367
1746729364425615600,8.33861572265625,-0.031949966490268704,-0.043853754773736,-0.002652788664260879
1746729364435632400,8.34863232421875,-0.03665624448508024,-0.04223170652985572,-0.0018320377327501773
1746729364445649700,8.358649658203126,-0.0349020942941308,-0.04536240577101707,-0.004971778796892613
1746729364455666400,8.36866650390625,-0.023412439769506452,-0.0373790058016777,-0.0018772285813465712
1746729364465683500,8.378683349609375,-0.032120062360167505,-0.040513796696066855,-0.0048255661260802295
1746729364475700700,8.38870068359375,-0.03387567385584116,-0.040075405278801914,-0.002758358797430992
1746729364485718500,8.398718505859375,-0.02435030514150858,-0.03785889827311039,-0.002800827965978533
1746729364495735600,8.408735595703124,-0.020313596971333024,-0.03800912039875984,0.002194477836973965
1746729364505752600,8.418752685546876,-0.025329379306733606,-0.04506196151971817,-0.0013886413468047975
1746729364515769600,8.42876953125,-0.021836276493966578,-0.03609773381948471,-0.00016750205401331185
1746729364525786600,8.43878662109375,-0.03689063776284456,-0.049582069292664524,-0.006918629415193572
1746729364535803600,8.4488037109375,-0.03527326569408178,-0.047479544055461884,-0.008140581558737904
1746729364545821700,8.45882177734375,-0.023003274446725844,-0.04209142127633095,0.00016288067782297728
1746729364555838500,8.46883837890625,-0.021733108380436895,-0.03806874163150787,-0.007804371874313801
1746729364565855500,8.47885546875,-0.025977321821451186,-0.040895489490032196,-0.007754577915836125
1746729364575872800,8.488872802734376,-0.029316403116285798,-0.04193009323477745,-0.004889014150574803
1746729364585889500,8.4988896484375,-0.019526830507814882,-0.03876373815834522,-0.008036627993918955
1746729364595906600,8.508906494140625,-0.025130934125185012,-0.04517769685387611,-0.00756311959750019
1746729364605924600,8.518924560546875,-0.030507366466522214,-0.04248772711753845,0.0018311426836065947
1746729364615941600,8.528941650390625,-0.024440613773465156,-0.04247077598273754,-0.002850137867266312
1746729364625958400,8.53895849609375,-0.019213819035887716,-0.04182546381652355,0.004377502698171883
1746729364635975700,8.5489755859375,-0.028029578176140782,-0.0464677366644144,-0.0061989185722079124
1746729364645992400,8.558992431640625,-0.02733575069308281,-0.039567455756664274,0.0007971143275965005
1746729364656010800,8.5690107421875,-0.0267152807071805,-0.04376490744650364,0.001795176321081817
1746729364666027500,8.579027587890625,-0.030040333476662635,-0.03522504263818264,0.0030669224231038242
1746729364676044500,8.58904443359375,-0.03298544701784849,-0.03852992940247059,0.0010559113942552358
1746729364686061600,8.5990615234375,-0.03474398112297058,-0.042539749565720555,-0.008663034530263394
1746729364696078600,8.60907861328125,-0.027879648311436175,-0.04163841681182384,-0.0016878343559335917
1746729364706095400,8.619095458984376,-0.042758068491518496,-0.04251987582147121,-0.006761009434377774
1746729364716113700,8.62911376953125,-0.040381402488052845,-0.039222003319859505,-0.009573153378814458
1746729364726130400,8.63913037109375,-0.03199292884916067,-0.041918987318873405,-0.004202502324292436
1746729364736147700,8.649147705078125,-0.03095511023402214,-0.03982113825678825,-0.009774493770347907
1746729364746164500,8.65916455078125,-0.028426468539237974,-0.040866263395547865,-0.001068369017029181
1746729364756181500,8.669181396484374,-0.029311726941168306,-0.03548281679153442,0.0012898206148296593
1746729364766198500,8.679198486328126,-0.030032442431151864,-0.05030395382642746,0.0043815578187815845
1746729364776216600,8.689216552734376,-0.03260024709254503,-0.03847556886672973,-0.00816094849333167
1746729364786233600,8.699233642578125,-0.03352437620013952,-0.03412731052935123,-0.008947778888931498
1746729364796250600,8.709250732421875,-0.03118511959761381,-0.045377603340148925,-0.005596934091066941
1746729364806267400,8.719267333984375,-0.023883272151648996,-0.04148001137971878,-0.009285833470569924
1746729364816284700,8.72928466796875,-0.024482991610467433,-0.03998188177645206,-0.005881377055635675
1746729364826301700,8.7393017578125,-0.028653847554326057,-0.03979483477175236,-0.01527573980144225
1746729364836319500,8.749319580078126,-0.02568564539849758,-0.04416881207227707,-0.010903369936114177
1746729364846336500,8.75933642578125,-0.03934212256819009,-0.03766016083061695,-0.006054085007729008
1746729364856353500,8.769353515625,-0.03561842586994171,-0.033656770408153534,-0.00491771965525113
1746729364866370600,8.77937060546875,-0.02945873419642448,-0.043134208327531814,-0.0028892460349481553
1746729364876387600,8.7893876953125,-0.03561082708537578,-0.04541501274108886,-0.003289844458783045
1746729364886404600,8.799404541015624,-0.0422612248852849,-0.03761573716700077,-0.012283088190946726
1746729364896422700,8.809422607421874,-0.02920008326023817,-0.03812017955780029,-0.0051751010829582805
1746729364906439400,8.819439453125,-0.026821663691103458,-0.03183189306855202,-0.005691407441487536
1746729364916456400,8.82945654296875,-0.03127016753256321,-0.037786417558789254,-0.003478151838807389
1746729364926473700,8.8394736328125,-0.043806408500671384,-0.040938744109869,-0.014400527869490906
1746729364936490500,8.849490478515625,-0.034409050080180165,-0.044970191583037375,0.0015984664388932286
1746729364946507500,8.859507568359374,-0.024414894810318947,-0.04320785808563232,-0.0042277280970942225
1746729364956525600,8.869525634765624,-0.0290396320015192,-0.04785129997730255,-0.004113344469806179
1746729364966542600,8.87954248046875,-0.0229725870475173,-0.04274433222711086,-0.002138254137709737
1746729364976559600,8.8895595703125,-0.03604951076358556,-0.032360300856828686,-0.005768299469444901
1746729364986576600,8.89957666015625,-0.020097908394038674,-0.047157472494244575,-0.0027538926848676053
1746729364996593400,8.909593505859375,-0.014868483307957649,-0.045102878051996226,-0.004441873171273618
1746729365006611700,8.91961181640625,-0.03236965320706367,-0.043650341156125066,-0.007244025444658473
1746729365016628500,8.92962841796875,-0.02928279310762882,-0.0384814140856266,0.0025441497911699116
1746729365026645800,8.939645751953124,-0.023694179320335386,-0.03595218786895275,-0.01838552411873825
1746729365036662500,8.94966259765625,-0.03298515475690365,-0.042380759611725806,-0.014652274140855296
1746729365046679600,8.959679443359375,-0.03433393901735544,-0.04432838654816151,-0.016756963935680685
1746729365056696600,8.969696533203125,-0.02978051349669695,-0.0382113649725914,-0.010656509902421384
1746729365066714600,8.979714599609375,-0.026318098083138463,-0.036872225323319435,-0.00868678073203191
1746729365076731400,8.9897314453125,-0.027303894250094888,-0.046124622315168375,-0.006426324986759573
1746729365086748700,8.999748779296874,-0.027915888668596744,-0.04796060557067394,-0.009446102066198364
1746729365096765400,9.009765380859376,-0.023204934498667715,-0.03985913217961788,-0.017738558851554988
1746729365106782700,9.01978271484375,-0.03128711866736412,-0.0382113649725914,-0.014937867882894352
1746729365116800000,9.029800048828125,-0.02815028194636106,-0.04408931709527969,-0.008528713226644322
1746729365126818000,9.039818115234375,-0.03526771273612976,-0.03987374522686005,-0.004006842754874378
1746729365136835000,9.0498349609375,-0.033682781632244585,-0.0447948350161314,-0.01194421162540093
1746729365146852000,9.05985205078125,-0.03031155163347721,-0.037783494949340815,-0.008904232008149847
1746729365156869000,9.069869140625,-0.033599487262964245,-0.039024434921145434,-0.008457830814365297
1746729365166886100,9.07988623046875,-0.025384616625308987,-0.03482990584075451,0.00803228061236441
1746729365176903000,9.08990283203125,-0.03085311116427183,-0.04352992964684963,-0.007428222905145957
1746729365186921200,9.099921142578125,-0.02003887168318033,-0.0450385806441307,-0.00918397139813751
1746729365196938000,9.10993798828125,-0.027279636591672894,-0.04222060061395168,-0.009618179830629379
1746729365206955000,9.119955078125,-0.024188684839010238,-0.04220715661048889,-0.009817273466149344
1746729365216972000,9.129971923828125,-0.027234043884277342,-0.041187750434875485,0.0000045300446450710295
1746729365226989000,9.139989013671874,-0.01861936027407646,-0.04042144223749637,-0.00043815395524725314
1746729365237005800,9.150005859375,-0.027127660900354383,-0.03798983117640018,0.0006153006204403937
1746729365247024000,9.160024169921876,-0.033409517648816105,-0.04273790248632431,-0.009909052535984664
1746729365257041000,9.170041015625,-0.029869653084874152,-0.044968438017368315,-0.009222787304874509
1746729365267058200,9.18005810546875,-0.032984277974069116,-0.0455745872169733,-0.00008432641574181615
1746729365277075000,9.190074951171875,-0.01722819817662239,-0.04697627070844173,-0.003837495803646743
1746729365287092000,9.200092041015624,-0.026409575758874416,-0.046104748570919035,-0.011044805967109278
1746729365297109200,9.210109130859376,-0.03248421949744224,-0.03639642450511455,-0.007847398165287449
1746729365307127000,9.220126953125,-0.025783845075964925,-0.04181728051006794,-0.007957059951685368
1746729365317144000,9.23014404296875,-0.01696983950138092,-0.047393034815788264,0.004744819906912744
1746729365327161000,9.2401611328125,-0.027629472942650318,-0.03605214111208915,-0.007466344692138954
1746729365337178000,9.25017822265625,-0.031028175470232962,-0.03965630308389664,-0.0092387611921411
1746729365347195100,9.260195068359375,-0.026506314131617543,-0.03821194949448108,-0.011100810470664873
1746729365357212200,9.270212158203124,-0.030133564718067645,-0.04856850833594799,-0.010726478999247774
1746729365367230200,9.280230224609374,-0.030761048966646193,-0.043619946017861365,-0.0029653434784617273
1746729365377247000,9.2902470703125,-0.0314665668874979,-0.04363339002132415,0.000916959581291303
1746729365387264000,9.300263916015625,-0.018308102367818355,-0.041535540959239,0.0001508249138481915
1746729365397281300,9.31028125,-0.025736498802900312,-0.03945464303195476,-0.0027380283954553304
1746729365407298000,9.320298095703125,-0.0384510189473629,-0.03661094403862953,-0.008765334994113073
1746729365417315800,9.33031591796875,-0.025469664560258388,-0.04468085324764252,0.0012845873172860592
1746729365427333000,9.3403330078125,-0.02162614087462425,-0.036735447201132775,-0.0004201799071393907
1746729365437350100,9.35035009765625,-0.033056174166500564,-0.04214928894340992,-0.008210176196228712
1746729365447367000,9.360366943359375,-0.0352133522003889,-0.04497252967059612,-0.0046400443581864235
1746729365457384200,9.37038427734375,-0.03772036658525467,-0.042887540090084074,-0.014317671891627833
1746729365467401000,9.38040087890625,-0.028410686448216437,-0.04050093721449375,-0.008209354212321341
1746729365477419300,9.390419189453125,-0.023837971705198288,-0.040224458360672,0.0010101177574601023
1746729365487436000,9.40043603515625,-0.026102409505844113,-0.03726911568641662,-0.005561908443458378
1746729365497453000,9.410453125,-0.02683598447740078,-0.03802256440222263,-0.004632637369865552
1746729365507470000,9.420469970703126,-0.03180295923501253,-0.04419219294786453,-0.014660347849456593
1746729365517487000,9.430487060546875,-0.04261369158476591,-0.03973404449522495,-0.007387260707095265
1746729365527504000,9.44050390625,-0.029273733018338677,-0.03958966758847236,-0.0013251293902285396
1746729365537522200,9.450522216796875,-0.031815234194695945,-0.03150923698544502,-0.005918722524493932
1746729365547539000,9.4605390625,-0.030180326469242572,-0.03794190038144588,-0.006917816564440727
1746729365557556200,9.47055615234375,-0.027070085494220256,-0.04316986416280269,-0.005829290675371885
1746729365567573000,9.480572998046876,-0.02633914087116718,-0.03747837452292442,-0.007333603424252942
1746729365577590000,9.490590087890626,-0.025275895553827286,-0.041074937710165974,-0.0034609632419887928
1746729365587607000,9.50060693359375,-0.028344635474681853,-0.0529161821514368,-0.006830001283669844
1746729365597625000,9.510625,-0.027713644094765184,-0.03920096053183079,-0.006656453081360087
1746729365607642000,9.52064208984375,-0.016568857485055922,-0.042812136766314506,-0.003462360614631325
1746729365617659100,9.5306591796875,-0.02750993821620941,-0.04131108455359935,-0.005718131051631644
1746729365627676000,9.540676025390624,-0.02920271360874176,-0.0420452440470457,-0.007019267644919455
1746729365637693200,9.550693115234376,-0.02877045967131853,-0.0403939697086811,0.00002497917762957513
1746729365647710200,9.560710205078125,-0.025718963146209715,-0.04276245240569115,-0.008329610457969828
1746729365657728000,9.57072802734375,-0.028555355615913866,-0.03836041805446148,-0.008956455385731532
1746729365667745000,9.5807451171875,-0.02805675844401121,-0.03972060049176216,-0.012025003510341048
1746729365677762000,9.590761962890625,-0.027754560627043245,-0.04365443280935287,-0.0012372045116033404
1746729365687779000,9.600779052734374,-0.021283903308212757,-0.04212532354593277,0.0039433490646071725
1746729365697796000,9.610796142578126,-0.016086919187009333,-0.04903787941336631,0.003447793233161792
1746729365707813000,9.620813232421876,-0.029185470212996004,-0.03978022172451019,0.0004858655544929206
1746729365717831200,9.6308310546875,-0.03425473630130291,-0.03335106545984745,0.002869308358617127
1746729365727848000,9.640847900390625,-0.024002806878089904,-0.04878361239135265,-0.0021150650583673268
1746729365737865000,9.650864990234375,-0.01899491558820009,-0.037923195680975914,-0.00928827202282846
1746729365747882200,9.66088232421875,-0.029281624063849446,-0.04306406570076942,-0.007329566569952294
1746729365757899000,9.67089892578125,-0.024593173986673354,-0.04322656278610229,-0.0017150602895766496
1746729365767916000,9.680916015625,-0.024157997439801692,-0.044720016214251514,-0.006938128700107336
1746729365777934000,9.69093408203125,-0.024491174916923045,-0.05009644855558872,-0.004844206894468516
1746729365787951000,9.700951171875,-0.03637421267330646,-0.04488368234336376,-0.005427450142521411
1746729365797968100,9.710968017578125,-0.02750906143337488,-0.03935585883259773,0.0008751297335606068
1746729365807985200,9.720985107421875,-0.017502923464775083,-0.04582593162953853,0.004250204790383577
1746729365818002000,9.731001953125,-0.022980185832083225,-0.04255260904729366,-0.005557561061903834
1746729365828019200,9.741019287109374,-0.029193945780396458,-0.042379006046056746,-0.008912881105486303
1746729365838037000,9.751037109375,-0.017105156318843365,-0.038629882645606996,0.0006025142041034996
1746729365848054300,9.76105419921875,-0.025467326472699642,-0.042183775734901424,0.003955678823217749
1746729365858071000,9.771071044921875,-0.01790302869826555,-0.03801730370521545,-0.0019399642197880892
1746729365868088000,9.781088134765625,-0.034359950241446495,-0.03936638022661209,-0.01026931894943118
1746729365878105000,9.79110498046875,-0.023665830008685586,-0.044323710373044015,-0.0075461410632357
1746729365888122000,9.8011220703125,-0.021268121217191217,-0.042079730838537215,-0.002248518712306395
1746729365898140000,9.811139892578124,-0.017382511955499648,-0.04327507810294628,-0.004480570347001776
1746729365908157200,9.8211572265625,-0.021281272959709167,-0.04057926314771175,-0.0049440322734415525
1746729365918174000,9.831174072265625,-0.02538140175491571,-0.04430500567257404,-0.00835692772315815
1746729365928191000,9.84119091796875,-0.03653817106336355,-0.046376551249623296,-0.01167893915218301
1746729365938208000,9.8512080078125,-0.023229484418034553,-0.04637421316206455,-0.005731227995222434
1746729365948226000,9.86122607421875,-0.0311681684628129,-0.041432080584764476,0.00028017778140492736
1746729365958243000,9.8712431640625,-0.029072072966396807,-0.043377369433641434,0.001492101721279323
1746729365968260000,9.881260009765626,-0.01931348001807928,-0.03440846555829048,0.000699864498199895
1746729365978276900,9.89127685546875,-0.035359482672810555,-0.036385903111100196,0.000546308771148324
1746729365988294100,9.901294189453125,-0.033223055166006085,-0.03938976110219955,-0.004316292296536266
1746729365998311200,9.911311279296875,-0.03593085281997919,-0.04477320770621299,-0.0005447104691062122
1746729366008329200,9.9213291015625,-0.02108428908288479,-0.03714987322092056,-0.004376954708900303
1746729366018346000,9.931345947265624,-0.021471534834802148,-0.03750818513929844,-0.0018645517628639934
1746729366028363000,9.941363037109374,-0.022538287283480167,-0.03810089033544063,-0.008255869368324056
1746729366038380000,9.951380126953126,-0.019083470654487608,-0.040047932749986644,-0.0009749825119972228
1746729366048397000,9.96139697265625,-0.022134382657706737,-0.04366436968147754,-0.008378454568376765
1746729366058414000,9.9714140625,-0.030391046610474585,-0.04624269573688507,-0.009506024693045765
1746729366068432100,9.98143212890625,-0.019506372241675854,-0.0390916549384594,-0.005459662778535858
1746729366078449000,9.991448974609375,-0.016401976485550404,-0.040321488994359965,-0.004147365470416844
1746729366088466200,10.001466064453124,-0.027924948757886883,-0.042864743736386296,0.0007854604224208742
1746729366098483200,10.011483154296876,-0.019175240591168402,-0.05111585473120212,-0.001224564225738868
1746729366108500000,10.0215,-0.01635726056098938,-0.039437107375264166,0.003977251334208995
1746729366118516200,10.03151611328125,-0.023607085558772084,-0.046236850517988204,-0.0072718085007276384
1746729366128534300,10.0415341796875,-0.02569265966117382,-0.045533086162805554,0.00046806503632105883
1746729366138551300,10.05155126953125,-0.027022154699265954,-0.03741349259316921,-0.013352260925574228
1746729366148568000,10.061568115234374,-0.025479309171438216,-0.04037584953010082,-0.0025070600506383925
1746729366158585300,10.07158544921875,-0.024552549715340138,-0.03963701386153698,-0.00016953874747268854
1746729366168602000,10.08160205078125,-0.02293283955901861,-0.043221302089095116,0.00025907106129452587
1746729366178619400,10.091619384765625,-0.02659282337129116,-0.04559563000500202,-0.0036101350548677145
1746729366188637200,10.10163720703125,-0.02864624876976013,-0.041567689663171765,-0.015450201319204642
1746729366198654200,10.111654296875,-0.02000701524019241,-0.04339548961222171,-0.0017702610755339263
1746729366208671200,10.121671142578125,-0.029619477716088295,-0.04338438369631767,0.0018334716380108147
1746729366218688300,10.131688232421874,-0.03261982857584953,-0.04263444211184978,-0.0023233557804953307
1746729366228705300,10.141705322265626,-0.01888736356049776,-0.03933247795701027,-0.0031941746651194987
1746729366238722300,10.151722412109375,-0.021162030494213103,-0.03722819915413856,-0.004210311171412468
1746729366248740000,10.161739990234375,-0.033335575629770756,-0.041703298741579055,-0.0032496951114851977
1746729366258757400,10.17175732421875,-0.026447861942648886,-0.03822130184471607,-0.002170119713852182
1746729366268774100,10.181774169921875,-0.025749358284473417,-0.04554068494737148,-0.00042832668097689746
1746729366278791200,10.191791259765624,-0.0331003055691719,-0.050023967841267586,0.007632120579946786
1746729366288808400,10.201808349609376,-0.026640169644355772,-0.03944938233494758,-0.0029501824419479817
1746729366298825200,10.2118251953125,-0.027854221609234807,-0.04128244298100471,-0.0065233282209839665
1746729366308843300,10.22184326171875,-0.02159048503935337,-0.04625672426223754,-0.01069681451334618
1746729366318860300,10.2318603515625,-0.018697686207294464,-0.043022564646601674,-0.0034221838678698984
1746729366328877300,10.241877197265625,-0.029210312393307684,-0.03976385511159897,0.004092721806885674
1746729366338894300,10.251894287109375,-0.032298926058411594,-0.0428776032179594,-0.005405576237430796
1746729366348911400,10.261911376953124,-0.027896014924347397,-0.04225391836166382,-0.0008433737552724778
1746729366358928100,10.27192822265625,-0.021612112349271774,-0.041354339173436165,-0.009278965338366106
1746729366368946400,10.281946533203126,-0.024471008911728858,-0.04968728323280811,0.0007709387067239732
1746729366378963200,10.291963134765625,-0.021894436421990394,-0.04296235889196395,-0.009954599577607586
1746729366388980200,10.301980224609375,-0.027103987763822078,-0.04166764290630817,0.002780671093938872
1746729366398997200,10.311997314453125,-0.03366729180216789,-0.051098903596401214,-0.006563532367208972
1746729366409014300,10.32201416015625,-0.024718553932011125,-0.04465688785016537,0.0007460691269487143
1746729366419032300,10.3320322265625,-0.023784487952291964,-0.037786417558789254,-0.0034631734653841704
1746729366429049300,10.34204931640625,-0.024879881973564624,-0.04739186577200889,0.0025377748493105173
1746729366439066000,10.352066162109375,-0.03136953625380993,-0.039486791735887525,-0.0038567850260064003
1746729366449083400,10.36208349609375,-0.027592063541710374,-0.041294133418798444,0.004301368722040206
1746729366459100200,10.37210009765625,-0.025895488756895065,-0.0371177245169878,-0.0008366426203865558
1746729366469117200,10.3821171875,-0.022325229054689404,-0.04179389963448047,-0.006000637787440791
1746729366479135200,10.39213525390625,-0.019537936423718927,-0.04271861326396465,-0.012128838344151153
1746729366489152300,10.40215234375,-0.028784195935726165,-0.04931026661396026,-0.006848011864395812
1746729366499169300,10.412169189453126,-0.02666413504183292,-0.04033785560727119,-0.001939827222470194
1746729366509186300,10.422186279296875,-0.016629355500638484,-0.036407530421018595,-0.0023474947079084813
1746729366519203000,10.432203125,-0.018301672627031803,-0.0437315896987915,0.006199567026179283
1746729366529220400,10.442220458984375,-0.02434358313977718,-0.04999941792190075,-0.006634944502450525
1746729366539238100,10.452238037109375,-0.011088964769244194,-0.04354512721598148,-0.005546884404262527
1746729366549255400,10.46225537109375,-0.029497312641143796,-0.046236850517988204,0.00034175350922159846
1746729366559272200,10.472272216796876,-0.025170681613683698,-0.04743161326050758,0.00044013584977947175
1746729366569289200,10.482289306640626,-0.02406125906705856,-0.046210547032952305,-0.009718233538465574
1746729366579306200,10.49230615234375,-0.023699732278287408,-0.03934592196047306,0.00042766909385100004
1746729366589323300,10.5023232421875,-0.020088263782858846,-0.03710661860108375,-0.002374903304642066
1746729366599341000,10.512341064453125,-0.02234247245043516,-0.04533376419842243,-0.002628969397256151
1746729366609358300,10.5223583984375,-0.024838380919396875,-0.04006663745045662,0.0022156758886296302
1746729366619375000,10.532375,-0.024302958868443966,-0.043937925925850864,0.0001989109724294394
1746729366629392100,10.54239208984375,-0.03169190007597208,-0.04691489591002464,-0.0019126104219816624
1746729366639409400,10.552409423828125,-0.03906768954098224,-0.04256254591941833,-0.00520345039460808
1746729366649426200,10.56242626953125,-0.026279811899363993,-0.04527589653134346,-0.0008131521469447762
1746729366659444200,10.5724443359375,-0.02714607333987951,-0.0419932215988636,-0.0011773092842195182
1746729366669461200,10.582461181640625,-0.023782734386622904,-0.04242050710022449,-0.006625802214769646
1746729366679478300,10.592478271484374,-0.02448620648086071,-0.045831776848435396,-0.006763164858845994
1746729366689495300,10.602495361328126,-0.026589023979008197,-0.04538111047148704,-0.0003031385318841785
1746729366699512300,10.61251220703125,-0.022285773827135563,-0.044622401058673856,-0.0026631273951847104
1746729366709529000,10.622529052734375,-0.026923370499908922,-0.042379006046056746,0.004128094514366239
1746729366719547400,10.63254736328125,-0.026251170326769352,-0.04101064030230045,-0.0060953668661881235
1746729366729564200,10.642564208984375,-0.024992986959218977,-0.03664601535201072,-0.007403298526443541
1746729366739581400,10.65258154296875,-0.015129180070757866,-0.04157879557907581,-0.005642590730544179
1746729366749598200,10.66259814453125,-0.022233751378953455,-0.042754269099235534,-0.0025559954925905913
1746729366759615200,10.672615234375,-0.025611703379452226,-0.041788638937473296,0.0008180475177709013
1746729366769632300,10.68263232421875,-0.01989858642965555,-0.03850362591743469,0.0011649155935272574
1746729366779650300,10.692650390625,-0.027608137893676755,-0.03882335939109325,-0.001369242526590824
1746729366789667300,10.702667236328125,-0.031706805384159084,-0.042889293655753134,-0.007094077313644811
1746729366799684400,10.712684326171875,-0.025887597711384294,-0.04034077821671962,0.000010941519122570752
1746729366809701000,10.722701171875,-0.0345469972461462,-0.041244449058175085,0.0030635888217017053
1746729366819718400,10.732718505859374,-0.03001870616674423,-0.037515783923864364,0.002701806304603815
1746729366829735200,10.742735107421876,-0.027248656931519507,-0.04078676841855049,-0.005074188858596607
1746729366839753200,10.752753173828125,-0.026007716959714888,-0.039410219368338585,0.00009743249248713255
1746729366849770200,10.762770263671875,-0.01842296091914177,-0.0417927305907011,-0.009765351482667028
1746729366859787300,10.772787353515625,-0.021795359961688517,-0.037624504995346066,-0.00024997443938627837
1746729366869804300,10.78280419921875,-0.026800328642129896,-0.03296761910021305,-0.009966226083319634
1746729366879821300,10.7928212890625,-0.027550270226597784,-0.04284253190457821,-0.012626878393627703
1746729366889838300,10.80283837890625,-0.03339841173291206,-0.04373685039579868,0.0010236256930045782
1746729366899856400,10.8128564453125,-0.029568039789795875,-0.0421153866738081,-0.00566041864817962
1746729366909873200,10.822873046875,-0.022116554740071296,-0.0468950221657753,0.006741793277254327
1746729366919890200,10.83289013671875,-0.019337153154611587,-0.04318097007870674,-0.0004846965107135474
1746729366929907200,10.8429072265625,-0.026778701332211493,-0.043833881029486654,0.004317790133878588
1746729366939924200,10.85292431640625,-0.023083938467502594,-0.04086860148310661,-0.008413005291949957
1746729366949941200,10.862941162109376,-0.022420798383653164,-0.04238426674306393,-0.009303286928869784
1746729366959959300,10.872959228515626,-0.029508418557047843,-0.042667759859561914,-0.007572937738616019
1746729366969976000,10.88297607421875,-0.02122106720507145,-0.037598201510310174,0.006831855314038694
1746729366979993300,10.892993408203125,-0.023479075264930725,-0.032848376634716986,-0.0007924564187880605
1746729366990010400,10.90301025390625,-0.025721885755658147,-0.041077860319614405,-0.0012960676925256847
1746729367000027100,10.913027099609375,-0.024283377385139464,-0.03956453314721584,-0.0007015906644053756
1746729367010044400,10.92304443359375,-0.020064298385381697,-0.039081718066334724,-0.0002888086124323308
1746729367020062200,10.933062255859374,-0.021369243504107,-0.04009878615438938,-0.001004153807554394
1746729367030079500,10.94307958984375,-0.018343465942144394,-0.04160509906411171,0.0008551463914569467
1746729367040096300,10.95309619140625,-0.01655541348159313,-0.04448854554593563,0.0020579371768049896
1746729367050113300,10.96311328125,-0.027830548472702502,-0.038787119033932685,-0.01526709983726032
1746729367060130300,10.97313037109375,-0.025613164684176442,-0.04072480909824371,-0.01197561141066253
1746729367070147300,10.983147216796874,-0.02780044559538364,-0.039244215151667594,0.0037625582707580176
1746729367080165000,10.9931650390625,-0.02051788737177849,-0.04455284295380115,-0.00397681294279173
1746729367090182400,11.003182373046876,-0.020082710824906824,-0.033217794468998904,0.0017779694579541682
1746729367100199200,11.01319921875,-0.027419045062363145,-0.04379822519421577,-0.004345244396384805
1746729367110216400,11.023216552734375,-0.023830957442522047,-0.04525310017764568,-0.0021224903129972517
1746729367120233000,11.03323291015625,-0.024185469968616962,-0.04269347882270813,-0.002570928200241178
1746729367130250200,11.043250244140625,-0.02515022334754467,-0.04500234028697014,-0.00479606603696011
1746729367140268000,11.05326806640625,-0.021885668593645095,-0.04892623573243618,-0.001076808051811531
1746729367150285300,11.063285400390624,-0.021145371620357036,-0.0436444959372282,0.0018965726026333868
1746729367160302000,11.073302001953126,-0.029818215158581733,-0.045590953829884526,-0.0033217557006981224
1746729367170319000,11.083319091796875,-0.024108605340123174,-0.04061725707054138,0.005757979004830121
1746729367180336000,11.093336181640625,-0.02745674672424793,-0.04209843553900718,0.00647318720263429
1746729367190353200,11.103353271484375,-0.029656010334193704,-0.03458674473464489,0.0028861224961001424
1746729367200371000,11.113370849609375,-0.02459901920557022,-0.04295709819495678,-0.0005130366892088205
1746729367210388200,11.12338818359375,-0.02139876185953617,-0.04611760805249214,-0.009152525947103276
1746729367220405000,11.133405029296876,-0.029841596034169197,-0.04236030134558678,-0.006751355690043419
1746729367230422300,11.14342236328125,-0.017094927185773847,-0.04476151726841926,-0.0011585680511314422
1746729367240439300,11.153439208984375,-0.022468144656717776,-0.04899813192486763,-0.0003070657883305102
1746729367250456000,11.1634560546875,-0.0229725870475173,-0.037953590819239616,-0.0005883760808967054
1746729367260474000,11.17347412109375,-0.02967792990505695,-0.042000820383429525,-0.0006896718977484851
1746729367270491100,11.1834912109375,-0.023625497998297215,-0.050101124730706215,-0.0048942109155002975
1746729367280508200,11.193508056640624,-0.02239654072523117,-0.05164952321648597,-0.0018103190912865102
1746729367290525200,11.203525146484376,-0.02741056949496269,-0.04108955075740814,-0.00945617593564093
1746729367300542200,11.213542236328125,-0.024817922653257846,-0.042750177446007724,-0.0011512615275103598
1746729367310559000,11.22355908203125,-0.02220218719691038,-0.04197860855162144,-0.006569368452951312
1746729367320577000,11.233576904296875,-0.021594284431636333,-0.04257891253232956,-0.003033714273246005
1746729367330594000,11.243593994140625,-0.017810089717805386,-0.03810147485733032,-0.005538043510681018
1746729367340611300,11.253611328125,-0.01959317374229431,-0.035410920599102974,-0.0034748547700233757
1746729367350628000,11.263628173828126,-0.014491758950054645,-0.04125321688652038,-0.0094693002786953
1746729367360645000,11.27364501953125,-0.028195874653756618,-0.03868541222512722,-0.0069732730787247415
1746729367370663200,11.2836630859375,-0.01873714143484831,-0.04512801249325275,-0.0058882177883759134
1746729367380680200,11.29368017578125,-0.017303893761336803,-0.05308335541188717,-0.013956967086764051
1746729367390697200,11.303697265625,-0.028620822067558765,-0.04576747944056987,-0.00011353424391709267
1746729367400714200,11.31371435546875,-0.026643384514749048,-0.038487259304523465,0.0014136753233615308
1746729367410731000,11.32373095703125,-0.023671675227582453,-0.036577626290917396,-0.003003638795390725
1746729367420748300,11.333748291015626,-0.026425357849895952,-0.04139233309626579,-0.00670825633383356
1746729367430766000,11.34376611328125,-0.021441139696538446,-0.049936874079704284,-0.008940390166919677
1746729367440783000,11.353783203125,-0.03201251033246517,-0.034946225696802134,-0.0009211973649915307
1746729367450800000,11.363800048828125,-0.015661971773207186,-0.036111762344837185,-0.0013512958779465407
1746729367460817200,11.373817138671875,-0.02937777791470289,-0.05108955124616622,0.0033156090877018867
1746729367470834200,11.383834228515624,-0.043346097512543195,-0.048532267978787416,0.00158959814584814
1746729367480851200,11.393851318359374,-0.029514848297834396,-0.04271510613262653,-0.004353637765394523
1746729367490869000,11.403868896484376,-0.02846767733246088,-0.04006605292856693,-0.003951687634689733
1746729367500886300,11.41388623046875,-0.026195933008193967,-0.04905073889493942,0.0013340616153553128
1746729367510903000,11.423903076171875,-0.029766192710399625,-0.0463631072461605,-0.007325073057925328
1746729367520920000,11.433920166015625,-0.025359189923107622,-0.04249123424887657,-0.00026787542225793
1746729367530937000,11.44393701171875,-0.025125088906288146,-0.04786123684942722,-0.005163027052674443
1746729367540954000,11.4539541015625,-0.037407062852382655,-0.04351765468716621,-0.003149714468885213
1746729367550972200,11.46397216796875,-0.03475041086375713,-0.045944005051255225,-0.00874723308184184
1746729367560989200,11.4739892578125,-0.024834581527113913,-0.05153554144799709,-0.0028048556871246547
1746729367571006000,11.484005859375,-0.017717735259234903,-0.05485211865007877,-0.00641766675626859
1746729367581023200,11.494023193359375,-0.03139963913112879,-0.04619651850759983,-0.010123142811236902
1746729367591040300,11.504040283203125,-0.027029461222887036,-0.04201367986500263,-0.005821399629861116
1746729367601057000,11.51405712890625,-0.028058219748735427,-0.04261573741137981,-0.0071670512183103705
1746729367611075000,11.524074951171874,-0.030674539726972577,-0.04458265357017517,-0.0015817984318826346
1746729367621092000,11.534092041015626,-0.030569910308718678,-0.045808980494737625,-0.006630679319286718
1746729367631109000,11.544109130859376,-0.03836275614202022,-0.04584989702701568,-0.00014095197380520404
1746729367641126100,11.554126220703125,-0.022476912485063075,-0.04331248750388622,-0.014479045598953962
1746729367651143200,11.56414306640625,-0.0239244809448719,-0.0494610732614994,-0.006356319357315078
1746729367661160200,11.57416015625,-0.023566461287438868,-0.0512736756414175,-0.00936787659768015
1746729367671178000,11.584177978515624,-0.030421149487793443,-0.04375964674949646,-0.0021675532974302766
1746729367681195300,11.5941953125,-0.02883183446973562,-0.03371756068468094,-0.0035366862261667843
1746729367691212300,11.60421240234375,-0.022316461226344106,-0.05124620311260223,-0.0020679836467839777
1746729367701229000,11.61422900390625,-0.025062252803146837,-0.05138064314723015,-0.0019835567663423715
1746729367711246300,11.624246337890625,-0.028826866033673286,-0.03779927704036236,-0.003533772749872878
1746729367721263000,11.63426318359375,-0.02440466567724943,-0.04406535169780254,-0.0009042096975725144
1746729367731281200,11.64428125,-0.023920389291644095,-0.04666121340990066,-0.0017622512990143149
1746729367741298200,11.654298095703124,-0.03384147932529449,-0.0414092842310667,-0.0030128724146168675
1746729367751315200,11.664315185546876,-0.028216332919895646,-0.04393734140396118,-0.009827648729691281
1746729367761332000,11.67433203125,-0.02215221057534218,-0.04754968668222427,0.003366371160559356
1746729367771349200,11.684349365234375,-0.013218670274317263,-0.045185295638442036,0.0013713066195137798
1746729367781366000,11.694365966796875,-0.016895312960445878,-0.036974516654014584,-0.00006585004413500427
1746729367791384300,11.70438427734375,-0.020303952360153196,-0.043266894796490665,-0.010593774263979866
1746729367801401000,11.714401123046875,-0.026212591882050038,-0.04249883303344249,-0.016172186317667363
1746729367811418000,11.724418212890624,-0.0294993584677577,-0.042242812445759774,0.002772980977827683
1746729367821435100,11.73443505859375,-0.018338497506082057,-0.042267946887016294,0.0065182227876037354
1746729367831452200,11.7444521484375,-0.024300328519940375,-0.04077800059020519,-0.0038264538198243825
1746729367841469000,11.754468994140625,-0.022435119169950484,-0.04419628460109234,-0.0075169971671421075
1746729367851487200,11.7644873046875,-0.02435498131662607,-0.0424070630967617,-0.009171203248109668
1746729367861504000,11.77450390625,-0.01685994938611984,-0.03339081294834614,-0.0033199016703292727
1746729367871521300,11.784521240234374,-0.017348317424952985,-0.036222821503877636,0.006846103035099804
1746729367881538000,11.7945380859375,-0.023754969596862793,-0.046855859199166294,-0.00010715930205769836
1746729367891555000,11.80455517578125,-0.028768998366594314,-0.04238660483062267,-0.012596839448390528
1746729367901572400,11.814572265625,-0.023535189366340636,-0.04452361685931682,-0.00439411590625532
1746729367911590100,11.824590087890625,-0.022931378254294393,-0.042727381092309946,-0.009031822176882996
