time,seconds_elapsed,z,y,x
1746728588016311600,0.0163115234375,-0.0009566498920321465,-0.0010778587311506271,0.001426747883670032
1746728588026330600,0.02633056640625,0.0019211617764085531,-0.00024508824571967125,-0.0021695848554372787
1746728588036349700,0.036349609375,0.0001344829797744751,0.001759564969688654,0.0004533559549599886
1746728588046368800,0.04636865234375,0.001894565997645259,0.0015646214596927166,-0.0030084869358688593
1746728588056387600,0.0563876953125,0.00037752510979771614,0.00030802609398961067,-0.0017014672048389912
1746728588066406700,0.06640673828125,-0.0009932038374245167,0.00040150294080376625,-0.000303041422739625
1746728588076425700,0.07642578125,-0.003527224063873291,-0.00002917228266596794,-0.0009591781999915838
1746728588086445800,0.08644580078125,0.00003049289807677269,0.0002238280139863491,-0.0010883414652198553
1746728588096465000,0.09646484375,-0.0018995394930243492,-0.0011312798596918583,0.0017287502996623516
1746728588106483700,0.106483642578125,0.000003821682184934616,0.0029697222635149956,0.002203059382736683
1746728588116502800,0.116502685546875,0.0004341835156083107,0.001780511811375618,0.005131072364747524
1746728588126521900,0.12652197265625,-0.0015759700909256935,0.0005187061615288258,0.002557659987360239
1746728588136540700,0.136540771484375,-0.0020156381651759148,0.0003133281134068966,-0.0018545989878475666
1746728588146559700,0.146559814453125,-0.0015202900394797325,-0.00017669377848505974,-0.003852768801152706
1746728588156578800,0.156578857421875,-0.0022709700278937817,0.0013603484258055687,-0.0006648784037679434
1746728588166598000,0.166597900390625,0.0009418674744665623,0.0008080084808170795,-0.001897655427455902
1746728588176616700,0.17661669921875,-0.0008183266036212444,-0.0011525442823767662,0.0007609451422467828
1746728588186635800,0.1866357421875,0.002139912685379386,-0.0010361643508076668,0.0018115622224286199
1746728588196654800,0.19665478515625,0.0005665691569447517,0.0018724598921835423,0.00294602126814425
1746728588206674700,0.2066748046875,0.00046803196892142296,-0.00015447242185473442,0.0036166051868349314
1746728588216693800,0.21669384765625,0.000016322825103998184,-0.000601496547460556,0.00010703154839575291
1746728588226712600,0.226712646484375,0.00048663699999451637,0.0012443405576050282,-0.0020421394146978855
1746728588236731600,0.236731689453125,0.0017017265781760216,0.0013948059640824795,-0.0007303860038518906
1746728588246750700,0.246750732421875,-0.002143078949302435,-0.0029027368873357773,-0.00263800797984004
1746728588256769500,0.25676953125,0.00012471992522478104,0.0012800740078091621,-0.001153056276962161
1746728588266788600,0.26678857421875,0.00020807702094316483,-0.00042834365740418434,0.00016547483392059803
1746728588276807700,0.2768076171875,-0.0027839690446853638,0.0013476484455168247,0.0014941524714231491
1746728588286826800,0.28682666015625,0.0017031908500939608,0.0024693715386092663,0.00007042661309242249
1746728588296845600,0.296845458984375,-0.0014885319396853447,-0.0007672179490327835,-0.0009081324096769094
1746728588306864600,0.30686474609375,-0.0008925166912376881,-0.0009762761183083057,0.002332401927560568
1746728588316884700,0.316884765625,0.0010688474867492914,0.0018676947802305222,-0.0021294245962053537
1746728588326903800,0.32690380859375,0.00042116688564419746,0.0009520999155938625,0.0008828768040984869
1746728588336922600,0.336922607421875,0.0002744048833847046,0.000701091717928648,-0.0019739088602364063
1746728588346941700,0.346941650390625,0.001512774731963873,-0.000008907169103622437,-0.003174728248268366
1746728588356960300,0.356960205078125,0.00037843454629182816,0.0012755794450640678,-0.0008460474200546741
1746728588366979300,0.366979248046875,0.000052463728934526443,0.00012083305045962334,0.0005236163269728422
1746728588376998100,0.376998046875,0.0009150558616966009,-0.0005202800966799259,0.000017402926459908485
1746728588387017200,0.387017333984375,0.00003994116559624672,0.00018572388216853142,-0.00045104697346687317
1746728588397036300,0.397036376953125,0.0007126778364181519,-0.0017912955954670906,-0.0008899960666894913
1746728588407055000,0.40705517578125,0.003120974637567997,-0.0013489443808794022,0.0005984448362141848
1746728588417074200,0.41707421875,-0.000536471139639616,-0.0008872458711266518,-0.00022421195171773434
1746728588427094300,0.42709423828125,-0.00030371081084012985,-0.0011572903022170067,-0.0018431474454700947
1746728588437113300,0.43711328125,-0.00020748469978570938,-0.0014593005180358887,-0.0011076484806835651
1746728588447132400,0.44713232421875,0.00016402592882514,0.0008344803936779499,-0.001508454093709588
1746728588457151200,0.457151123046875,-0.0009611682035028934,-0.0003616008907556534,0.0005899225361645222
1746728588467170300,0.46717041015625,0.0011307450477033854,0.002148960717022419,0.002235756255686283
1746728588477189400,0.477189453125,-0.002761674113571644,0.001596985850483179,-0.00010433024726808071
1746728588487208400,0.48720849609375,0.0005033612251281738,-0.0009346152655780315,0.0002994048409163952
1746728588497227300,0.497227294921875,-0.0005881190299987793,0.0011436478234827518,0.0009541107574477792
1746728588507246300,0.507246337890625,-0.00006693834438920021,0.001385995652526617,-0.0028898960445076227
1746728588517265400,0.517265380859375,-0.000962540041655302,0.0027601104229688644,-0.00240033445879817
1746728588527284200,0.5272841796875,0.0011181877925992012,0.000756880734115839,-0.0009363950230181217
1746728588537303300,0.53730322265625,-0.002159006893634796,0.001935747917741537,-0.0007464250084012747
1746728588547323100,0.5473232421875,0.0002911011688411236,-0.0023902906104922295,0.0021074186079204082
1746728588557342200,0.55734228515625,0.0009485972113907337,0.002002846449613571,0.00025939755141735077
1746728588567361300,0.567361328125,0.00037681683897972107,-0.002332247095182538,0.0006024125032126904
1746728588577380000,0.577380126953125,-0.000583374872803688,-0.0004255184903740883,-0.0026754059363156557
1746728588587399200,0.587399169921875,-0.00136208301410079,-0.0011331201530992985,-0.0029457167256623507
1746728588597418200,0.597418212890625,0.0010854112915694714,0.00010198168456554413,0.001665920135565102
1746728588607437300,0.607437255859375,0.0009328119922429323,-0.0020306778606027365,-0.001400443259626627
1746728588617456000,0.6174560546875,-0.0008888044394552708,0.002170718275010586,0.00016989163123071194
1746728588627475200,0.62747509765625,0.0007298649288713932,0.0002780095674097538,-0.0005004261620342731
1746728588637494300,0.637494384765625,0.0020703303162008524,0.0005388385616242886,0.0012422017753124237
1746728588647513000,0.64751318359375,0.0020471608731895685,-0.0035957188811153173,0.001296530244871974
1746728588657532200,0.6575322265625,0.00040929391980171204,0.00008020643144845963,0.004205251112580299
1746728588667552300,0.66755224609375,-0.001984887756407261,0.0017918199300765991,0.0004469980485737324
1746728588677571300,0.6775712890625,-0.0010430766269564629,-0.00019326340407133102,0.0007172897458076477
1746728588687590400,0.68759033203125,-0.0009032604284584522,-0.0007064547389745712,0.0024954823311418295
1746728588697609200,0.697609130859375,-0.000986036378890276,0.0004550800658762455,0.000706888735294342
1746728588707628300,0.707628173828125,-0.0003490084782242775,-0.00039659906178712845,0.00013910280540585518
1746728588717647400,0.7176474609375,0.0004885364323854446,0.0007426543161273003,0.0002972576767206192
1746728588727666200,0.727666259765625,-0.0018411967903375626,0.0007136259227991104,0.000609113834798336
1746728588737685200,0.737685302734375,-0.0014872676692903042,0.0013283239677548409,0.001643504947423935
1746728588747704300,0.747704345703125,0.0010328816715627909,0.0004787752404808998,0.0033876090310513973
1746728588757723400,0.757723388671875,0.0019724362064152956,-0.00013656029477715492,0.00015208055265247822
1746728588767742200,0.7677421875,0.00016308482736349106,0.0012951549142599106,0.00045701232738792896
1746728588777762000,0.777761962890625,0.0007566791027784348,0.0003524255007505417,0.000049706315621733665
1746728588787781000,0.787781005859375,0.0018648204859346151,0.001987873110920191,-0.004137315321713686
1746728588797800200,0.79780029296875,0.0004020766355097294,-0.0030080608557909727,-0.003822710132226348
1746728588807819300,0.8078193359375,0.0003075343556702137,0.0010247640311717987,-0.0009347782470285892
1746728588817838000,0.817838134765625,0.00020236289128661156,0.002207308541983366,0.0018166403751820326
1746728588827857200,0.827857177734375,0.0006662853993475437,-0.00036450615152716637,-0.0005109624471515417
1746728588837876200,0.837876220703125,-0.00010110391303896904,0.0008028489537537098,-0.0010422507766634226
1746728588847895000,0.84789501953125,-0.00277039036154747,-0.0010232804343104362,-0.0009722097311168909
1746728588857914000,0.8579140625,-0.0001135380007326603,-0.0012383060529828072,0.000785904354415834
1746728588867933200,0.86793310546875,-0.0029838928021490574,-0.0016942392103374004,0.0010841783368960023
1746728588877952300,0.8779521484375,0.0021382763516157866,-0.0006653359159827232,-0.0023387433029711246
1746728588887971000,0.88797119140625,-0.0003302074037492275,-0.0006988914683461189,-0.00038052117452025414
1746728588897990100,0.897990234375,0.0020948827732354403,0.0016733407974243164,-0.001067856326699257
1746728588908010200,0.90801025390625,-0.0008790693245828152,0.0006128698587417603,0.0007055425085127354
1746728588918029300,0.918029296875,0.0009337125811725855,-0.0008077789098024368,0.0003439935389906168
1746728588928048400,0.92804833984375,-0.0009046676568686962,0.0019480600021779537,-0.0002088786568492651
1746728588938067200,0.938067138671875,-0.0015080361627042294,0.0009365538135170937,0.0034308875910937786
1746728588948086300,0.948086181640625,0.001163646811619401,0.00021164165809750557,0.0014961011474952102
1746728588958105300,0.958105224609375,0.00035788584500551224,0.0022997804917395115,0.00014542159624397755
1746728588968124200,0.968124267578125,-0.0008168346248567104,0.0006622024811804295,0.00015181326307356358
1746728588978143200,0.978143310546875,0.00039007049053907394,0.00024583935737609863,-0.00016450253315269947
1746728588988162300,0.988162353515625,0.0005450667813420296,0.0016416022554039955,-0.0011818299535661936
1746728588998181400,0.998181396484375,0.00023672031238675117,0.0010006632655858994,0.00036208145320415497
1746728589008200200,1.0082001953125,0.00009663775563240051,-0.0029392174910753965,0.0018579791067168117
1746728589018219300,1.01821923828125,0.00162051385268569,-0.00035340292379260063,0.000023252330720424652
1746728589028238300,1.02823828125,-0.0019039134494960308,-0.0020359880290925503,0.004431316629052162
1746728589038258400,1.038258544921875,0.0007048868574202061,-0.00013744225725531578,-0.0002286285161972046
1746728589048277200,1.04827734375,0.0019011786207556725,-0.000942516140639782,-0.0006808333564549685
1746728589058296300,1.05829638671875,-0.0008048084564507008,0.0009130467660725117,-0.0004583669360727072
1746728589068315400,1.0683154296875,0.0007342323660850525,0.0008371463045477867,-0.00019178446382284164
1746728589078334200,1.078334228515625,0.0002808435820043087,-0.0015313606709241867,-0.00024508056230843067
1746728589088353300,1.088353271484375,0.0008728643879294395,0.0030111931264400482,-0.00007197516970336437
1746728589098372000,1.0983720703125,0.0010035289451479912,0.0005289926193654537,-0.00003531016409397125
1746728589108391200,1.10839111328125,0.00021949457004666328,0.0002597467973828316,0.0011577859986573458
1746728589118410200,1.11841015625,-0.0008707954548299313,0.0006993496790528297,0.0010574448388069868
1746728589128429000,1.128428955078125,0.00023201946169137955,-0.0009078681468963623,0.0005029747262597084
1746728589138448100,1.1384482421875,-0.0013054432347416878,-0.0017785094678401947,-0.0008261932525783777
1746728589148467200,1.14846728515625,-0.0020905430428683758,-0.00019659148529171944,-0.002715705893933773
1746728589158486300,1.158486328125,0.0010134563781321049,0.0006838408298790455,-0.0007604674901813269
1746728589168506000,1.168506103515625,-0.0002669915556907654,-0.0017636041156947613,-0.0009410297498106956
1746728589178525200,1.178525146484375,-0.0009430497884750366,-0.0005244296044111252,-0.0005114295054227114
1746728589188544300,1.188544189453125,0.0007677651010453701,0.0014287326484918594,0.0002885840367525816
1746728589198563300,1.198563232421875,0.0003263326361775398,0.000014146324247121811,-0.000574920792132616
1746728589208582100,1.20858203125,0.00020728958770632744,0.0025540036149322987,-0.0011056887451559305
1746728589218601200,1.218601318359375,0.0017399471253156662,-0.00026061059907078743,0.0005019346717745066
1746728589228620300,1.228620361328125,-0.0016108420677483082,-0.000646502710878849,0.0012114007258787751
1746728589238639400,1.238639404296875,0.0004768259823322296,-0.0007928870618343353,0.0026846693363040686
1746728589248658200,1.248658203125,0.001067515229806304,0.000752545427531004,0.0001165829598903656
1746728589258677200,1.25867724609375,0.001265091821551323,-0.0008797217160463333,-0.0001414355356246233
1746728589268696300,1.2686962890625,-0.0018675844185054302,-0.0011345865204930305,0.0009302204707637429
1746728589278715400,1.27871533203125,0.0015128303784877062,0.0009633759036660194,-0.0007033101283013821
1746728589288734200,1.288734130859375,-0.0013740360736846924,0.0007282188162207603,-0.00005616201087832451
1746728589298754300,1.29875439453125,-0.0007321080192923546,0.0015838705003261566,-0.0014052011538296938
1746728589308773400,1.3087734375,-0.00009827595204114914,-0.0010475991293787956,0.0004390380345284939
1746728589318792400,1.31879248046875,-0.0009835767559707165,0.0003942502662539482,0.001774625270627439
1746728589328811300,1.328811279296875,0.0021379145327955484,0.0012957300059497356,-0.0004906596150249243
1746728589338830300,1.338830322265625,0.0016185713466256857,-0.00035598501563072205,-0.0011654975824058056
1746728589348849400,1.348849365234375,-0.001019023358821869,-0.0007320237345993519,0.0010334745747968554
1746728589358868500,1.358868408203125,0.000993551453575492,-0.0017959466204047203,0.00021397997625172138
1746728589368887600,1.368887451171875,-0.0008056801743805408,0.0006491015665233135,0.0014667309587821364
1746728589378906400,1.37890625,-0.0004993644542992115,0.0018993779085576534,0.0006115366704761982
1746728589388925400,1.388925537109375,-0.0014876634813845158,0.0007190648466348648,-0.0020705328788608313
1746728589398944300,1.3989443359375,0.0021212033461779356,-0.0015985271893441677,-0.003049300517886877
1746728589408963300,1.40896337890625,0.00025912094861268997,-0.0004517701454460621,-0.0021092044189572334
1746728589418982100,1.418982177734375,-0.0007160897366702557,-0.0008751694113016129,-0.0013209206517785788
1746728589429002200,1.429002197265625,-0.0028801742009818554,0.004062064457684755,-0.00003807595930993557
1746728589439021300,1.439021240234375,0.00013374816626310349,0.001504578161984682,0.0036421227268874645
1746728589449040400,1.449040283203125,0.0016634680796414614,-0.0003838692791759968,0.0008479341631755233
1746728589459059500,1.4590595703125,0.0003114808350801468,-0.0010119033977389336,0.0014736776938661933
1746728589469078300,1.469078369140625,-0.00156471598893404,-0.001225222833454609,0.0002651351969689131
1746728589479097300,1.479097412109375,0.00019048573449254036,-0.0018901401199400425,-0.0011110070627182722
1746728589489116400,1.489116455078125,-0.0009661251679062843,0.0016063242219388485,0.0008762438083067536
1746728589499135500,1.499135498046875,-0.0021944232285022736,-0.0013241344131529331,-0.00052599236369133
1746728589509154300,1.509154296875,-0.0004995875060558319,-0.00043650297448039055,0.0014828300336375833
1746728589519173400,1.51917333984375,-0.0005789976567029953,-0.0016368748620152473,0.0007853551069274545
1746728589529192400,1.5291923828125,0.0005829394795000553,-0.0007622926495969296,0.0005065221339464188
1746728589539211300,1.539211181640625,0.0016599753871560097,-0.0011461111716926098,0.0038196388632059097
1746728589549230300,1.549230224609375,-0.0005030441097915173,0.0038339998573064804,0.0005580654833465815
1746728589559250400,1.55925048828125,0.0011315078008919954,0.00009466288611292839,0.0014232916291803122
1746728589569269500,1.56926953125,0.00016291625797748566,-0.00022038910537958145,-0.0010486545506864786
1746728589579288600,1.57928857421875,0.0010684290900826454,-0.0013558072969317436,-0.0017613314557820559
1746728589589307400,1.589307373046875,-0.000402168370783329,0.0021110964007675648,0.003123971400782466
1746728589599326500,1.599326416015625,0.0010495779570192099,0.00197555311024189,0.0002286930102854967
1746728589609345500,1.609345458984375,0.0007989746518433094,0.0018735537305474281,-0.0009710609447211027
1746728589619364400,1.6193642578125,-0.0008639441803097725,0.00017980113625526428,0.0016243355348706245
1746728589629383400,1.629383544921875,-0.0009137457236647606,0.0027729212306439877,0.00033216970041394234
1746728589639402500,1.639402587890625,0.0017512289341539145,0.0005549672059714794,0.002124157501384616
1746728589649421600,1.649421630859375,-0.00035586394369602203,0.00030915718525648117,0.000603758729994297
1746728589659440400,1.6594404296875,-0.0009266603738069534,0.0004104296676814556,0.000741568161174655
1746728589669459500,1.66945947265625,-0.0009317202493548393,0.0013358783908188343,0.003333090106025338
1746728589679478500,1.679478515625,-0.00045876670628786087,0.00008384231477975845,0.001732747768983245
1746728589689497300,1.689497314453125,0.00047094281762838364,0.00005880836397409439,0.0014315443113446236
1746728589699517400,1.699517333984375,-0.0005085435695946217,-0.00043985946103930473,-0.0004198942333459854
1746728589709536300,1.709536376953125,0.0009767012670636177,0.0003862529993057251,0.0017609683563932776
1746728589719555300,1.719555419921875,-0.0006660297513008118,0.0005074366927146912,0.00042477715760469437
1746728589729574400,1.729574462890625,0.0005544968880712986,0.0006525786593556404,0.001209078123793006
1746728589739593200,1.73959326171875,-0.00023895734921097755,0.0022305073216557503,0.0017702665645629168
1746728589749612300,1.7496123046875,0.0018130082171410322,-0.0013711517676711082,-0.0013240601401776075
1746728589759631400,1.75963134765625,0.0020207371562719345,-0.0022045979276299477,-0.0020334580913186073
1746728589769650400,1.769650390625,-0.0013380413874983788,-0.001629621721804142,-0.0010456917807459831
1746728589779669200,1.779669189453125,-0.00033130915835499763,-0.00030747801065444946,-0.0007057006005197763
1746728589789688300,1.789688232421875,0.0025220017414540052,0.0003165006637573242,0.0009084413759410381
1746728589799707400,1.799707275390625,0.000704541802406311,0.0019327057525515556,-0.001000070245936513
1746728589809726500,1.8097265625,-0.001955956220626831,0.0018972856923937798,0.00316271698102355
1746728589819745300,1.819745361328125,0.00004159146919846535,-0.0015524346381425858,-0.001540153520181775
1746728589829764400,1.829764404296875,-0.00026094354689121246,-0.0002251151017844677,0.0008156788535416126
1746728589839784400,1.839784423828125,-0.0008308282122015953,0.00008810777217149734,-0.0027280161157250404
1746728589849803500,1.849803466796875,-0.0012750434689223766,0.0002433699555695057,-0.0007634020876139402
1746728589859822300,1.859822265625,-0.0014989194460213184,-0.0025560478679835796,0.0015084483893588185
1746728589869841400,1.86984130859375,0.0008438634686172009,-0.0022106359247118235,-0.0019760318100452423
1746728589879860500,1.879860595703125,-0.0006280699744820595,-0.0009092297405004501,0.000016907230019569397
1746728589889879600,1.889879638671875,-0.0028869635425508022,-0.0020210996735841036,-0.0001897541806101799
1746728589899898400,1.8998984375,-0.00035364413633942604,0.00019665947183966637,-0.0013053736183792353
1746728589909917400,1.90991748046875,-0.0001741470769047737,-0.0011311927810311317,-0.00026620831340551376
1746728589919936500,1.9199365234375,-0.0001112399622797966,-0.0019589359872043133,0.0012463874882087111
1746728589929955600,1.92995556640625,0.0004640030674636364,0.00037319399416446686,-0.00013126572594046593
1746728589939974400,1.939974365234375,0.000043454114347696304,-0.0005813636817038059,-0.0005599982105195522
1746728589949993500,1.949993408203125,0.0007694317027926445,0.002021077089011669,-0.0020670811645686626
1746728589960012500,1.960012451171875,-0.0009749559685587883,0.00013594282791018486,-0.0003790485206991434
1746728589970031400,1.97003125,-0.0014727008529007435,-0.0010848501697182655,0.002632720395922661
1746728589980051200,1.98005126953125,0.0007771276868879795,-0.002995057962834835,-0.000034629134461283684
1746728589990070300,1.9900703125,-0.0008668415248394012,-0.000034421682357788086,-0.00008150073699653149
1746728590000089300,2.00008935546875,0.002549506491050124,-0.0003463970497250557,0.00022422336041927338
1746728590010108400,2.0101083984375,0.0008876938372850418,-0.0006318879313766956,-0.00136808049865067
1746728590020127200,2.020127197265625,-0.0008092522621154785,-0.0008284836076200008,0.0007566250860691071
1746728590030146300,2.030146240234375,-0.0011448105797171593,-0.0008947961032390594,-0.0010572539176791906
1746728590040165400,2.040165283203125,-0.0015271478332579136,-0.000653174240142107,-0.0007191237527877092
1746728590050184400,2.050184326171875,0.0010377424769103527,-0.002020707353949547,0.0000958035234361887
1746728590060203300,2.060203369140625,-0.004059610888361931,-0.0008262465707957745,0.0012403562432155013
1746728590070222300,2.070222412109375,-0.000629193615168333,0.0005876254290342331,-0.0009908401407301426
1746728590080241400,2.080241455078125,0.0005221324972808361,0.0008610524237155914,-0.0005155815742909908
1746728590090260200,2.09026025390625,-0.0015705795958638191,0.0026333858259022236,0.0003342332784086466
1746728590100279300,2.100279296875,0.002265769988298416,0.00018481677398085594,-0.0017591249197721481
1746728590110298400,2.11029833984375,0.0014700174797326326,0.0008532702922821045,0.0003961713518947363
1746728590120317400,2.1203173828125,0.0014970116317272186,-0.0015670848079025745,-0.0007463335059583187
1746728590130337500,2.130337646484375,0.0018916921690106392,0.00036423932760953903,0.002358912257477641
1746728590140356400,2.1403564453125,0.0007382049225270748,-0.0004909802228212357,0.0010158057557418942
1746728590150375400,2.15037548828125,0.0005160975269973278,-0.0005911150947213173,0.002066156594082713
1746728590160394500,2.16039453125,0.0002405485138297081,0.0009661992080509663,0.0015448532067239285
1746728590170413600,2.17041357421875,-0.0011671981774270535,0.0008146651089191437,-0.0006405366584658623
1746728590180432400,2.180432373046875,0.0007764226756989956,0.0006468943320214748,-0.000203652773052454
1746728590190451500,2.190451416015625,0.0009314189665019512,0.0020149596966803074,0.0018451170763000846
1746728590200470500,2.200470458984375,-0.0009009474888443947,0.00024237297475337982,0.0019350775983184576
1746728590210489300,2.2104892578125,-0.0006391587667167187,0.0015566428191959858,0.0020517241209745407
1746728590220508400,2.22050830078125,-0.001435479149222374,-0.00086255744099617,-0.0007448224350810051
1746728590230527500,2.230527587890625,-0.0008466541767120361,-0.001961910165846348,-0.001797569915652275
1746728590240546600,2.240546630859375,-0.0007101185619831085,-0.0010896530002355576,0.0006607992108911276
1746728590250565400,2.2505654296875,0.001540785189718008,-0.0014571691863238811,-0.0004966107662767172
1746728590260584400,2.26058447265625,0.0005825706757605076,-0.002341621555387974,0.0014244037447497249
1746728590270603500,2.270603515625,0.0009527497459203005,-0.0005751466378569603,-0.0009569949470460415
1746728590280623400,2.280623291015625,-0.000550874974578619,-0.0011166715994477272,0.0011074745561927557
1746728590290642200,2.29064208984375,0.0017325193621218204,-0.0013054898008704185,-0.00041185878217220306
1746728590300661200,2.3006611328125,-0.000008924398571252823,-0.00015585590153932571,0.0019069308182224631
1746728590310680300,2.310680419921875,0.0011386314872652292,0.0002894247882068157,-0.0009011062793433666
1746728590320699400,2.320699462890625,-0.0020364797674119473,0.0009051645174622536,-0.0002620967570692301
1746728590330718200,2.33071826171875,0.00009538047015666962,0.001066285651177168,-0.002101275837048888
1746728590340737300,2.3407373046875,-0.0003421925939619541,0.0012022033333778381,-0.0018261338118463755
1746728590350756400,2.35075634765625,-0.00005883257836103439,-0.0016279378905892372,-0.000930246664211154
1746728590360775200,2.360775146484375,0.000927007757127285,-0.0010063834488391876,-0.0016761240549385548
1746728590370794200,2.370794189453125,-0.000024273525923490524,0.000685522798448801,0.0025500464253127575
1746728590380813300,2.380813232421875,0.0017745313234627247,0.0010130824521183968,-0.0009049840737134218
1746728590390832000,2.39083203125,0.0006474815309047699,0.0008024261333048344,0.00004709605127573013
1746728590400851200,2.400851318359375,-0.0008422238752245903,0.0005578710697591305,0.001815378782339394
1746728590410870300,2.410870361328125,-0.0016992292366921902,-0.0015894356183707714,-0.001567634753882885
1746728590420889300,2.420889404296875,-0.0006833216175436974,-0.0020673463586717844,0.0017402840312570333
1746728590430908200,2.430908203125,0.0005979249253869057,0.0006919549778103828,0.002188760321587324
1746728590440927200,2.44092724609375,0.0011060172691941261,-0.0011801202781498432,0.002921919571235776
1746728590450947300,2.450947265625,-0.0006175804883241653,-0.00018143467605113983,0.0009208202827721834
1746728590460966400,2.46096630859375,0.000054409727454185486,-0.00005835574120283127,0.0018422713037580252
1746728590470985500,2.4709853515625,-0.0000585080124437809,-0.0004570307210087776,-0.00173195730894804
1746728590481004300,2.48100439453125,-0.0030680415220558643,-0.0008382298983633518,0.0025899384636431932
1746728590491023400,2.4910234375,-0.0007854457944631577,0.0001985388807952404,-0.0005730979610234499
1746728590501042400,2.50104248046875,-0.0008674561977386475,0.000649554654955864,-0.002841057488694787
1746728590511061200,2.511061279296875,-0.0005944822914898396,0.00034116022288799286,0.00024714390747249126
1746728590521080300,2.521080322265625,0.000050215981900691986,0.00257387338206172,-0.0009706269484013319
1746728590531099400,2.531099365234375,0.00021906057372689247,0.0009823678992688656,0.003060866380110383
1746728590541118500,2.541118408203125,-0.0005905651487410069,-0.0021271046716719866,-0.00015241163782775402
1746728590551137300,2.55113720703125,0.0008573955856263638,-0.0010059135966002941,0.000040401238948106766
1746728590561156400,2.56115625,-0.0018377797678112984,0.00024656346067786217,-0.0008490351028740406
1746728590571175400,2.571175537109375,0.0005364282988011837,-0.0008242935873568058,-0.0018828744068741798
1746728590581194500,2.581194580078125,0.0015315213240683079,0.00046117836609482765,0.0007615946233272552
1746728590591213300,2.59121337890625,-0.00004506995901465416,-0.0022411311510950327,-0.0016970355063676834
1746728590601232400,2.601232421875,0.0008535571396350861,0.0006736130453646183,-0.0038035798352211714
1746728590611252200,2.611252197265625,-0.0017406283877789974,0.001517568714916706,0.0018505773041397333
1746728590621271300,2.621271240234375,-0.00011082179844379425,-0.0006384160369634628,0.0016775729600340128
1746728590631290000,2.6312900390625,0.0008524437434971333,-0.00009779445827007294,0.0005848777946084738
1746728590641309200,2.64130908203125,0.0011411129962652922,0.0005150120705366135,0.0010217194212600589
1746728590651328300,2.651328369140625,0.0009046243503689766,-0.0010993960313498974,0.002690722467377782
1746728590661347300,2.661347412109375,0.0003344356082379818,-0.0004131319001317024,-0.0009098225273191929
1746728590671366100,2.6713662109375,-0.00027383072301745415,0.001541628036648035,0.0025932996068149805
1746728590681385200,2.68138525390625,-0.00155605748295784,-0.0017201751470565796,-0.001071888953447342
1746728590691404300,2.691404296875,-0.0011240923777222633,-0.0006855372339487076,0.0003526359796524048
1746728590701423400,2.70142333984375,-0.0013311817310750484,-0.0007131658494472504,0.0006041082087904215
1746728590711442200,2.711442138671875,0.0017327852547168732,-0.00034218747168779373,-0.00180472107604146
1746728590721461200,2.721461181640625,-0.0012688832357525826,-0.00040972186252474785,-0.0010655287187546492
1746728590731480300,2.731480224609375,0.00030318042263388634,-0.0009058690629899502,-0.0020415771286934614
1746728590741499100,2.7414990234375,-0.0001975763589143753,-0.0006826538592576981,0.0006027792114764452
1746728590751518200,2.751518310546875,-0.00048093684017658234,-0.002682687947526574,-0.0006124211940914392
1746728590761537300,2.761537353515625,-0.001127641648054123,0.001965331844985485,-0.0002168356440961361
1746728590771557400,2.771557373046875,0.0010058165062218904,0.0007804920896887779,-0.0020560144912451506
1746728590781576400,2.781576416015625,0.0009272596798837185,-0.0000709807500243187,-0.0002508957404643297
1746728590791595300,2.79159521484375,-0.0017175255343317986,0.0013745827600359917,0.0016090560238808393
1746728590801614300,2.8016142578125,-0.0001423652283847332,-0.0005159745924174786,-0.0012640380300581455
1746728590811633400,2.81163330078125,-0.0006185383535921574,-0.0010470091365277767,-0.0008895976934581995
1746728590821652500,2.821652587890625,0.001058677677065134,-0.0011072964407503605,-0.0027188779786229134
1746728590831671300,2.83167138671875,-0.000758130569010973,0.0010000625625252724,-0.0009587949607521296
1746728590841690400,2.8416904296875,0.0006008176133036613,-0.0007938039489090443,-0.002748750150203705
1746728590851709400,2.85170947265625,-0.0013334364630281925,-0.0026939695235341787,-0.0028992188163101673
1746728590861728300,2.861728271484375,0.0006470154039561749,-0.0008991174399852753,-0.00045240879990160465
1746728590871747300,2.871747314453125,0.002066480228677392,0.0015453980304300785,-0.0009019505232572556
1746728590881766400,2.881766357421875,-0.00005977088585495949,0.0016831867396831512,0.0008565973257645965
1746728590891785500,2.891785400390625,-0.0013913516886532307,0.0004051355645060539,0.00042063789442181587
1746728590901804300,2.90180419921875,-0.0014308653771877289,0.00045094452798366547,0.00047011603601276875
1746728590911823400,2.9118232421875,0.001629372825846076,0.00014388235285878181,-0.0006524063646793365
1746728590921842400,2.921842529296875,-0.0008335062302649021,-0.0015508383512496948,-0.0010876518208533525
1746728590931861500,2.931861572265625,-0.0010329768992960453,-0.00034868717193603516,0.001144876005128026
1746728590941880300,2.94188037109375,-0.00017833104357123375,-0.0007143481634557247,0.0004821815527975559
1746728590951900200,2.951900146484375,-0.000418015755712986,0.0019647921435534954,0.0001596726942807436
1746728590961919200,2.961919189453125,-0.00035737594589591026,-0.0010284502059221268,0.0004172399640083313
1746728590971938300,2.971938232421875,0.00046953558921813965,-0.0001227087341248989,-0.0004930284339934587
1746728590981957000,2.98195703125,0.0017629489302635193,-0.0019736560061573982,-0.00101292016915977
1746728590991976200,2.99197607421875,-0.0014080768451094627,0.00034356070682406425,0.0009130778489634395
1746728591001995300,3.001995361328125,0.0008321949280798435,-0.0015331963077187538,0.0011864538537338376
1746728591012014300,3.012014404296875,-0.0005044457502663136,0.000662580132484436,-0.0009209054987877607
1746728591022033200,3.022033203125,0.0028085391968488693,0.00006658490747213364,0.0014773622388020158
1746728591032052200,3.03205224609375,-0.001856253482401371,-0.001345689408481121,0.001638217130675912
1746728591042071300,3.0420712890625,0.00019036978483200073,-0.0010634874925017357,-0.001593295717611909
1746728591052090400,3.05209033203125,0.0009597570169717073,-0.00027705635875463486,0.0016144819092005491
1746728591062109200,3.062109130859375,0.0013953247107565403,-0.0009385445155203342,-0.000369431683793664
1746728591072128300,3.072128173828125,0.0004107542335987091,0.0015395269729197025,0.0002766512334346771
1746728591082147300,3.082147216796875,-0.0005351309664547443,0.0007332074455916882,0.0019923930522054434
1746728591092166100,3.092166259765625,-0.001700796652585268,0.0011949995532631874,0.0017540401313453913
1746728591102185200,3.102185302734375,-0.000923727173358202,0.00035701924934983253,0.0004566139541566372
1746728591112204300,3.112204345703125,-0.000036627985537052155,-0.000009964685887098312,-0.0009753676131367683
1746728591122223400,3.122223388671875,0.0004050848074257374,-0.0006945845670998096,0.00008417363278567791
1746728591132243500,3.132243408203125,-0.0008266270160675049,0.00040636584162712097,0.0016213501803576946
1746728591142262300,3.14226220703125,-0.0009530000388622284,0.002410458866506815,-0.0007548618596047163
1746728591152281300,3.15228125,0.0006773872300982475,-0.0028500829357653856,0.00041692890226840973
1746728591162300400,3.162300537109375,-0.0005397768691182137,0.0018372503109276295,0.0009532403200864792
1746728591172319500,3.172319580078125,0.0005987244658172131,0.0005392259918153286,0.0008941181004047394
1746728591182338300,3.18233837890625,0.0004648393951356411,-0.0006500370800495148,0.0018776827491819859
1746728591192357400,3.192357421875,0.0005593816749751568,0.00034918077290058136,0.0012957820435985923
1746728591202376400,3.20237646484375,-0.0006002271547913551,-0.001091953832656145,0.003200983162969351
1746728591212395300,3.212395263671875,-0.0009752004407346249,0.00010806648060679436,0.0013647335581481457
1746728591222414300,3.222414306640625,-0.0012804404832422733,0.00043711718171834946,0.0010499224299564958
1746728591232433400,3.232433349609375,0.0016676788218319416,0.0016698944382369518,-0.00017539807595312595
1746728591242452500,3.242452392578125,-0.0000559808686375618,-0.0006603468209505081,-0.001231333240866661
1746728591252471300,3.25247119140625,0.0015475084073841572,0.0010736375115811825,0.0017482113325968385
1746728591262490400,3.262490478515625,-0.0004354836419224739,0.0013485527597367764,-0.0010908725671470165
1746728591272509400,3.272509521484375,-0.0003151088021695614,0.0008747763931751251,0.001308901933953166
1746728591282528500,3.282528564453125,-8.926726877689362e-7,0.0002700416371226311,-0.00029539805836975574
1746728591292547300,3.29254736328125,0.0016992692835628986,-0.000284428708255291,0.0014947789022698998
1746728591302566400,3.30256640625,0.0008253138512372971,0.0006534797139465809,0.00216845260001719
1746728591312586200,3.312586181640625,-0.0008660596795380116,-0.002033915836364031,-0.0003804587759077549
1746728591322605300,3.322605224609375,0.0020583895966410637,0.00019007688388228416,-0.0010210422333329916
1746728591332624100,3.3326240234375,0.00019737286493182182,-0.00044535333290696144,-0.0015744471456855536
1746728591342643200,3.342643310546875,-0.00020363321527838707,0.0019441824406385422,-0.0004976640921086073
1746728591352662300,3.352662353515625,0.0009678914211690426,-0.0006036632694303989,0.00026400014758110046
1746728591362680800,3.362680908203125,0.0008825934492051601,-0.0015800497494637966,0.0018550048116594553
1746728591372700000,3.372699951171875,-0.001696944236755371,-0.0018785898573696613,-0.0003772568888962269
1746728591382719000,3.382718994140625,0.0012667372357100248,-0.0010890960693359375,0.002064513973891735
1746728591392738000,3.392738037109375,0.0010369066148996353,-0.0008089314214885235,0.00036035734228789806
1746728591402756900,3.4027568359375,-0.0010010781697928905,-0.001381357666105032,-0.0007920293137431145
1746728591412776000,3.41277587890625,0.002075938042253256,0.0006263991817831993,0.003114827908575535
1746728591422795000,3.422794921875,-0.0006529539823532104,0.0022346549667418003,0.00027219229377806187
1746728591432814000,3.43281396484375,0.00004079937934875488,-0.0002886899746954441,0.004152151755988598
1746728591442833000,3.4428330078125,0.0016799240838736296,0.0019167494028806686,-0.0010420768521726131
1746728591452852000,3.45285205078125,0.0008610021322965622,0.0016493680886924267,-0.002618934493511915
1746728591462871000,3.46287109375,0.0017572727520018816,-0.0013763746246695518,-0.0015568968374282122
1746728591472889900,3.472889892578125,-0.0018529081717133522,0.0018172883428633213,0.001752879936248064
1746728591482909000,3.482908935546875,-0.0007794578559696674,0.0003896956332027912,0.0016348747303709388
1746728591492928000,3.492927978515625,-0.0029960069805383682,-0.000884094275534153,-0.0005401289090514183
1746728591502948000,3.502947998046875,-0.0008527683094143867,-0.002189051127061248,0.0011041539255529642
1746728591512967200,3.51296728515625,0.0012958699371665716,-0.0004361583851277828,0.0017323936335742474
1746728591522986000,3.522986083984375,0.0003261752426624298,0.000433256383985281,0.002105898689478636
1746728591533005000,3.533005126953125,-0.0014397669583559036,-0.0015587881207466125,-0.0018531563691794872
1746728591543024000,3.543024169921875,0.0004626959562301636,-0.00005991896614432335,0.0007466943934559822
1746728591553043000,3.55304296875,0.0003537731245160103,0.00031798379495739937,-0.00025358889251947403
1746728591563062000,3.56306201171875,-0.0008976268582046032,-0.0008910219185054302,0.00005894014611840248
1746728591573081000,3.5730810546875,-0.0002153250388801098,0.002836072351783514,-0.0008404094260185957
1746728591583100200,3.58310009765625,-0.0001485138200223446,0.0004990859888494015,-0.002802108647301793
1746728591593119000,3.593118896484375,-0.00017461273819208145,-0.0005352860316634178,0.0005915577057749033
1746728591603138000,3.603137939453125,0.0005214624106884003,0.00021542934700846672,-0.0008392019663006067
1746728591613157000,3.6131572265625,-0.0007312889210879803,-0.0011094934307038784,0.0008780043572187424
1746728591623176200,3.62317626953125,-0.00291220610961318,-0.0022460322361439466,0.00028600660152733326
1746728591633195000,3.633195068359375,0.0016500551719218493,-0.00009366543963551521,0.0005555185489356518
1746728591643214000,3.643214111328125,-0.002592079807072878,0.001629948616027832,-0.00018762517720460892
1746728591653233200,3.653233154296875,0.0010713646188378334,-0.0005479846149682999,-0.0021122917532920837
1746728591663252200,3.663252197265625,-0.00039868755266070366,-0.000987702514976263,0.00043469294905662537
1746728591673271000,3.67327099609375,-0.0020032422617077827,-0.0018993024714291096,-0.0008236507419496775
1746728591683290000,3.6832900390625,-0.00025993771851062775,-0.0006710970774292946,-0.0004267848562449217
1746728591693309200,3.69330908203125,0.0010865565855056047,0.0001717931590974331,0.001280035125091672
1746728591703329000,3.7033291015625,0.0013630753383040428,0.00035591376945376396,0.0028477422893047333
1746728591713347800,3.713347900390625,-0.0009626629762351513,-0.0007250630296766758,-0.0005027807783335447
1746728591723367000,3.723366943359375,-0.0008408515714108944,-0.0006830999627709389,-0.0014094416983425617
1746728591733386000,3.733385986328125,0.0008332114666700363,-0.00011424906551837921,0.0006047072820365429
1746728591743405000,3.743405029296875,-0.00035069091245532036,-0.0011702901683747768,-0.000746970996260643
1746728591753424000,3.753423828125,-0.0008753337897360325,-0.0008925227448344231,0.00028447131626307964
1746728591763443000,3.76344287109375,-0.0007816501893103123,-0.0016773189418017864,-0.0005226312205195427
1746728591773462000,3.7734619140625,0.000995477195829153,0.0003642607480287552,-0.0004131754394620657
1746728591783481000,3.783481201171875,0.0011376214679330587,-0.0014241901226341724,-0.001857622293755412
1746728591793500000,3.7935,0.0008822241798043251,-0.0011064750142395496,-0.0010458908509463072
1746728591803519000,3.80351904296875,0.0009740677196532488,0.0019973483867943287,-0.0005718148313462734
1746728591813538000,3.8135380859375,-0.0017301058396697044,0.0012484672479331493,0.00019384385086596012
1746728591823556900,3.823556884765625,0.00015935301780700684,0.00037796609103679657,0.0019341529114171863
1746728591833576000,3.833575927734375,-0.002078235149383545,0.0014277840964496136,0.0034817159175872803
1746728591843595000,3.843594970703125,-0.000193658284842968,-0.0010647284798324108,0.0016331447986885905
1746728591853614000,3.853614013671875,-0.004150582943111658,-0.0015193303115665913,0.0011031756876036525
1746728591863633000,3.8636328125,-0.000017255079001188278,0.0008811168372631073,0.0006451774388551712
1746728591873652000,3.87365185546875,0.0014717180747538805,0.002843600232154131,-0.0020558005198836327
1746728591883671000,3.883671142578125,-0.00030883122235536575,-0.0011699637398123741,0.0001365977805107832
1746728591893690000,3.893690185546875,0.000766286626458168,-0.0013268236070871353,0.0007445975206792355
1746728591903709000,3.903708984375,0.00037710461765527725,-0.0009289653971791267,-0.0010162096004933119
1746728591913728000,3.91372802734375,0.0008652620017528534,-0.0012285709381103516,-0.0020431242883205414
1746728591923747000,3.9237470703125,0.002011057920753956,0.0008180481381714344,-0.000014789868146181107
1746728591933767200,3.93376708984375,0.001059244154021144,-0.00022724270820617676,0.0015759163070470095
1746728591943786000,3.943785888671875,0.001366359181702137,0.0005337786860764027,0.0006870629731565714
1746728591953805000,3.95380517578125,0.0007061618380248547,0.0016829324886202812,0.0007696207612752914
1746728591963824000,3.96382421875,0.0002542855218052864,-0.0014436319470405579,0.00009121070615947247
1746728591973843200,3.97384326171875,-0.0019825035706162453,0.00016864575445652008,0.00239244825206697
1746728591983862000,3.983862060546875,-0.0014290441758930683,0.0005409498699009418,-0.002539235632866621
1746728591993881000,3.993881103515625,-0.0019345125183463097,-0.0012116762809455395,-0.00175120634958148
1746728592003900200,4.003900146484375,-0.00009259721264243126,-0.0005650431849062443,0.0021219204645603895
1746728592013919200,4.013919189453125,-0.0009413468651473522,-0.0012758406810462475,-0.001862701028585434
1746728592023938000,4.02393798828125,-0.00025211554020643234,-0.0013486919924616814,0.0010739982826635242
1746728592033957000,4.03395703125,-0.0004225578159093857,0.0006854305975139141,0.0018833328504115343
1746728592043976200,4.04397607421875,0.0018080121371895075,-0.00035881996154785156,-0.00005782628431916237
1746728592053995000,4.0539951171875,0.000729431863874197,0.0005887327715754509,0.0015909367939457297
1746728592064014000,4.06401416015625,-0.001093459315598011,-0.0012280684895813465,0.0017020113300532103
1746728592074033000,4.074032958984375,0.000006692484021186829,0.00038341060280799866,-0.00005993596278131008
1746728592084052000,4.084052001953125,0.0000960533507168293,-0.0020081414841115475,-0.0001381447073072195
1746728592094070800,4.09407080078125,-0.0001798500306904316,-0.0005537890829145908,0.0002101969439536333
1746728592104089900,4.10408984375,0.0010875142179429531,0.000688496045768261,0.00003398978151381016
1746728592114109000,4.11410888671875,-0.001000936608761549,-0.0006843633018434048,-0.0007013089489191771
1746728592124128000,4.1241279296875,-0.0002047307789325714,-0.00012825382873415947,0.001375608961097896
1746728592134146800,4.134146728515625,-0.001409811433404684,0.0017673843540251255,-0.0011344202794134617
1746728592144166000,4.144165771484375,-0.0018696216866374016,-0.0006947340443730354,0.00019303453154861927
1746728592154186000,4.15418603515625,0.0005610454827547073,0.0016712183132767677,-0.00032441760413348675
1746728592164205000,4.164205078125,-0.00013164198026061058,0.0012670247815549374,-0.001759607344865799
1746728592174224000,4.174223876953125,-0.00015241466462612152,-0.0012874794192612171,0.0021858657710254192
1746728592184243000,4.184242919921875,-0.0013965913094580173,0.0004347264766693115,-0.0014324614312499762
1746728592194262000,4.194261962890625,0.00013552559539675713,0.00135857705026865,0.001396614359691739
1746728592204281000,4.204281005859375,0.001567603088915348,-0.00032624276354908943,0.0021418393589556217
1746728592214300000,4.2142998046875,0.00052630715072155,0.001646893098950386,-0.0006555451545864344
1746728592224319000,4.224319091796875,-0.0009986301884055138,-0.0007163924165070057,-0.0009602485224604607
1746728592234338000,4.234338134765625,-0.00006039859727025032,-0.000606936402618885,0.0009649506537243724
1746728592244357000,4.244357177734375,0.0003569270484149456,-0.00028153834864497185,-0.002273103455081582
1746728592254376000,4.2543759765625,-0.000004197470843791962,0.0018125055357813835,0.00032108183950185776
1746728592264395000,4.26439501953125,-0.000758773647248745,-0.0005289018154144287,0.0012737344950437546
1746728592274414000,4.2744140625,0.0007403199560940266,-0.0010716537944972515,-0.0010248397011309862
1746728592284433000,4.284432861328125,0.00002534734085202217,-0.0010131807066500187,0.0007129493169486523
1746728592294452000,4.294451904296875,0.0005366741679608822,0.0005146749317646027,0.0009419810958206654
1746728592304471000,4.304470947265625,0.0015417959075421095,0.000033315736800432205,0.0006608976982533932
1746728592314490000,4.314489990234375,0.0004397798329591751,0.0008945823647081852,-0.0001223378349095583
1746728592324509000,4.324509033203125,-0.00027954019606113434,-0.0008878083899617195,0.0007838162127882242
1746728592334528000,4.334528076171875,0.0010078318882733583,0.00007385900244116783,0.0007662391290068626
1746728592344547000,4.344547119140625,-0.0015557571314275265,0.0015728659927845001,0.000019816914573311806
1746728592354566100,4.354566162109375,0.0005864896811544895,-0.0022439765743911266,0.0009287538705393672
1746728592364585200,4.364585205078125,-0.002953684888780117,-0.00031632790341973305,0.00003288593143224716
1746728592374604300,4.374604248046875,-0.001068965531885624,0.0005121813155710697,0.001817470183596015
1746728592384623400,4.384623291015625,-0.0014076721854507923,-0.0011999928392469883,-0.0011833719909191132
1746728592394642400,4.394642333984375,0.00010127481073141098,0.0005654166452586651,0.0004781740717589855
1746728592404662300,4.404662353515625,0.0006080283783376217,-0.0010599191300570965,-0.0004778283182531595
1746728592414681000,4.41468115234375,-0.0009469911456108093,0.0003747260197997093,0.0016356563428416848
1746728592424700200,4.4247001953125,0.0018807770684361458,-0.00012484006583690643,-0.0007027925457805395
1746728592434719200,4.43471923828125,-0.0005901036784052849,0.00032097334042191505,0.001396044623106718
1746728592444738000,4.444738037109375,0.00008224928751587868,0.0006098151206970215,0.000028875190764665604
1746728592454757000,4.454757080078125,-0.0001893928274512291,0.001064150594174862,0.000024614157155156136
1746728592464776200,4.464776123046875,-0.0011759973131120205,0.0005759070627391338,0.0007932208245620131
1746728592474795300,4.474795166015625,-0.002408508211374283,0.000796683132648468,-0.0017104167491197586
1746728592484814000,4.48481396484375,0.0002301330678164959,-0.0008896538056433201,0.0001940568909049034
1746728592494833200,4.494833251953125,0.0010767520871013403,-0.0016593076288700104,-0.0016041095368564129
1746728592504852200,4.504852294921875,-0.0008363700471818447,0.00078238220885396,-0.00023514940403401852
1746728592514871300,4.514871337890625,0.0006824303418397903,-0.001973989885300398,0.0005241178441792727
1746728592524890000,4.52489013671875,-0.0008842851966619492,-0.0021311352029442787,-0.001474880613386631
1746728592534909200,4.5349091796875,0.0002129371277987957,0.00009260419756174088,-0.001989403273910284
1746728592544928300,4.54492822265625,0.0011715595610439777,0.000535495113581419,0.0011980856070294976
1746728592554947000,4.554947021484375,-0.0013315454125404358,-0.0008815731853246689,0.0015514871338382363
1746728592564966100,4.564966064453125,0.000025344081223011017,-0.00048168469220399857,0.00040320330299437046
1746728592574985200,4.574985107421875,-0.0005118157714605331,-0.0003384067676961422,-0.0017238634172827005
1746728592585004300,4.58500439453125,0.001276158494874835,-0.002138682873919606,0.0021697455085814
1746728592595023000,4.595023193359375,-0.0004237373359501362,-0.0020888817962259054,0.00010259984992444515
1746728592605042200,4.605042236328125,-0.0023169280029833317,0.0016222461126744747,0.0009243147214874625
1746728592615061200,4.615061279296875,-0.001997082494199276,-0.0013266722671687603,-0.0037956058513373137
1746728592625080300,4.625080322265625,0.0019621476531028748,0.00010182149708271027,-0.00035877712070941925
1746728592635099100,4.63509912109375,-0.0011199289001524448,0.00012792041525244713,-0.00019099796190857887
1746728592645118200,4.6451181640625,0.0005813599564135075,-0.00000640377402305603,0.0012042820453643799
1746728592655137300,4.65513720703125,0.0010053350124508142,0.00022023124620318413,-0.0005464800633490086
1746728592665157400,4.665157470703125,-0.00044114934280514717,-0.0028426710050553083,0.0021961266174912453
1746728592675176200,4.67517626953125,0.0016955048777163029,0.00026337383314967155,-0.0017860978841781616
1746728592685195300,4.6851953125,0.002156108384951949,-0.00018542958423495293,-0.0014308507088571787
1746728592695214300,4.69521435546875,0.0029963357374072075,0.00032829400151968,0.0008847678545862436
1746728592705233400,4.7052333984375,0.0004936223849654198,-0.0003028111532330513,0.0018567827064543962
1746728592715252200,4.715252197265625,0.0004113307222723961,0.00010491861030459404,0.00017659435980021954
1746728592725271300,4.725271240234375,-0.00023089582100510597,0.0006931344978511333,-0.00007126177661120892
1746728592735290400,4.735290283203125,-0.0008165249601006508,-0.0017630988731980324,-0.0011413199827075005
1746728592745309400,4.745309326171875,-0.0008473517373204231,-0.0016641449183225632,0.0014434375334531069
1746728592755328300,4.755328369140625,0.0009297756478190422,-0.0005070017650723457,0.00017071282491087914
1746728592765347300,4.765347412109375,-0.00036105094477534294,0.0002457830123603344,0.004025203175842762
1746728592775366400,4.775366455078125,0.00033536553382873535,-0.0019704997539520264,-0.0011296113952994347
1746728592785385500,4.785385498046875,-0.0015033134259283543,0.00045722443610429764,-0.0015464622993022203
1746728592795404300,4.795404296875,-0.00010382244363427162,-0.00127436313778162,-0.0026042701210826635
1746728592805423400,4.80542333984375,-0.0005339193157851696,-0.0007037618197500706,0.0015036477707326412
1746728592815442400,4.8154423828125,-0.0004566875286400318,-0.00017512449994683266,-0.0021251756697893143
1746728592825461200,4.825461181640625,-0.0017293370328843594,0.00004706112667918205,0.000867897761054337
1746728592835480300,4.835480224609375,-0.0006909705698490143,0.0012678541243076324,-0.001283137360587716
1746728592845499400,4.84549951171875,-0.0010014544241130352,0.0016451338306069374,0.0007524795364588499
1746728592855518500,4.8555185546875,-0.0008693616837263107,-0.0018060565926134586,0.0001253050286322832
1746728592865537300,4.865537353515625,-0.0008217012509703636,-0.00122549245133996,-0.0004397293087095022
1746728592875556400,4.875556396484375,0.000890711322426796,0.0012136967852711678,-0.00009911088272929192
1746728592885575200,4.8855751953125,0.0003012111410498619,0.0029282663017511368,0.0005510703194886446
1746728592895594200,4.89559423828125,0.0008418327197432518,-0.0017051012255251408,-0.0017807933036237955
1746728592905613000,4.905613037109375,-0.0017397357150912285,0.0005261269398033619,-0.002081359503790736
1746728592915632000,4.915632080078125,-0.0008065639995038509,0.0008267974480986595,-0.000654970295727253
1746728592925651200,4.925651123046875,-0.0004684445448219776,-0.0032465155236423016,-0.0018458354752510786
1746728592935670000,4.935669921875,0.0005976189859211445,0.000848627183586359,-0.0013448947574943304
1746728592945689000,4.945689208984375,0.00002124067395925522,-0.0008098366670310497,0.0006574876606464386
1746728592955709200,4.955709228515625,0.0014329825062304735,-0.000468685757368803,0.0006617486942559481
1746728592965728300,4.965728271484375,0.00019660033285617828,-0.0009348266758024693,0.00015917816199362278
1746728592975747300,4.975747314453125,-0.0001677200198173523,0.00010354025289416313,0.0014827691484242678
1746728592985766100,4.98576611328125,-0.000059335026890039444,0.0010891626589000225,0.0006536857690662146
1746728592995785200,4.99578515625,-0.0010377801954746246,0.00047956500202417374,0.0010094839381054044
1746728593005804300,5.00580419921875,-0.0005423002876341343,0.001970005687326193,0.00017110886983573437
1746728593015823400,5.0158232421875,0.0005434704944491386,-0.00038609234616160393,0.00035247020423412323
1746728593025842200,5.02584228515625,0.0010357489809393883,-0.0010856916196644306,-0.004043255932629108
1746728593035861200,5.035861328125,0.0009830184280872345,0.0005066124722361565,-0.0019225801806896925
1746728593045880300,5.04588037109375,0.0013939810451120138,-0.0005226368084549904,-0.0004877310711890459
1746728593055899100,5.055899169921875,0.0006429697386920452,-0.000665116123855114,0.0001727328635752201
1746728593065918200,5.065918212890625,-0.0017153513617813587,0.0007467484101653099,-0.0011261156760156155
1746728593075937300,5.075937255859375,0.0017488885205239058,-0.0003307666629552841,-0.0013420982286334038
1746728593085956400,5.085956298828125,-0.00011109048500657082,0.0020285523496568203,0.0005168255884200335
1746728593095975200,5.09597509765625,-0.0012112422846257687,-0.001363249495625496,-0.0005425799172371626
1746728593105994200,5.105994140625,0.00033477041870355606,-0.0021977294236421585,0.0008747767424210906
1746728593116013300,5.116013427734375,-0.001220249105244875,-0.0002882429398596287,-0.0007018146570771933
1746728593126032400,5.126032470703125,-0.000164007768034935,0.0005352930165827274,-0.0002895279321819544
1746728593136051200,5.13605126953125,0.000724423211067915,-0.000953147653490305,0.002035145414993167
1746728593146070300,5.1460703125,0.00012049498036503792,0.0021328190341591835,-0.0015431365463882685
1746728593156089300,5.15608935546875,0.0011546004097908735,0.00031174905598163605,-0.0018182413186877966
1746728593166108400,5.1661083984375,0.000878677237778902,-0.0009113922715187073,-0.00020427536219358444
1746728593176127200,5.176127197265625,-0.00021055527031421661,0.0005948916077613831,0.0012061346787959337
1746728593186146300,5.186146240234375,0.0004916666075587273,0.0023501566611230373,0.0016623861156404018
1746728593196165400,5.196165283203125,-0.0002739918418228626,0.0002654343843460083,-0.0004710722714662552
1746728593206184200,5.20618408203125,0.0005821199156343937,0.00005471426993608475,-0.0024806952569633722
1746728593216203300,5.216203369140625,-0.00029752217233181,0.001515191514045,0.0010320143774151802
1746728593226222300,5.226222412109375,-0.0009690918959677219,0.0017362907528877258,0.0017036088975146413
1746728593236241400,5.236241455078125,-0.00035709748044610023,-0.0016467226669192314,-0.00010600895620882511
1746728593246260200,5.24626025390625,-0.0003645387478172779,0.0005579977296292782,0.002024917397648096
1746728593256279300,5.256279296875,0.0004096422344446182,0.0018389783799648285,-0.0009498335421085358
1746728593266298400,5.26629833984375,-0.000572404358536005,0.0004912391304969788,-0.0013465741649270058
1746728593276317400,5.2763173828125,0.0015466727782040834,-0.00035484740510582924,0.0009746369905769825
1746728593286337000,5.2863369140625,-0.001194448210299015,0.0001574489288032055,0.0022922377102077007
1746728593296356000,5.296356201171875,-0.0005494309589266777,-0.001338981557637453,0.0016157948412001133
1746728593306375200,5.306375244140625,-0.0027980958111584187,0.00166349858045578,0.0014057464431971312
1746728593316394200,5.316394287109375,0.0017604369204491377,-0.0009027235209941864,0.00130135053768754
1746728593326413000,5.3264130859375,0.0009229881688952446,-0.00089216697961092,0.0019108874257653952
1746728593336432000,5.33643212890625,0.00037171365693211555,0.000020232051610946655,-0.00021724472753703594
1746728593346451200,5.346451171875,0.0002503632567822933,0.0017193988896906376,-0.0000426294282078743
1746728593356470300,5.35647021484375,-0.0014308900572359562,-0.0012100781314074993,-0.00020401692017912865
1746728593366488800,5.36648876953125,-0.00013940222561359406,0.000604475848376751,-0.00022203032858669758
1746728593376508000,5.3765078125,0.0010057571344077587,0.00002683652564883232,-0.0004409421235322952
1746728593386527000,5.38652685546875,-0.0010612714104354382,0.0007072947919368744,0.0008050603792071342
1746728593396545800,5.3965458984375,-0.000247409101575613,0.0019696331582963467,-0.0017017729114741087
1746728593406564900,5.40656494140625,-0.0006321482360363007,-0.0011324463412165642,0.0010742899030447006
1746728593416584000,5.416583984375,0.0007870504632592201,0.000150398351252079,-0.0007086964324116707
1746728593426603000,5.42660302734375,0.000054807402193546295,0.0002595982514321804,0.0018825761508196592
1746728593436621800,5.436621826171875,0.00033763516694307327,0.0006020809523761272,0.002964618382975459
1746728593446641000,5.446640869140625,0.00039341486990451813,-0.00103850569576025,0.0008247978985309601
1746728593456660000,5.456659912109375,0.0003318958915770054,0.000787890050560236,-0.0014751078560948372
1746728593466679000,5.466678955078125,0.0004221722483634949,-0.0010719001293182373,-0.0010737862903624773
1746728593476697900,5.47669775390625,-0.0001008724793791771,-0.0009379428811371326,-0.0010772484820336103
1746728593486717000,5.486717041015625,-0.0005924808792769909,-0.0010623619891703129,-0.00026498897932469845
1746728593496736000,5.496736083984375,-0.00028142379596829414,0.0004026428796350956,0.00004873145371675491
1746728593506755000,5.506755126953125,0.00007688207551836967,-0.00004294607788324356,0.0007971689337864518
1746728593516774000,5.51677392578125,-0.00023896899074316025,-0.0015966342762112617,0.0022099758498370647
1746728593526793000,5.52679296875,-0.0004344373010098934,0.0018702656961977482,-0.0008800793439149857
1746728593536812000,5.53681201171875,0.00036664167419075966,-0.0005468190647661686,0.0018075827974826097
1746728593546830800,5.546830810546875,0.0009347693994641304,0.0005275825969874859,-0.000039410777390003204
1746728593556850000,5.556849853515625,-0.0003520702011883259,0.0004908312112092972,-0.002670880174264312
1746728593566869000,5.566868896484375,-0.0009482605382800102,-0.003884723875671625,-0.0001802057959139347
1746728593576888000,5.57688818359375,-0.0022888961248099804,0.0006461120210587978,-0.0016193781048059464
1746728593586907000,5.586906982421875,-0.0004989868029952049,0.0006315466016530991,0.0030226369854062796
1746728593596926000,5.596926025390625,0.00006879912689328194,-0.0020324131473898888,0.000022852327674627304
1746728593606945000,5.606945068359375,-0.001479149330407381,0.0004293634556233883,0.000492980470880866
1746728593616964000,5.616964111328125,-0.0016240249387919903,-0.0003533395938575268,-0.00005216873250901699
1746728593626983000,5.62698291015625,0.0004466795362532139,0.0007858118042349815,-0.0009116837754845619
1746728593637002000,5.637001953125,-0.001436441671103239,0.00010537402704358101,0.0010356196435168386
1746728593647021000,5.64702099609375,-0.0008576465770602226,-0.0018162797205150127,0.0020098770037293434
1746728593657041200,5.657041259765625,-0.0014262315817177296,-0.00303467595949769,0.002151557244360447
1746728593667060000,5.66706005859375,0.00033491523936390877,0.0002992507070302963,-0.001719233114272356
1746728593677079000,5.6770791015625,0.0011557014659047127,-0.000181450042873621,-0.0015016528777778149
1746728593687098000,5.68709814453125,-0.001788822002708912,0.0005784071981906891,0.00023405230604112148
1746728593697117200,5.6971171875,-0.0004796120338141918,0.0009906645864248276,-0.001797140808776021
1746728593707136000,5.707135986328125,-0.0007738014683127403,0.002041381783783436,-0.0012978611048310995
1746728593717155000,5.717155029296875,-0.00015115411952137947,0.0007372316904366016,0.0003575598821043968
1746728593727174100,5.727174072265625,-0.002138652838766575,-0.0019384522456675768,-0.0014436417259275913
1746728593737193200,5.737193115234375,0.0004925504326820374,-0.0008454909548163414,0.0014698567101731896
1746728593747212000,5.7472119140625,0.000603086780756712,-0.0012941407039761543,-0.0010160901583731174
1746728593757231000,5.757231201171875,0.000838243868201971,0.0006875176914036274,0.0004313378594815731
1746728593767250200,5.767250244140625,0.0006292681209743023,0.00022414419800043106,-0.00009300466626882553
1746728593777269000,5.77726904296875,0.0001253979280591011,0.0008425302803516388,-0.0008533371146768332
1746728593787288000,5.7872880859375,0.0008268691599369049,0.0006468719802796841,0.002667080843821168
1746728593797307100,5.79730712890625,-0.002915937453508377,0.0003488641232252121,-0.0037724424619227648
1746728593807326000,5.807325927734375,-0.00008206628262996674,-0.0011230148375034332,-0.0020537658128887415
1746728593817345000,5.817344970703125,0.0005469722673296928,0.0002724817022681236,-0.002403438789770007
1746728593827363800,5.82736376953125,-0.00031584175303578377,0.0009748446755111217,-0.0006837074179202318
1746728593837383000,5.8373828125,-0.0009374236688017845,-0.0011652717366814613,-0.0017558960244059563
1746728593847402000,5.847402099609375,-0.002629311289638281,-0.0013323621824383736,0.0021248026750981808
1746728593857420800,5.8574208984375,-0.00008253054693341255,-0.00009638909250497818,-0.00019614212214946747
1746728593867439900,5.86743994140625,-0.0010677720420062542,-0.0010159090161323547,-0.0023792025167495012
1746728593877459000,5.877458984375,0.0007905815728008747,0.0012485766783356667,-0.00015679467469453812
1746728593887478000,5.88747802734375,-0.002575311344116926,-0.0007797875441610813,-0.00039827614091336727
1746728593897496800,5.897496826171875,-0.0026003452949225903,-0.00008150655776262283,-0.0007956197950989008
1746728593907516000,5.907515869140625,-0.0019960138015449047,-0.0019534295424818993,-0.0004347916692495346
1746728593917535000,5.917534912109375,-0.0014862846583127975,-0.0016897767782211304,0.0017902795225381851
1746728593927553800,5.9275537109375,-0.0008067823946475983,-0.00028255442157387733,-0.00045240065082907677
1746728593937572900,5.93757275390625,-0.0010669734328985214,-0.0006151832640171051,0.0014560205163434148
1746728593947592000,5.947592041015625,0.0018260329961776733,0.001658945344388485,0.0007625110447406769
1746728593957611000,5.957611083984375,-0.00045176874846220016,-0.000257731880992651,-0.0005738632753491402
1746728593967629800,5.9676298828125,-0.00012277811765670776,-0.00034942710772156715,0.0009584107901901007
1746728593977649000,5.97764892578125,-0.0015076217241585255,-0.002638946520164609,-0.00015665474347770214
1746728593987668000,5.98766796875,-0.0015840562991797924,0.0007940791547298431,0.0016829255037009716
1746728593997687000,5.99768701171875,0.0011504772119224072,0.00039833318442106247,0.00023682904429733753
1746728594007705900,6.007705810546875,-0.0018003471195697784,0.0014907587319612503,-0.0010971126612275839
1746728594017725000,6.017724853515625,-0.0007089837454259396,-0.000049081165343523026,-0.0015530460514128208
1746728594027744000,6.027743896484375,0.0017753150314092636,-0.000983167439699173,0.0014077050145715475
1746728594037763000,6.03776318359375,0.0004959325306117535,-0.0007733101956546307,0.0013781439047306776
1746728594047782000,6.047781982421875,0.0010930001735687256,-0.0008441046811640263,0.00004608160816133022
1746728594057801000,6.057801025390625,-0.0017384723760187626,0.0008754986338317394,0.0018389216857030988
1746728594067820000,6.067820068359375,0.0006168358959257603,0.0010388200171291828,-0.0017710914835333824
1746728594077838800,6.0778388671875,-0.00088864890858531,0.0005637123249471188,0.001684360089711845
1746728594087858000,6.08785791015625,0.0007010004483163357,-0.0007890262641012669,0.0018867671024054289
1746728594097877000,6.097876953125,0.0020680008456110954,0.0004650563932955265,0.00033254618756473064
1746728594107896000,6.10789599609375,-0.0004615364596247673,-0.0017739045433700085,0.002008473500609398
1746728594117916200,6.117916259765625,-0.0004604714922606945,0.0009451829828321934,0.00015304912813007832
1746728594127935000,6.12793505859375,0.0005679810419678688,0.001968629192560911,-0.0009663999080657959
1746728594137954000,6.1379541015625,-0.002736735623329878,-0.0010143774561583996,0.0019473645370453596
1746728594147973000,6.14797314453125,-0.0014649201184511185,-0.0007074340246617794,0.00234439829364419
1746728594157992000,6.157991943359375,-0.0008076517842710018,0.0007194876670837402,0.0008532943902537227
1746728594168011000,6.168010986328125,0.0009458577260375023,0.002149075735360384,0.00020923488773405552
1746728594178030000,6.178030029296875,-0.0004317956045269966,0.0002523725852370262,-0.0018629706464707851
1746728594188049200,6.188049072265625,0.00010166177526116371,-0.0017410670407116413,-0.0004275720566511154
1746728594198068000,6.19806787109375,0.0007607941515743732,0.0010637743398547173,0.001523193554021418
1746728594208087000,6.208087158203125,-0.0010055508464574814,0.0006394949741661549,-0.0006416479591280222
1746728594218106000,6.218106201171875,0.0003840867429971695,-0.0032332739792764187,-0.002979903481900692
1746728594228125200,6.228125244140625,-0.001086610835045576,0.0006309784948825836,-0.00006293784826993942
1746728594238144000,6.23814404296875,-0.0005294773727655411,0.0010453667491674423,-8.731149137020111e-8
1746728594248163000,6.2481630859375,-0.0008667577058076859,-0.00011315103620290756,0.0009608688997104764
1746728594258182100,6.25818212890625,-0.00048406142741441727,0.0017984663136303425,0.00031238910742104053
1746728594268201200,6.268201171875,0.0029959529638290405,0.00025804247707128525,-0.000005362788215279579
1746728594278220000,6.278219970703125,0.0013573099859058857,-0.0012253383174538612,0.0004830609541386366
1746728594288239000,6.288239013671875,0.0007533146999776363,-0.0009986739605665207,-0.0014975820668041706
1746728594298258200,6.298258056640625,-0.001310901716351509,0.00021572783589363098,0.0012345548020675778
1746728594308277000,6.308277099609375,-0.0008986238390207291,-0.002668113447725773,0.0006033200770616531
1746728594318296000,6.318296142578125,0.0010345648042857647,-0.0011429209262132645,0.0003852071240544319
1746728594328315100,6.328315185546875,-0.0011387960985302925,0.0019532409496605396,-0.001562669174745679
1746728594338334200,6.338334228515625,-0.0012176255695521832,0.0005862405523657799,-0.000004453584551811218
1746728594348353000,6.34835302734375,-0.00038353679701685905,-0.0004786979407072067,-0.003180160652846098
1746728594358372000,6.3583720703125,0.0004825233481824398,0.00047391466796398163,0.0009418800473213196
1746728594368391000,6.368390869140625,0.00028425222262740135,0.0010250299237668514,-0.0008718089666217566
1746728594378410000,6.378409912109375,0.0011729488614946604,0.0012138481251895428,0.001197999925352633
1746728594388428800,6.3884287109375,0.001045911107212305,0.0009827716276049614,0.0007749728392809629
1746728594398447900,6.39844775390625,0.0013777411077171564,0.0017739967443048954,0.00121253018733114
1746728594408466700,6.408466796875,0.0007093735039234161,-0.002193385036662221,0.00127372145652771
1746728594418485800,6.41848583984375,-0.0009156875312328339,-0.000031697098165750504,-0.0012043500319123268
1746728594428504800,6.4285048828125,-0.0000716368667781353,-0.000970667228102684,-0.002795484149828553
1746728594438524000,6.43852392578125,0.0003395550884306431,0.0012216470204293728,0.0002322639338672161
1746728594448542700,6.448542724609375,-0.00009865360334515572,-0.00046461867168545723,0.0009095447603613138
1746728594458561800,6.458561767578125,-0.00009465916082262993,0.0012187655083835125,0.0023862675298005342
1746728594468580900,6.468580810546875,-0.0005318149924278259,0.0004910225979983807,0.0037987353280186653
1746728594478600000,6.478599853515625,0.0006599496118724346,-0.0012466898187994957,-0.0007318342104554176
1746728594488618800,6.48861865234375,0.0007209018804132938,0.0030900822021067142,-0.00178431230597198
1746728594498637800,6.498637939453125,-0.0018109655939042568,-0.0018282430246472359,0.0012990955729037523
1746728594508657000,6.508656982421875,0.00003314763307571411,-0.0009673573076725006,0.00209569139406085
1746728594518675700,6.51867578125,-0.0013945726677775383,0.0005764770321547985,-0.0025925375521183014
1746728594528694800,6.52869482421875,0.00011008046567440033,-0.00039542466402053833,-0.0019379784353077412
1746728594538713900,6.5387138671875,-0.0005567753687500954,0.0009928811341524124,0.000522515969350934
1746728594548733000,6.54873291015625,0.0006350809708237648,0.001919320784509182,0.00297838868573308
1746728594558751700,6.558751708984375,-0.002017693594098091,-0.00046074623242020607,0.0004358687438070774
1746728594568770800,6.568770751953125,-0.0007884274236857891,-0.00041812192648649216,0.0021173893474042416
1746728594578790000,6.578789794921875,0.0009354366920888424,0.002155290450900793,-0.0007423129864037037
1746728594588809000,6.58880908203125,-0.0005386392585933208,-0.00038453051820397377,-0.001235635718330741
1746728594598827800,6.598827880859375,-0.004036435391753912,0.00021361513063311577,-0.0012010147329419851
1746728594608846800,6.608846923828125,-0.0003385529853403568,-0.0007357243448495865,-0.003668722929432988
1746728594618866000,6.618865966796875,-0.0008107312023639679,0.0005923942662775517,-0.0003781209234148264
1746728594628885000,6.628885009765625,-0.0017232345417141914,-0.0008093239739537239,-0.0018041478469967842
1746728594638903800,6.63890380859375,-0.00031096022576093674,0.0027425335720181465,-0.0002818848006427288
1746728594648923000,6.6489228515625,-0.0005040513351559639,-0.00028040772303938866,-0.0013286012690514326
1746728594658942000,6.65894189453125,0.00004669046029448509,-0.0003621671348810196,-0.0020588396582752466
1746728594668960800,6.668960693359375,-0.00027843378484249115,-0.00008998624980449677,-0.0013807439245283604
1746728594678979800,6.678979736328125,0.00170668656937778,0.0001478339545428753,-0.0032446905970573425
1746728594688999000,6.6889990234375,0.0017402935773134232,-0.001052414532750845,-0.00017479830421507359
1746728594699018000,6.69901806640625,-0.0004008878022432327,0.000286090187728405,0.0011975285597145557
1746728594709036800,6.709036865234375,-0.0026813731528818607,-0.0016804155893623829,0.001786822802387178
1746728594719056000,6.719055908203125,0.0005743410438299179,-0.00013258634135127068,-0.0017032497562468052
1746728594729075000,6.729074951171875,0.00010062893852591515,0.00044531095772981644,-0.002126104664057493
1746728594739094000,6.739093994140625,-0.0003774082288146019,0.0010418589226901531,-0.002163122408092022
1746728594749112800,6.74911279296875,0.0014307701494544744,-0.0029751367401331663,-0.000058478908613324165
1746728594759132000,6.7591318359375,-0.00174611434340477,0.0011213375255465508,-0.0035847704857587814
1746728594769151000,6.76915087890625,0.000060162972658872604,0.0007111048325896263,-0.0012081183958798647
1746728594779170000,6.779170166015625,0.000474817119538784,-0.002978438278660178,0.00026860437355935574
1746728594789188900,6.78918896484375,0.0006810268387198448,-0.0009410819038748741,-0.0004959465004503727
1746728594799208000,6.7992080078125,0.0008525345474481583,-0.00010618101805448532,-0.001463206484913826
1746728594809228000,6.80922802734375,-0.00008560763671994209,0.00046906154602766037,-0.0006497390568256378
1746728594819247000,6.8192470703125,0.001029457664117217,-0.0006031268276274204,0.000319385202601552
1746728594829265000,6.829264892578125,-0.0015623671934008598,-0.0017170044593513012,0.0007964915130287409
1746728594839285000,6.839284912109375,-0.0004116152413189411,-0.0024768041912466288,0.0005405617412179708
1746728594849304000,6.849303955078125,0.00033614877611398697,0.0019639614038169384,-0.0015660370700061321
1746728594859323100,6.8593232421875,0.000817115418612957,-0.0025506294332444668,-0.004185256082564592
1746728594869342000,6.869342041015625,0.0023936638608574867,-0.0003292839974164963,-0.00008233729749917984
1746728594879361000,6.879361083984375,-0.00011663185432553291,0.0007458338513970375,-0.001690087839961052
1746728594889380000,6.889380126953125,-0.0009890338405966759,0.0010932707227766514,0.00011139665730297565
1746728594899399000,6.89939892578125,-0.0009733214974403381,-0.001451645977795124,0.00032631377689540386
1746728594909418000,6.90941796875,0.0025983282830566168,-0.002058299956843257,-0.0018739085644483566
1746728594919437000,6.91943701171875,0.0002914983779191971,-0.0014601540751755238,-0.00006482331082224846
1746728594929455900,6.929455810546875,-0.0010497686453163624,0.0008330084383487701,0.0017100484110414982
1746728594939475000,6.939474853515625,-0.000004211906343698502,0.0003834669478237629,0.0008834032341837883
1746728594949493800,6.94949365234375,0.0031569600105285645,0.000677602831274271,-0.0018013250082731247
1746728594959512800,6.959512939453125,0.0008229655213654041,-0.0012044529430568218,0.0012208299012854695
1746728594969532000,6.969531982421875,0.0007329625077545643,-0.0013074842281639576,0.0010526616824790835
1746728594979550700,6.97955078125,0.002207554876804352,-0.0004725833423435688,0.001009518513455987
1746728594989569800,6.98956982421875,-0.003695577383041382,-0.0010276096872985363,0.0016544682439416647
1746728594999588900,6.9995888671875,0.001573752611875534,0.00024032127112150192,0.0021024118177592754
1746728595009608000,7.00960791015625,-0.000539146363735199,0.000702710822224617,-0.00038438569754362106
1746728595019626800,7.019626708984375,0.001444109482690692,0.0000774008221924305,0.001956532709300518
1746728595029645800,7.029645751953125,-0.0005312138237059116,0.00048334430903196335,-0.0017182205338031054
1746728595039665000,7.039664794921875,0.002023024018853903,-0.00043597910553216934,0.00086717598605901
1746728595049683700,7.04968359375,0.0010156596545130014,-0.001548087690025568,-0.00040753092616796494
1746728595059702800,7.059702880859375,0.001802091021090746,0.00040853675454854965,0.00016638031229376793
1746728595069721900,7.069721923828125,0.0007440499030053616,0.0010696761310100555,0.0005027763545513153
1746728595079741000,7.079740966796875,-0.0004154904745519161,-0.00037908321246504784,0.00028919102624058723
1746728595089759700,7.089759765625,-0.0008081016130745411,-0.0010571382008492947,0.0021271798759698868
1746728595099778800,7.09977880859375,-0.00042567169293761253,0.00004860665649175644,0.0012203736696392298
1746728595109798000,7.1097978515625,-0.000870746560394764,0.0004210127517580986,0.00004644482396543026
1746728595119817000,7.11981689453125,0.0011599138379096985,-0.00045543350279331207,0.0015609845286235213
1746728595129835800,7.129835693359375,-0.0009403335861861706,0.0007717553526163101,-0.0004411214031279087
1746728595139854800,7.139854736328125,0.00017260154709219933,-0.0017148382030427456,0.0015306830173358321
1746728595149874000,7.1498740234375,-0.0029913666658103466,0.0008969977498054504,0.000597657635807991
1746728595159893000,7.15989306640625,-0.003484584391117096,-0.0008028983138501644,-0.00016294117085635662
1746728595169911800,7.169911865234375,-0.0000679544173181057,-0.0008002542890608311,0.0028074427973479033
1746728595179931000,7.179930908203125,-0.0011007282882928848,0.0011883280239999294,-0.0036246238742023706
1746728595189950000,7.189949951171875,-0.0006722076795995235,-0.0004921890795230865,0.0015582138439640403
1746728595199968800,7.19996875,-0.0008445144630968571,0.0007919869385659695,-0.0007353005930781364
1746728595209987800,7.20998779296875,0.0009585344232618809,-0.0005893483757972717,0.0017283239867538214
1746728595220007000,7.2200068359375,-0.0008881012909114361,0.0012186714448034763,0.0011850391747429967
1746728595230026000,7.23002587890625,-0.00027535436674952507,-0.0017302385531365871,0.0009398700203746557
1746728595240044800,7.240044921875,0.002896204125136137,0.002185140736401081,0.00041123246774077415
1746728595250064000,7.25006396484375,-0.0003868495114147663,0.002727930434048176,0.00029298546724021435
1746728595260083000,7.2600830078125,-0.0005564931780099869,-0.0008636089041829109,0.0027023472357541323
1746728595270102000,7.27010205078125,-0.0008422513492405415,0.00007309764623641968,0.0020212936215102673
1746728595280120800,7.280120849609375,0.001052321633324027,-0.002028668997809291,-0.0013784980401396751
1746728595290140000,7.290139892578125,-0.0018933238461613655,0.00019306736066937447,0.00042921467684209347
1746728595300159000,7.300158935546875,0.0009743680711835623,0.0007731039077043533,-0.0011092934291809797
1746728595310177800,7.310177734375,-0.0016373037360608578,-0.0009333980269730091,0.001010217354632914
1746728595320196900,7.32019677734375,-0.002045033499598503,-0.00017892476171255112,0.0013244703877717257
1746728595330216000,7.3302158203125,-0.00041690701618790627,0.00008331332355737686,0.001743457862176001
1746728595340235000,7.340235107421875,-0.0011085299775004387,0.0006335224024951458,-0.0029216015245765448
1746728595350253800,7.35025390625,-0.0026760483160614967,0.0029702060855925083,0.00025185453705489635
1746728595360273000,7.36027294921875,-0.0022083972580730915,-0.002821103436872363,0.0015996802831068635
1746728595370292000,7.3702919921875,-0.00019774073734879494,-0.0021646420937031507,-0.00005176919512450695
1746728595380311000,7.38031103515625,-0.0018598195165395737,0.00013686157763004303,-0.00031409040093421936
1746728595390329900,7.390329833984375,-0.0016831043176352978,0.001304068136960268,0.001750297611579299
1746728595400349000,7.400348876953125,-0.00109481206163764,-0.0012211413122713566,-0.00006544566713273525
1746728595410368000,7.410367919921875,-0.002007091883569956,0.0009502512402832508,0.002435574308037758
1746728595420387000,7.420386962890625,-0.001241167075932026,-0.0012737545184791088,0.0005037172231823206
1746728595430406000,7.430406005859375,-0.002000774722546339,0.00017706165090203285,-0.001313862157985568
1746728595440425000,7.440425048828125,-0.00016798730939626694,0.0009065014310181141,0.0015788633609190583
1746728595450444000,7.450444091796875,-0.0006311400793492794,-0.0026247913483530283,0.00025273533537983894
1746728595460462800,7.460462890625,0.00038245925679802895,0.0004029562696814537,-0.0002271663397550583
1746728595470482000,7.47048193359375,0.0008443794213235378,-0.0008284570649266243,0.001470809569582343
1746728595480501000,7.4805009765625,0.00008644396439194679,-0.0010492331348359585,-0.00010365131311118603
1746728595490520000,7.49052001953125,-0.0008565951138734818,-0.002171661937609315,0.00036247260868549347
1746728595500539000,7.500538818359375,-0.00016337400302290916,-0.0011428827419877052,-0.0008660436142235994
1746728595510558000,7.510557861328125,0.0008164092432707548,0.0017257747240364552,0.002095518633723259
1746728595520577000,7.520576904296875,-0.00017748260870575905,-0.0005405754782259464,-0.0008707102388143539
1746728595530596000,7.53059619140625,0.0009294310584664345,0.0013589472509920597,0.0009525190107524395
1746728595540615000,7.540614990234375,0.0004900097846984863,-0.000004058238118886948,-0.0008488430175930262
1746728595550634000,7.550634033203125,0.0003232615999877453,-0.0005198582075536251,-0.00014523020945489407
1746728595560653000,7.560653076171875,0.00014030234888195992,-0.0011086827144026756,0.0015160496113821864
1746728595570672000,7.570672119140625,0.0005310438573360443,-0.0004335939884185791,0.0009181508794426918
1746728595580691000,7.58069091796875,0.0013912450522184372,0.0008444571867585182,0.000731729669496417
1746728595590710000,7.5907099609375,-0.0010310388170182705,0.0010762494057416916,-0.0028756149113178253
1746728595600729000,7.60072900390625,0.0010741900186985731,0.000038415659219026566,-0.0018553580157458782
1746728595610748000,7.610747802734375,-0.0002637859433889389,-0.0006713932380080223,-0.0009693186730146408
1746728595620767000,7.62076708984375,-0.0008161258883774281,-0.0014333236031234264,0.0007169949822127819
1746728595630786000,7.6307861328125,-0.0018651951104402542,0.0004158425144851208,-0.002804558025673032
1746728595640805000,7.64080517578125,0.000254681333899498,-0.0009836484678089619,-0.0029086878057569265
1746728595650824000,7.650823974609375,-0.0020144465379416943,0.001576851587742567,-0.0017210862133651972
1746728595660843000,7.660843017578125,-0.0009654276072978973,-0.00009987456724047661,0.0031088225077837706
1746728595670862000,7.670862060546875,-0.00036601442843675613,0.0009350287728011608,-0.0007854648865759373
1746728595680881000,7.680880859375,0.00038845883682370186,0.00015525519847869873,-0.00013592001050710678
1746728595690900000,7.69089990234375,-0.0005885637365281582,0.0019362857565283775,-0.00015410198830068111
1746728595700919000,7.7009189453125,0.0005930806510150433,-0.0015125079080462456,-0.0017581237480044365
1746728595710937900,7.710937744140625,-0.0011348901316523552,-0.0004941895604133606,-0.0016609602607786655
1746728595720957000,7.72095703125,-0.002193496562540531,-0.0003106980584561825,-0.00034802197478711605
1746728595730975700,7.730975830078125,-0.0007434822618961334,-0.0020315335132181644,0.0013589179143309593
1746728595740994800,7.740994873046875,0.000861072214320302,0.0025230045430362225,-0.0004128832370042801
1746728595751014000,7.751013916015625,-0.000513826496899128,-0.001997619867324829,-0.0013731480576097965
1746728595761032700,7.76103271484375,0.0007857962045818567,-0.0002655000425875187,-0.0006354523357003927
1746728595771051800,7.7710517578125,-0.000243497546762228,0.0020698150619864464,0.001512693939730525
1746728595781070800,7.78107080078125,-0.00028051575645804405,0.0005318396724760532,-0.0008186371996998787
1746728595791090000,7.79108984375,-0.00044545624405145645,0.0014354875311255455,-0.003081363392993808
1746728595801108700,7.801108642578125,-0.0006334753707051277,0.0006919330917298794,-0.00037212949246168137
1746728595811127800,7.8111279296875,-0.0005273590795695782,0.0005012708716094494,-0.002489512786269188
1746728595821147000,7.82114697265625,0.0008002265822142363,-0.0004044706001877785,-0.0019249222241342068
1746728595831166000,7.831166015625,-0.0010196138173341751,0.0010815472342073917,-0.001974328188225627
1746728595841184800,7.841184814453125,-0.001780212391167879,0.0006855353713035583,-0.000044601503759622574
1746728595851203800,7.851203857421875,0.0018494757823646069,0.001044570468366146,0.0011466266587376595
1746728595861223000,7.861222900390625,-0.0031042699702084064,-0.0011530700139701366,-0.0012683277018368244
1746728595871241700,7.87124169921875,0.0003761015832424164,-0.00035665975883603096,-0.0015763051342219114
1746728595881260800,7.8812607421875,0.000762526411563158,0.0006454875692725182,-0.0007179684471338987
1746728595891280000,7.89127978515625,0.00028549693524837494,-0.00026401132345199585,-0.0015485656913369894
1746728595901299000,7.901298828125,-0.001615201123058796,-0.00004989327862858772,0.002114878734573722
1746728595911317800,7.91131787109375,0.0015138986054807901,-0.0007817763835191727,0.0014592987718060613
1746728595921336800,7.9213369140625,-0.0021548718214035034,-0.0026587725151330233,0.00037086475640535355
1746728595931356000,7.93135595703125,-0.003041902557015419,0.0013163690455257893,-0.0026889543514698744
1746728595941375000,7.941375,0.000710491556674242,-0.0002586245536804199,-0.0018087795469909906
1746728595951393800,7.951393798828125,-0.0005406863056123257,0.001995690166950226,-0.000011182855814695358
1746728595961412900,7.961412841796875,-0.0006474792025983334,0.0008691730909049511,-0.0009861660655587912
1746728595971432000,7.971431884765625,0.00048258667811751366,-0.000629771500825882,-0.0017517167143523693
1746728595981451000,7.981450927734375,-0.0022229189053177834,0.0006083319894969463,0.0005085081793367863
1746728595991469800,7.9914697265625,-0.0027110008522868156,0.0017514643259346485,0.0019537368789315224
1746728596001489000,8.001489013671875,-0.0008044438436627388,0.00010403292253613472,-0.0013147606514394283
1746728596011508000,8.011508056640626,-0.0009847753681242466,-0.0019983078818768263,0.0005996436811983585
1746728596021526800,8.02152685546875,0.0015502877067774534,-0.0006246496923267841,0.0002694115974009037
1746728596031545900,8.0315458984375,-0.0004615769721567631,0.0002174973487854004,-0.0015735093038529158
1746728596041565000,8.04156494140625,0.0011256670113652945,-0.0008701379410922527,0.0009378516115248203
1746728596051584000,8.051583984375,0.0005976478569209576,-0.0030525752808898687,-0.0015792453195899725
1746728596061602800,8.061602783203124,0.0009036452975124121,0.0017981063574552536,-0.00033128797076642513
1746728596071622000,8.071621826171874,-0.00037463707849383354,-0.0001328638754785061,-0.0006241619121283293
1746728596081641000,8.081640869140625,0.0008221876341849566,-0.0019890868570655584,0.0016232796479016542
1746728596091660000,8.091659912109375,0.0019132685847580433,-0.0005825809203088284,0.0017098844982683659
1746728596101678800,8.101678955078125,-0.0015496397390961647,0.001998022198677063,0.004222310613840818
1746728596111698000,8.111697998046875,-0.0010559181682765484,0.0026687434874475002,-0.0004554495681077242
1746728596121717000,8.121717041015625,0.0016392008401453495,0.0023217336274683475,0.00030275224708020687
1746728596131736000,8.131736083984375,-0.0019320338033139706,0.0013457424938678741,-0.00026509095914661884
1746728596141755000,8.1417548828125,0.0007580253295600414,-0.0017531118355691433,-0.0005077049136161804
1746728596151774000,8.15177392578125,-0.0015727048739790916,-0.0009327647276222706,0.00036457902751863003
1746728596161793000,8.16179296875,0.003841768018901348,0.0007167975418269634,0.0013757813721895218
1746728596171811800,8.171811767578125,-0.0003471183590590954,0.0015373174101114273,0.0024666122626513243
1746728596181831000,8.181830810546876,-0.00026991264894604683,0.0008796011097729206,-0.00010490464046597481
1746728596191850000,8.19185009765625,0.000053091906011104584,-0.0008353628218173981,0.00019812863320112228
1746728596201869000,8.201869140625,0.00027892785146832466,-0.0009797061793506145,0.0009025346953421831
1746728596211887900,8.211887939453124,0.00002155546098947525,0.0005861655808985233,-0.0016645216383039951
1746728596221907000,8.221906982421874,0.00006975885480642319,0.0019046962261199951,-0.0003920632880181074
1746728596231926000,8.231926025390624,0.0014436256606131792,-0.0016510416753590107,-0.0013500724453479052
1746728596241945000,8.241945068359374,0.0030492455698549747,0.0015050703659653664,0.001301104435697198
1746728596251964000,8.2519638671875,0.00007619382813572884,-0.0007053702138364315,0.0007985259871929884
1746728596261983000,8.26198291015625,-0.0022620614618062973,0.0008824062533676624,-0.0014872653409838676
1746728596272002000,8.272001953125,-0.0007745986804366112,0.0007777195423841476,-0.0025245777796953917
1746728596282020900,8.282020751953125,-0.000003080815076828003,-0.0014201872982084751,0.00003844848833978176
1746728596292040000,8.2920400390625,0.00043806014582514763,-0.0021245593670755625,0.00079112418461591
1746728596302059000,8.30205908203125,-0.0005803327076137066,-0.001614297740161419,0.0006885924376547337
1746728596312078000,8.312078125,0.0004195026122033596,0.00025013694539666176,-0.0005050790496170521
1746728596322097000,8.322096923828125,0.00007595447823405266,-0.002149637322872877,-0.0003684589173644781
1746728596332116000,8.332115966796875,-0.0007708314806222916,0.002656205091625452,-0.0019929991103708744
1746728596342135000,8.342135009765625,-0.0014400840736925602,0.0002489732578396797,0.0015010682400316
1746728596352154000,8.352154052734376,0.0012523522600531578,-0.0013322420418262482,-0.00012512574903666973
1746728596362173400,8.36217333984375,-0.0028899284079670906,0.002589262556284666,0.0012831537751480937
1746728596372192500,8.372192626953124,0.0009183420334011316,-0.001965585630387068,-0.00046036229468882084
1746728596382211300,8.38221142578125,-0.0008611823432147503,0.0006134193390607834,0.003082174574956298
1746728596392230400,8.39223046875,-0.0015181265771389008,0.0011599911376833916,0.0006223360542207956
1746728596402248700,8.402248779296874,0.0010768573265522718,-0.00013643549755215645,0.0012489778455346823
1746728596412268300,8.412268310546875,0.0019389365334063768,-0.0006058020517230034,0.0017156858230009675
1746728596422286600,8.42228662109375,-0.0025604739785194397,-0.0018710698932409286,-0.002647371031343937
1746728596432305700,8.4323056640625,0.001487988280132413,-0.0009384164586663246,-0.0012691172305494547
1746728596442324500,8.442324462890625,-0.0030186129733920097,-0.0018777134828269482,-0.0002512570936232805
1746728596452343600,8.452343505859375,-0.0004780339077115059,0.0009700139053165913,-0.0008046526927500963
1746728596462362600,8.462362548828125,-0.0008458164520561695,0.000739650335162878,-0.0009615130256861448
1746728596472381700,8.472381591796875,0.00176049186848104,-0.0011975588276982307,-0.0020562829449772835
1746728596482400500,8.482400390625,0.0011072184424847364,-0.000876914244145155,-0.0006698414217680693
1746728596492419600,8.492419677734375,-0.001294917892664671,0.0009272592142224312,-0.0005632592365145683
1746728596502438700,8.502438720703125,-0.0014709532260894775,0.0004255198873579502,0.0013078778283670545
1746728596512457700,8.512457763671875,-0.000707496888935566,0.002764193806797266,0.0011397668858990073
1746728596522476500,8.5224765625,0.000898389145731926,0.0005092956125736237,0.0016961012734100223
1746728596532495600,8.53249560546875,-0.0004423861391842365,-0.00032069534063339233,0.000361553393304348
1746728596542514700,8.5425146484375,-0.002456268295645714,-0.00042562419548630714,-0.0028883018530905247
1746728596552533500,8.552533447265626,-0.0013249502517282963,-0.0011020968668162823,0.000979126780293882
1746728596562552600,8.562552490234374,0.0009653682354837656,-0.0009606829844415188,-0.0013476770836859941
1746728596572571400,8.5725712890625,0.0008107582107186317,-0.001578794326633215,0.00034346291795372963
1746728596582590500,8.582590576171874,-0.00035410840064287186,-0.0008706599473953247,-0.00047359499149024487
1746728596592609300,8.592609375,-0.0008681779727339745,0.0009785345755517483,0.0019248821772634983
1746728596602628400,8.60262841796875,0.00048417551442980766,0.0015002479776740074,0.0034724450670182705
1746728596612647400,8.6126474609375,-0.0016122665256261826,-0.0010466650128364563,0.0024208968970924616
1746728596622666500,8.62266650390625,-0.0003818860277533531,0.00025082705542445183,0.00044776080176234245
1746728596632685300,8.632685302734375,0.00039534270763397217,0.0006616823375225067,-0.003142702393233776
1746728596642704400,8.642704345703125,0.00004806648939847946,0.001072607934474945,-0.0019677155651152134
1746728596652723500,8.652723388671875,-0.0006737755611538887,-0.0003652609884738922,-0.001517236465588212
1746728596662742500,8.662742431640625,0.00014860834926366806,0.0005934773944318295,-0.0007779428269714117
1746728596672761300,8.67276123046875,0.0003525898791849613,0.000028800684958696365,0.0007131157908588648
1746728596682780400,8.682780517578125,0.0018572758417576551,0.000914035364985466,0.0020265867933630943
1746728596692799500,8.692799560546876,-0.0008563324809074402,0.0016038445755839348,-0.0007533032912760973
1746728596702818300,8.702818359375,0.002094982424750924,-0.0004627681337296963,-0.0009312024340033531
1746728596712837400,8.71283740234375,-0.0009459457360208035,0.0002832380123436451,-0.00024119997397065163
1746728596722856400,8.7228564453125,-0.0011688522063195705,0.000796428881585598,-0.0003328127786517143
1746728596732875500,8.73287548828125,0.0019398105796426535,-0.003192493226379156,-0.0018705925904214382
1746728596742894300,8.742894287109374,0.0039337193593382835,0.0005740155465900898,-0.0036961897276341915
1746728596752913400,8.752913330078124,-0.00025633862242102623,0.0006890981458127499,-0.001707390882074833
1746728596762932500,8.762932373046874,0.0009868249762803316,0.0011104103177785873,0.0021422086283564568
1746728596772951600,8.77295166015625,-0.00018958188593387604,-0.0009727673605084419,0.0011751066194847226
1746728596782970400,8.782970458984375,-0.00513240834698081,-0.001806869637221098,-0.0012566258665174246
1746728596792989400,8.792989501953125,0.0003254399634897709,-0.00021156715229153633,-0.0024906618054956198
1746728596803008500,8.803008544921875,0.0002482081763446331,0.000776998233050108,-0.000681576319038868
1746728596813027600,8.813027587890625,-0.0013627447187900543,0.00015615252777934074,-0.000581544591113925
1746728596823046400,8.82304638671875,0.0014016164932399988,0.0006022322922945023,-0.002726454520598054
1746728596833065500,8.8330654296875,-0.001265895552933216,-0.0004150792956352234,0.0009178584441542625
1746728596843084500,8.84308447265625,0.0008430615998804569,-0.0019530546851456165,-0.002015613717958331
1746728596853103400,8.853103271484375,0.0009149902034550905,0.0013267574831843376,-0.00008688843809068203
1746728596863122400,8.863122314453125,-0.0004626628942787647,-0.0004298635758459568,0.00041085644625127316
1746728596873141500,8.8731416015625,-0.0015349327586591244,0.00021381443366408348,0.00507714506238699
1746728596883160600,8.88316064453125,-0.0011911187320947647,0.00195392407476902,-0.0029070121236145496
1746728596893179400,8.893179443359376,-0.0008088606409728527,0.0008749640546739101,0.0037466809153556824
1746728596903198500,8.903198486328124,-0.003164959140121937,0.0008422071114182472,-0.0005980001296848059
1746728596913217500,8.913217529296874,-0.00026096636429429054,0.00036883819848299026,-0.0013763054739683867
1746728596923236600,8.923236572265624,0.0010021710768342018,-0.000598155427724123,-0.0007853498682379723
1746728596933255400,8.93325537109375,0.002021100837737322,-0.0009504668414592743,-0.0005414250772446394
1746728596943274500,8.9432744140625,-0.0004974505864083767,-0.002899101935327053,-0.00031931744888424873
1746728596953293600,8.95329345703125,-0.0010295948013663292,-0.0029290197417140007,0.00024515530094504356
1746728596963312400,8.9633125,0.0019217203371226788,0.0002630450762808323,-0.0007167784497141838
1746728596973331500,8.97333154296875,-0.0002869069576263428,0.0009543830528855324,-0.0010680626146495342
1746728596983350500,8.9833505859375,0.0017027405556291342,0.0002672877162694931,0.00014607259072363377
1746728596993369600,8.99336962890625,0.0008283453062176704,-0.0006919773295521736,0.00046668038703501225
1746728597003388400,9.003388427734375,-0.0016252249479293823,-0.000013404060155153275,-0.001584486337378621
1746728597013407500,9.013407470703125,-0.000075541902333498,0.0017058574594557285,-0.0008106410969048738
1746728597023426600,9.023426513671875,-0.0008318796753883362,0.0009521828033030033,0.0034730536863207817
1746728597033445600,9.033445556640626,-0.0008042310364544392,-0.0011233380064368248,0.0020806004758924246
1746728597043464400,9.04346435546875,0.00024239160120487213,0.0018133297562599182,0.0018611559644341469
1746728597053483500,9.0534833984375,0.001416412414982915,-0.0003716251812875271,-0.0013406008947640657
1746728597063502600,9.063502685546876,0.0014342556241899729,0.00013277772814035416,-0.0018822879064828157
1746728597073521700,9.073521728515624,0.0017126903403550386,-0.0004983358085155487,-0.0008015700150281191
1746728597083540500,9.08354052734375,-0.0015773787163197994,0.0005980874411761761,0.0009087121579796076
1746728597093559600,9.0935595703125,0.00036009494215250015,-0.0023629816714674234,-0.0012126348447054625
1746728597103578600,9.10357861328125,-0.0006889244541525841,-0.001546456478536129,0.001035339548252523
1746728597113597400,9.113597412109375,-0.0023352219723165035,-0.0004727933555841446,0.001370551297441125
1746728597123616500,9.123616455078125,0.0014584509190171957,0.0005096467211842537,0.0005044913850724697
1746728597133634600,9.133634521484375,0.0009478146675974131,-0.0004422105848789215,0.0018288549035787582
1746728597143653400,9.1436533203125,0.0005715098232030869,0.00035061221569776535,-0.0023235459811985493
1746728597153672400,9.15367236328125,0.0015568060334771872,-0.0017647906206548214,-0.0008259194437414408
1746728597163691500,9.16369140625,-0.0003026127815246582,-0.0005115070380270481,-0.0032025245018303394
1746728597173710600,9.173710693359375,-0.0011600358411669731,0.0012334361672401428,-0.0000922235194593668
1746728597183729400,9.1837294921875,0.0013044532388448715,0.000955136027187109,-0.0017130235210061073
1746728597193748500,9.19374853515625,0.00022108247503638268,-0.0020492402836680412,-0.0005298261530697346
1746728597203767600,9.203767578125,-0.0007733418606221676,-0.0011243242770433426,0.002253177110105753
1746728597213786600,9.21378662109375,0.00021478068083524704,-0.0005561746656894684,-0.0009569732937961817
1746728597223805400,9.223805419921876,-0.00028323056176304817,0.002006318885833025,0.002609798451885581
1746728597233824500,9.233824462890626,0.0003002835437655449,-0.00007189111784100533,-0.0016434192657470703
1746728597243843600,9.243843505859376,0.0001964205875992775,0.0015808669850230217,0.0020911316387355328
1746728597253862700,9.253862548828126,-0.00021368730813264847,0.00029167626053094864,0.0013347417116165161
1746728597263881500,9.263881591796874,-0.0003822655417025089,-0.0017648166976869106,0.0020796279422938824
1746728597273900500,9.273900634765624,0.0007498525083065033,-0.0014171167276799679,0.00003983150236308575
1746728597283919600,9.283919677734374,0.000990069704130292,-0.0004080450162291527,0.00037379190325737
1746728597293938400,9.2939384765625,0.00018719956278800964,0.00044105248525738716,0.0004674412775784731
1746728597303957500,9.30395751953125,0.0008300864137709141,-0.00015096832066774368,-0.00034002913162112236
1746728597313976600,9.3139765625,-0.00041658105328679085,0.0007565259002149105,-0.0013813015539199114
1746728597323995600,9.32399560546875,-0.0009026080369949341,0.0008153817616403103,0.000368661480024457
1746728597334014500,9.334014404296875,0.003183109685778618,-0.00023667560890316963,0.0006566345691680908
1746728597344033500,9.344033447265625,0.0007396596483886242,-0.0004412061534821987,0.00006115157157182693
1746728597354052600,9.354052490234375,-0.0005528060719370842,0.000982749741524458,0.0016134277684614062
1746728597364071700,9.36407177734375,-0.00007956242188811302,-0.0018098405562341213,0.0008347193943336606
1746728597374090800,9.3740908203125,-0.0017381925135850906,-0.0006153164431452751,0.0010768530191853642
1746728597384109800,9.38410986328125,0.0014685196802020073,0.0008014850318431854,0.00007390649989247322
1746728597394128600,9.394128662109376,0.00016398075968027115,-0.0006800075061619282,0.002021227963268757
1746728597404147700,9.404147705078126,-0.0002450807951390743,0.0002728719264268875,0.0005599514115601778
1746728597414166800,9.414166748046876,0.0018841871060431004,0.0003062109462916851,0.00013986951671540737
1746728597424185600,9.424185546875,0.001017328118905425,0.0018250113353133202,0.0012376244412735105
1746728597434204700,9.43420458984375,0.0008117938414216042,0.0002872524783015251,0.0019374913536012173
1746728597444223700,9.4442236328125,-0.0018391166813671589,0.0017991289496421814,0.0009507902432233095
1746728597454242800,9.454242919921874,-0.0005416856147348881,0.0003443644382059574,0.00022515165619552135
1746728597464261600,9.46426171875,-0.00022370414808392525,0.0037814402021467686,-0.0001479571219533682
1746728597474280700,9.47428076171875,-0.0013257097452878952,-0.0014325170777738094,0.00045074429363012314
1746728597484299800,9.4842998046875,-0.000029283110052347183,-0.00017497269436717033,0.0018017659895122051
1746728597494318800,9.49431884765625,-0.0003360374830663204,-0.0010128156282007694,-0.00023805489763617516
1746728597504337700,9.504337646484375,-0.000022316817194223404,-0.0004301159642636776,-0.00007879780605435371
1746728597514356700,9.514356689453125,0.0021661967039108276,0.00003920914605259895,-0.0007486988324671984
1746728597524375600,9.52437548828125,0.0010822901967912912,-0.0009924997575581074,0.00034772465005517006
1746728597534394600,9.53439453125,0.0021623328793793917,0.000924255233258009,-0.0013861614279448986
1746728597544413400,9.544413330078125,-0.002016433048993349,-0.0020076187793165445,-0.003180865664035082
1746728597554432500,9.5544326171875,0.00006521306931972504,0.0019069919362664223,-0.00013258331455290318
1746728597564451600,9.56445166015625,0.0011746862437576056,0.0018579894676804543,0.0007941967342048883
1746728597574470400,9.574470458984376,0.0009538158774375916,0.00006162794306874275,0.001979415537789464
1746728597584488700,9.58448876953125,-0.0003234362229704857,-0.0017418647184967995,-0.00004591839388012886
1746728597594507800,9.5945078125,-0.0017002415843307972,-0.0015206607058644295,0.0000958065502345562
1746728597604526600,9.604526611328126,-0.00012737885117530823,0.0007068072445690632,-0.0000197745393961668
1746728597614545700,9.614545654296874,-0.001580048818141222,-0.0018310882151126862,-0.001106096664443612
1746728597624564700,9.624564697265624,0.0011427670251578093,-0.0006710151210427284,0.00200660596601665
1746728597634583800,9.634583740234374,-0.0012281578965485096,0.000025106128305196762,0.0014184657484292984
1746728597644602600,9.6446025390625,0.00024297228083014488,-0.002092106966301799,-0.002713162451982498
1746728597654621700,9.65462158203125,-0.0006469087675213814,0.002954268828034401,0.0006880627479404211
1746728597664640800,9.664640869140625,0.00062554981559515,-0.00005563627928495407,-0.001397724961861968
1746728597674659800,9.674659912109375,0.00026283273473381996,0.000648904126137495,-0.0007508520502597094
1746728597684678700,9.6846787109375,-0.0001664687879383564,-0.0005053100176155567,-0.0002270082477480173
1746728597694697700,9.69469775390625,0.0032873032614588737,0.0006296536885201931,-0.001451053423807025
1746728597704716800,9.704716796875,0.0007357285358011723,0.0005159368738532066,0.0018225043313577771
1746728597714735900,9.71473583984375,0.0007924032397568226,-0.00020524440333247185,-0.0010075510945171118
1746728597724754700,9.724754638671875,0.0002765487879514694,0.0017148945480585098,-0.0010440363548696041
1746728597734773800,9.734773681640625,0.0010079434141516685,-0.00042194873094558716,0.0027029456105083227
1746728597744792600,9.74479248046875,0.0013387079816311598,0.0009298715740442276,-0.0004180127289146185
1746728597754811600,9.754811767578126,-0.003872644156217575,0.0010906360112130642,-0.00014791800640523434
1746728597764830500,9.76483056640625,-0.0008640713058412075,-0.0005834270268678665,-0.00013673258945345879
1746728597774849500,9.774849609375,-0.0006850492209196091,-0.0005304724909365177,0.0022564558312296867
1746728597784868600,9.78486865234375,0.000885416753590107,-0.001871374435722828,0.000998378498479724
1746728597794887400,9.794887451171874,-0.0014668074436485767,-0.00021518580615520477,0.003987700678408146
1746728597804906500,9.804906494140624,0.001789705827832222,0.000038613565266132355,0.001997520448639989
1746728597814925600,9.814925537109374,-0.0016498705372214317,0.001871923916041851,0.00003896118141710758
1746728597824944600,9.824944580078125,-0.0005875355564057827,-0.0019502451177686453,0.00045867543667554855
1746728597834963500,9.83496337890625,-0.002672240138053894,-0.0013682851567864418,0.0001324848271906376
1746728597844982500,9.844982421875,-0.0017217579297721386,-0.0008846549317240715,-0.00027417996898293495
1746728597855001600,9.855001708984375,-0.0026125898584723473,-0.0007099718786776066,0.0003086007200181484
1746728597865020400,9.8650205078125,0.0005762791261076927,0.00019896496087312698,0.002128871390596032
1746728597875039500,9.87503955078125,0.00029343878850340843,0.0001309807412326336,-0.0009011728689074516
1746728597885058600,9.88505859375,0.0032777769956737757,-0.0009270934388041496,0.0006333405617624521
1746728597895077600,9.89507763671875,0.0004870649427175522,0.0006193332374095917,-0.0004181736148893833
1746728597905096400,9.905096435546875,0.0018053296953439713,-0.0010238373652100563,-0.0005132483784109354
1746728597915115500,9.915115478515625,-0.0001454404555261135,0.0016341316513717175,-0.0016066567040979862
1746728597925134600,9.925134521484376,0.00014058267697691917,-0.0018325052224099636,-0.0007347376085817814
1746728597935153700,9.935153564453126,-0.000775554683059454,-0.000624414999037981,0.0012573363492265344
1746728597945172500,9.94517236328125,0.0007435125298798084,0.0010389951057732105,0.0009891560766845942
1746728597955190800,9.955190673828126,-0.0007321303710341454,-0.0016206959262490273,0.001710618264041841
1746728597965209600,9.965209716796876,-0.00134705426171422,0.0029381029307842255,-0.00021404819563031197
1746728597975228700,9.975228759765624,0.0001566070131957531,-0.00020681973546743393,0.0025603696703910828
1746728597985247500,9.98524755859375,0.000054341740906238556,-0.0005815261974930763,-0.0017451629973948002
1746728597995266600,9.9952666015625,0.0008563268929719925,-0.0009519103914499283,-0.0008438709191977978
1746728598005285600,10.00528564453125,0.0000286162830889225,-0.0012853383086621761,-0.001859867013990879
1746728598015304400,10.015304443359375,0.00024025002494454384,0.0013262131251394749,0.001767143257893622
1746728598025323500,10.025323486328125,-0.0005805362015962601,-0.0022432219702750444,-0.0013751203659921885
1746728598035342600,10.035342529296875,0.001271572895348072,0.001638050191104412,0.0006229367572814226
1746728598045361400,10.045361328125,-0.0005388436838984489,0.0012372443452477455,-0.0006186289247125387
1746728598055380500,10.05538037109375,0.0007774047553539276,0.0007530637085437775,-0.0003244990948587656
1746728598065399600,10.065399658203125,0.000620011705905199,-0.0009561530314385891,0.00012983614578843117
1746728598075418600,10.075418701171875,-0.000010133255273103714,-0.000302004162222147,-0.0008632249664515257
1746728598085437400,10.0854375,0.0025065538939088583,-0.0009651314467191696,-0.004022000357508659
1746728598095456500,10.09545654296875,0.0024055149406194687,-0.001085229218006134,-0.0007004081271588802
1746728598105475600,10.1054755859375,0.0006896401755511761,-0.0002825525589287281,-0.0014530173502862453
1746728598115494700,10.11549462890625,0.000740343239158392,-0.0017576091922819614,-0.00494728097692132
1746728598125513500,10.125513427734376,0.0008913446217775345,-0.0017395000904798508,-0.0028777383267879486
1746728598135532500,10.135532470703126,0.00013036280870437622,0.0019136196933686733,-0.0012838412076234818
1746728598145551600,10.145551513671874,-0.0001274310052394867,-0.0003348872996866703,0.0015247283736243844
1746728598155570700,10.15557080078125,0.0006443033926188946,-0.0003555719740688801,-0.0007547738496214151
1746728598165589500,10.165589599609374,-0.0016806363128125668,-0.0008578440174460411,0.0009757481748238206
1746728598175608600,10.175608642578124,0.0014700617175549269,0.0004902239888906479,-0.0004368990194052458
1746728598185627600,10.185627685546875,0.00006444519385695457,0.0011629383079707623,-0.0010984281543642282
1746728598195646500,10.195646484375,0.001672246027737856,0.001820193137973547,0.0006509451195597649
1746728598205665500,10.20566552734375,0.0007438682951033115,0.0015112664550542831,-0.0006550692487508059
1746728598215684600,10.2156845703125,-0.00015118438750505447,0.00000996096059679985,0.0002652951516211033
1746728598225703700,10.22570361328125,0.0009593535214662552,-0.0009604948572814465,0.00008633057586848736
1746728598235722500,10.235722412109375,0.0018635785672813654,-0.0020079752430319786,0.0020564072765409946
1746728598245741600,10.245741455078125,-0.0005609635263681412,-0.0002963617444038391,-0.0019005173817276955
1746728598255760600,10.2557607421875,0.00014522066339850426,0.0014841142110526562,-0.0005551199428737164
1746728598265779700,10.26577978515625,0.001001959666609764,0.0007014111615717411,-0.0015354296192526817
1746728598275798500,10.275798583984376,0.0016249408945441246,0.003132939338684082,-0.0011582784354686737
1746728598285817600,10.285817626953126,0.0005775196477770805,-0.00028602639213204384,-0.0004464155063033104
1746728598295835600,10.295835693359376,0.00007245037704706192,-0.0003821300342679024,-0.0011763270013034344
1746728598305854500,10.3058544921875,0.0007672691717743874,-0.0003040996380150318,0.0006860215216875076
1746728598315873500,10.31587353515625,-0.0016257883980870247,0.0007021739147603512,-0.0024423417635262012
1746728598325892600,10.325892578125,-0.0005954112857580185,0.0005498412065207958,-0.001514496747404337
1746728598335911400,10.335911376953124,-0.0027882279828190804,-0.0029939503874629736,0.0008367151021957397
1746728598345930500,10.345930419921874,-0.0007362621836364269,0.0016854899004101753,0.0013986420817673206
1746728598355949600,10.355949462890624,0.0022038200404495,0.0007233214564621449,0.0015769422752782702
1746728598365968600,10.36596875,0.0009148500394076109,-0.0002508624456822872,-0.002771201077848673
1746728598375987500,10.375987548828125,0.0005922922864556313,0.0008700322359800339,-0.0017889097798615694
1746728598386006500,10.386006591796875,0.0005683237686753273,-0.00020987959578633308,-0.0009614657610654831
1746728598396025600,10.396025634765625,-0.0018228297121822834,-0.00022742385044693947,-0.003158674808219075
1746728598406044700,10.406044677734375,-0.0003048279322683811,0.0008253236301243305,-0.0007783414330333471
1746728598416063500,10.4160634765625,-0.00014115264639258385,0.0006592669524252415,-0.00010698102414608002
1746728598426082600,10.42608251953125,0.0020255951676517725,-0.0017213327810168266,0.00009062560275197029
1746728598436101600,10.4361015625,-0.0003367704339325428,0.0011698962189257145,-0.002883153036236763
1746728598446120700,10.44612060546875,0.0007210373878479004,-0.0004399847239255905,0.0009624515660107136
1746728598456139500,10.456139404296875,-0.000599149614572525,0.0013937116600573063,-0.0001390704419463873
1746728598466158600,10.46615869140625,0.0009598650503903627,-0.0006457371637225151,0.00041406811214983463
1746728598476177700,10.476177734375,0.0010403660126030445,-0.00006082747131586075,0.0005052280612289906
1746728598486196500,10.486196533203126,-0.000918122474104166,-0.000835807528346777,0.00224693538621068
1746728598496215600,10.496215576171876,0.0001830211840569973,-0.0006946478970348835,0.00006920448504388332
1746728598506234600,10.506234619140624,0.0013127338606864214,-0.000829670112580061,-0.0003110948018729687
1746728598516253700,10.516253662109374,-0.0009312564507126808,0.0009625633247196674,0.002641357248649001
1746728598526272500,10.5262724609375,0.00029725953936576843,0.0008757440373301506,0.00007513514719903469
1746728598536291600,10.53629150390625,0.0006128191016614437,-0.0003758454695343971,-0.00028523802757263184
1746728598546310700,10.546310546875,0.0020101796835660934,-0.00042777741327881813,0.00021703424863517284
1746728598556329700,10.556329833984375,0.0005754958838224411,0.0014201165176928043,-0.000703785102814436
1746728598566348500,10.5663486328125,-0.0010445048101246357,0.0006411420181393623,0.0010626895818859339
1746728598576367600,10.57636767578125,0.0006681368686258793,0.000561415683478117,-0.0008523482829332352
1746728598586385700,10.5863857421875,-0.0006061852909624577,-0.002710277447476983,-0.003023623488843441
1746728598596404500,10.596404541015625,-0.001126750372350216,-0.0001501687802374363,0.00024398695677518845
1746728598606423600,10.606423583984375,0.0019776965491473675,0.0008250810205936432,0.0006392002105712891
1746728598616442600,10.616442626953125,-0.0010082405060529709,0.0003230953589081764,0.002011755481362343
1746728598626461700,10.626461669921875,0.0008794083259999752,-0.0004132688045501709,-0.0013331747613847256
1746728598636480500,10.63648046875,0.0005736546590924263,-0.003088574158027768,-0.0009798170067369938
1746728598646499600,10.64649951171875,-0.003042918164283037,-0.0006613689474761486,0.0013648300664499402
1746728598656518700,10.6565185546875,-0.0019734660163521767,-0.001307330559939146,0.0008747894316911697
1746728598666537500,10.666537353515626,0.0008670617826282978,0.0007387758232653141,-0.0007481409702450037
1746728598676556500,10.676556640625,0.00019532861188054085,-0.00023127207532525063,0.001669116667471826
1746728598686575600,10.68657568359375,-0.0007048198021948338,0.00019696401432156563,0.0012011992512270808
1746728598696594700,10.6965947265625,-0.0005732784047722816,-0.00037531182169914246,-0.0002872797194868326
1746728598706613500,10.706613525390624,-0.0011924635618925095,0.0001863487996160984,-0.0008521361742168665
1746728598716632600,10.716632568359374,-0.0006864513270556927,-0.002068052301183343,0.0016597136855125427
1746728598726651600,10.726651611328125,0.0014257016591727734,-0.0018669837154448032,0.000030391616746783257
1746728598736670700,10.736670654296875,0.00027474015951156616,0.0002571488730609417,0.0008527406025677919
1746728598746689500,10.746689453125,-0.0008360641077160835,0.0007935096509754658,0.002842121757566929
1746728598756708600,10.75670849609375,0.0005005816929042339,-0.0007136380299925804,0.001075964653864503
1746728598766727700,10.766727783203125,-0.000013940967619419098,0.0008323271758854389,0.0017569349147379398
1746728598776746800,10.776746826171875,0.0008029988966882229,0.0016524442471563816,0.00139607151504606
1746728598786765600,10.786765625,-0.0005395007319748402,-0.00141205545514822,0.000940404599532485
1746728598796784600,10.79678466796875,-0.0002137008123099804,-0.0005837799981236458,-0.000181462150067091
1746728598806803700,10.8068037109375,-0.0005021211691200733,-0.0009896457195281982,-0.0019737696275115013
1746728598816822500,10.816822509765625,0.0028340269345790148,0.0008280244655907154,0.0013897214084863663
1746728598826841600,10.826841552734376,-0.0002792081795632839,0.001741222571581602,0.0008565564639866352
1746728598836860700,10.836860595703126,-0.002914268523454666,-0.00033312151208519936,0.0009103656047955155
1746728598846879700,10.846879638671876,0.0004871208220720291,-0.0005461745895445347,0.000581731554120779
1746728598856897500,10.8568974609375,-0.00018155528232455254,-0.0010257097892463207,0.0004678640980273485
1746728598866916600,10.86691650390625,0.000038421712815761566,0.00018336577340960503,-0.0008245680946856737
1746728598876935700,10.876935791015624,-0.0009226454421877861,0.00033407798036932945,-0.003019209485501051
1746728598886954500,10.88695458984375,-0.00021530967205762863,-0.0013370555825531483,0.0031792980153113604
1746728598896973600,10.8969736328125,-0.001409461721777916,0.0003398405387997627,0.0006698309443891048
1746728598906992600,10.90699267578125,-0.0007138443179428577,0.0017206897027790546,0.001575305825099349
1746728598917011700,10.91701171875,0.0005811550654470921,-0.0019724618177860975,0.0010392674012109637
1746728598927030500,10.927030517578125,0.00023414473980665207,-0.0008478090167045593,-0.0022521333303302526
1746728598937049600,10.937049560546875,-0.0009776107035577297,0.0005475874058902264,-0.0004318046849220991
1746728598947068700,10.947068603515625,-0.0005893218331038952,0.0005145641043782234,-0.002674985211342573
1746728598957087500,10.95708740234375,-0.0018825526349246502,-0.0014578024856746197,0.0005616317503154278
1746728598967106600,10.9671064453125,0.00073640001937747,-0.0014458182267844677,-0.0008511750493198633
1746728598977125600,10.977125732421875,-0.002059606369584799,-0.0010345936752855778,0.0018480964936316013
1746728598987144700,10.987144775390625,-0.001774914562702179,0.0007377401925623417,-0.002401509555056691
1746728598997163500,10.99716357421875,-0.001894448883831501,-0.0015467521734535694,-0.00012136576697230339
1746728599007182600,11.0071826171875,-0.000013990793377161026,-0.0012996108271181583,-0.0005213725380599499
1746728599017201700,11.01720166015625,-0.0019713426008820534,0.0010095401667058468,0.003100467147305608
1746728599027220700,11.027220703125,-0.001012871041893959,0.001784253865480423,0.002116162795573473
1746728599037239600,11.037239501953126,0.002563255373388529,0.00020333798602223396,-0.0002934986259788275
1746728599047258600,11.047258544921876,-0.0021686493419110775,-0.0028246762230992317,-0.0011819289065897465
1746728599057277700,11.057277587890624,0.0002445667050778866,0.0004603927955031395,-0.0016358222346752882
1746728599067296800,11.067296875,0.001624617027118802,0.00030299974605441093,0.0006289300508797169
1746728599077315600,11.077315673828124,-0.0001780269667506218,0.0007971902377903461,0.001963405404239893
1746728599087334700,11.087334716796875,0.0009181301575154066,0.0002427203580737114,0.000496536260470748
1746728599097352700,11.097352783203124,0.0010792436078190804,-0.0009393226355314255,0.0024446158204227686
1746728599107371500,11.10737158203125,0.002259290311485529,0.0011118440888822079,-0.0014414689503610134
1746728599117390600,11.117390625,-0.0007871496491134167,0.000343231949955225,0.00031564245000481606
1746728599127409700,11.12740966796875,0.0015686829574406147,-0.0019374988041818142,0.0007007354870438576
1746728599137428500,11.137428466796875,0.0005057640373706818,-0.0004410906694829464,0.0005320527125149965
1746728599147447600,11.147447509765625,-0.003650898113846779,-0.0007705236785113811,0.0002630732487887144
1746728599157466600,11.157466552734375,0.0008068843744695187,0.000005895271897315979,0.00009446893818676472
1746728599167485700,11.167485595703125,0.0004702610895037651,-0.0009240806102752686,-0.0014352509751915932
1746728599177504500,11.17750439453125,-0.001226666383445263,-0.0016038240864872932,0.005277181975543499
1746728599187523600,11.187523681640625,0.0007475349120795727,-0.0018469709903001785,-0.0012065502814948559
1746728599197542700,11.197542724609375,0.0005704248324036598,-0.002623562468215823,-0.0007669362239539623
1746728599207561700,11.207561767578126,0.0010484624654054642,0.0008979355916380882,0.0006679750513285398
1746728599217580500,11.21758056640625,0.0009664974641054869,-0.002277523744851351,-0.00007328437641263008
1746728599227599600,11.227599609375,0.0006554401479661465,-0.0013619288802146912,0.0009110200917348266
1746728599237618700,11.23761865234375,0.0011772233992815018,-0.00034914305433630943,-0.00017645605839788914
1746728599247637800,11.2476376953125,-0.0009572999551892281,-0.0017190729267895222,0.0006246229168027639
1746728599257656600,11.257656494140624,0.0020083303097635508,0.0016313279047608376,0.0023120995610952377
1746728599267675600,11.267675537109374,-0.0030319681391119957,-0.0002826862037181854,-0.002998776501044631
1746728599277694700,11.27769482421875,-0.0018122587352991104,0.0007368423976004124,0.003155398415401578
1746728599287713500,11.287713623046875,0.0008959097322076559,-0.00028687668964266777,-0.0007109788712114096
1746728599297732600,11.297732666015625,-0.0002636164426803589,0.0006125280633568764,-0.0014585957396775484
1746728599307751700,11.307751708984375,-0.001871100626885891,0.0006676553748548031,0.0010682115098461509
1746728599317770800,11.317770751953125,0.00011024530977010727,-0.0005003265105187893,0.00019515235908329487
1746728599327788500,11.32778857421875,0.0010095946490764618,0.00029942067340016365,0.0007083434611558914
1746728599337807600,11.3378076171875,0.0011543398723006248,0.0010587298311293125,0.0009653394808992743
1746728599347826700,11.34782666015625,-0.0005849706940352917,-0.0006385026499629021,-0.0003121788613498211
1746728599357845500,11.357845458984375,0.00025692442432045937,-0.003905987599864602,0.001936114626005292
1746728599367864000,11.367864013671875,0.001585841877385974,-0.00003721332177519798,-0.0018540960736572742
1746728599377883100,11.377883056640625,-0.0020203418098390102,0.0005531716160476208,0.002946988446637988
1746728599387902200,11.387902099609375,-0.0017364490777254105,-0.00008279085159301758,-0.00222513685002923
1746728599397921000,11.397921142578125,0.0012856400571763515,0.0006101056933403015,-0.0005232987459748983
1746728599407940000,11.407940185546876,-0.0011050794273614883,-0.00044450629502534866,0.0001435568556189537
1746728599417959200,11.417959228515626,0.0012605886440724134,0.0004143337719142437,-0.00024798838421702385
1746728599427978200,11.427978271484376,0.0017572680953890085,-0.00013214675709605217,0.002783221425488591
1746728599437997000,11.4379970703125,0.00048288749530911446,0.0011436818167567253,0.000896163284778595
1746728599448016100,11.44801611328125,-0.0013096858747303486,-0.0012089544907212257,0.0013744669267907739
1746728599458035200,11.45803515625,-0.0003903140313923359,-0.001112399622797966,0.0006181758362799883
1746728599468054000,11.468053955078124,-0.000007085036486387253,-0.002018140396103263,0.0031740113627165556
1746728599478073000,11.478072998046875,-0.0009332252666354179,0.00036141835153102875,0.0007299573626369238
1746728599488092200,11.488092041015625,0.00004202406853437424,0.000604565255343914,-0.0023182968143373728
