time,seconds_elapsed,z,y,x
1746738741971422700,0.021422607421875,0.0007137185893952847,-0.013310976326465607,-0.009271054528653622
1746738741981502500,0.03150244140625,-0.0025152163580060005,0.01605447567999363,0.016914013773202896
1746738741991581700,0.041581787109375,0.0005831057205796242,-0.00458236038684845,-0.005877586081624031
1746738742001660700,0.05166064453125,-0.00013276375830173492,-0.007662642747163773,-0.009086919017136097
1746738742011739400,0.061739501953125,0.0002728356048464775,0.01185673102736473,0.010704629123210907
1746738742021819600,0.071819580078125,0.00024206005036830902,-0.0069663310423493385,-0.0023326787631958723
1746738742031898600,0.081898681640625,-0.00015608267858624458,-0.009130416437983513,-0.005717822350561619
1746738742041977600,0.0919775390625,-0.00030921539291739464,0.011547432281076908,0.007353504654020071
1746738742052056600,0.102056640625,0.0007475269958376884,-0.0007739490829408169,0.00019679174874909222
1746738742062136600,0.112136474609375,0.00008312473073601723,-0.007405007258057594,-0.004555652849376202
1746738742072215600,0.122215576171875,-0.0002806629054248333,0.0056601944379508495,0.004584315232932568
1746738742082294500,0.13229443359375,-0.0000015855766832828522,-0.002438352908939123,0.0022962153889238834
1746738742092373500,0.14237353515625,-0.000045794062316417694,-0.00511483009904623,-0.0051377322524785995
1746738742102453500,0.15245361328125,0.001108984462916851,0.009177235886454582,0.0013453357387334108
1746738742112532700,0.16253271484375,-0.00030036037787795067,0.002710281405597925,0.003732060780748725
1746738742122611500,0.172611572265625,0.0027734008617699146,-0.008248839527368546,-0.0032698879949748516
1746738742132690700,0.182690673828125,-0.0000748499296605587,0.003878663294017315,0.0022732154466211796
1746738742142770400,0.1927705078125,-0.0013930457644164562,0.0021140705794095993,-0.0031823471654206514
1746738742152849700,0.202849609375,0.0019409656524658203,-0.001543781254440546,-0.005355753004550934
1746738742162928600,0.2129287109375,0.0016191871836781502,0.0036965031176805496,0.004961410071700811
1746738742173007600,0.223007568359375,-0.0003456934355199337,-0.0019723018631339073,0.0014806586550548673
1746738742183087600,0.233087646484375,0.0020263749174773693,-0.005201720632612705,-0.0005797860212624073
1746738742193166600,0.24316650390625,0.0014713723212480545,0.0065966155380010605,0.002143296180292964
1746738742203245600,0.25324560546875,-0.0012864596210420132,-0.0016817855648696423,-0.0009522505570203066
1746738742213324500,0.263324462890625,0.00034792255610227585,-0.004400607198476791,0.0009748127777129412
1746738742223404500,0.273404541015625,0.00010763714089989662,-0.0010620858520269394,0.002340825507417321
1746738742233483500,0.2834833984375,0.0001622322015464306,0.00012089032679796219,0.002342423191294074
1746738742243562500,0.2935625,0.0015106224454939365,-0.0018166154623031616,-0.0005509628099389374
1746738742253641700,0.303641845703125,0.0003343038260936737,0.0022540264762938023,0.0011662434553727508
1746738742263720200,0.31372021484375,-0.0008551739156246185,-0.0013729645870625973,-0.0005808077985420823
1746738742273799400,0.32379931640625,0.0016101142391562462,-0.004451845306903124,-0.0007565763662569225
1746738742283878400,0.33387841796875,-0.0012851031497120857,0.0013796589337289333,0.0005547467735596001
1746738742293957000,0.34395703125,0.00011998042464256287,0.004005535040050745,-0.0030045679304748774
1746738742304037400,0.354037353515625,0.0010207113809883595,0.000493235420435667,-0.00033367559080943465
1746738742314116400,0.364116455078125,-0.0010786587372422218,-0.0030855201184749603,0.0014570339117199183
1746738742324195300,0.3741953125,0.00015051988884806633,-0.00039789360016584396,-0.0004736032569780946
1746738742334274300,0.3842744140625,0.0023401707876473665,-0.000370729248970747,-0.003965806681662798
1746738742344354300,0.394354248046875,0.0002464628778398037,0.002507100347429514,0.00098333484493196
1746738742354433300,0.404433349609375,0.0014209169894456863,0.0017606164328753948,0.004555433057248592
1746738742364512300,0.41451220703125,0.0009700348600745201,-0.003176421392709017,-0.00037802988663315773
1746738742374591200,0.42459130859375,0.0003170277923345566,0.000021768733859062195,0.0003319688839837909
1746738742384671200,0.434671142578125,0.0006591957062482834,0.001568920910358429,-0.000741826428566128
1746738742394750500,0.44475048828125,0.0014501544646918774,-0.0011040936224162579,0.0000430070940637961
1746738742404829200,0.4548291015625,-0.00013556936755776405,-0.003381183836609125,0.0007656429661437869
1746738742414908400,0.464908447265625,-0.0002610045485198498,-0.0014666374772787094,0.003446913557127118
1746738742424988200,0.47498828125,0.0007846006192266941,-0.0014755497686564922,0.002892719581723213
1746738742435067400,0.4850673828125,0.002482898300513625,0.002807612530887127,0.0003818912082351744
1746738742445146400,0.495146484375,-0.0016691945493221283,0.0007364875636994839,-0.002257473999634385
1746738742455225300,0.505225341796875,-0.0009445482864975929,-0.0012403768487274647,-0.0001011126150842756
1746738742465305300,0.515305419921875,0.0012738644145429134,-0.0020651579834520817,0.0028640509117394686
1746738742475384300,0.52538427734375,0.0015234025195240974,0.0004587196744978428,0.0005452365730889142
1746738742485463300,0.53546337890625,0.00001576542854309082,0.003185390029102564,-0.0005369865102693439
1746738742495542300,0.545542236328125,0.0006123138591647148,0.0011185104958713055,0.0009551826515235007
1746738742505622300,0.555622314453125,-0.0019731521606445312,-0.002124970778822899,0.0007877472089603543
1746738742515701200,0.565701171875,-0.00041813217103481293,-0.002384362742304802,-0.0013931153807789087
1746738742525780200,0.5757802734375,-0.001822139136493206,0.0006336015649139881,-0.0007409503450617194
1746738742535859500,0.585859375,0.002817353932186961,0.001615242101252079,0.0017645516199991107
1746738742545939200,0.595939208984375,-0.0007782913744449615,0.00014448445290327072,0.0014690099051222205
1746738742556018400,0.606018310546875,0.0016640934627503157,-0.003395922016352415,0.0027103093452751637
1746738742566097200,0.61609716796875,0.0009813811630010605,-0.0007757432758808136,0.0016569598810747266
1746738742576176400,0.62617626953125,-0.0008918861858546734,0.00039285141974687576,-0.0008642546599730849
1746738742586256400,0.63625634765625,0.0020634846296161413,-0.0003696638159453869,0.0021775735076516867
1746738742596335400,0.64633544921875,0.0005212482064962387,0.0008039907552301884,-0.0019854798447340727
1746738742606414300,0.656414306640625,-0.0008155754767358303,-0.003289732150733471,0.0011934153735637665
1746738742616493300,0.666493408203125,-0.0008102492429316044,0.0006594695150852203,0.000043728738091886044
1746738742626573300,0.6765732421875,0.0009655491448938847,0.0016266596503555775,-0.0033823850098997355
1746738742636652300,0.68665234375,0.0021775534842163324,0.0015321173705160618,-0.0011240245075896382
1746738742646731300,0.696731201171875,0.0008793058805167675,-0.002271129749715328,-0.0011576812248677015
1746738742656810200,0.706810302734375,0.0024002373684197664,-0.0029209409840404987,0.0024671475403010845
1746738742666890500,0.716890380859375,-0.00044177984818816185,0.0006659980863332748,0.0002071392082143575
1746738742676969200,0.72696923828125,0.002345484681427479,0.0028724265284836292,0.0018364611314609647
1746738742687048400,0.73704833984375,0.001982529181987047,-0.0018767556175589561,0.001168800750747323
1746738742697127400,0.74712744140625,0.0005995496176183224,-0.0035404323134571314,-0.00006344387657009065
1746738742707207200,0.757207275390625,-0.0004971330054104328,-0.002970426809042692,-0.0010675103403627872
1746738742717286400,0.767286376953125,0.0019543066155165434,0.001756950281560421,0.0016531749861314893
1746738742727365400,0.777365478515625,0.0006606192328035831,0.002551964484155178,-0.000059426267398521304
1746738742737444400,0.7874443359375,0.00231204554438591,-0.0011666067875921726,0.0006545672076754272
1746738742747524400,0.7975244140625,-0.001306265126913786,-0.0034232665784657,0.0004713856615126133
1746738742757603300,0.807603271484375,0.00016779452562332153,-0.0003851326182484627,0.00055660679936409
1746738742767682300,0.817682373046875,0.00012403028085827827,0.0011180718429386616,0.0005934668006375432
1746738742777761300,0.82776123046875,-0.001183582004159689,0.0013769310899078846,0.0015865594614297152
1746738742787841300,0.83784130859375,0.000550147145986557,0.0008399449288845062,-0.0004977885982953012
1746738742797920300,0.847920166015625,0.0003261752426624298,-0.0018636961467564106,0.0016045107040554285
1746738742807999500,0.85799951171875,-0.0007872502319514751,-0.001504263374954462,0.0013938592746853828
1746738742818078200,0.868078125,0.0007917382754385471,-0.0007721604779362679,-0.0006668947171419859
1746738742828158500,0.878158447265625,-0.0020694276317954063,0.0018035746179521084,-0.0011216476559638977
1746738742838237200,0.8882373046875,-0.00032745394855737686,-0.001310459803789854,0.0004165942082181573
1746738742848316400,0.89831640625,-0.0008359258063137531,-0.0010488876141607761,-0.0024007174652069807
1746738742858395400,0.9083955078125,0.0004349346272647381,0.0015215957537293434,-0.0007847113884054124
1746738742868475100,0.91847509765625,0.0016869220416992903,0.0009140539914369583,-0.00017317919991910458
1746738742878554400,0.928554443359375,-0.0005330890417098999,0.0011931536719202995,-0.0003532088885549456
1746738742888633300,0.93863330078125,0.00080059003084898,-0.0029422463849186897,0.0004732533707283437
1746738742898712300,0.94871240234375,-0.0000018202699720859528,0.0008149407804012299,0.0015174788422882557
1746738742908792300,0.958792236328125,0.0011623641476035118,-0.0006763460114598274,0.001446775160729885
1746738742918871300,0.968871337890625,0.000841186847537756,0.001939411275088787,-0.00024672888685017824
1746738742928950300,0.9789501953125,0.0009572305716574192,-0.0009586922824382782,-0.0011360920034348965
1746738742939029200,0.989029296875,0.000022993888705968857,-0.0009158155880868435,0.0012200064957141876
1746738742949109200,0.999109130859375,0.0007572192698717117,-0.002262277528643608,0.00010535144247114658
1746738742959188200,1.009188232421875,0.001827277708798647,0.0014040963724255562,-0.0020693859551101923
1746738742969267500,1.019267333984375,-0.0001151752658188343,0.0039407857693731785,0.0010346093913540244
1746738742979346200,1.02934619140625,-0.0021618143655359745,-0.0006840596906840801,0.0003086316282860935
1746738742989426400,1.039426513671875,-0.000793767161667347,-0.0026115872897207737,0.0011658412404358387
1746738742999505400,1.04950537109375,-0.0009828517213463783,-0.002748207189142704,-0.0005891819018870592
1746738743009584400,1.05958447265625,-0.00014436431229114532,0.001678568311035633,-0.001808392582461238
1746738743019663400,1.069663330078125,0.002599490573629737,0.0010852161794900894,0.0007684821612201631
1746738743029743400,1.079743408203125,-0.000028436072170734406,-0.0025234720669686794,0.002402174286544323
1746738743039822300,1.089822265625,-0.0015736022032797337,-0.002087778877466917,0.0008852379396557808
1746738743049901300,1.0999013671875,-0.0013181422837078571,0.0003237146884202957,-0.00024845561711117625
1746738743059980300,1.109980224609375,-0.000835843849927187,0.001828666776418686,-0.0026799216866493225
1746738743070059300,1.120059326171875,0.001667254138737917,-0.0019037933088839054,-0.0013184212148189545
1746738743080139500,1.130139404296875,-0.001837465912103653,-0.0020436090417206287,0.0010515257017686963
1746738743090218200,1.14021826171875,-0.0011245026253163815,0.000602430198341608,-0.00004296726547181606
1746738743100297200,1.150297119140625,0.00019030040130019188,0.0014128298498690128,0.0006004524184390903
1746738743110376400,1.16037646484375,-0.000954783521592617,0.00099234189838171,-0.0014286005171015859
1746738743120456200,1.170456298828125,-0.0013553230091929436,-0.0012913187965750694,0.0013304343447089195
1746738743130535400,1.180535400390625,0.0004557613283395767,-0.0013351142406463623,0.001898090005852282
1746738743140614100,1.1906142578125,-0.0011615762487053871,-0.001183846965432167,0.00006184044468682259
1746738743150693400,1.200693359375,-0.0008675120770931244,0.0020421645604074,-0.0008358871564269066
1746738743160773400,1.2107734375,0.0009362469427287579,0.0002498570829629898,0.0004778501170221716
1746738743170852400,1.220852294921875,0.000510173849761486,-0.0016406448557972908,-0.0021655086893588305
1746738743180931300,1.230931396484375,0.00161778274923563,-0.0004368964582681656,-0.00007812317926436663
1746738743191010300,1.24101025390625,0.0005710753612220287,0.00028241192921996117,0.0027498991694301367
1746738743201090300,1.25109033203125,0.00238388916477561,0.0026153409853577614,0.0025911747943609953
1746738743211169300,1.261169189453125,-0.00027527427300810814,0.001843184232711792,0.0017614609096199274
1746738743221248500,1.27124853515625,0.0013212906196713448,-0.0005051908083260059,0.0005657015135511756
1746738743231327200,1.2813271484375,-0.0013893633149564266,-0.0020431210286915302,0.0006234595784917474
1746738743241407500,1.291407470703125,0.00044395681470632553,0.0003989976830780506,-0.0012761731632053852
1746738743251486200,1.301486328125,0.0005013649351894855,0.00010876357555389404,-0.0034125535748898983
1746738743261566000,1.31156591796875,-0.0002933223731815815,0.0020941500551998615,0.00042399621452204883
1746738743271645000,1.32164501953125,0.0010165758430957794,-0.0008188476786017418,0.003597773378714919
1746738743281725000,1.331724853515625,-0.00016932981088757515,0.002129537519067526,-0.000043566746171563864
1746738743291804000,1.341803955078125,-0.001144601497799158,0.0009112549014389515,-0.0008992684306576848
1746738743301882600,1.351882568359375,-0.0008130376227200031,0.001156799029558897,-0.0008635821286588907
1746738743311961900,1.3619619140625,-0.0012915176339447498,-0.0021308590658009052,0.0035343279596418142
1746738743322041900,1.372041748046875,-0.000052082352340221405,-0.0017779902555048466,0.000834148726426065
1746738743332120800,1.382120849609375,0.00020420970395207405,-0.0008322573266923428,0.0022124741226434708
1746738743342199800,1.39219970703125,0.001289980486035347,-0.0005406411364674568,0.0002957972465083003
1746738743352279000,1.402279052734375,-0.001404616516083479,0.0015589036047458649,-0.0010590101592242718
1746738743362358800,1.41235888671875,0.0006481478922069073,-0.00010131113231182098,-0.000461663119494915
1746738743372438000,1.42243798828125,0.0004785563796758652,-0.0016610505990684032,-0.0010279674315825105
1746738743382516700,1.432516845703125,0.0012277038767933846,-0.0012642396613955498,0.0008721979684196413
1746738743392595700,1.442595703125,0.0027283141389489174,0.000034345779567956924,0.0010592525359243155
1746738743402676000,1.452676025390625,0.0008710254915058613,0.0019507566466927528,0.0013162476243451238
1746738743412754700,1.462754638671875,-0.000989577267318964,-0.000912277027964592,0.0021381184924393892
1746738743422834000,1.472833984375,-0.0021608350798487663,-0.004337634891271591,0.0004632565542124212
1746738743432913000,1.482912841796875,0.00025320472195744514,-0.0011197901330888271,-0.00290183094330132
1746738743442991900,1.492991943359375,-0.0007228436879813671,-0.00118290726095438,0.0004055486642755568
1746738743453072000,1.50307177734375,0.0013631372712552547,0.0018023927696049213,-0.00012496174895204604
1746738743463150800,1.51315087890625,-0.0006733820773661137,0.00042207585647702217,-0.00005864904960617423
1746738743473229800,1.523229736328125,0.0004976573400199413,-0.002060443628579378,-0.0005448749288916588
1746738743483308800,1.533308837890625,-0.001800118014216423,-0.002953934483230114,-0.0012314378982409835
1746738743493388800,1.543388916015625,-0.003028730396181345,0.0024864133447408676,-0.002462135162204504
1746738743503467800,1.5534677734375,-0.0013293679803609848,0.002759654074907303,0.0005813254392705858
1746738743513547000,1.563547119140625,-0.0010010451078414917,-0.0020720651373267174,0.00017661541642155498
1746738743523625700,1.573625732421875,-0.0004652170464396477,-0.0023144129663705826,0.0015670517459511757
1746738743533706000,1.5837060546875,0.0011384026147425175,-0.0006559202447533607,-0.00048817176138982177
1746738743543785000,1.593784912109375,0.001562644261866808,0.0008141449652612209,0.0003208965645171702
1746738743553863700,1.60386376953125,0.0014484911225736141,-0.0021396828815340996,-0.00006504569319076836
1746738743563943000,1.61394287109375,-0.0010775174014270306,-0.002897086087614298,0.0025626954156905413
1746738743574022700,1.624022705078125,0.0005076178349554539,-0.002797117456793785,0.0011716471053659916
1746738743584102000,1.634101806640625,-0.002365400083363056,0.0037196376360952854,-0.001192707335576415
1746738743594180900,1.644180908203125,-0.00021967804059386253,0.0015322929248213768,-0.002534492639824748
1746738743604259800,1.654259765625,0.00010709185153245926,-0.0017628362402319908,-0.002244740491732955
1746738743614339800,1.66433984375,0.0008378894999623299,-0.0057606082409620285,0.00003394193481653929
1746738743624419000,1.674419189453125,0.0004674438387155533,-0.0029965131543576717,0.002457152120769024
1746738743634497800,1.684497802734375,0.002150397514924407,0.0018356703221797943,-0.0022407425567507744
1746738743644576800,1.69457666015625,-0.0001939833164215088,0.0021368740126490593,0.0013550575822591782
1746738743654656800,1.70465673828125,0.000349964015185833,-0.000023305416107177734,0.0001582839759066701
1746738743664735700,1.71473583984375,0.0005313251167535782,-0.0012044175527989864,0.0007742731831967831
1746738743674815000,1.72481494140625,0.00005988636985421181,-0.0018011932261288166,-0.0002124835446011275
1746738743684894000,1.73489404296875,-0.00011987704783678055,0.0012225601822137833,0.00040909828385338187
1746738743694972700,1.74497265625,-0.0013402905315160751,0.002196522429585457,0.00039752028533257544
1746738743705053000,1.755052978515625,-0.0010790345259010792,-0.00026849983260035515,0.002833513543009758
1746738743715131600,1.765131591796875,0.0016205769497901201,-0.0016062725335359573,0.0017343388171866536
1746738743725211000,1.7752109375,0.0012525278143584728,0.0004960270598530769,-0.000035065371775999665
1746738743735289900,1.785289794921875,-0.0010042572394013405,0.0019328012131154537,-0.00014292009291239083
1746738743745369900,1.795369873046875,-0.0013081235811114311,0.0013588895089924335,-0.0008419998339377344
1746738743755448800,1.80544873046875,0.00023384112864732742,-0.002567484974861145,0.004012987017631531
1746738743765528000,1.815528076171875,-0.001788030844181776,-0.0012739873491227627,-0.0023868551943451166
1746738743775606800,1.825606689453125,0.0016189359594136477,0.0015168925747275352,0.0005426285206340253
1746738743785687000,1.83568701171875,0.0013020196929574013,0.0019858749583363533,-0.0004392789560370147
1746738743795765800,1.845765869140625,-0.0013153720647096634,-0.000010931864380836487,0.0009042303427122533
1746738743805844700,1.8558447265625,0.0005475091747939587,-0.002037330996245146,0.0010741399601101875
1746738743815924000,1.865924072265625,-0.0010145795531570911,0.0015184823423624039,-0.000050922681111842394
1746738743826003700,1.876003662109375,-0.00047502340748906136,0.002270825207233429,0.00042791367741301656
1746738743836083000,1.8860830078125,0.00005100388079881668,-0.001215316355228424,-0.00034097046591341496
1746738743846162000,1.896161865234375,-0.001618797890841961,-0.002324789296835661,-0.0011862579267472029
1746738743856240600,1.90624072265625,-0.0014138459227979183,-0.0013113473542034626,-0.0010705089662224054
1746738743866321000,1.91632080078125,-0.000915035605430603,0.00018721353262662888,-0.000912051007617265
1746738743876399900,1.92639990234375,-0.0009501706808805466,0.003333503846079111,-0.0006007762858644128
1746738743886478800,1.936478759765625,-0.00019729509949684143,0.000864220317453146,-0.0001549631415400654
1746738743896557800,1.946557861328125,0.0016042671632021666,-0.0018466613255441189,-0.00034202670212835073
1746738743906637800,1.956637939453125,-0.0019529173150658607,-0.0020141741260886192,0.001787170534953475
1746738743916716800,1.966716796875,0.00022439751774072647,0.00006613647565245628,-0.0008185460465028882
1746738743926796000,1.976796142578125,0.0005777990445494652,0.0026776324957609177,0.00039558912976644933
1746738743936874800,1.986874755859375,0.0005201529711484909,0.0021914984099566936,-0.001247713342308998
1746738743946955000,1.996955078125,-0.0007941168732941151,-0.0002468912862241268,0.00020317680900916457
1746738743957034000,2.007033935546875,-0.0025200536474585533,-0.003645699005573988,0.000641796737909317
1746738743967112700,2.01711279296875,-0.0010518529452383518,0.0002933824434876442,0.0015009324997663498
1746738743977192000,2.02719189453125,-0.0015113838016986847,-0.00018733413890004158,-0.0006118291639722884
1746738743987271700,2.037271728515625,0.0013704225420951843,-0.00036523351445794106,0.0010864686919376254
1746738743997351000,2.047350830078125,-0.0024450435303151608,-0.0019471724517643452,0.0012275739572942257
1746738744007430000,2.057429931640625,-0.0007603275589644909,-0.00020173657685518265,-0.00003582958015613258
1746738744017508900,2.0675087890625,0.00011772662401199341,0.0029198951087892056,0.00039113726234063506
1746738744027588900,2.0775888671875,0.00194039405323565,0.0005898955278098583,0.00018074753461405635
1746738744037667800,2.087667724609375,0.0004132618196308613,-0.0016795489937067032,0.0014854039764031768
1746738744047746800,2.097746826171875,-0.0012773126363754272,0.00041342945769429207,0.003532043192535639
1746738744057825800,2.10782568359375,-0.0019753258675336838,0.0028449958190321922,-0.0005483535933308303
1746738744067905800,2.11790576171875,-0.0013217860832810402,0.0034721698611974716,-0.003317242255434394
1746738744077984800,2.12798486328125,-0.0005088034085929394,0.00014381203800439835,-0.000031312345527112484
1746738744088064000,2.13806396484375,0.0014174613170325756,-0.0013060132041573524,0.001638755900785327
1746738744098143000,2.14814306640625,-0.0010839472524821758,-0.003668823977932334,0.001412770478054881
1746738744108223000,2.158222900390625,-0.0002988474443554878,0.001802906859666109,0.0008620287990197539
1746738744118302000,2.168302001953125,-0.0011714785359799862,0.0010896716266870499,-0.0018304255791008472
1746738744128380700,2.178380615234375,0.0014842257369309664,0.002191687934100628,0.00017679900338407606
1746738744138460000,2.1884599609375,-0.0014185057953000069,-0.004467012360692024,0.00003039211151190102
1746738744148540000,2.198539794921875,-0.0012768255546689034,-0.0009974464774131775,0.0026674543041735888
1746738744158619000,2.208618896484375,0.0016235308721661568,0.00036619883030653,-0.0009939305018633604
1746738744168697900,2.21869775390625,0.0013132723979651928,0.0022538471966981888,0.0012545763747766614
1746738744178776800,2.22877685546875,0.001553849084302783,-0.00024398509413003922,-0.0004647524037864059
1746738744188856800,2.23885693359375,-0.0008770842105150223,-0.00214521586894989,0.003689778735861182
1746738744198935800,2.248935791015625,0.0013689459301531315,-0.001521310769021511,0.0008679856546223164
1746738744209014800,2.259014892578125,0.0002988874912261963,0.0005500959232449532,-0.0015858509577810764
1746738744219093800,2.26909375,0.0011106561869382858,0.0014930935576558113,0.0011175491381436586
1746738744229173000,2.279173095703125,0.0008006645366549492,0.00012689176946878433,0.0016062392387539148
1746738744239252700,2.289252685546875,0.0009166761301457882,-0.002270867582410574,0.0012436718679964542
1746738744249332000,2.29933203125,-0.0005368771962821484,0.000030369963496923447,0.0026996219530701637
1746738744259411000,2.309410888671875,0.0008918936364352703,0.003142734058201313,0.00026890329900197685
1746738744269489400,2.319489501953125,0.0010511507280170918,0.0007165940478444099,-0.0012206027749925852
1746738744279569400,2.3295693359375,-0.0003920039162039757,0.0012639421038329601,-0.0010914851445704699
1746738744289648400,2.3396484375,0.00031000515446066856,-0.0007922849617898464,0.0029229638166725636
1746738744299727400,2.349727294921875,-0.0013065631501376629,-0.0002685626968741417,0.0005625569028779864
1746738744309806300,2.359806396484375,0.0013091936707496643,0.003076101653277874,-0.00026541989063844085
1746738744319886300,2.36988623046875,0.0006562070921063423,-0.0002641933970153332,0.0005954984808340669
1746738744329965300,2.37996533203125,-0.00015419255942106247,-0.0009923013858497143,-0.0013984101824462414
1746738744340044300,2.390044189453125,-0.0006508398801088333,-0.003006067592650652,0.0014269393868744373
1746738744350123500,2.40012353515625,-0.0016271546483039856,0.0020318343304097652,0.001125203212723136
1746738744360203300,2.410203369140625,0.00025448109954595566,0.0007878439500927925,0.0006025669863447547
1746738744370282500,2.420282470703125,-0.0008486001752316952,-0.0014761094935238361,0.0033890323247760534
1746738744380361200,2.430361328125,0.0013142144307494164,-0.002436908893287182,0.0012402519350871444
1746738744390440400,2.4404404296875,-0.00036304397508502007,-0.0005175690166652203,0.0028107180260121822
1746738744400520400,2.4505205078125,0.00047785090282559395,0.0008801743388175964,0.0011509372852742672
1746738744410599400,2.460599365234375,0.00009728502482175827,0.001058606430888176,-0.00043364361044950783
1746738744420678400,2.470678466796875,-0.0007284721359610558,0.0015404918231070042,0.0011316409800201654
1746738744430757400,2.48075732421875,-0.0014049150049686432,-0.00015327893197536469,-0.00010566358105279505
1746738744440837400,2.49083740234375,-0.0003319275565445423,0.00044699758291244507,0.0017561523709446192
1746738744450916400,2.500916259765625,0.001184756401926279,-0.0005871430039405823,-0.00035069137811660767
1746738744460995300,2.510995361328125,-0.0005269167013466358,0.0018985518254339695,-0.00190862943418324
1746738744471074300,2.52107421875,-0.001501633320003748,0.00047083059325814247,-0.0013600182719528675
1746738744481154600,2.531154541015625,0.00023308489471673965,-0.000849463976919651,0.002136360388249159
1746738744491233300,2.5412333984375,-0.0015986370854079723,0.00009835511445999146,-0.001043720287270844
1746738744501312300,2.551312255859375,0.0014595172833651304,0.0032851919531822205,0.00010652997298166156
1746738744511391500,2.5613916015625,0.00025390414521098137,0.0007663741707801819,0.0007054748712107539
1746738744521471200,2.57147119140625,-0.000006130430847406387,-0.003365312470123172,0.001576561713591218
1746738744531550500,2.581550537109375,0.0014351727440953255,-0.000485103577375412,-0.00039923738222569227
1746738744541629400,2.59162939453125,0.0003889724612236023,0.002448339480906725,-0.0009295683121308684
1746738744551708400,2.60170849609375,0.0008739340119063854,0.0035554147325456142,0.0016382515896111727
1746738744561788400,2.611788330078125,-0.0006389766931533813,-0.0018150042742490768,-0.0006042344029992819
1746738744571867400,2.621867431640625,-0.0024243597872555256,-0.002237381413578987,-0.0008340652566403151
1746738744581946400,2.6319462890625,-0.001129288226366043,-0.0037528935354202986,0.002207184908911586
1746738744592025300,2.642025390625,-0.0010211635380983353,0.0016368115320801735,0.0016420623287558556
1746738744602105300,2.652105224609375,0.0001531229354441166,-0.00012077903375029564,0.0003252324531786144
1746738744612184300,2.662184326171875,0.000007980503141880035,-0.0009354399517178535,0.001591565553098917
1746738744622263600,2.672263671875,-0.0005477899685502052,-0.0009186682291328907,-0.00006083128391765058
1746738744632342300,2.68234228515625,-0.0011866823770105839,-0.0027618417516350746,0.0028055289294570684
1746738744642422500,2.692422607421875,-0.00024373969063162804,-0.00014501065015792847,-0.00034360477002337575
1746738744652501200,2.702501220703125,0.004669526591897011,-0.000052865128964185715,0.0011453686747699976
1746738744662580200,2.712580322265625,0.0012872610241174698,-0.0008070385083556175,0.0014119829284027219
1746738744672659500,2.722659423828125,0.0019282838329672813,-0.003985521383583546,0.0009587128879502416
1746738744682739200,2.7327392578125,-0.0004315595142543316,-0.000817079097032547,0.0022101805079728365
1746738744692818400,2.742818359375,0.0006190575659275055,0.0016221101395785809,-0.0007733589154668152
1746738744702897400,2.7528974609375,-0.0005294634029269218,-0.001391237135976553,-0.0022031681146472692
1746738744712976400,2.762976318359375,-0.000019467901438474655,-0.0037579883355647326,0.0008954199147410691
1746738744723056400,2.773056396484375,0.0005749119445681572,-0.0010907691903412342,-0.00048385432455688715
1746738744733135400,2.78313525390625,0.001181580126285553,0.001509541179984808,0.0002602328604552895
1746738744743214300,2.79321435546875,0.0035297181457281113,0.0017524403519928455,0.0006867899792268872
1746738744753293300,2.803293212890625,-0.00013212859630584717,0.0012991703115403652,0.00006760499672964215
1746738744763373300,2.813373291015625,0.00009017670527100563,-0.001692462246865034,0.0002608136855997145
1746738744773452300,2.823452392578125,-0.001099191140383482,-0.0014594360254704952,0.0011524399742484093
1746738744783531500,2.833531494140625,-0.0008872519247233868,0.001585403922945261,0.0009646674734540284
1746738744793610200,2.8436103515625,-0.0014409231953322887,0.003584106918424368,0.00024801085237413645
1746738744803690500,2.8536904296875,-0.0004200814291834831,0.0002347836270928383,-0.00004173425259068608
1746738744813769200,2.863769287109375,-0.0022802995517849922,-0.0019695148803293705,0.0007867751410230994
1746738744823848200,2.87384814453125,-0.0013281460851430893,-0.0016287402249872684,-0.0005815594922751188
1746738744833927400,2.883927490234375,0.0031318499241024256,0.00039259903132915497,-0.00032829289557412267
1746738744844007200,2.894007080078125,0.0009358040988445282,0.002802386414259672,-0.0015855112578719854
1746738744854086400,2.90408642578125,0.0008234186097979546,-0.00032150140032172203,0.0016992315649986267
1746738744864165400,2.914165283203125,-0.0009819883853197098,-0.0018642013892531395,0.0013017741730436683
1746738744874244400,2.924244384765625,0.0012848940677940845,-0.0008569941855967045,0.00021840023691765964
1746738744884324400,2.934324462890625,-0.00021473364904522896,0.0003059594891965389,-0.0005645269411616027
1746738744894403600,2.944403564453125,0.0010523987002670765,0.001876691821962595,0.00019607183639891446
1746738744904482300,2.954482421875,-0.0003832858055830002,-0.00015961425378918648,-0.00006735781789757311
1746738744914561300,2.964561279296875,-0.0011662552133202553,-0.0015516486018896103,0.0018344055861234665
1746738744924641300,2.974641357421875,0.0003934623673558235,0.0018570409156382084,0.0028347496408969164
1746738744934720300,2.98472021484375,-0.000523730181157589,0.0018218872137367725,-0.0008217703434638679
1746738744944799500,2.994799560546875,-0.0008093183860182762,-0.00335523160174489,-0.00383998011238873
1746738744954878200,3.004878173828125,-0.00014778925105929375,-0.0019802413880825043,-0.001174155855551362
1746738744964958500,3.01495849609375,-0.0005646762438118458,-0.00041817687451839447,0.0007480916101485491
1746738744975037400,3.025037353515625,0.0008798222988843918,-0.0006711771711707115,0.0022341355215758085
1746738744985116200,3.0351162109375,0.001185770146548748,0.001035600434988737,0.0014105004956945777
1746738744995195400,3.0451953125,0.001815607538446784,-0.0017585884779691696,-0.0006361388368532062
1746738745005275100,3.055275146484375,-0.0004988205619156361,-0.004366927780210972,-0.0005300937918946147
1746738745015354400,3.065354248046875,-0.0012104171328246593,0.0007058610208332539,-0.000581759144552052
1746738745025433300,3.075433349609375,-0.0004346277564764023,0.0009428630582988262,-0.00030093203531578183
1746738745035512300,3.08551220703125,0.0014567491598427296,0.0012698988430202007,-0.00038215843960642815
1746738745045591300,3.09559130859375,0.0007602428086102009,0.0017591058276593685,0.0043551307171583176
1746738745055671600,3.105671630859375,-0.0013487143442034721,-0.004394660238176584,-0.0002755738387349993
1746738745065750300,3.115750244140625,-0.004027079790830612,-0.0012236894108355045,-0.0003006769111379981
1746738745075829200,3.125829345703125,0.0006241314113140106,0.002513524144887924,-0.0004860329208895564
1746738745085908500,3.135908447265625,0.0007630167528986931,0.0025124377571046352,-0.0002281075867358595
1746738745095988200,3.14598828125,0.001673018792644143,-0.0022149397991597652,0.002979137236252427
1746738745106067500,3.1560673828125,0.0015232169535011053,-0.0027026296593248844,0.001410044264048338
1746738745116146400,3.166146484375,-0.001458191778510809,0.002238066866993904,-0.002665923908352852
1746738745126225400,3.176225341796875,0.00022966042160987854,-0.0008261841721832752,-0.0018033403903245926
1746738745136305400,3.186305419921875,-0.0005847341381013393,0.000050794798880815506,-0.002202814444899559
1746738745146384400,3.19638427734375,-0.0003796769306063652,-0.000414856243878603,0.00025931023992598057
1746738745156463400,3.20646337890625,0.0014365985989570618,-0.001293699722737074,0.0018257815390825272
1746738745166542300,3.216542236328125,-0.0002391287125647068,-0.00008613523095846176,0.00021375188953243196
1746738745176622300,3.226622314453125,0.001143850851804018,0.0029155141673982143,-0.0028574054595083
1746738745186701300,3.236701416015625,0.001390951219946146,-0.0015639630146324635,-0.0008512984495609999
1746738745196780500,3.246780517578125,0.00044552935287356377,-0.004091569222509861,0.0007343476172536612
1746738745206859300,3.256859375,-0.0014115124940872192,0.00027264002710580826,0.0025522031355649233
1746738745216939500,3.266939453125,-0.00027114665135741234,0.0007797060534358025,-0.002388227032497525
1746738745227018200,3.277018310546875,0.0013359193690121174,-0.0007987632416188717,-0.0006081744213588536
1746738745237097200,3.28709716796875,0.0004956922493875027,-0.0018853330984711647,0.0021905414760112762
1746738745247176400,3.297176513671875,0.0014636041596531868,-0.0027196714654564857,-0.0018033951055258512
1746738745257256200,3.307256103515625,-0.001315138302743435,-0.0008634482510387897,-0.0012931334786117077
1746738745267337200,3.317337158203125,0.002851659432053566,0.0012060808949172497,0.0005232734838500619
1746738745277416200,3.327416259765625,-0.0009393501095473766,0.002850582357496023,-0.0007065742393024266
1746738745287495200,3.3374951171875,-0.0004971143789589405,-0.0006940593011677265,-0.0001073941239155829
1746738745297575200,3.3475751953125,-0.001421497669070959,-0.0016860868781805038,0.003351252991706133
1746738745307654100,3.357654052734375,0.000320670660585165,-0.001025583129376173,-0.0005514301592484117
1746738745317733400,3.3677333984375,0.0009547695517539978,0.00037523917853832245,-0.002255054423585534
1746738745327812000,3.37781201171875,-0.0010473951697349548,0.002389931585639715,-0.00007861744961701334
1746738745337892400,3.387892333984375,0.000046098604798316956,0.002256507519632578,0.0013331242371350527
1746738745347971300,3.397971435546875,-0.0012771254405379295,-0.0016642995178699493,0.0015948337968438864
1746738745358050300,3.40805029296875,0.0011378293856978416,0.0004776809364557266,-0.000264318980043754
1746738745368129300,3.41812939453125,-0.0003390321508049965,0.002775274682790041,-0.0021046381443738937
1746738745378209300,3.428209228515625,0.0021092118695378304,0.001594961155205965,-0.0003876980917993933
1746738745388288300,3.438288330078125,-0.0012742537073791027,0.0008652829565107822,0.00010757011477835476
1746738745398367200,3.4483671875,0.00043895794078707695,0.002833093050867319,-0.0003449009673204273
1746738745408446200,3.4584462890625,0.0005480027757585049,0.0035908324643969536,0.0006217799382284284
1746738745418526200,3.468526123046875,-0.000018984079360961914,0.0009567001834511757,-0.0027178239542990923
1746738745428605400,3.47860546875,0.00008183671161532402,-0.0017839791253209114,-0.003208871465176344
1746738745438684200,3.48868408203125,-0.0022111451253294945,-0.004662590101361275,-0.0009276076452806592
1746738745448763100,3.49876318359375,-0.000003159046173095703,-0.0006341999396681786,-0.00046488060615956783
1746738745458843100,3.508843017578125,0.0008072410710155964,0.0022374866530299187,-0.001602316740900278
1746738745468922000,3.518922119140625,0.0005836030468344688,0.002767567988485098,0.000915049109607935
1746738745479001300,3.52900146484375,0.0005029095336794853,-0.0012474139221012592,0.0014428875874727964
1746738745489080000,3.539080078125,0.00020860182121396065,-0.0029992545023560524,0.0015261588850989938
1746738745499160300,3.549160400390625,0.0012831874191761017,0.0006157206371426582,-0.0008123627630993724
1746738745509239300,3.5592392578125,0.0009636031463742256,0.0016055419109761715,-0.0023164015728980303
1746738745519318300,3.569318359375,0.002386530162766576,0.001481704879552126,0.001052763545885682
1746738745529397200,3.579397216796875,-0.0011906358413398266,-0.0007716640830039978,0.0012419489212334156
1746738745539477200,3.589477294921875,-0.00015147030353546143,-0.0008733966387808323,0.0005556523101404309
1746738745549556200,3.59955615234375,-0.00018557580187916756,-0.0004377872683107853,-0.0006102669867686927
1746738745559635200,3.60963525390625,0.0005217595025897026,0.0013923365622758865,0.00004780010203830898
1746738745569714400,3.61971435546875,0.0015295622870326042,0.0001692306250333786,0.0005735151935368776
1746738745579794200,3.629794189453125,-0.0003698044456541538,-0.0021285447292029858,0.0013040202902629972
1746738745589873400,3.639873291015625,-0.004170866683125496,0.00030078040435910225,0.0007284754537977278
1746738745599952100,3.6499521484375,0.0008204299956560135,0.0019215797074139118,0.0008464534766972065
1746738745610031000,3.660031005859375,-0.00035802554339170456,0.0012100674211978912,-0.00102723459713161
1746738745620111000,3.670111083984375,0.000833472702652216,-0.0014624143950641155,0.0017453823238611221
1746738745630190000,3.680190185546875,-0.000047431327402591705,-0.002984423656016588,-0.00014110715710557997
1746738745640269300,3.690269287109375,-0.00004530046135187149,0.00086970254778862,0.0017132519278675318
1746738745650348300,3.700348388671875,-0.001187073066830635,0.0019958270713686943,-0.0010213565547019243
1746738745660428300,3.71042822265625,-0.00023925397545099258,0.001264789141714573,-0.000987268052995205
1746738745670507300,3.72050732421875,-0.002186685800552368,0.0007755733095109463,-0.0012894810643047094
1746738745680586200,3.730586181640625,-0.00030702678486704826,-0.003981098532676697,-0.001885496429167688
1746738745690665200,3.740665283203125,-0.00020982418209314346,-0.0013276496902108192,0.002401526551693678
1746738745700745500,3.750745361328125,0.003651493228971958,0.0005554715171456337,-0.0012925443006679416
1746738745710824200,3.76082421875,-0.0012391060590744019,0.0025708088651299477,0.002378869103267789
1746738745720903200,3.770903076171875,0.0007606614381074905,-0.0031928045209497213,0.0028513139113783836
1746738745730983200,3.780983154296875,-0.0016363211907446384,-0.0018342002294957638,-0.0037826583720743656
1746738745741062100,3.791062255859375,0.0028106251265853643,-0.0005830470472574234,-0.002129101660102606
1746738745751141400,3.801141357421875,0.0011954130604863167,0.0025570462457835674,-0.0009348519379273057
1746738745761220000,3.81122021484375,0.00044679827988147736,0.00005953339859843254,0.0015980805037543178
1746738745771300400,3.82130029296875,-0.00084305414929986,-0.0013052942231297493,0.0012732769828289747
1746738745781379300,3.83137939453125,0.0001609576866030693,-0.00016972236335277557,-0.0012681776424869895
1746738745791458000,3.8414580078125,0.0006344318389892578,0.0005928180180490017,-0.0023300955072045326
1746738745801537300,3.851537353515625,0.0001854225993156433,-0.000585098285228014,-0.003455547383055091
1746738745811617000,3.861616943359375,-0.00035241805016994476,0.000399815384298563,-0.0001422865898348391
1746738745821696300,3.8716962890625,-0.0012496369890868664,-0.0032239477150142193,0.0021107476204633713
1746738745831775200,3.881775146484375,-0.00016577402129769325,-0.0004668859764933586,-0.000627341796644032
1746738745841854200,3.891854248046875,0.002851054770871997,0.001811981201171875,-0.0000012326345313340425
1746738745851934200,3.901934326171875,0.0007160915993154049,0.00029303692281246185,-0.002030922332778573
1746738745862013400,3.912013427734375,-0.0002532987855374813,-0.001543744932860136,-0.0003376845270395279
1746738745872092200,3.922092041015625,0.0019264756701886654,-0.0018799491226673126,-0.0001858625910244882
1746738745882171100,3.932171142578125,-0.0023100809194147587,-0.0012485138140618801,-0.0008777518523856997
1746738745892251100,3.942251220703125,0.0008634650148451328,0.0002918126992881298,-0.0012559927999973297
1746738745902330000,3.952330078125,0.0020573600195348263,0.002957371063530445,-0.0011129811173304915
1746738745912409300,3.962409423828125,-0.0013211313635110855,-0.0023127784952521324,0.00012817731476388872
1746738745922489000,3.972489013671875,0.0032283468171954155,-0.0010078293271362782,0.00039955342072062194
1746738745932568300,3.982568359375,-0.0010980688966810703,-0.00085877301171422,0.0018748801667243242
1746738745942647300,3.992647216796875,-0.0005587791092693806,0.0039045573212206364,0.0003235889598727226
1746738745952726000,4.00272607421875,-0.00006541190668940544,0.0018698177300393581,0.0028098474722355604
1746738745962806300,4.01280615234375,0.0004307348281145096,-0.0018442263826727867,0.002074282616376877
1746738745972885200,4.02288525390625,-0.0007779430598020554,-0.0007613161578774452,0.00032870451104827225
1746738745982964200,4.032964111328125,0.0009730849415063858,0.000005141831934452057,-0.0004854238359257579
1746738745993043200,4.043043212890625,0.0008278531022369862,0.00022780895233154297,0.0008379982318729162
1746738746003123200,4.053123291015625,0.002578881336376071,0.0026614051312208176,-0.00007360181189142168
1746738746013202200,4.0632021484375,-0.0006216000765562057,-0.0003886595368385315,0.00238526682369411
1746738746023281400,4.073281494140625,0.000019422732293605804,0.00046381866559386253,0.0028337431140244007
1746738746033360100,4.083360107421875,0.0003253915347158909,0.0018202029168605804,-0.0008021186804398894
1746738746043440400,4.0934404296875,0.0009855893440544605,0.00013522105291485786,-0.0006021152948960662
1746738746053519400,4.103519287109375,0.0021313363686203957,-0.0006873784586787224,-0.0013244608417153358
1746738746063598000,4.11359814453125,0.0010120095685124397,-0.0008761966601014137,-0.0009505529887974262
1746738746073678300,4.12367822265625,0.00036603352054953575,-0.0017515425570309162,0.0012681906810030341
1746738746083757000,4.133757080078125,-0.00042838742956519127,0.002502857241779566,0.0005589908687397838
1746738746093836300,4.143836181640625,0.0018207139801234007,0.0012784586288034916,-0.0018380361143499613
1746738746103915300,4.153915283203125,-0.00009569665417075157,-0.004385552369058132,0.00002777454210445285
1746738746113995300,4.163995361328125,0.0014842627570033073,-0.0037429179064929485,0.0009441242436878383
1746738746124074200,4.17407421875,-0.0014169849455356598,0.00023797526955604553,0.00006927581853233278
1746738746134153200,4.1841533203125,-0.0012927544303238392,0.002255354542285204,0.0028565230313688517
1746738746144232200,4.194232177734375,0.0022140960209071636,-0.00048264116048812866,0.0007385109784081578
1746738746154312200,4.204312255859375,0.0004981542006134987,0.0005929996259510517,0.0004063660744577646
1746738746164391200,4.21439111328125,-0.0021018902771174908,-0.0025814883410930634,0.0003672175807878375
1746738746174470100,4.22447021484375,0.0022192324977368116,-0.0010225633159279823,0.00394837511703372
1746738746184549400,4.23454931640625,0.001181931234896183,0.00018384866416454315,0.002196814166381955
1746738746194629000,4.244629150390625,0.0006257575005292892,0.0027665277011692524,0.0007057751063257456
1746738746204708400,4.254708251953125,-0.000885852612555027,-0.0016181007958948612,0.00268903118558228
1746738746214787300,4.264787353515625,0.0026789128314703703,-0.00430880906060338,0.00005026230064686388
1746738746224867300,4.274867431640625,0.000238924752920866,0.00024439720436930656,-0.0016126154223456979
1746738746234946300,4.2849462890625,-0.00007163221016526222,-0.0005024145357310772,0.0005418796208687127
1746738746245025300,4.295025390625,0.0018197449389845133,0.0002563199959695339,-0.0011625434271991253
1746738746255104300,4.305104248046875,0.00007101567462086678,-0.0017880341038107872,0.000200597511138767
1746738746265183000,4.315182861328125,0.0020577339455485344,0.0006258548237383366,0.00020752171985805035
1746738746275262000,4.325261962890625,-0.001995943021029234,0.0013674506917595863,-0.003159614745527506
1746738746285341000,4.3353408203125,0.0018062519375234842,-0.00011859321966767311,0.00003537957672961056
1746738746295420000,4.345419921875,0.00024771224707365036,-0.002790778409689665,-0.002094004536047578
1746738746305500000,4.3555,0.00019391626119613647,-0.0026331194676458836,0.00023359819897450507
1746738746315579000,4.365578857421875,-0.0011543179862201214,0.0013031517155468464,0.0006894986727274954
1746738746325657900,4.375657958984375,0.0005362569354474545,-0.00017250562086701393,-0.0013041435740888119
1746738746335737000,4.385737060546875,-0.0019727558828890324,0.002925318665802479,-0.001951734535396099
1746738746345816800,4.39581689453125,-0.0013522394001483917,-0.001205777283757925,-0.0009991219267249107
1746738746355896000,4.40589599609375,0.00033442769199609756,-0.003787912894040346,-0.0017592357471585274
1746738746365974800,4.415974853515625,-0.0002629193477332592,0.0013807499781250954,0.0007491956930607557
1746738746376055000,4.426054931640625,-0.0003836131654679775,0.002925291657447815,0.00046308827586472034
1746738746386134000,4.436134033203125,-0.002421730197966099,0.0025247521698474884,0.0006907885544933379
1746738746396213000,4.446212890625,-0.00212582154199481,-0.0023135244846343994,0.0018242176156491041
1746738746406292000,4.4562919921875,-0.0006200703792273998,-0.0008354699239134789,0.0013917202595621347
1746738746416372000,4.4663720703125,-0.0014634612016379833,0.00007734168320894241,-0.0001714444370009005
1746738746426451000,4.476450927734375,0.0014098230749368668,0.0037849945947527885,0.0013193931663408875
1746738746436530000,4.486530029296875,0.00014299433678388596,0.00011569634079933167,0.00015983483172021806
1746738746446609000,4.49660888671875,-0.001207228284329176,0.00009732041507959366,0.0008671703981235623
1746738746456689000,4.50668896484375,-0.0011438275687396526,-0.0013192673213779926,-0.00011002534301951528
1746738746466768100,4.51676806640625,0.000010386575013399124,0.00003894465044140816,-0.000993129564449191
1746738746476846800,4.526846923828125,0.0008133989758789539,0.0005294177681207657,-0.001902419375255704
1746738746486925800,4.53692578125,0.000019776634871959686,-0.0009643496014177799,0.003212181618437171
1746738746497005800,4.547005859375,-0.001596819143742323,-0.002359179314225912,-0.0001200153783429414
1746738746507084800,4.557084716796875,-0.0024690045975148678,-0.00018364284187555313,-0.0005093695363029838
1746738746517164000,4.5671640625,0.0014454280026257038,0.0013325796462595463,0.00013725689495913684
1746738746527243800,4.577243896484375,0.0012353044003248215,0.00021431827917695045,-0.00044011641875840724
1746738746537323000,4.587322998046875,-0.0017274855636060238,-0.00187708530575037,-0.001881067524664104
1746738746547402000,4.597402099609375,0.0003516441211104393,-0.0022720322012901306,0.00023401511134579778
1746738746557481000,4.60748095703125,-0.0016320827417075634,0.0017560813575983047,-0.004393081180751324
1746738746567561000,4.61756103515625,-0.000356161966919899,0.0012311721220612526,-0.0005988758057355881
1746738746577640000,4.627639892578125,0.0005878256633877754,-0.0010810159146785736,0.00005552190123125911
1746738746587719000,4.637718994140625,0.0026592325884848833,-0.002659738063812256,0.0008275723084807396
1746738746597798000,4.6477978515625,0.00012376951053738594,-0.001525385770946741,0.0014774443116039038
1746738746607878000,4.6578779296875,-0.0009505492635071278,0.001454159151762724,-0.0018432512879371643
1746738746617956900,4.667956787109375,0.0013530370779335499,0.004995833151042461,-0.0027337775100022554
1746738746628036000,4.6780361328125,-0.00081291189417243,0.00013716192916035652,0.002050591167062521
1746738746638115800,4.68811572265625,0.0016408935189247131,0.000679380726069212,-0.00010539879440329969
1746738746648195000,4.698195068359375,-0.00036473292857408524,-0.002172331791371107,-0.0012178011238574982
1746738746658274000,4.708274169921875,0.00013772863894701004,0.00041977129876613617,-0.000913176394533366
1746738746668352800,4.718352783203125,-0.0003941045142710209,0.002075192518532276,0.00029909456497989595
1746738746678433000,4.72843310546875,-0.00010368134826421738,0.0017325766384601593,0.0018585552461445332
1746738746688511700,4.73851171875,0.0005956650711596012,-0.002222483977675438,0.0000643836974631995
1746738746698591000,4.748591064453125,-0.001384517177939415,-0.0012885481119155884,0.0007976219058036804
1746738746708670000,4.758669921875,-0.001153354998677969,0.001954117324203253,-0.004284488502889872
1746738746718750000,4.76875,-0.0007189898751676083,0.00045816972851753235,-0.000313173804897815
1746738746728829000,4.778828857421875,0.00021897535771131516,-0.0004896493628621101,0.0019963195081800222
1746738746738908200,4.788908203125,-0.0012112199328839779,-0.003483767854049802,0.0015353334601968527
1746738746748987000,4.79898681640625,-0.0023047137074172497,-0.0010371217504143715,-0.0011137127876281738
1746738746759067100,4.809067138671875,0.0004856870509684086,0.0011640870943665504,-0.0020103859715163708
1746738746769145900,4.819145751953125,-0.0002666562795639038,-0.0011608521454036236,0.001050917780958116
1746738746779224800,4.829224853515625,0.0005130898207426071,-0.001659104134887457,0.002343590836971998
1746738746789305000,4.83930517578125,-0.003165801055729389,-0.0006457716226577759,0.0011222651228308678
1746738746799383800,4.8493837890625,0.0012399852275848389,0.0025239097885787487,0.0011749116238206625
1746738746809463000,4.859463134765625,0.002481018425896764,0.0038419081829488277,-0.0024200896732509136
1746738746819542000,4.8695419921875,0.000039262231439352036,-0.0001729857176542282,0.0015249154530465603
1746738746829622000,4.8796220703125,0.0006312830373644829,-0.0032835579477250576,0.0012250435538589954
1746738746839701000,4.889700927734375,-0.00027289707213640213,0.0006604478694498539,0.0014443453401327133
1746738746849780000,4.899780029296875,-0.00002096220850944519,0.0018511470407247543,0.0014488727319985628
1746738746859859000,4.90985888671875,0.00019615283235907555,0.002202944364398718,-0.00008187766070477664
1746738746869939000,4.91993896484375,0.002087263623252511,-0.0018581096082925797,0.00036553340032696724
1746738746880018000,4.930017822265625,-0.0013107252307236195,-0.001568562351167202,0.0017864082474261522
1746738746890097000,4.940096923828125,0.0005457643419504166,-0.0017182319425046444,-0.0009859424317255616
1746738746900176100,4.950176025390625,0.0025444147177040577,0.0037491065450012684,-0.0019240311812609434
1746738746910255900,4.960255859375,0.0018791570328176022,0.001460119616240263,0.0006379299447871745
1746738746920335000,4.970335205078125,0.000041949562728405,-0.00039882026612758636,0.0014631738886237144
1746738746930414000,4.9804140625,-0.0009926888160407543,-0.0040396274998784065,0.001706320559605956
1746738746940494000,4.990494140625,0.0005591739900410175,-0.00013271113857626915,-0.0001255662937182933
1746738746950573000,5.000572998046875,-0.0009319302625954151,0.001117110252380371,-0.0006225121906027198
1746738746960651800,5.01065185546875,-0.0006677727214992046,-0.00016135349869728088,0.0012481831945478916
1746738746970731000,5.02073095703125,0.002607116475701332,-0.0023797666653990746,0.0016644352581351995
1746738746980811000,5.03081103515625,-0.0017370139248669147,-0.0008420194499194622,0.0020889509469270706
1746738746990890000,5.040889892578125,-0.0012560468167066574,-0.0006681149825453758,0.0008636305574327707
1746738747000969000,5.050968994140625,0.00011921627447009087,0.00202722055837512,-0.0010506504913792014
1746738747011048000,5.0610478515625,-0.00024244096130132675,-0.0033670125994831324,0.00014058152737561613
1746738747021128000,5.0711279296875,-0.0005252687260508537,-0.0033707409165799618,0.0005581651930697262
1746738747031207000,5.08120703125,-0.0023128148168325424,-0.0010538464412093163,0.00045567192137241364
1746738747041286000,5.091285888671875,0.001379638910293579,0.002152062486857176,0.00041542493272572756
1746738747051364900,5.10136474609375,0.0010161171667277813,0.001360305119305849,-0.0012892645318061113
1746738747061445000,5.111445068359375,-0.0001523466780781746,-0.0019373553805053234,0.001099495217204094
1746738747071523800,5.12152392578125,0.00043967412784695625,-0.0009852754883468151,0.000023311906261369586
1746738747081603000,5.13160302734375,-0.0000554877333343029,0.000045238062739372253,-0.00015349464956671
1746738747091682800,5.141682861328125,0.00009071966633200645,0.0021041277796030045,-0.0010736167896538973
1746738747101762000,5.151761962890625,0.0006547686643898487,0.001364812720566988,0.000040835264371708035
1746738747111841000,5.161841064453125,0.0015703635290265083,-0.0007204427383840084,0.0010784028563648462
1746738747121919700,5.171919677734375,-0.0008907811716198921,-0.004885169677436352,-0.000034260854590684175
1746738747132000000,5.182,-0.0005070199258625507,-0.00021025678142905235,-0.001259314944036305
1746738747142079000,5.192078857421875,-0.00028019770979881287,0.0021865959279239178,-0.0012193373404443264
1746738747152158000,5.202157958984375,-0.0012296144850552082,0.0006241193041205406,0.0015154627617448568
1746738747162237000,5.21223681640625,-0.0010478543117642403,-0.001083408948034048,0.0008814737666398287
1746738747172317000,5.22231689453125,-0.0021778331138193607,0.0006979797035455704,0.002858604770153761
1746738747182396000,5.23239599609375,-0.0008409875445067883,0.000936498399823904,-0.0026494136545807123
1746738747192475000,5.242474853515625,0.0014637121930718422,0.0006006741896271706,0.0012539816088974476
1746738747202554000,5.25255419921875,0.001449069008231163,0.0012177852913737297,-0.0005082085262984037
1746738747212633900,5.2626337890625,0.0015683788806200027,-0.0007545514963567257,0.00011284065840300173
1746738747222713000,5.272713134765625,-0.0019208197481930256,0.0003177640028297901,-0.000801226356998086
1746738747232791800,5.282791748046875,0.0007543251849710941,0.001902078278362751,0.0005868131993338466
1746738747242872000,5.2928720703125,0.0006455248221755028,0.0035119401291012764,-0.001078806584700942
1746738747252950800,5.30295068359375,0.0017491388134658337,-0.0017286287620663643,-0.0008905210415832698
1746738747263030000,5.313030029296875,-0.00030432408675551414,-0.005414539482444525,0.0026725258212536573
1746738747273108200,5.323108154296875,0.0006120698526501656,0.00011498201638460159,0.0008205634658224881
1746738747283188200,5.333188232421875,-0.00037747016176581383,0.002646372187882662,0.0002883724810089916
1746738747293267200,5.34326708984375,0.003781854873523116,0.0004069199785590172,0.003787499852478504
1746738747303346400,5.353346435546875,0.0004134629853069782,-0.0006499388255178928,0.002694695023819804
1746738747313425400,5.36342529296875,0.0008305138908326626,-0.0039610471576452255,0.0010419373866170645
1746738747323505400,5.37350537109375,0.0013716882094740868,-0.001595097128301859,0.0006895114202052355
1746738747333584400,5.38358447265625,0.00008005509153008461,0.0027133645489811897,-0.001911864266730845
1746738747343663000,5.3936630859375,0.0021697755437344313,0.002927761524915695,0.003369261510670185
1746738747353742300,5.403742431640625,0.0009178235195577145,-0.0011894856579601765,-0.00008592350059188902
1746738747363822300,5.413822265625,0.0015015983954071999,-0.0040781027637422085,0.003496266435831785
1746738747373901300,5.4239013671875,-0.0007937802001833916,0.000527301337569952,-0.001544298604130745
1746738747383980300,5.433980224609375,0.00015118811279535294,-0.0007377173751592636,0.0001946332777151838
1746738747394060300,5.444060302734375,0.0008883513510227203,0.0025776512920856476,0.001471885247156024
1746738747404139300,5.45413916015625,0.0015336154028773308,-0.0008099963888525963,0.004544393625110388
1746738747414218500,5.464218505859375,-0.00010742479935288429,-0.0019144094549119473,0.0014838892966508865
1746738747424297200,5.474297119140625,-0.0028128507547080517,0.0013278182595968246,-0.001301732030697167
1746738747434377500,5.48437744140625,0.0006394046358764172,0.003803758881986141,0.0003752604825422168
1746738747444456400,5.49445654296875,0.0016069123521447182,-0.0032641482539474964,-0.0008432650938630104
1746738747454535200,5.50453515625,-0.000022143591195344925,-0.0024177958257496357,-0.00014418535283766687
1746738747464614400,5.514614501953125,-0.0006631030701100826,0.0009567621164023876,0.0007399301393888891
1746738747474694100,5.524694091796875,0.0006213397718966007,0.0017722216434776783,-0.0009301381651312113
1746738747484773400,5.5347734375,0.00021649198606610298,0.0033716754987835884,-0.0016409442760050297
1746738747494852400,5.544852294921875,-0.0007137502543628216,-0.001871822401881218,-0.0010004539508372545
1746738747504931300,5.554931396484375,0.00011166837066411972,-0.0023765554651618004,-0.00012843796866945922
1746738747515011300,5.56501123046875,-0.003888665698468685,-0.00005960557609796524,-0.002027804497629404
1746738747525090300,5.57509033203125,0.0012710303999483585,0.002047338057309389,0.0007878589676693082
1746738747535169300,5.585169189453125,-0.0008701509796082973,0.001492068637162447,0.00041022273944690824
1746738747545248300,5.595248291015625,0.0014957836829125881,-0.0011675087735056877,0.0020409333519637585
1746738747555328300,5.605328369140625,-0.0007995949126780033,-0.002198684960603714,0.0014331999700516462
1746738747565407200,5.6154072265625,0.000058774836361408234,-0.002758186776190996,-0.00017760039190761745
1746738747575486500,5.625486572265625,0.0019261832349002361,0.000651458278298378,-0.0016908084508031607
1746738747585565400,5.6355654296875,-0.0013135340996086597,-0.00008565513417124748,0.0015509226359426975
1746738747595645400,5.6456455078125,0.0017467045690864325,-0.0017900783568620682,0.0002616863348521292
1746738747605724400,5.655724365234375,-0.0011627906933426857,-0.0028771897777915,0.0003168129187542945
1746738747615803100,5.66580322265625,0.00030008377507328987,0.0006949082016944885,0.0005865911371074617
1746738747625883400,5.67588330078125,0.0011435868218541145,-0.0005912850610911846,0.0006632069125771523
1746738747635962400,5.68596240234375,0.002342542167752981,0.00006518419831991196,0.003714656922966242
1746738747646041300,5.696041259765625,0.000911591574549675,-0.0033248341642320156,0.00471052760258317
1746738747656120300,5.706120361328125,-0.0021308036521077156,-0.001101361121982336,-0.0021692162845283747
1746738747666200300,5.716200439453125,-0.0008334009908139706,0.0024558589793741703,-0.0012449590722098947
1746738747676279300,5.726279296875,0.002026567468419671,-0.0009540524333715439,-0.002953643212094903
1746738747686358300,5.736358154296875,0.00007132813334465027,-0.0006390316411852837,0.0004533088649623096
1746738747696437200,5.746437255859375,0.00034616654738783836,-0.0023192199878394604,0.0023473489563912153
1746738747706517200,5.756517333984375,-0.00033227214589715004,-0.00028531206771731377,0.0009158547618426383
1746738747716596500,5.766596435546875,-0.0009208307601511478,0.003742985427379608,-0.0012399741681292653
1746738747726675200,5.77667529296875,-0.0012636370956897736,0.0011277995072305202,-0.0031645253766328096
1746738747736754400,5.78675439453125,-0.0015616449527442455,-0.002883453853428364,0.001192406052723527
1746738747746834200,5.796834228515625,-0.0022838707081973553,-0.0032105776481330395,0.00009422698349226266
1746738747756913400,5.806913330078125,-0.00010274210944771767,0.0007988116703927517,-0.0010240343399345875
1746738747766992400,5.816992431640625,-0.0004780888557434082,0.005034101661294699,0.00034314702497795224
1746738747777071400,5.8270712890625,0.0002558785490691662,-0.0001111258752644062,0.0037495961878448725
1746738747787151400,5.8371513671875,-0.0001768171787261963,-0.0025572525337338448,0.0008932792115956545
1746738747797230300,5.847230224609375,0.0004024202935397625,-0.0036214517895132303,0.0020056816283613443
1746738747807309300,5.857309326171875,-0.0011120052076876163,-0.000027657020837068558,-0.0007519021746702492
1746738747817388300,5.86738818359375,0.0016667372547090054,0.0005419934168457985,-0.0005436429055407643
1746738747827468300,5.87746826171875,0.0016730048228055239,0.0012488961219787598,0.0037396238185465336
1746738747837547300,5.88754736328125,-0.001471655908972025,-0.0007988084107637405,0.00016486289678141475
1746738747847626200,5.897626220703125,-0.0014186268672347069,-0.0017106574960052967,0.002589882118627429
1746738747857706200,5.907706298828125,-0.00042739836499094963,0.0030068662017583847,-0.004025410395115614
1746738747867785200,5.91778515625,-0.00011520320549607277,0.0004201713018119335,-0.0005540408310480416
1746738747877864400,5.927864501953125,0.0016949472483247519,0.0004513305611908436,0.0005743405781686306
1746738747887943200,5.937943115234375,0.002231372520327568,-0.0023000938817858696,0.00030487714684568346
1746738747898023400,5.9480234375,-0.0024185064248740673,0.00028690043836832047,0.0004303120367694646
1746738747908102400,5.958102294921875,0.0002844412811100483,0.001615012064576149,0.0010745481122285128
1746738747918181400,5.968181396484375,0.002364902989938855,-0.00038102734833955765,-0.0009840752463787794
1746738747928260400,5.97826025390625,0.0008903304114937782,-0.00043903104960918427,0.0017902211984619498
1746738747938340400,5.98834033203125,0.0008796779438853264,-0.002961044665426016,-0.000857493607327342
1746738747948419300,5.99841943359375,-0.0007298626005649567,-0.0007592407055199146,0.0007096718763932586
1746738747958498300,6.008498291015625,-0.000361813697963953,0.0029561356641352177,0.0020684166811406612
1746738747968577300,6.018577392578125,-0.0005017691291868687,0.0018293419852852821,0.0009052226669155061
1746738747978657300,6.0286572265625,0.0004910575225949287,-0.002668470609933138,0.0009243974345736206
1746738747988736500,6.038736572265625,0.0005758171901106834,-0.002450748812407255,0.001831857836805284
1746738747998815200,6.048815185546875,0.00048234034329652786,0.0002869809977710247,-0.0013990892330184579
1746738748008894200,6.058894287109375,-0.00020192749798297882,0.0013017971068620682,-0.0004853288410231471
1746738748018974200,6.06897412109375,0.0037661828100681305,0.0014386838302016258,0.0008379959035664797
1746738748029053200,6.07905322265625,-0.000976338516920805,0.0005583269521594048,0.00027763162506744266
1746738748039132400,6.08913232421875,0.0010106456466019154,-0.0013405070640146732,0.0028646262362599373
1746738748049211100,6.099211181640625,0.0018134885467588902,-0.000622329767793417,-0.0008785006357356906
1746738748059291400,6.10929150390625,0.0012041572481393814,0.0021367045119404793,-0.0006159129552543163
1746738748069370400,6.119370361328125,0.00037837447598576546,-0.0011549224145710468,0.000272156234132126
1746738748079449300,6.129449462890625,-0.0007380228489637375,-0.0015868870541453362,0.001234356313943863
1746738748089529300,6.139529296875,-0.00261622853577137,-0.0005586398765444756,-0.0033992957323789597
1746738748099608300,6.1496083984375,0.0002511967904865742,0.0028483420610427856,0.001271089888177812
1746738748109687300,6.159687255859375,0.0004359870217740536,0.0012996424920856953,-0.0005233764532022178
1746738748119766300,6.169766357421875,0.0002753986045718193,-0.0018423544242978096,0.0005107289762236178
1746738748129846300,6.17984619140625,-0.000999558251351118,-0.003839110489934683,-0.0011454976629465818
1746738748139925200,6.18992529296875,-0.000512199942022562,-0.0020768968388438225,-0.00032817351166158915
1746738748150004500,6.20000439453125,0.0002115708775818348,0.0036963000893592834,-0.00009219645289704204
1746738748160083200,6.210083251953125,-0.0002829781733453274,0.002398807555437088,-0.00011456699576228857
1746738748170163500,6.22016357421875,-0.0016369856894016266,-0.0014661476016044617,-0.0006919577717781067
1746738748180242200,6.2302421875,0.0013239169493317604,-0.0028347461484372616,0.0019653444178402424
1746738748190321200,6.240321044921875,-0.0003269510343670845,0.0005980557762086391,0.0014633683022111654
1746738748200400400,6.250400390625,-0.0003096405416727066,0.003259352408349514,-0.0012908729258924723
1746738748210480000,6.260480224609375,0.001361628994345665,0.0011272388510406017,-0.0007878622272983193
1746738748220559400,6.270559326171875,-0.001788091380149126,-0.0012895800173282623,-0.0011380678042769432
1746738748230638300,6.280638427734375,0.00011379225179553032,-0.003914857283234596,0.002856352599337697
1746738748240718300,6.29071826171875,-0.0010569333098828793,0.002495371736586094,-0.0012917871354147792
1746738748250797300,6.30079736328125,0.0002529481425881386,0.0016183466650545597,-0.00029221666045486927
1746738748260876500,6.31087646484375,0.0019083688966929913,0.0015379195101559162,0.000017775309970602393
1746738748270956000,6.3209560546875,0.0013957405462861061,-0.003993763588368893,0.002803854178637266
1746738748281036000,6.3310361328125,-0.0018455926328897476,-0.0012379246763885021,0.0005857072537764907
1746738748291115000,6.341114990234375,0.00038977107033133507,-0.0013260729610919952,-0.001025575678795576
1746738748301194000,6.351194091796875,-0.00029972149059176445,0.00017967820167541504,-0.00019227262237109244
1746738748311273200,6.361273193359375,-0.0013678832910954952,-0.0023123202845454216,0.0007904283120296896
1746738748321353000,6.37135302734375,-0.0007929070852696896,-0.002197804395109415,0.0019779319409281015
1746738748331432200,6.38143212890625,-0.0007036137394607067,0.001855457667261362,-0.0022583603858947754
1746738748341511000,6.391510986328125,-0.0014559566043317318,0.0036006267182528973,-0.002315884456038475
1746738748351590100,6.401590087890625,-0.0006142682395875454,0.0008381018415093422,0.0001690338976914063
1746738748361670100,6.411670166015625,-0.0024169618263840675,-0.0005515357479453087,0.0007392166880890727
1746738748371749000,6.4217490234375,-0.00026969611644744873,-0.0029578926041722298,0.0018221038626506925
1746738748381828000,6.431828125,-0.0006148419342935085,0.0038368962705135345,0.000960837583988905
1746738748391907000,6.441906982421875,-0.00007286341860890388,0.002788807265460491,0.0027958776336163282
1746738748401987000,6.451987060546875,0.001316774170845747,0.0003216546028852463,-0.0015557276783511043
1746738748412066000,6.462066162109375,0.00046800822019577026,-0.0031927351374179125,0.0015561706386506557
1746738748422145000,6.47214501953125,-0.0002483818680047989,-0.00010053860023617744,-0.0023759868927299976
1746738748432224000,6.48222412109375,-0.0015940908342599869,-0.0006318492814898491,-0.0012273669708520174
1746738748442304300,6.49230419921875,-0.00038395076990127563,0.001386560034006834,0.0012195452582091093
1746738748452383000,6.502383056640625,0.0029259538277983665,0.0005297167226672173,0.0007400371832773089
1746738748462462000,6.5124619140625,0.0016966385301202536,-0.001498546451330185,0.001040974399074912
1746738748472541200,6.522541259765625,0.0006808172911405563,-0.004323665518313646,-0.0020762132480740547
1746738748482621000,6.532620849609375,0.00011622719466686249,0.0005270158872008324,0.0013733792584389448
1746738748492700200,6.5427001953125,-0.0005729487165808678,0.00316510908305645,0.00018567789811640978
1746738748502779000,6.55277880859375,-0.001001983880996704,-0.0002826196141541004,0.00011537045065779239
1746738748512859100,6.562859130859375,0.0003312602639198303,-0.0002968311309814453,0.0023570721969008446
1746738748522938000,6.572938232421875,-0.00017660483717918396,-0.0023839501664042473,-0.0012579028261825442
1746738748533017000,6.58301708984375,-0.0007046679966151714,0.0005356795154511929,-0.0007046804530546069
1746738748543096000,6.593095947265625,0.0009515518322587013,0.0020124022848904133,-0.0019166849087923765
1746738748553176000,6.603176025390625,0.0015670480206608772,-0.0013333908282220364,0.0035986900329589844
1746738748563255000,6.613255126953125,0.00015983358025550842,-0.003316114190965891,0.0010881281923502684
1746738748573334000,6.623333984375,0.00168570876121521,0.0008541364222764969,-0.0032723513431847095
1746738748583413200,6.633413330078125,0.0013861032202839851,0.0003036609850823879,-0.0011178539134562016
1746738748593493000,6.643492919921875,0.0005662404000759125,-0.00021194620057940483,0.0009193678852170706
1746738748603572200,6.653572265625,-0.0008292561396956444,-0.0026663155294954777,0.0018224457744508982
1746738748613651000,6.66365087890625,-0.002268482930958271,-0.0024263309314846992,0.00008733903814572841
1746738748623730200,6.673730224609375,0.0010026777163147926,-0.000060379039496183395,0.0017518147360533476
1746738748633810000,6.683809814453125,0.000422679353505373,0.003720439039170742,0.0012855420354753733
1746738748643889000,6.693888916015625,0.0005065687000751495,-0.0021702065132558346,0.000748915015719831
1746738748653968100,6.703968017578125,-0.0009706718847155571,-0.0017489371821284294,-0.00022099370835348964
1746738748664047000,6.714047119140625,-0.002092395443469286,-0.00031349342316389084,0.0023380378261208534
1746738748674127000,6.724127197265625,-0.0007638041861355305,0.0017233891412615776,-0.0014065573923289776
1746738748684206000,6.7342060546875,-0.0011704685166478157,0.0037982575595378876,-0.00005526942550204694
1746738748694285000,6.74428515625,0.0011273757554590702,-0.0007697045803070068,0.001771837007254362
1746738748704365000,6.754364990234375,-0.0016441759653389454,-0.0019849049858748913,0.00041921751108020544
1746738748714444300,6.7644443359375,0.0003620837815105915,-0.000628648791462183,-0.0005536015378311276
1746738748724523000,6.77452294921875,-0.000004633795469999313,0.0004946724511682987,-0.0013573435135185719
1746738748734602000,6.78460205078125,-0.00006947200745344162,0.0027888095937669277,-0.00166712561622262
1746738748744682000,6.794681884765625,0.0001800665631890297,0.001190380658954382,0.0025675666984170675
1746738748754761000,6.804760986328125,-0.0008984636515378952,-0.002014955971390009,-0.00020335707813501358
1746738748764840200,6.814840087890625,0.0005854498594999313,0.0018010875210165977,-0.0010726128239184618
1746738748774919000,6.8249189453125,0.0007027420215308666,0.0013965107500553131,0.001041673356667161
1746738748784999200,6.834999267578125,-0.0012046140618622303,0.0022756196558475494,-0.001073409104719758
1746738748795078100,6.845078125,0.00005218852311372757,-0.002647522371262312,0.0027139694429934025
1746738748805157000,6.8551572265625,0.0026010998990386724,-0.0020568333566188812,0.0019325980683788657
1746738748815236000,6.865236083984375,0.0003759348765015602,0.0004939199425280094,0.0006666401750408113
1746738748825315800,6.87531591796875,-0.00135511951521039,0.002460398245602846,-0.0031502023339271545
1746738748835395000,6.88539501953125,-0.00012709107249975204,-0.00014074984937906265,-0.0017474115593358874
1746738748845474000,6.89547412109375,-0.0009627910330891609,-0.0030079088173806667,0.0026422766968607903
1746738748855553000,6.905552978515625,-0.0011999146081507206,0.001904867123812437,0.0028219842351973057
1746738748865633000,6.915633056640625,0.001588947605341673,0.0007112384773790836,0.0016813521506264806
1746738748875712300,6.925712158203125,0.0018776273354887962,0.003447710070759058,0.001213463838212192
1746738748885791000,6.935791015625,-0.00029711006209254265,-0.0009406465105712414,0.0011916259536519647
1746738748895870000,6.945869873046875,0.0006215586327016354,-0.0015710974112153053,0.000057903118431568146
1746738748905950000,6.955949951171875,-0.0016304105520248413,0.00022307410836219788,-0.0014457176439464092
1746738748916029000,6.96602880859375,0.0018127290531992912,0.001584786456078291,-0.0006116469157859683
1746738748926108200,6.976108154296875,0.001073435414582491,0.005191771779209375,0.000058404417359270155
1746738748936188000,6.98618798828125,0.0004870886914432049,0.0010613133199512959,0.002250202465802431
1746738748946267100,6.99626708984375,0.0014399676583707333,-0.0030607273802161217,-0.001918443595059216
1746738748956346000,7.00634619140625,0.0006431359797716141,-0.0008139535784721375,0.0014250928070396185
1746738748966425000,7.016425048828125,0.0001850724220275879,0.0023778448812663555,0.0004905896494165063
1746738748976505000,7.026505126953125,0.0013825367204844952,0.0003736894577741623,0.001707028248347342
1746738748986584000,7.036583984375,-0.0012020613066852093,-0.0026894784532487392,-0.00002562438021413982
1746738748996663000,7.0466630859375,-0.0005872645415365696,0.0008329357951879501,0.0017650364898145199
1746738749006742000,7.056741943359375,-0.0012647728435695171,-0.00017666863277554512,-0.0003271428286097944
1746738749016822000,7.066822021484375,0.0028009903617203236,0.0005904799327254295,-0.00542148994281888
1746738749026901000,7.07690087890625,-0.0009239730425179005,0.0011404231190681458,-0.00041794258868321776
1746738749036980200,7.086980224609375,0.0002376306802034378,-0.0010363217443227768,0.003821272635832429
1746738749047059000,7.097058837890625,0.00266616721637547,-0.0021247556433081627,0.0036127471830695868
1746738749057139200,7.10713916015625,-0.0008978927507996559,0.0034311171621084213,0.0005341636715456843
1746738749067218200,7.11721826171875,0.0010984125547111034,0.0024332311004400253,-0.00303101004101336
1746738749077297000,7.127296875,-0.0012148772366344929,-0.001289580948650837,-0.001873962115496397
1746738749087376100,7.137376220703125,-0.00045401183888316154,-0.003750341711565852,-0.00003744609421119094
1746738749097455900,7.147455810546875,-0.0016650604084134102,-0.004121171310544014,-0.0007574104238301516
1746738749107535000,7.15753515625,-0.0006245635449886322,0.003862186335027218,-0.0016620862297713757
1746738749117614000,7.167614013671875,-0.0012174551375210285,0.0015531904064118862,0.0005091088823974133
1746738749127694000,7.177694091796875,-0.00009226938709616661,0.0002844608388841152,0.0011107169557362795
1746738749137773000,7.18777294921875,0.0007175039499998093,-0.002189621329307556,-0.0010266969911754131
1746738749147852300,7.197852294921875,-0.00031660171225667,-0.0016966704279184341,0.0016788083594292402
1746738749157931000,7.207930908203125,0.0004070522263646126,0.0025538518093526363,0.0017266618087887764
1746738749168011000,7.218010986328125,0.0018179949838668108,0.00170536944642663,-0.0018289245199412107
1746738749178090000,7.228090087890625,-0.0006222273223102093,0.0008551375940442085,0.0027967628557235003
1746738749188169000,7.2381689453125,0.00047685904428362846,-0.004091417416930199,0.002169322222471237
1746738749198248200,7.248248291015625,0.0013375324197113514,-0.0020387759432196617,-0.0012200617929920554
1746738749208328000,7.258327880859375,-0.00011974945664405823,0.002586602233350277,-0.0003920849412679672
1746738749218407200,7.2684072265625,0.0014010882005095482,0.0004509538412094116,0.0013451146660372615
1746738749228486100,7.278486083984375,-0.00014407793059945107,-0.0011517363600432873,-0.0013055296149104834
1746738749238564900,7.28856494140625,0.0014651319943368435,-0.0021978705190122128,0.0026492958422750235
1746738749248645000,7.29864501953125,-0.0010606097057461739,0.00127755431458354,-0.000012533622793853283
1746738749258724000,7.30872412109375,0.00106376176699996,0.00039890874177217484,-0.0016841840697452426
1746738749268802300,7.31880224609375,0.0025631217285990715,-0.00036435341462492943,-0.0007211848860606551
1746738749278881300,7.32888134765625,-0.0018706554546952248,-0.002155762631446123,0.000009217241313308477
1746738749288961500,7.33896142578125,-0.0012227087281644344,-0.0011541475541889668,0.0016428001690655947
1746738749299040300,7.349040283203125,-0.000380941666662693,0.0017793281003832817,-0.0019031768897548318
1746738749309119200,7.359119140625,0.00043238792568445206,0.0032741604372859,-0.0002906328591052443
1746738749319199200,7.36919921875,0.00000593205913901329,-0.0005760015919804573,0.0005195685662329197
1746738749329278200,7.3792783203125,0.0007734550163149834,-0.0033856364898383617,-0.0021084388718008995
1746738749339357400,7.389357421875,-0.0007835011929273605,-0.0015429849736392498,-0.0004888039547950029
1746738749349436200,7.399436279296875,-0.00007217051461338997,0.003296777606010437,-0.0012432774528861046
1746738749359516400,7.409516357421875,-0.0010337266139686108,0.0025315461680293083,-0.0012712671887129545
1746738749369595400,7.419595458984375,0.0013471394777297974,-0.001707141287624836,0.000601467676460743
1746738749379674400,7.42967431640625,0.0008190860971808434,-0.0030830190517008305,0.00070531404344365
1746738749389753300,7.43975341796875,0.00024757208302617073,-0.00015460746362805367,0.0006981234764680266
1746738749399833000,7.4498330078125,-0.00024887174367904663,0.0005565769970417023,0.000393207767046988
1746738749409912300,7.459912353515625,-0.00011597992852330208,0.002269522752612829,0.003055569948628545
1746738749419991300,7.4699912109375,-0.0016350513324141502,-0.0015917369164526463,0.0024746411945670843
1746738749430070500,7.480070556640625,-0.00013728952035307884,-0.001660180278122425,0.0009539761231280863
1746738749440150300,7.490150390625,-0.0005185659974813461,0.0015124119818210602,-0.0012271776795387268
1746738749450229500,7.5002294921875,-0.001070372760295868,-0.000908668152987957,-0.0002777606714516878
1746738749460308200,7.51030810546875,-0.0002802410162985325,0.0014011259190738201,-0.00024937084526754916
1746738749470387200,7.52038720703125,0.0005426756106317043,-0.00009397277608513832,0.0021970088128000498
1746738749480467200,7.53046728515625,0.002864586189389229,-0.004160052631050348,0.0013784121256321669
1746738749490546200,7.540546142578125,0.0009167501702904701,0.0012781224213540554,-0.0006549113895744085
1746738749500625400,7.55062548828125,0.001701531931757927,0.00223501306027174,0.0015877177938818932
1746738749510705200,7.560705078125,0.0006810086779296398,-0.002235102467238903,-0.0020352464634925127
1746738749520784400,7.570784423828125,-0.00030027469620108604,-0.0016201729886233807,-0.0009464669274166226
1746738749530863400,7.58086328125,0.0014329105615615845,0.0010832017287611961,-0.0016183824045583606
1746738749540942300,7.5909423828125,0.0013129692524671555,0.000395861454308033,0.0006086459616199136
1746738749551022300,7.601022216796875,0.00017526652663946152,0.004053181037306786,-0.001571417786180973
1746738749561101300,7.611101318359375,0.0023430760484188795,-0.002301130909472704,-0.00008053376222960651
1746738749571180300,7.62118017578125,-0.0009869406931102276,-0.0028947493992745876,0.0014867364661768079
1746738749581259300,7.63125927734375,-0.00023088650777935982,0.0009489450603723526,0.0005159006104804575
1746738749591339300,7.64133935546875,0.0004016142338514328,0.000928172841668129,0.0017438841750845313
1746738749601418200,7.651418212890625,-0.0006846887990832329,0.00337055791169405,0.001635759836062789
1746738749611497500,7.66149755859375,0.00011376570910215378,-0.00047862250357866287,0.0012619285844266415
1746738749621576200,7.671576171875,0.00036659836769104004,-0.004043000750243664,-0.0011408684076741338
1746738749631656400,7.681656494140625,-0.0011623227037489414,0.0006255204789340496,-0.0009105049539357424
1746738749641735400,7.6917353515625,0.0017580382991582155,0.0020044357515871525,-0.0010588912991806865
1746738749651814100,7.701814208984375,-0.002306212205439806,0.0023828712292015553,-0.003934838809072971
1746738749661893400,7.711893310546875,-0.000014817342162132263,0.000323345884680748,-0.0015708061400800943
1746738749671973000,7.72197314453125,-0.001982893329113722,-0.0019368790090084076,0.001263329992070794
1746738749682052400,7.73205224609375,0.00011225370690226555,-0.000935595016926527,0.00020421127555891871
1746738749692131300,7.74213134765625,0.001023054588586092,0.003127590287476778,-0.0010706438915804029
1746738749702211300,7.75221142578125,0.001870607491582632,-0.0022316058166325092,0.0006888488424010575
1746738749712290300,7.762290283203125,0.0001390203833580017,-0.0017644870094954967,0.0001293187087867409
1746738749722369500,7.77236962890625,0.0016253823414444923,-0.00024986593052744865,0.00027510838117450476
1746738749732448300,7.7824482421875,-0.000940040685236454,0.000385830644518137,-0.0019736646208912134
1746738749742528300,7.7925283203125,0.0025058358442038298,-0.0005209203809499741,-0.0006123463390395045
1746738749752607200,7.802607177734375,0.002684800187125802,-0.003609388368204236,-0.0022129062563180923
1746738749762686200,7.812686279296875,-0.0002676369622349739,-0.004245533607900143,0.00017848836432676762
1746738749772765400,7.822765380859375,-0.000822906382381916,0.00029781926423311234,0.0008203102042898536
1746738749782845200,7.83284521484375,-0.000980608630925417,0.002240607049316168,-0.0001540494558867067
1746738749792924400,7.84292431640625,0.0013943985104560852,0.0006970386020839214,0.0010209372267127037
1746738749803003400,7.85300341796875,0.0010711108334362507,-0.0014437595382332802,-0.0003000283322762698
1746738749813082000,7.86308203125,-0.0017222785390913486,-0.002612621057778597,0.00010876689339056611
1746738749823162400,7.873162353515625,-0.0003934381529688835,0.00044200383126735687,0.0011741899652406573
1746738749833241300,7.883241455078125,0.00006808759644627571,0.0036420579999685287,0.00003622128861024976
1746738749843320300,7.8933203125,-0.0008383388631045818,0.0014360183849930763,0.0009926346829161048
1746738749853399300,7.9033994140625,0.000821343157440424,0.0004141638055443764,0.00492319418117404
1746738749863479300,7.913479248046875,-0.00011937040835618973,-0.002383420243859291,-0.0005410508019849658
1746738749873558300,7.923558349609375,-0.0013510826975107193,0.0029066824354231358,-0.004247638396918774
1746738749883637500,7.933637451171875,-0.0010613235644996166,-0.000038990285247564316,0.0002196405257564038
1746738749893717200,7.94371728515625,0.0002606697380542755,-0.00038040755316615105,0.00009899932774715126
1746738749903796500,7.95379638671875,0.0005100429989397526,-0.0013213399797677994,0.0026764795184135437
1746738749913875500,7.96387548828125,0.0015662526711821556,0.0008778986521065235,0.0011409008875489235
1746738749923954200,7.9739541015625,0.0018878416158258915,0.0010183919221162796,-0.000517636479344219
1746738749934034400,7.984034423828125,0.00021937116980552673,0.0012668650597333908,0.0006887755007483065
1746738749944113200,7.994113037109375,0.0022469491232186556,-0.0006502624601125717,0.0022417972795665264
1746738749954192400,8.0041923828125,-0.0006995722651481628,-0.0009538624435663223,-0.0008192399400286376
1746738749964271400,8.014271240234375,0.00015546660870313644,-0.0006537321023643017,0.0019196112407371402
1746738749974351400,8.024351318359376,0.0011205961927771568,0.00031272880733013153,-0.0006982760969549417
1746738749984430300,8.034430419921875,0.00107598677277565,0.0029398268088698387,-0.0026284807827323675
1746738749994509300,8.04450927734375,0.0003923531621694565,-0.0007651629857718945,0.0011979490518569946
1746738750004588300,8.05458837890625,0.00033004675060510635,-0.002815544605255127,0.002883878303691745
1746738750014668300,8.064668212890625,0.0017252769321203232,-0.0008274950087070465,0.0004319058789405972
1746738750024747300,8.074747314453125,-0.0008021448738873005,0.0015644724480807781,0.0007824490312486887
1746738750034826200,8.084826171875,-0.00047670677304267883,0.0017202678136527538,-0.000256716477451846
1746738750044906500,8.094906494140625,-0.0004425947554409504,-0.0033956661354750395,0.0004769854713231325
1746738750054985200,8.104985107421875,-0.00016642501577734947,-0.0021434477530419827,0.0024559805169701576
1746738750065064400,8.115064453125,0.000015934929251670837,0.0006888331845402718,0.0012327913427725434
1746738750075143400,8.125143310546875,-0.00021123280748724937,0.0024116323329508305,-0.0013278380502015352
1746738750085223200,8.13522314453125,-0.000574945006519556,0.0017238538712263107,0.0031641547102481127
1746738750095302400,8.145302490234375,-0.0022990754805505276,-0.0028357445262372494,0.0035708192735910416
1746738750105381400,8.15538134765625,-0.0012467242777347565,-0.0017758011817932129,0.00279495632275939
1746738750115460400,8.16546044921875,-0.0009737503714859486,0.001173915807157755,-0.0025382901076227427
1746738750125540400,8.175540283203125,-0.0005477648228406906,0.001130979973822832,-0.002161968033760786
1746738750135619300,8.185619384765625,0.0010413434356451035,-0.0005478770472109318,0.0016482163919135928
1746738750145698300,8.1956982421875,-0.001106445211917162,-0.0026412359438836575,0.003990544937551022
1746738750155777300,8.20577734375,-0.0012712948955595493,0.000862418208271265,0.0011092708446085453
1746738750165857300,8.215857177734375,0.0015284293331205845,0.00034117046743631363,-0.004040953703224659
1746738750175936300,8.225936279296874,0.000592594500631094,0.0009110867977142334,-0.002178072463721037
1746738750186015500,8.236015380859374,-0.0004908149130642414,-0.00007900316268205643,0.00030172703554853797
1746738750196094200,8.24609423828125,-0.0012037432752549648,-0.0016212398186326027,-0.00012038400745950639
1746738750206174500,8.256174560546874,-0.00014350609853863716,0.0006308676674962044,0.00014014200132805854
1746738750216253200,8.266253173828124,0.002196613699197769,0.0029616663232445717,0.00071671640034765
1746738750226332400,8.27633251953125,0.0003897910937666893,0.00018430035561323166,0.0012865671887993813
1746738750236412200,8.286412109375,0.00008379388600587845,-0.0013869646936655045,0.00062823377083987
1746738750246491400,8.296491455078124,0.0004914272576570511,-0.002357835415750742,0.0015998610761016607
1746738750256570400,8.3065703125,-0.00016051484271883965,0.0009910902008414268,0.0012872059596702456
1746738750266649300,8.3166494140625,0.004245717544108629,0.00001592375338077545,-0.0012252663727849722
1746738750276729600,8.3267294921875,0.00398126570507884,-0.0021399054676294327,0.0032898569479584694
1746738750286808800,8.336808837890626,-0.0015580980107188225,-0.001746524590998888,-0.0016172525938600302
1746738750296887600,8.346887451171876,0.0007356824353337288,-0.004385184496641159,-0.00016423186752945185
1746738750306966800,8.356966796875,-0.0000731409527361393,-0.0006055282428860664,-0.0017452421598136425
1746738750317046500,8.367046630859376,-0.00045636994764208794,0.0026493878103792667,0.0017829136922955513
1746738750327125800,8.377125732421876,0.0005078581161797047,0.000655593816190958,-0.0012635471066460013
1746738750337204700,8.387204833984375,-0.0016719396226108074,-0.0008240584284067154,0.0020912368781864643
1746738750347283700,8.39728369140625,0.0003784922882914543,-0.0002767099067568779,-0.0011749318800866604
1746738750357363700,8.40736376953125,0.0013710525818169117,-0.0011755265295505524,-0.0012407118920236826
1746738750367442700,8.417442626953125,-0.0003234432078897953,-0.00010168412700295448,0.0015763596165925264
1746738750377521700,8.427521728515625,-0.0023266728967428207,0.000022951513528823853,0.0023803680669516325
1746738750387600600,8.4376005859375,0.0005420427769422531,0.000452547799795866,0.002054113196209073
1746738750397680600,8.4476806640625,-0.0005775499157607555,-0.0009831623174250126,-0.0006908068899065256
1746738750407759600,8.457759521484375,0.0014295224100351334,0.0000030561350286006927,0.0005030346801504493
1746738750417838600,8.467838623046875,0.00007104361429810524,0.00010718544945120811,-0.0000016343547031283379
1746738750427918600,8.477918701171875,-0.0020962548442184925,0.0009050341323018074,0.0005144077586010098
1746738750437997600,8.48799755859375,-0.000935649499297142,-0.0018366905860602856,0.000030777708161622286
1746738750448076800,8.498076904296875,0.0015655094757676125,0.0019069314002990723,0.0014741997001692653
1746738750458155500,8.508155517578125,0.0010861405171453953,0.001730363816022873,-0.001454212237149477
1746738750468235800,8.51823583984375,0.00044346367940306664,-0.0005033453926444054,0.0003926354693248868
1746738750478314800,8.528314697265625,-0.0011797333136200905,-0.0022956528700888157,0.001737798098474741
1746738750488393700,8.538393798828125,0.0005588731728494167,-0.0017299954779446125,0.001808399916626513
1746738750498472700,8.54847265625,0.000011327210813760757,0.001765669323503971,-0.00013197920634411275
1746738750508552700,8.558552734375,0.0004745312035083771,0.004103938117623329,-0.0011821194784715772
1746738750518631700,8.568631591796875,0.0004806565120816231,0.001775270327925682,0.0029013054445385933
1746738750528710700,8.578710693359374,0.0006883949972689152,-0.002779068425297737,0.0017677275463938713
1746738750538789600,8.58878955078125,0.0024114602711051702,-0.003251779591664672,-0.0006837121327407658
1746738750548869600,8.59886962890625,0.0016003325581550598,0.00231713755056262,-0.00021174887660890818
1746738750558948900,8.608948974609374,0.000005365349352359772,0.0015498814173042774,0.0015214362647384405
1746738750569027600,8.619027587890624,-0.00027180369943380356,-0.00023947935551404953,0.00040941155748441815
1746738750579107800,8.62910791015625,-0.0017594457603991032,0.00019088713452219963,0.00019769027130678296
1746738750589186600,8.6391865234375,-0.0014953110367059708,-0.00039520906284451485,-0.0017386428080499172
1746738750599265500,8.649265625,-0.0007770564407110214,0.0012508914805948734,-0.0004933487507514656
1746738750609344800,8.6593447265625,0.0014705522917211056,-0.0019514826126396656,-0.001160961575806141
1746738750619424500,8.669424560546876,0.0008071591146290302,-0.0015842323191463947,0.002284103771671653
1746738750629503700,8.679503662109376,0.000911045353859663,-0.0012229979038238525,0.0034882677718997
1746738750639582700,8.689582763671876,0.0014958754181861877,0.001825788989663124,0.0044565931893885136
1746738750649661700,8.69966162109375,0.000532299280166626,0.0012160693295300007,-0.0007685174932703376
1746738750659741700,8.70974169921875,0.00029900670051574707,0.001470667775720358,-0.0009155240841209888
1746738750669820700,8.719820556640625,-0.0010634483769536018,-0.0017673843540251255,0.0015056300908327103
1746738750679899600,8.729899658203125,-0.0001782136969268322,-0.001914390828460455,0.0004811120161321014
1746738750689978600,8.739978515625,0.0010192603804171085,0.0012522460892796516,-0.0018922177841886878
1746738750700058600,8.75005859375,0.0008014137856662273,0.0051031773909926414,0.0012766775907948613
1746738750710137600,8.7601376953125,0.0015477021224796772,-0.0004286407493054867,-0.0008347090915776789
1746738750720216800,8.770216796875,-0.00027336739003658295,-0.002244384028017521,0.0008840950904414058
1746738750730296600,8.780296630859375,0.00009789969772100449,-0.0010543032549321651,-0.0019189518643543124
1746738750740375800,8.790375732421875,0.0024739718064665794,0.002005401998758316,0.0006968050729483366
1746738750750454800,8.800454833984375,0.0018354782368987799,0.003118420485407114,0.0005412464961409569
1746738750760533800,8.81053369140625,0.0009350632317364216,-0.000048344023525714874,0.0017383373342454433
1746738750770613800,8.82061376953125,0.0032996241934597492,-0.0014878204092383385,0.001224642270244658
1746738750780692500,8.8306923828125,0.0016415403224527836,-0.003337119473144412,0.0005926741287112236
1746738750790771700,8.840771728515625,0.002956621814519167,-0.0008236914873123169,-0.0029204366728663445
1746738750800850700,8.8508505859375,-0.00013663992285728455,0.0010698158293962479,-0.0010500986827537417
1746738750810930700,8.8609306640625,-0.000609787181019783,0.0019449894316494465,0.00006411698996089399
1746738750821009700,8.871009765625,0.0012325877323746681,-0.0015749111771583557,-0.00014094641664996743
1746738750831089000,8.8810888671875,0.0015763333067297935,-0.000861641950905323,0.0010941179934889078
1746738750841167600,8.891167724609375,0.0010152049362659454,0.0007114876061677933,0.0006107543595135212
1746738750851247900,8.901247802734375,0.0004851166158914566,0.0011855182237923145,-0.002142059151083231
1746738750861326600,8.91132666015625,-0.0019117281772196293,-0.0028563612140715122,0.002367737703025341
1746738750871405600,8.921405517578124,0.001254059374332428,-0.002676962874829769,0.0009169955155812204
1746738750881484800,8.93148486328125,-0.0004186718724668026,-0.00006440188735723495,0.0008695912547409534
1746738750891564500,8.941564453125,0.0003680405206978321,0.004652919713407755,0.001484844135120511
1746738750901643800,8.951643798828124,-0.0021188189275562763,-0.00022865459322929382,-0.0006406247266568244
1746738750911722800,8.96172265625,0.00012884661555290222,-0.0026626992039382458,-0.0007934520253911614
1746738750921802800,8.971802734375,0.0003160666674375534,-0.0019258027896285057,0.0009866048349067569
1746738750931881700,8.9818818359375,-0.000005769077688455582,-0.0010135448537766933,-0.0010278824483975768
1746738750941960400,8.99196044921875,-0.0003133639693260193,0.00254257395863533,-0.0020385519601404667
1746738750952039700,9.002039794921876,0.0005853958427906036,0.0007813004776835442,0.0017886047717183828
1746738750962119700,9.01211962890625,0.0005382578819990158,-0.004340224899351597,-0.0011464650742709637
1746738750972198700,9.02219873046875,0.0000853613018989563,-0.0019089714623987675,0.0007019647164270282
1746738750982277600,9.032277587890626,0.00029575126245617867,0.0006604460068047047,0.0018271503504365683
1746738750992356900,9.04235693359375,-0.0005936096422374249,0.0038200505077838898,0.0006954607088118792
1746738751002436600,9.0524365234375,0.00015340745449066162,-0.0008830917067825794,0.00015057798009365797
1746738751012515800,9.062515869140626,0.0005776523612439632,-0.004188036546111107,-0.00022827088832855225
1746738751022594800,9.0725947265625,0.0006966958753764629,-0.00010780757293105125,-0.000777947367168963
1746738751032673500,9.082673583984375,0.000975731760263443,0.0005924999713897705,-0.001195583725348115
1746738751042753800,9.09275390625,0.0019403286278247833,0.0015690806321799755,-0.00018917518900707364
1746738751052832500,9.10283251953125,-0.000766419805586338,-0.0017951088957488537,-0.00016384728951379657
1746738751062911700,9.112911865234375,0.0002615605480968952,-0.0004970841109752655,-0.002387586748227477
1746738751072991500,9.122991455078125,0.0006402619183063507,0.001932603307068348,0.00019255194638390094
1746738751083070700,9.13307080078125,0.0008474560454487801,0.00042605306953191757,-0.0008700492908246815
1746738751093149700,9.143149658203125,0.0012775096110999584,0.00024259323254227638,0.00015787372831255198
1746738751103229000,9.15322900390625,-0.001264743972569704,-0.0031023372430354357,0.0013874552678316832
1746738751113308700,9.16330859375,-0.00038004713132977486,-0.0006811311468482018,0.003034922992810607
1746738751123387600,9.1733876953125,-0.00010094791650772095,0.004100574646145105,0.001789096393622458
1746738751133466600,9.183466552734375,-0.0004897676408290863,0.002057373523712158,-0.0008587684715166688
1746738751143545600,9.193545654296875,-0.0011648787185549736,0.0012219399213790894,0.0009399305563420057
1746738751153625600,9.20362548828125,-0.00026230188086628914,-0.000882572028785944,-0.002070913789793849
1746738751163704600,9.21370458984375,0.0002636727876961231,-0.0015289210714399815,-0.000639731006231159
1746738751173783800,9.22378369140625,0.0005162805318832397,0.0015086038038134575,0.0015393212670460343
1746738751183862800,9.23386279296875,0.0005258680321276188,0.0011536041274666786,0.001044505974277854
1746738751193942800,9.24394287109375,-0.0016042180359363556,-0.0002593984827399254,0.002167366212233901
1746738751204021800,9.254021728515625,-0.0008771750144660473,-0.004208866506814957,-0.00009472289821133018
1746738751214100500,9.2641005859375,-0.0012172139249742031,-0.001037408597767353,-0.0007074103923514485
1746738751224180700,9.2741806640625,-0.0008624810725450516,0.0019213631749153137,0.000044666259782388806
1746738751234259700,9.284259765625,0.0009498666040599346,-0.0015716617926955223,-0.0023796726018190384
1746738751244338700,9.294338623046874,0.0009956732392311096,-0.0007178522646427155,0.0014555456582456827
1746738751254417700,9.304417724609374,0.00004914868623018265,-0.0006362991407513618,0.0015922494931146502
1746738751264497700,9.31449755859375,0.0021423932630568743,0.0008058026432991028,-0.0005942058051005006
1746738751274577400,9.324577392578124,0.0016747983172535896,0.002438708208501339,-0.00259881978854537
1746738751284656400,9.334656494140624,0.0006417580880224705,-0.00008437084034085274,-0.0031916394364088774
1746738751294735400,9.3447353515625,0.0003858013078570366,0.0007519279606640339,0.0014851943124085665
1746738751304815400,9.3548154296875,-0.001061093993484974,-0.0017690202221274376,0.0024173008278012276
1746738751314894300,9.364894287109376,0.0011130739003419876,0.0008707945235073566,-0.0013014217838644981
1746738751324973300,9.374973388671876,0.0011713975109159946,0.0009424337185919285,0.00021711262525059283
1746738751335052300,9.38505224609375,-0.0004730289801955223,-0.0006810063496232033,0.0010105306282639503
1746738751345132300,9.39513232421875,0.00020660972222685814,-0.0006663589738309383,-0.0011644731275737286
1746738751355211300,9.405211181640626,0.000006359070539474487,0.00031852303072810173,-0.0018685196992009878
1746738751365290500,9.41529052734375,0.00011288560926914215,0.0024541113525629044,-0.001191277988255024
1746738751375370200,9.425370361328126,0.00015026098117232323,0.00241759791970253,0.00010472613212186843
1746738751385449500,9.435449462890626,-0.0011853142641484737,0.00020823907107114792,-0.002166950376704335
1746738751395528200,9.445528076171875,-0.00106527516618371,-0.004566826391965151,-0.0012856321409344673
1746738751405607400,9.455607421875,-0.0015727845020592213,0.0014984244480729103,-0.00020145345479249954
1746738751415687400,9.4656875,-0.0004856991581618786,0.0015980983152985573,0.0013816084247082472
1746738751425766400,9.475766357421875,-0.00015759747475385666,0.0014660060405731201,0.00029051132150925696
1746738751435845400,9.485845458984375,0.0015681842342019081,-0.002196814399212599,0.0014477476943284273
1746738751445924400,9.49592431640625,-0.0008164099417626858,-0.0019970773719251156,0.0016394953709095716
1746738751456004400,9.50600439453125,0.000673963688313961,0.000537616666406393,-0.00037471024552360177
1746738751466083300,9.516083251953125,0.0014193826355040073,0.0003988659009337425,-0.0023278724402189255
1746738751476162600,9.52616259765625,-0.0000815102830529213,-0.002041175961494446,0.0010352476965636015
1746738751486241300,9.5362412109375,-0.0006325184367597103,0.0004944195970892906,-0.00016210947069339454
1746738751496321500,9.546321533203125,0.00019965413957834244,-0.0018673432059586048,0.0012306510470807552
1746738751506400300,9.556400146484375,-0.000166263896971941,0.00024827197194099426,0.00010360123997088522
1746738751516479200,9.566479248046875,-0.0010239249095320702,-0.0011791023425757885,-0.0012060366570949554
1746738751526559200,9.576559326171875,-0.002081199549138546,0.0025162994861602783,-0.0007525003748014569
1746738751536638200,9.58663818359375,0.0015358817763626575,-0.00033138273283839226,0.001837055548094213
1746738751546717400,9.596717529296875,0.0014922060072422028,0.0007655732333660126,-0.0021899105049669743
1746738751556796400,9.60679638671875,0.0010713543742895126,0.00044785067439079285,-0.0005859028315171599
1746738751566876400,9.61687646484375,0.00018132617697119713,0.002428975887596607,0.0005446090362966061
1746738751576955400,9.626955322265625,0.0009959065355360508,-0.0019624033011496067,-0.0004219968104735017
1746738751587034400,9.637034423828124,0.0019434592686593533,-0.0005671735852956772,0.0024856426753103733
1746738751597113300,9.64711328125,0.0018744373228400946,0.0003957366570830345,0.003965298179537058
1746738751607193300,9.657193359375,-0.0002648802474141121,0.002726268954575062,-0.0008395768818445504
1746738751617272300,9.667272216796874,0.0019348396454006433,0.00004902249202132225,-0.0011802285443991423
1746738751627351300,9.677351318359374,0.00017555570229887962,-0.0005153012461960316,-0.00031603279057890177
1746738751637430500,9.687430419921874,0.0015495233237743378,-0.002070112619549036,0.0026828134432435036
1746738751647510300,9.69751025390625,0.001861379249021411,0.0007706815376877785,-0.000046127737732604146
1746738751657589500,9.707589599609374,0.0005946410819888115,-0.00005146721377968788,0.0026891794987022877
1746738751667668200,9.717668212890626,-0.0005150982178747654,0.0013216589577496052,0.0014425538247451186
1746738751677748500,9.72774853515625,0.002710468601435423,-0.0009051640518009663,0.0011400706134736538
1746738751687827500,9.737827392578126,0.000775948166847229,-0.0039832452312111855,0.00037015066482126713
1746738751697906200,9.74790625,0.0013080751523375511,0.0005918135866522789,-0.0004507947596721351
1746738751707985400,9.7579853515625,0.001638307236135006,0.0016863727942109108,0.00005600480653811246
1746738751718065200,9.768065185546876,-0.000575473066419363,0.002206980250775814,0.002845078706741333
1746738751728144400,9.778144287109376,0.0007529114373028278,-0.0012271655723452568,0.0021236285101622343
1746738751738223400,9.788223388671875,-0.00016474584117531776,-0.0015043029561638832,-0.0012946475762873888
1746738751748302300,9.79830224609375,-0.00005662161856889725,-0.00011919299140572548,-0.0030864221043884754
1746738751758382300,9.80838232421875,0.0011516283266246319,0.0024976697750389576,-0.001925984281115234
1746738751768461600,9.818461669921875,0.00007677683606743813,-0.00191039452329278,-0.000685750157572329
1746738751778540300,9.828540283203125,0.0014017713256180286,-0.0024324175901710987,0.0016237483359873295
1746738751788619300,9.838619384765625,-0.000036335550248622894,0.0011841552332043648,0.0017348021501675248
1746738751798699300,9.84869921875,0.0002960185520350933,0.0020468365401029587,-0.00031069625401869416
1746738751808778200,9.8587783203125,0.002592196222394705,-0.0002844948321580887,-0.0008451926987618208
1746738751818857500,9.868857421875,0.00015077507123351097,-0.0005255104042589664,-0.0011159682180732489
1746738751828937200,9.878937255859375,0.0018006034661084414,-0.001441371627151966,0.001695530954748392
1746738751839016400,9.889016357421875,0.0005681803449988365,0.0005582235753536224,0.0018702854868024588
1746738751849095400,9.899095458984375,0.00046271923929452896,0.003903420176357031,0.0024732251185923815
1746738751859174100,9.909174072265625,0.0026640170253813267,0.000011211726814508438,-0.00044158948003314435
1746738751869254400,9.91925439453125,-0.00017304858192801476,-0.0019150525331497192,0.0009597658645361662
1746738751879333400,9.92933349609375,0.0003283033147454262,-0.0029191779904067516,0.0000209676509257406
1746738751889412400,9.939412353515625,-0.0010208538733422756,0.00267212837934494,-0.002249643439427018
1746738751899491300,9.9494912109375,0.001803733641281724,0.0029918691143393517,-0.001252699876204133
1746738751909571300,9.9595712890625,-0.0019689002074301243,0.00005520135164260864,0.0005060516996309161
1746738751919650300,9.969650390625,-0.0016303090378642082,-0.0013429350219666958,0.0008348752744495869
1746738751929729500,9.9797294921875,0.00025094812735915184,-0.001547998283058405,0.0013906770618632436
1746738751939809300,9.989809326171875,0.0025971634313464165,0.00003464147448539734,-0.002167209517210722
1746738751949888500,9.999888427734374,0.0002431953325867653,0.002021093387156725,-0.0008193837129510939
1746738751959967500,10.009967529296874,-0.0011529214680194855,0.0018980852328240871,0.0010524308308959007
1746738751970046200,10.020046142578124,0.0002561570145189762,-0.0016993130557239056,0.0028721687849611044
1746738751980126500,10.03012646484375,-0.0030529736541211605,-0.00046281516551971436,-0.0012765774736180902
1746738751990205200,10.040205078125,0.0006408304907381535,0.001819247379899025,0.0014518310781568289
1746738752000284400,10.050284423828124,0.0011406377889215946,0.0026977737434208393,-0.0008571709040552378
1746738752010363400,10.06036328125,-0.001813872717320919,-0.0006151986308395863,-0.00031415236298926175
1746738752020443400,10.070443359375,0.0007306849583983421,-0.0009118695743381977,-0.0009338718373328447
1746738752030522400,10.0805224609375,-0.000548164825886488,0.0007177190855145454,0.001156709622591734
1746738752040601300,10.090601318359376,0.0016072900034487247,-0.0004918989725410938,-0.00039664129144512117
1746738752050680300,10.100680419921876,0.0015388471074402332,0.0011824299581348896,-0.00279055698774755
1746738752060760300,10.11076025390625,0.001358130481094122,-0.0018750932067632675,-0.001372160972096026
1746738752070839300,10.12083935546875,-0.000275186263024807,-0.00032060593366622925,0.0017213670071214437
1746738752080918300,10.130918212890625,-0.00035422760993242264,0.00030264630913734436,0.0002533665392547846
1746738752090997500,10.14099755859375,0.0005451217293739319,0.0030776597559452057,-0.0007090998697094619
1746738752101077200,10.1510771484375,0.00044284481555223465,0.0011812644079327583,-0.002337956102564931
1746738752111156500,10.161156494140625,-0.0005246815271675587,-0.0014571286737918854,-0.00036828225711360574
1746738752121235500,10.1712353515625,-0.00017762137576937675,-0.0018224692903459072,0.00011282815830782056
1746738752131315500,10.1813154296875,-0.0007568588480353355,0.000294477678835392,-0.002931963885203004
1746738752141394400,10.19139453125,-0.00012891367077827454,0.0012397286482155323,-0.0034098150208592415
1746738752151473400,10.201473388671875,0.0007033240981400013,0.000046366360038518906,0.0013764179311692715
1746738752161552400,10.211552490234375,0.0003162780776619911,-0.0021941750310361385,0.0014712981646880507
1746738752171632400,10.22163232421875,-0.00011062668636441231,0.0003627259284257889,0.0015967331128194928
1746738752181711400,10.23171142578125,0.0012451889924705029,-0.0008154567331075668,0.0002973767986986786
1746738752191790300,10.241790283203125,-0.0016586952842772007,-0.0011860127560794353,-0.0032955810893326998
1746738752201869300,10.251869384765625,0.00023664813488721848,0.0016078930348157883,-0.00003805116284638643
1746738752211949300,10.26194921875,-0.0016318256966769695,0.0009303847327828407,0.001917241606861353
1746738752222028300,10.2720283203125,-0.0016220309771597385,-0.0005357777699828148,-0.00017529455362819135
1746738752232107500,10.282107421875,0.0012842766009271145,0.001965995877981186,-0.0022957033943384886
1746738752242186200,10.292186279296875,0.00018109986558556557,-0.00008259806782007217,0.00039311940781772137
1746738752252266500,10.3022666015625,0.00019335048273205757,-0.0013494640588760376,0.0017081883270293474
1746738752262345200,10.31234521484375,-0.00020461203530430794,-0.003469018964096904,0.0007185866124927998
1746738752272423700,10.322423583984374,0.0023333802819252014,0.0037497449666261673,0.0001542628015158698
1746738752282503700,10.332503662109374,-0.00021675089374184608,0.0045598396100103855,0.00022009886743035167
1746738752292582700,10.342582763671874,0.000803239643573761,-0.00039337389171123505,0.0004699033743236214
1746738752302661600,10.35266162109375,0.00020217476412653923,-0.0020510931499302387,0.0007971178274601698
1746738752312740900,10.362740966796874,-0.0010183518752455711,-0.0005615875124931335,-0.0018953380640596151
1746738752322820600,10.372820556640624,-0.00006483681499958038,0.0002973945811390877,-0.0007552612805739045
1746738752332899800,10.38289990234375,0.0019080329220741987,0.0027014301158487797,0.0008327817777171731
1746738752342978800,10.392978759765626,0.0001745377667248249,0.002273168880492449,-0.0006756126531399786
1746738752353057500,10.4030576171875,0.0005785389803349972,-0.0029833787120878696,0.001840541954152286
1746738752363137800,10.4131376953125,-0.00034661730751395226,-0.0015686200931668282,0.002551871119067073
1746738752373216500,10.423216552734376,0.0002882801927626133,0.00021037179976701736,0.001748928101733327
1746738752383295700,10.433295654296876,0.0026173684746026993,0.003040552604943514,-0.0012068013893440366
1746738752393375700,10.443375732421876,0.0005321134813129902,0.0008586249314248562,-0.0018310464220121503
1746738752403454700,10.453454833984376,-0.001039720606058836,0.0017612059600651264,0.0012502791360020638
1746738752413533700,10.46353369140625,-0.0018783500418066978,-0.0012540253810584545,0.000080618861829862
1746738752423612700,10.47361279296875,-0.0008090706542134285,0.00039420509710907936,-0.0003023333556484431
1746738752433692700,10.483692626953125,-0.00010120263323187828,0.002960427198559046,-0.0011201901361346245
1746738752443771600,10.493771728515625,-0.000200608279556036,0.00032309023663401604,0.0017797729233279824
1746738752453850600,10.5038505859375,-0.0005849022418260574,-0.004855692852288485,0.001825845567509532
1746738752463929600,10.5139296875,0.0002693082205951214,0.0006738319061696529,0.0014006280107423663
1746738752474009900,10.524009765625,0.0011148620396852493,0.0024360460229218006,-0.003937944769859314
1746738752484088600,10.534088623046875,-0.0010861828923225403,0.0026185759343206882,0.0002825586125254631
1746738752494167800,10.544167724609375,0.0016944233793765306,-0.001756198238581419,-0.0008857701905071735
1746738752504246800,10.554246826171875,-0.00022447481751441956,-0.000241920817643404,0.001167117152363062
1746738752514326800,10.564326904296875,-0.0006282101385295391,0.000981534831225872,0.0002664361090864986
1746738752524405800,10.57440576171875,0.002060349564999342,0.0008555473759770393,0.0012246632250025868
1746738752534484700,10.584484619140625,0.00048002973198890686,0.000654212199151516,0.0010499597992748022
1746738752544563700,10.594563720703125,0.0005708895623683929,-0.00395240169018507,0.0006184452213346958
1746738752554643700,10.604643798828125,0.0013940725475549698,-0.002953982912003994,0.00012549407256301492
1746738752564722700,10.61472265625,0.0008123768493533134,0.003637980669736862,0.0015839150873944163
1746738752574801700,10.6248017578125,0.0014850916340947151,0.00016575073823332787,0.003993809223175049
1746738752584881700,10.634881591796875,0.0006733634509146214,-0.0015491535887122154,0.001850054250098765
1746738752594960600,10.644960693359375,0.0009244997054338455,-0.0020951014012098312,0.000004217348759993911
1746738752605039600,10.65503955078125,-0.0016915276646614075,-0.0004923189990222454,0.0010451633716002107
1746738752615118800,10.665118896484374,0.0002613682299852371,0.0006722812540829182,-0.0024478386621922255
1746738752625198600,10.675198486328124,-0.0005869152955710888,0.002270960249006748,-0.0034995099995285273
1746738752635277800,10.68527783203125,0.0014213742688298225,0.0012781331315636635,0.0009548933012410998
1746738752645356500,10.6953564453125,0.0011699912138283253,-0.004092786926776171,0.0019813114777207375
1746738752655435800,10.705435791015624,-0.0015709344297647476,0.00047693122178316116,0.0012795684160664678
1746738752665515800,10.715515869140624,0.00019604898989200592,0.0009044972248375416,-0.002206596080213785
1746738752675594800,10.7255947265625,0.00007407646626234055,0.0006949063390493393,-0.002589825075119734
1746738752685673700,10.735673828125,-0.001084625255316496,-0.0010838364250957966,0.000691736931912601
1746738752695753500,10.74575341796875,0.0024046485777944326,-0.0026939832605421543,0.0018723162356764078
1746738752705832700,10.755832763671876,0.0021754445042461157,0.0014000274240970612,-0.0006870862562209368
1746738752715911700,10.76591162109375,-0.00038811424747109413,0.0031601106747984886,-0.0010428845416754484
1746738752725990700,10.77599072265625,-0.0004941215738654137,-0.0011054296046495438,0.00011779360647778958
1746738752736070700,10.786070556640626,-0.0005702879279851913,-0.004793907515704632,0.0013937141047790647
1746738752746150000,10.79614990234375,0.0003220583312213421,-0.00006646895781159401,0.0007754453690722585
1746738752756228600,10.806228515625,0.0014339280314743519,0.0024768495932221413,0.0003107237571384758
1746738752766307600,10.8163076171875,-0.003436046652495861,0.0015757614746689796,0.0022936672903597355
1746738752776387600,10.8263876953125,0.000577869825065136,-0.0019047237001359463,0.00134371779859066
1746738752786466600,10.836466552734375,-0.0020868689753115177,-0.0027012028731405735,-0.0008696840377524495
1746738752796545800,10.8465458984375,-0.0000604693777859211,-0.0013930583372712135,0.001982028828933835
1746738752806624800,10.856624755859375,0.0009662648662924767,0.0034836269915103912,-0.001182449166662991
1746738752816704800,10.866704833984375,0.0015335183124989271,0.0037025390192866325,0.00041358330054208636
1746738752826783700,10.87678369140625,-0.0008044028654694557,0.0005478309467434883,0.0001334839907940477
1746738752836862700,10.88686279296875,-0.0005402173846960068,-0.0019414257258176804,-0.00041246399632655084
1746738752846942700,10.896942626953125,0.000748821534216404,-0.0020997622050344944,-0.0016064667142927647
1746738752857021700,10.907021728515625,0.00021112943068146706,0.002884077373892069,-0.002892240649089217
1746738752867100700,10.9171005859375,-0.0012694131582975388,0.0012798323296010494,0.00024238591140601784
1746738752877179600,10.9271796875,0.0014113248325884342,-0.0009974371641874313,0.00124639761634171
1746738752887259600,10.937259765625,-0.0026355437003076077,-0.0015625031664967537,0.0020055489148944616
1746738752897338600,10.947338623046875,-0.002801991533488035,0.0009943977929651737,-0.0009889095090329647
1746738752907417900,10.95741796875,0.0004560789093375206,0.001926992554217577,-0.0017099404940381646
1746738752917496600,10.96749658203125,0.0010952376760542393,-0.0008863704279065132,-0.0001794217387214303
1746738752927576800,10.977576904296875,-0.0022759712301194668,-0.00037698913365602493,0.0016447100788354874
1746738752937655800,10.98765576171875,0.0008330028504133224,-0.0023479945957660675,0.0018114240374416113
1746738752947734500,10.997734619140624,-0.0007864534854888916,0.002891321200877428,0.00032240364816971123
1746738752957814800,11.007814697265625,-0.0023241625167429447,-0.00011485489085316658,-0.0004291404038667679
1746738752967893500,11.0178935546875,-0.00002904515713453293,-0.00316552072763443,0.0010776962153613567
1746738752977972700,11.02797265625,-0.0013997741043567657,-0.0040286509320139885,-0.0022741584107279778
1746738752988051700,11.0380517578125,-0.00003124820068478584,-0.0015564952045679092,0.0014149050693958998
1746738752998131700,11.048131591796874,0.0009701005183160305,0.0034760800190269947,0.0012356743682175875
1746738753008210700,11.058210693359374,0.0007654475048184395,0.0048837908543646336,-0.001051028142683208
1746738753018290000,11.0682900390625,0.0004693041555583477,0.00032818736508488655,-0.000688305648509413
1746738753028368600,11.07836865234375,-0.0003932737745344639,-0.0027954494580626488,-0.00007970316801220179
1746738753038449000,11.088448974609374,-0.0005469382740557194,0.00018595950677990913,0.0024202060885727406
1746738753048527600,11.098527587890626,0.0003312709741294384,0.002294583711773157,0.00035124190617352724
1746738753058606600,11.108606689453126,-0.0005313269793987274,0.0033252271823585033,-0.0009244122775271535
1746738753068685800,11.118685791015626,-0.0006491695530712605,-0.0006905156187713146,0.0012456867843866348
1746738753078765600,11.128765625,0.0003045080229640007,-0.001953386701643467,0.0016704609151929617
1746738753088844800,11.1388447265625,-0.0008656145073473454,0.0012908503413200378,-0.001430987031199038
1746738753098923800,11.148923828125,0.0013373522087931633,0.0012229401618242264,-0.0008906316943466663
1746738753109003800,11.159003662109376,0.0008634161204099655,0.0009548934176564217,0.0016692489152774215
1746738753119082800,11.169082763671875,0.0016208190936595201,-0.0010467381216585636,-0.0008863204857334495
1746738753129161500,11.179161376953125,0.0002914564684033394,-0.0018462887965142727,0.0031606461852788925
1746738753139240700,11.18924072265625,0.0005439245142042637,-0.00014026788994669914,-0.0006386195309460163
1746738753149320700,11.19932080078125,-0.001530392561107874,0.003742863889783621,-0.0033203456550836563
1746738753159399700,11.209399658203125,0.0004595210775732994,-0.00024255644530057907,-0.0031576266046613455
1746738753169478700,11.219478759765625,-0.0008304580114781857,-0.00047663692384958267,-0.0019639681559056044
1746738753179558000,11.229557861328125,0.0011751689016819,-0.0006050015799701214,0.0023759191390126944
1746738753189637600,11.2396376953125,-0.0006163460202515125,0.0033694584853947163,-0.0018661021022126079
1746738753199716900,11.249716796875,-0.0011252760887145996,0.0015518511645495892,-0.000958496704697609
1746738753209795800,11.2597958984375,0.0013748770579695702,-0.0019449475221335888,0.0018432901706546545
1746738753219874600,11.26987451171875,0.0012992434203624725,0.0007491065189242363,-0.002272625220939517
1746738753229954800,11.279954833984375,0.0003189435228705406,-0.0007353289984166622,-0.0009986305376514792
1746738753240033500,11.290033447265625,-0.0006576376035809517,0.002248210832476616,-0.0013259330298751593
1746738753250112800,11.30011279296875,0.00023781275376677513,0.004896988160908222,-0.002456245943903923
1746738753260192500,11.310192626953125,0.0007185130380094051,0.0012396695092320442,0.00230015954002738
1746738753270271700,11.320271728515625,0.0006885328330099583,0.00037969788536429405,0.0015300309751182795
1746738753280350700,11.330350830078125,0.000008361414074897766,-0.0013774558901786804,-0.0034881634637713432
1746738753290429700,11.3404296875,0.00017705652862787247,0.0027633504942059517,0.0002767695114016533
1746738753300509400,11.350509521484375,-0.0006788833998143673,0.0019191289320588112,0.002034988487139344
1746738753310588700,11.360588623046874,-0.000922005157917738,-0.00021642819046974182,0.001787520362995565
1746738753320667400,11.37066748046875,-0.0024985964410007,-0.0010806238278746605,0.001098028034903109
1746738753330746600,11.38074658203125,-0.00029982952401041985,-0.0005189394578337669,0.0014813326997682452
1746738753340826600,11.39082666015625,0.0002716849558055401,0.0003425935283303261,-0.0031738728284835815
1746738753350905600,11.400905517578124,0.0005142209120094776,-0.000023266300559043884,-0.00041779110324569046
1746738753360984600,11.410984619140624,0.0012809447944164276,-0.0022392827086150646,0.001099411747418344
1746738753371064600,11.421064697265624,0.0005546994507312775,-0.002138763200491667,0.002762350719422102
1746738753381143600,11.4311435546875,-0.0018962076865136623,0.00017632264643907547,-0.0006832471117377281
1746738753391222500,11.441222412109376,0.0005331882275640965,0.0027354457415640354,-0.0020506756845861673
1746738753401301500,11.451301513671876,0.0015643644146621227,-0.0005359812639653683,-0.0007561131496913731
1746738753411381500,11.461381591796876,-0.0004703393206000328,-0.0015330011956393719,-0.0009443896124139428
1746738753421460700,11.471460693359376,0.000006366521120071411,-0.0008142138831317425,-0.000348374160239473
1746738753431539500,11.48153955078125,-0.001117049716413021,0.004202883690595627,-0.001643770607188344
1746738753441618700,11.49161865234375,0.0016076304018497467,0.0012558288872241974,0.0013216593069955707
1746738753451698400,11.501698486328126,0.002537216292694211,-0.002173182088881731,0.0004301000735722482
1746738753461777400,11.51177734375,0.000026654452085494995,-0.0038126239087432623,0.00004740383883472532
1746738753471856600,11.521856689453125,-0.0001806439831852913,0.00038304971531033516,0.002837064675986767
1746738753481935600,11.531935546875,0.0015698517672717571,0.003846224397420883,-0.0011065441649407148
1746738753492015600,11.542015625,0.0009464370086789131,0.004018060863018036,-0.0004432358546182513
1746738753502094600,11.552094482421875,-0.0012083263136446476,-0.0003764210268855095,-0.0004818516899831593
1746738753512173600,11.562173583984375,0.0011822856031358242,-0.001368553377687931,0.0029420312494039536
1746738753522253600,11.572253662109375,-0.001187928020954132,0.000012029428035020828,-0.00033445580629631877
1746738753532332500,11.58233251953125,0.0008072350174188614,0.001046732533723116,-0.0000021226878743618727
1746738753542411500,11.59241162109375,0.0009121634066104889,0.0009708325378596783,0.001156618702225387
