time,seconds_elapsed,z,y,x
1746728658122459600,0.018459716796875,0.0011362058576196432,-0.0005660639144480228,-0.005004788748919964
1746728658132477700,0.028477783203125,0.0002038329839706421,-0.0018481099978089333,-0.0074999043717980385
1746728658142496500,0.03849658203125,0.0012856184039264917,-0.001965469680726528,-0.0007380973547697067
1746728658152514800,0.048514892578125,-0.002085410989820957,0.0019302023574709892,0.0039860839024186134
1746728658162534000,0.058533935546875,0.001472370233386755,-0.000989376101642847,0.0053291721269488335
1746728658172551700,0.0685517578125,0.0003738165833055973,-0.0023422616068273783,-0.0011700056493282318
1746728658182570800,0.07857080078125,-0.003848496824502945,0.0012006317265331745,-0.0006236787885427475
1746728658192588500,0.088588623046875,-0.00067534064874053,-0.000249459408223629,-0.002678041346371174
1746728658202606600,0.098606689453125,-0.0016020173206925392,0.0021389927715063095,-0.0036871584597975016
1746728658212625700,0.108625732421875,-0.0025940448977053165,0.0008510882034897804,-0.00484137237071991
1746728658222643700,0.118643798828125,-0.0005196277052164078,0.000272305216640234,-0.0022608621511608362
1746728658232662800,0.128662841796875,-0.00031163450330495834,0.00035433052107691765,-0.0006605687085539103
1746728658242680600,0.1386806640625,0.0007675345987081528,0.00022805901244282722,0.0008918032981455326
1746728658252699600,0.14869970703125,0.0008804525714367628,-0.0008856751956045628,0.0006119050085544586
1746728658262717700,0.1587177734375,-0.0008607609197497368,-0.0019683088175952435,-0.0012921886518597603
1746728658272735500,0.168735595703125,0.0012468649074435234,0.0005806027911603451,0.0009259581565856934
1746728658282754600,0.178754638671875,-0.0019161803647875786,-0.0018530795350670815,-0.0026413872838020325
1746728658292772900,0.18877294921875,0.0018287566490471363,0.0008439035154879093,0.00012350664474070072
1746728658302791700,0.198791748046875,-0.00006350874900817871,0.0008007301948964596,-0.00007880642078816891
1746728658312809700,0.208809814453125,-0.0006371536292135715,-0.0007548220455646515,0.0009238738566637039
1746728658322827500,0.21882763671875,-0.0016277320683002472,0.0017890529707074165,-0.001565346959978342
1746728658332846600,0.2288466796875,0.00021064793691039085,0.0015373844653367996,0.001241358695551753
1746728658342864600,0.23886474609375,-0.0006658351048827171,0.0003577927127480507,0.0031613337341696024
1746728658352883500,0.248883544921875,-0.00020777154713869095,-0.001088570337742567,0.001389532582834363
1746728658362901800,0.25890185546875,-0.0020646960474550724,0.0023149815388023853,0.0013545944821089506
1746728658372920800,0.2689208984375,0.0003406708128750324,0.0019304216839373112,0.0006107736844569445
1746728658382938600,0.278938720703125,0.00026926491409540176,0.0008044503629207611,-0.0026890423614531755
1746728658392956700,0.288956787109375,0.0005579516291618347,0.000855050515383482,0.0009600210469216108
1746728658402975500,0.2989755859375,-0.001078607514500618,0.00018192734569311142,0.0002508468460291624
1746728658412993800,0.308993896484375,0.0006447238847613335,-0.0015882756561040878,0.0010519257048144937
1746728658423012600,0.3190126953125,-0.0014410247094929218,0.0020159422419965267,0.0016710441559553146
1746728658433031000,0.329031005859375,0.0031790270004421473,-0.0010056807659566402,-0.00038038892671465874
1746728658443048700,0.339048583984375,0.0003164578229188919,0.0026474441401660442,0.0020401121582835913
1746728658453067800,0.34906787109375,0.00015214085578918457,0.0009619295597076416,-0.00003688712604343891
1746728658463085800,0.3590859375,0.00018610898405313492,-0.0005069687031209469,-0.00044549256563186646
1746728658473104600,0.369104736328125,-0.0006205625832080841,-0.0007538436912000179,-0.0035246394108980894
1746728658483123000,0.379123046875,0.0006951428949832916,0.0002751033753156662,-0.0014577654656022787
1746728658493142000,0.38914208984375,-0.001817283220589161,0.0018615485168993473,0.002183042000979185
1746728658503159800,0.399159912109375,0.0011946822050958872,0.0014106621965765953,0.0016223900020122528
1746728658513177900,0.409177734375,0.0006945407949388027,0.00010677846148610115,0.001254074857570231
1746728658523196700,0.41919677734375,-0.0006224005483090878,-0.000775712076574564,-0.0007536823395639658
1746728658533214700,0.429214599609375,-0.002323893830180168,-0.001080644316971302,0.0012905602343380451
1746728658543233800,0.43923388671875,-0.00041568698361516,0.0007317676208913326,0.00040107988752424717
1746728658553251800,0.449251953125,0.002264784649014473,-0.0017588203772902489,0.000581642147153616
1746728658563270000,0.459269775390625,-0.001099033746868372,0.0013242261484265327,-0.003362908959388733
1746728658573288700,0.469288818359375,-0.001556298229843378,-0.0014103073626756668,-0.0021141525357961655
1746728658583306800,0.479306640625,-0.0009370013140141964,-0.0010208548046648502,-0.0018981399480253458
1746728658593325800,0.489325927734375,0.002765591721981764,-0.001104744616895914,-0.0008997207041829824
1746728658603343600,0.499343505859375,-0.001325524877756834,0.0004856334999203682,-0.001817548181861639
1746728658613362700,0.50936279296875,-0.0007351022213697433,0.00010826345533132553,-0.0016625518910586834
1746728658623380700,0.519380615234375,-0.00001967931166291237,-0.0005226852372288704,-0.001208718866109848
1746728658633398800,0.529398681640625,0.0020626464392989874,-0.0006601046770811081,-0.0024689268320798874
1746728658643417900,0.53941796875,-0.0005811182782053947,0.00033482955768704414,-0.00004713027738034725
1746728658653435600,0.549435546875,-0.0011209407821297646,0.00024135224521160126,0.00037604616954922676
1746728658663454700,0.559454833984375,0.00012212758883833885,0.003434605896472931,0.0008534945081919432
1746728658673472800,0.56947265625,0.0015445221215486526,0.0016606738790869713,-0.0021883680019527674
1746728658683491600,0.57949169921875,-0.0008547026664018631,-0.0007771109230816364,-0.002449260326102376
1746728658693510000,0.589510009765625,-0.00015402492135763168,-0.00045247143134474754,-0.0019776143599301577
1746728658703527700,0.599527587890625,-0.0003817030228674412,0.0019559264183044434,-0.001703155692666769
1746728658713546800,0.609546630859375,-0.00303660798817873,-0.0021442763973027468,-0.0021532298997044563
1746728658723564800,0.619564697265625,-0.00022810231894254684,-0.0010525831021368504,0.00011396035552024841
1746728658733583600,0.62958349609375,0.00017376849427819252,0.0005389219149947166,-0.00024503376334905624
1746728658743602000,0.639601806640625,-0.002111157402396202,-0.00008007464930415154,-0.00012326333671808243
1746728658753619700,0.64961962890625,0.0021277961786836386,0.0001260540448129177,-0.002728367457166314
1746728658763638800,0.659638671875,-0.0009294534102082253,-0.00024974439293146133,0.00020797038450837135
1746728658773656800,0.66965673828125,0.0002489951439201832,0.0007494734600186348,-0.0019744900055229664
1746728658783675600,0.679675537109375,-0.001960607711225748,-0.0010746200568974018,0.0022523493971675634
1746728658793693700,0.689693603515625,-0.0023624785244464874,-0.0020501362159848213,-0.0007895133458077908
1746728658803712800,0.699712646484375,0.0018241095822304487,0.0014791246503591537,0.00023345253430306911
1746728658813730800,0.709730712890625,-0.0015772795304656029,-0.002158753341063857,-0.001307718688622117
1746728658823748900,0.719748779296875,-0.0008860798552632332,0.0026162518188357353,0.00035969330929219723
1746728658833768000,0.729767822265625,0.0004313862882554531,-0.0009222901426255703,-0.0004187487065792084
1746728658843785700,0.73978564453125,0.0016942801885306835,0.001855271402746439,-0.0015730997547507286
1746728658853804800,0.7498046875,0.00031289830803871155,-0.001911770086735487,0.0030847687739878893
1746728658863822600,0.759822509765625,-0.002793127205222845,-0.001080966554582119,0.0022372459061443806
1746728658873841000,0.7698408203125,-0.0027095042169094086,0.0008218619041144848,-0.00046772672794759274
1746728658883860000,0.77985986328125,0.0016444942448288202,-0.0007729078643023968,-0.002030843636021018
1746728658893877800,0.789877685546875,-0.0010950998403131962,-0.0011550714261829853,0.00010075047612190247
1746728658903896800,0.799896728515625,-0.0008363910019397736,0.001053455751389265,-0.0007160315290093422
1746728658913914600,0.80991455078125,-0.0002606157213449478,0.0009394725784659386,0.002460853196680546
1746728658923933700,0.81993359375,-0.0018264916725456715,-0.00016388669610023499,0.0011842474341392517
1746728658933951700,0.82995166015625,-0.000857899896800518,0.00021667871624231339,-0.002499703085049987
1746728658943969800,0.8399697265625,-0.001586673315614462,-0.0004689563065767288,-0.0011695416178554296
1746728658953988900,0.84998876953125,0.0001350603997707367,0.00017899088561534882,0.0003753581549972296
1746728658964006700,0.860006591796875,-0.00015729712322354317,-0.00031544966623187065,0.00029853894375264645
1746728658974025700,0.870025634765625,0.00030422862619161606,0.00238126702606678,0.001251950510777533
1746728658984043800,0.880043701171875,0.0014865598641335964,0.0005738576874136925,0.0017466451972723007
1746728658994061800,0.890061767578125,0.0003336775116622448,0.0007501589134335518,0.0033610532991588116
1746728659004081000,0.900080810546875,-0.0015174956060945988,0.000906321220099926,-0.001029519597068429
1746728659014099000,0.910098876953125,-0.00024663517251610756,-0.00005454756319522858,-0.00006225937977433205
1746728659024117800,0.92011767578125,0.0005429722368717194,0.000603419728577137,0.0005687496159225702
1746728659034135800,0.9301357421875,-0.0004719584248960018,-0.002085041254758835,0.0033994235564023256
1746728659044155000,0.94015478515625,-0.0012253955937922,0.0002683810889720917,-0.0007195975631475449
1746728659054172700,0.950172607421875,0.0014630653895437717,0.0003421506844460964,0.0020996248349547386
1746728659064191000,0.96019091796875,0.0016346094198524952,-0.0009598829783499241,0.00025421520695090294
1746728659074209800,0.970209716796875,-0.0016053924337029457,0.002768276259303093,0.0023091102484613657
1746728659084227800,0.980227783203125,-0.0003741937689483166,0.0005265581421554089,-0.0015612714923918247
1746728659094247000,0.990246826171875,-0.0003563505597412586,-0.0006921044550836086,-0.0017112074419856071
1746728659104264700,1.0002646484375,0.0006674672476947308,0.001981328707188368,0.00010668020695447922
1746728659114282800,1.01028271484375,0.0025359410792589188,0.0009418968111276627,0.0013040372868999839
1746728659124301600,1.020301513671875,-0.0014943331480026245,0.002094362862408161,-0.002821745350956917
1746728659134319900,1.03031982421875,-0.0009904629550874233,0.0000613057054579258,0.0006952250842005014
1746728659144339000,1.0403388671875,0.00300879729911685,-0.0010019517503678799,-0.0008474607020616531
1746728659154356700,1.050356689453125,0.0011722813360393047,0.0009437538683414459,0.00004070345312356949
1746728659164374800,1.060374755859375,0.0009917281568050385,-0.0014107776805758476,0.0003572083078324795
1746728659174393900,1.070393798828125,0.0017419406212866306,-0.0008184909820556641,0.0022259484976530075
1746728659184411600,1.08041162109375,-0.001359955407679081,0.0006424575112760067,-0.0006761287804692984
1746728659194430700,1.0904306640625,0.0019610063172876835,-0.003023650264367461,0.0007214981596916914
1746728659204448800,1.10044873046875,-0.00010587694123387337,0.0007803747430443764,-0.0010940285865217447
1746728659214467800,1.1104677734375,0.0002552480436861515,-0.001004209741950035,0.004432297311723232
1746728659224486000,1.12048583984375,0.0009691598825156689,0.0009082271717488766,0.00010368204675614834
1746728659234503700,1.130503662109375,0.0024560028687119484,0.0012078327126801014,0.00008770311251282692
1746728659244522800,1.140522705078125,-0.0009293602779507637,0.0011136769317090511,-0.0014159956481307745
1746728659254540800,1.150540771484375,0.0018320714589208364,-0.0018789172172546387,0.001140372478403151
1746728659264559900,1.160559814453125,-0.000026030465960502625,-0.0011847438290715218,-0.0010133448522537947
1746728659274578000,1.170577880859375,0.0014416375197470188,0.0009239474311470985,-0.00022318470291793346
1746728659284595700,1.180595703125,0.00046838633716106415,-0.001315475907176733,-0.0001238752156496048
1746728659294614800,1.19061474609375,0.0011743903160095215,0.001298682764172554,-0.002751882653683424
1746728659304632600,1.200632568359375,-0.0004169885069131851,0.0003907005302608013,-0.00044269859790802
1746728659314651600,1.210651611328125,-0.0010625389404594898,0.001841590739786625,-0.003350337967276573
1746728659324670000,1.220669921875,0.0019597895443439484,-0.0008012596517801285,0.0012358841486275196
1746728659334687700,1.230687744140625,0.003461279906332493,0.00022299215197563171,0.0025019508320838213
1746728659344706800,1.240706787109375,0.0007658228278160095,0.002037679310888052,-0.0010126729030162096
1746728659354724900,1.250724853515625,-0.0005412562750279903,-0.0022231123875826597,-0.0038089922163635492
1746728659364743700,1.26074365234375,0.00008328258991241455,0.00042241625487804413,0.0018303552642464638
1746728659374761700,1.27076171875,-0.0023479172959923744,-0.0022207710426300764,-0.0034269909374415874
1746728659384780800,1.28078076171875,0.00017189700156450272,-0.00030974531546235085,0.00008131866343319416
1746728659394798800,1.290798828125,-0.000674721784889698,0.0030311904847621918,0.002135947346687317
1746728659404817000,1.30081689453125,-0.0005204700864851475,-0.00004489067941904068,0.0013172765029594302
1746728659414836200,1.310836181640625,-0.0010115569457411766,-0.0011855224147439003,0.00032871123403310776
1746728659424854000,1.32085400390625,0.0007895275484770536,0.0013594599440693855,-0.00020663649775087833
1746728659434873000,1.330873046875,0.0003354586660861969,-0.0013950471766293049,0.0003086852375417948
1746728659444891100,1.34089111328125,-0.000012680422514677048,-0.000004189088940620422,-0.0035327596124261618
1746728659454909200,1.3509091796875,0.0007646963931620121,-0.0017245914787054062,-0.0020043717231601477
1746728659464928300,1.36092822265625,-0.0011492054909467697,0.0004753135144710541,0.002051131334155798
1746728659474946300,1.3709462890625,0.000491301529109478,-0.00034680450335144997,0.0007890593260526657
1746728659484965000,1.380965087890625,0.00038133328780531883,0.0019308552145957947,-0.004326700232923031
1746728659494983200,1.390983154296875,-0.001548925880342722,-0.0010255197994410992,0.00033143465407192707
1746728659505002200,1.401002197265625,-0.0011422466486692429,0.00021132780238986015,-0.0006253980100154877
1746728659515020000,1.41102001953125,-0.0004948321729898453,0.00008402857929468155,-0.0007761330343782902
1746728659525038300,1.421038330078125,-0.0004360680468380451,-0.0020905660931020975,-0.0009117198642343283
1746728659535057200,1.43105712890625,-0.0005260827019810677,0.00007351860404014587,-0.0008869525045156479
1746728659545075200,1.4410751953125,-0.0007429593242704868,0.0009435620158910751,-0.002489295322448015
1746728659555094300,1.45109423828125,0.00024960050359368324,0.0005478165112435818,0.0008162201847881079
1746728659565112000,1.461112060546875,0.0005619637668132782,-0.00042277248576283455,-0.0015725635457783937
1746728659575130000,1.471130126953125,0.00023226439952850342,0.0009737890213727951,0.002808602759614587
1746728659585149000,1.48114892578125,0.001756739802658558,0.0006109108217060566,-0.00031486526131629944
1746728659595167200,1.491167236328125,0.0017735178116708994,0.0009091845713555813,0.0009674469474703074
1746728659605186300,1.501186279296875,0.0006179595366120338,-0.0009837527759373188,0.0004536309279501438
1746728659615204000,1.5112041015625,0.0003617634065449238,-0.0008559208363294601,-0.0011482604313641787
1746728659625222100,1.52122216796875,-0.000497759785503149,0.0010556643828749657,0.000092711066827178
1746728659635241000,1.531240966796875,-0.0006756586953997612,-0.001146503258496523,0.0007292067166417837
1746728659645259300,1.54125927734375,-0.0011182483285665512,0.0010620299726724625,0.000911676324903965
1746728659655278000,1.551278076171875,-0.0029036314226686954,0.0016186307184398174,0.0011281913612037897
1746728659665296100,1.561296142578125,0.000898272730410099,0.002013571560382843,0.0006352358032017946
1746728659675314200,1.571314208984375,-0.0022173593752086163,-0.000664769671857357,0.0005132630467414856
1746728659685333200,1.581333251953125,-0.0008748839609324932,0.0011243694461882114,-0.00024965894408524036
1746728659695351000,1.59135107421875,-0.0011481242254376411,0.00007242057472467422,0.0006331789772957563
1746728659705370000,1.6013701171875,0.0011876446660608053,-9.96515154838562e-7,-0.00061229825951159
1746728659715388200,1.61138818359375,-0.00009253667667508125,0.0015769265592098236,-0.000005097361281514168
1746728659725407200,1.6214072265625,0.0006678407080471516,-0.0006572841666638851,-0.0021811495535075665
1746728659735425300,1.63142529296875,-0.0009380453266203403,0.000372560229152441,0.0009390097111463547
1746728659745443000,1.641443115234375,0.0011505607981234789,-0.00018006283789873123,-0.00056102080270648
1746728659755462100,1.651462158203125,-0.000896877609193325,0.0017853500321507454,0.0043309396132826805
1746728659765480000,1.66147998046875,0.0017235891427844763,0.00047132838517427444,0.000019197119399905205
1746728659775499000,1.6714990234375,-0.00014035729691386223,0.0010172766633331776,0.003383568488061428
1746728659785517300,1.681517333984375,0.0008693553972989321,0.00021859770640730858,0.000728745711967349
1746728659795535000,1.69153515625,0.0017505954019725323,0.0019472558051347733,-0.002037479542195797
1746728659805554200,1.70155419921875,0.0016199874226003885,-0.0018154792487621307,0.0015984775964170694
1746728659815572200,1.711572265625,0.0018463560845702887,0.0005286349914968014,-0.0003672016318887472
1746728659825591000,1.721591064453125,-0.0017220382578670979,-0.001342162024229765,-0.001829635351896286
1746728659835609000,1.731609130859375,0.0006066295318305492,-0.0006667845882475376,-0.0007233582437038422
1746728659845627100,1.741627197265625,0.0028355771210044622,-0.000590131152421236,0.000793905695900321
1746728659855646200,1.751646240234375,0.0009135736618191004,0.0008852598257362843,0.0017441216623410583
1746728659865664300,1.761664306640625,0.0026314598508179188,0.00020638760179281235,-0.002041439525783062
1746728659875683000,1.77168310546875,-0.0004932270385324955,0.0003089196979999542,0.00195703050121665
1746728659885701000,1.781701171875,0.000557594932615757,0.00037668412551283836,0.0007655799854546785
1746728659895720200,1.79172021484375,0.0008793047163635492,0.0021330383606255054,-0.0018528399523347616
1746728659905738200,1.80173828125,-0.001612730324268341,0.0029038754291832447,0.0009250873699784279
1746728659915756300,1.81175634765625,0.00037292251363396645,0.00027213990688323975,0.0002459813840687275
1746728659925775000,1.821775146484375,0.0011605506297200918,-0.0009686034172773361,0.00031111855059862137
1746728659935793200,1.831793212890625,0.0027443324215710163,0.0021393056958913803,0.003338600043207407
1746728659945812200,1.841812255859375,-0.002560000866651535,-0.0007973085157573223,-0.003675306448712945
1746728659955830000,1.851830078125,0.0005662837065756321,-0.0010268730111420155,-0.0006560808978974819
1746728659965848300,1.861848388671875,0.0007364475168287754,0.00017501413822174072,-0.00017727608792483807
1746728659975867100,1.8718671875,-0.0004760897718369961,-0.0023672394454479218,-0.0022899615578353405
1746728659985885200,1.88188525390625,-0.0008972198702394962,-0.001389837358146906,0.00037742010317742825
1746728659995904300,1.891904296875,-0.0021270676515996456,-0.0018255305476486683,0.0011635851114988327
1746728660005922000,1.901922119140625,-0.000893780030310154,0.0019131526350975037,0.00018998002633452415
1746728660015940000,1.911940185546875,0.0010266255121678114,0.000036955345422029495,0.0005620236042886972
1746728660025959200,1.921959228515625,-0.00027936650440096855,-0.000715937465429306,-0.0006406002212315798
1746728660035977200,1.931977294921875,-0.000456999521702528,0.0015863650478422642,0.0006563591305166483
1746728660045996300,1.941996337890625,-0.0019454918801784515,-0.000050379429012537,-0.00159584847278893
1746728660056014000,1.95201416015625,0.001030057668685913,0.00022286083549261093,0.001388223608955741
1746728660066032000,1.9620322265625,-0.0006383704021573067,-0.000562664121389389,0.00022792350500822067
1746728660076051200,1.97205126953125,0.0008410154841840267,-0.0024561716709285975,0.00011979928240180016
1746728660086069000,1.982069091796875,-0.0008095125667750835,-0.00236732535995543,-0.0005693319253623486
1746728660096088000,1.992088134765625,-0.0009147073142230511,-0.0021244450472295284,-0.001252699177712202
1746728660106106000,2.002106201171875,0.0005023563280701637,0.0006878175772726536,-0.0030315611511468887
1746728660116125200,2.012125244140625,0.0003838459961116314,-0.00015853485092520714,0.0003349408507347107
1746728660126143200,2.022143310546875,-0.00007864320650696754,0.002093347255140543,0.0005807499401271343
1746728660136161000,2.0321611328125,0.0017546769231557846,0.0016965363174676895,0.0018273756140843034
1746728660146180000,2.04218017578125,-0.0012533138506114483,0.002949391957372427,0.0020186970941722393
1746728660156198100,2.0521982421875,-0.0014956616796553135,0.0014694733545184135,-0.0006516543217003345
1746728660166217200,2.06221728515625,0.0018988687079399824,0.0005203606560826302,-0.0017476584762334824
1746728660176235300,2.0722353515625,0.0028653298504650593,-0.000977933406829834,-0.0015101046301424503
1746728660186253000,2.082253173828125,0.000001934356987476349,0.001917748712003231,-0.003613457316532731
1746728660196272000,2.092272216796875,0.0017574902158230543,-0.0006207763217389584,0.0009757018415257335
1746728660206290200,2.102290283203125,0.0019098208285868168,-0.00013275165110826492,0.000740275252610445
1746728660216309000,2.11230908203125,0.0014003580436110497,-0.0011000116355717182,0.0012686464469879866
1746728660226327300,2.122327392578125,-0.002195073291659355,-0.0005471305921673775,-0.0004980235826224089
1746728660236345000,2.132344970703125,0.0019131188746541739,0.0006433022208511829,-0.0017782049253582954
1746728660246364200,2.1423642578125,0.0007328391075134277,0.0006563332863152027,0.0007636891677975655
1746728660256382200,2.15238232421875,-0.0005846265703439713,-0.0005902922712266445,-0.0029093422926962376
1746728660266401000,2.162401123046875,-0.0012404127046465874,0.0003682081587612629,0.001675384701229632
1746728660276419000,2.172419189453125,0.0011348605621606112,-0.003211346687749028,0.0027206754311919212
1746728660286437000,2.18243701171875,-0.000977665651589632,0.0013000541366636753,0.0011818172642961144
1746728660296456200,2.192456298828125,-0.0026418748311698437,-0.0006389934569597244,0.0019402855541557074
1746728660306474200,2.20247412109375,-0.0019640931859612465,-0.00048351194709539413,-0.0017703447956591845
1746728660316493000,2.2124931640625,0.00003887014463543892,-0.0005626077763736248,0.0016334415413439274
1746728660326511000,2.222510986328125,0.0006762882694602013,0.0004263631999492645,-0.0008044196292757988
1746728660336529200,2.232529052734375,-0.0014441204257309437,0.00013820920139551163,-0.000869666924700141
1746728660346548000,2.2425478515625,-0.0022679329849779606,0.000342304352670908,-0.0013721352443099022
1746728660356566300,2.252566162109375,0.0010056246537715197,0.000381985679268837,0.0004489340353757143
1746728660366585300,2.26258544921875,-0.0000295909121632576,0.000478571280837059,0.000822416739538312
1746728660376603100,2.27260302734375,-0.0014029829762876034,0.0006455513648688793,-0.0027874980587512255
1746728660386621200,2.28262109375,-0.0022752140648663044,0.0010864106006920338,0.00013396446593105793
1746728660396640000,2.292639892578125,-0.00009967805817723274,-0.0008909865282475948,0.0015078892465680838
1746728660406658000,2.302657958984375,0.0005896310321986675,-0.00047930702567100525,0.0022582232486456633
1746728660416677000,2.312677001953125,-0.00020825210958719254,0.0004253690131008625,-0.00045633665286004543
1746728660426695000,2.32269482421875,0.0019405439961701632,0.0024500484578311443,0.000055710552260279655
1746728660436714000,2.3327138671875,-0.001669637393206358,0.0009821136482059956,0.00046716886572539806
1746728660446732000,2.34273193359375,0.00034305034205317497,0.0005319579504430294,-0.000767553923651576
1746728660456749800,2.352749755859375,-0.0017973324283957481,-0.00047578243538737297,-0.00039764074608683586
1746728660466769000,2.362768798828125,0.00018363585695624352,-0.001777547411620617,0.0017297191079705954
1746728660476787200,2.372787109375,-0.0024893791414797306,-0.0005929730832576752,0.0023196092806756496
1746728660486806000,2.382805908203125,0.00004338519647717476,-0.00009418372064828873,-0.0007570423185825348
1746728660496824000,2.392823974609375,0.0014633825048804283,-0.0018838276155292988,0.002371372887864709
1746728660506841900,2.402841796875,-0.00216018408536911,0.0007159034721553326,0.0003378742840141058
1746728660516861000,2.41286083984375,0.00009071966633200645,-0.0001349765807390213,0.0005266924854367971
1746728660526879000,2.42287890625,-0.0007255035452544689,-0.0009103715419769287,-0.0009936203714460135
1746728660536897800,2.432897705078125,0.00043510226532816887,-0.0014259596355259418,0.0004538076464086771
1746728660546916000,2.442916015625,0.0013568555004894733,0.000329683069139719,-0.001406836323440075
1746728660556934000,2.452933837890625,-0.0011252104304730892,0.0002114390954375267,0.0012134478893131018
1746728660566953000,2.462952880859375,-0.0006166351959109306,-0.0006214287132024765,0.0017602057196199894
1746728660576971000,2.472970947265625,-0.0019005448557436466,-0.0013553961180150509,0.002716546878218651
1746728660586989800,2.48298974609375,-0.001147279515862465,0.002837231382727623,-0.0002214352134615183
1746728660597008000,2.4930078125,0.0027028522454202175,0.0003794003278017044,-0.000711456872522831
1746728660607026200,2.503026123046875,0.0028828163631260395,-0.0016016317531466484,-0.0030319250654429197
1746728660617045000,2.513044921875,-0.0005851518362760544,0.0009286375716328621,-0.001075566979125142
1746728660627063000,2.52306298828125,-0.002275646198540926,0.0005263653583824635,0.0009243253152817488
1746728660637082000,2.53308203125,-0.000976290088146925,0.0008922838605940342,-0.003146316157653928
1746728660647100000,2.543099853515625,-0.00040975911542773247,0.0004551457241177559,0.00017762091010808945
1746728660657118200,2.5531181640625,-0.0009237490594387054,0.00032252073287963867,-0.0038746448699384928
1746728660667137000,2.563136962890625,-0.0008300370536744595,-0.00003826431930065155,-0.0017000229563564062
1746728660677155000,2.573155029296875,-0.0012196572497487068,0.0012299329973757267,-0.0012275783810764551
1746728660687174100,2.583174072265625,0.00040421541780233383,0.0002606147900223732,0.0003062542527914047
1746728660697192000,2.59319189453125,-0.0013910215348005295,0.00023265182971954346,-0.0009105440694838762
1746728660707210000,2.6032099609375,0.0008403060492128134,-0.0007575610652565956,-0.001784174470230937
1746728660717228800,2.613228759765625,0.0006312476471066475,0.0024832398630678654,0.0001508784480392933
1746728660727247000,2.6232470703125,0.0006670444272458553,0.0007495922036468983,-0.0017752926796674728
1746728660737266200,2.63326611328125,0.0002441341057419777,-0.0008696094155311584,-0.000142775010317564
1746728660747284000,2.643283935546875,0.0005362587980926037,-0.0010641803964972496,-0.0002866589929908514
1746728660757303000,2.653302978515625,-0.001979895867407322,0.00007964763790369034,-0.0029852399602532387
1746728660767320800,2.66332080078125,0.00124214100651443,-0.0013070418499410152,-0.0013325195759534836
1746728660777339000,2.6733388671875,-0.0012915907427668571,0.00038832612335681915,-0.000399081502109766
1746728660787358000,2.68335791015625,-0.0007116817869246006,0.0007373387925326824,0.00020213075913488865
1746728660797376000,2.6933759765625,-0.0007569552399218082,0.0009213634766638279,0.0019209349993616343
1746728660807395000,2.70339501953125,-0.0025983918458223343,-0.00265674595721066,-0.0014804506208747625
1746728660817413000,2.7134130859375,0.0010115227196365595,0.0020453310571610928,0.001190700102597475
1746728660827431000,2.723430908203125,-0.000545538030564785,0.0008456981740891933,0.0023242076858878136
1746728660837450000,2.733449951171875,-0.0017231879755854607,0.0013732700608670712,-0.000842290697619319
1746728660847467800,2.7434677734375,0.0008652391843497753,-0.00023281294852495193,0.00016286945901811123
1746728660857486800,2.75348681640625,-0.00020854733884334564,0.00044123316183686256,-0.0012994722928851843
1746728660867505200,2.763505126953125,0.0029717781580984592,0.0020669540390372276,0.0011618478456512094
1746728660877523000,2.77352294921875,-0.0003204215317964554,-0.0007509365677833557,-0.00019609788432717323
1746728660887542000,2.7835419921875,0.0022502124775201082,0.0004155435599386692,0.0010128029389306903
1746728660897559800,2.793559814453125,-0.0008976440876722336,-0.0007413337007164955,-0.0014428980648517609
1746728660907579000,2.803578857421875,-0.0000349460169672966,0.0011851564049720764,0.0005015896167606115
1746728660917597000,2.813596923828125,-0.00020618736743927002,0.0019971542060375214,-0.0021775502245873213
1746728660927615000,2.823614990234375,0.0003459053114056587,-0.0017444230616092682,-0.0006292166654020548
1746728660937634000,2.833634033203125,-0.00014092028141021729,0.0012399153783917427,-0.0018151220865547657
1746728660947652000,2.843652099609375,-0.000014921184629201889,-0.0005364767275750637,0.0008051532786339521
1746728660957671000,2.8536708984375,-0.0025316085666418076,0.0012116222642362118,0.001184919965453446
1746728660967689000,2.86368896484375,-0.00017809448763728142,-0.0003945976495742798,-0.0013025114312767982
1746728660977707000,2.87370703125,0.0002805017866194248,0.0004687993787229061,0.0015476035187020898
1746728660987726000,2.88372607421875,-0.0009038341231644154,0.00020842347294092178,0.001029709936119616
1746728660997744000,2.893744140625,-0.0005421768873929977,0.0009663593955338001,0.0009452876402065158
1746728661007763000,2.903762939453125,-0.0011316989548504353,-0.0011563990265130997,-0.0008938449900597334
1746728661017781000,2.913781005859375,-0.00030478741973638535,0.0017640232108533382,-0.0001500239595770836
1746728661027798800,2.923798828125,0.001715546241030097,0.0005667810328304768,0.0006340933032333851
1746728661037817900,2.93381787109375,-0.0010741152800619602,-0.0004010116681456566,-0.00038483203388750553
1746728661047836200,2.943836181640625,-0.000047715846449136734,0.0021338234655559063,-0.0026906970888376236
1746728661057855000,2.95385498046875,-0.0009460002183914185,-0.001519500743597746,-0.002630509901791811
1746728661067873000,2.963873046875,0.00043855980038642883,0.0005675950087606907,0.00010572746396064758
1746728661077890800,2.973890869140625,0.0008412296883761883,0.0012174062430858612,0.00006711157038807869
1746728661087910000,2.983909912109375,-0.0009858091361820698,-0.00030925124883651733,0.003165728645399213
1746728661097928000,2.993927978515625,-0.002262528520077467,-0.0017774519510567188,-0.00028652697801589966
1746728661107946800,3.00394677734375,-0.0016570845618844032,0.001181068830192089,-0.00024391221813857555
1746728661117965000,3.013965087890625,-0.0010008816607296467,-0.0031348499469459057,0.0009190901182591915
1746728661127983000,3.023983154296875,-0.00011242181062698364,-0.0009076404385268688,-0.0006030718795955181
1746728661138002000,3.034001953125,0.0002779979258775711,0.00009903451427817345,0.0005495441146194935
1746728661148020000,3.04402001953125,-0.0004969858564436436,0.002009931020438671,0.0015787032898515463
1746728661158039000,3.0540390625,0.003106271382421255,-0.0021232946310192347,0.0005429999437183142
1746728661168057000,3.06405712890625,-0.0005053472705185413,0.0006479937583208084,-0.0006984318606555462
1746728661178075100,3.0740751953125,-0.0008741947822272778,0.0008296212181448936,-0.001427339157089591
1746728661188094000,3.084093994140625,0.0003467835485935211,-0.0008304324001073837,0.0014482985716313124
1746728661198112000,3.094112060546875,0.0009984590578824282,-0.0011183200404047966,0.0014509616885334253
1746728661208131000,3.104131103515625,-0.00157947838306427,0.0025756405666470528,-0.0003691513556987047
1746728661218148900,3.11414892578125,0.002421654760837555,-0.00045050960034132004,0.00010302709415555
1746728661228167200,3.124167236328125,-0.0003569396212697029,-0.00018748780712485313,-0.0001018112525343895
1746728661238186000,3.13418603515625,0.0005482691340148449,-0.0001302296295762062,-0.0008299194741994143
1746728661248204000,3.1442041015625,-0.0013960604555904865,-0.0015917764976620674,0.0006785630248486996
1746728661258223000,3.15422314453125,-0.0008647595532238483,-0.0007126671262085438,0.0010343613103032112
1746728661268241000,3.164240966796875,-0.0018708365969359875,0.0005747866816818714,-0.0007171968463808298
1746728661278259000,3.174259033203125,-0.0007951860316097736,0.00017904117703437805,0.001180039020255208
1746728661288278000,3.184278076171875,0.00031141936779022217,-0.0012943362817168236,-0.0019188369624316692
1746728661298296000,3.194296142578125,0.00018838141113519669,0.0004718722775578499,-0.0013055107556283474
1746728661308315100,3.204315185546875,0.0006019161082804203,0.0010253451764583588,-0.002561727771535516
1746728661318333000,3.2143330078125,0.0008826134726405144,0.001972365193068981,0.0001277984119951725
1746728661328351000,3.22435107421875,-0.0006997403688728809,0.002034831326454878,-0.0014669345691800117
1746728661338370000,3.2343701171875,0.001579925650730729,0.0013927430845797062,-0.0010602697730064392
1746728661348387800,3.244387939453125,-0.0026707425713539124,-0.0013132537715137005,0.0006687864661216736
1746728661358407000,3.254406982421875,0.003141606692224741,-0.0006858129054307938,-0.00397177180275321
1746728661368425000,3.264425048828125,-0.0006095990538597107,-0.0010702055878937244,0.00222098920494318
1746728661378443000,3.274443115234375,-0.0004862947389483452,0.0007516625337302685,0.003911297768354416
1746728661388462000,3.284462158203125,0.0008898107334971428,0.0014942595735192299,-0.0015959287993609905
1746728661398480000,3.29447998046875,-0.00031393812969326973,-0.0018573286943137646,-0.0021796938963234425
1746728661408499000,3.3044990234375,-0.000775887630879879,-0.0007396242581307888,-0.002050223760306835
1746728661418517200,3.314517333984375,0.0012153577990829945,-0.001782784704118967,-0.003226009663194418
1746728661428535300,3.324535400390625,0.0002465038560330868,0.0013912627473473549,-0.001573256216943264
1746728661438554400,3.334554443359375,0.0003189416602253914,0.0009590317495167255,-0.0007932162843644619
1746728661448572200,3.344572265625,-0.0012295194901525974,-0.0020197145640850067,0.000030218856409192085
1746728661458591200,3.35459130859375,0.002324202796444297,0.000007483642548322678,-0.0018843275029212236
1746728661468609300,3.364609375,-0.00004608090966939926,0.00045678578317165375,-0.0016571879386901855
1746728661478627300,3.37462744140625,0.0014000155497342348,-0.0011909119784832,0.0016328812343999743
1746728661488646100,3.384646240234375,-0.00011329818516969681,0.002879875712096691,0.0014589722268283367
1746728661498664200,3.394664306640625,0.0013176181819289923,0.0000824909657239914,0.0006451101507991552
1746728661508683300,3.404683349609375,0.00111605622805655,-0.0008004084229469299,-0.000056774355471134186
1746728661518701300,3.414701416015625,0.002078522462397814,-0.00211148289963603,-0.0019137964118272066
1746728661528720100,3.42472021484375,0.0009567118249833584,0.0009337323717772961,0.0007227894384413958
1746728661538738200,3.43473828125,-0.0004766015335917473,0.00011907145380973816,0.001987258205190301
1746728661548756200,3.444756103515625,0.00021085143089294434,-0.00203286693431437,0.0004963071551173925
1746728661558775300,3.454775390625,-0.000997690949589014,0.0020801187492907047,0.002124297432601452
1746728661568793300,3.46479345703125,0.00006882194429636002,0.000008126720786094666,0.001924367155879736
1746728661578811100,3.47481103515625,0.000028342008590698242,-0.0008243774063885212,0.00007959548383951187
1746728661588830200,3.484830322265625,0.0017420276999473572,0.00027298741042613983,0.001550815999507904
1746728661598848300,3.49484814453125,0.00033028610050678253,0.00186822097748518,0.0008975425735116005
1746728661608867000,3.5048671875,-0.0007780203595757484,0.000815932173281908,-0.0015756976790726185
1746728661618885400,3.514885498046875,-0.0012246323749423027,-0.00037503335624933243,-0.00030510337091982365
1746728661628903200,3.524903076171875,-0.0002933642826974392,-0.0012729233130812645,0.002719569718465209
1746728661638922200,3.534922119140625,-0.001969824079424143,-0.00011924188584089279,-0.000603522639721632
1746728661648940300,3.544940185546875,0.00005356268957257271,0.0003778468817472458,0.001677244552411139
1746728661658959000,3.554958984375,0.0003630220890045166,-0.0002727634273469448,0.0011573955416679382
1746728661668977200,3.56497705078125,0.0022612172178924084,-0.0002740127965807915,-0.00019942200742661953
1746728661678995200,3.5749951171875,-0.0018224739469587803,-0.0019986757542937994,0.0005004566628485918
1746728661689014300,3.58501416015625,-0.0005684304051101208,-0.0006543244235217571,0.004371041432023048
1746728661699032300,3.5950322265625,-0.0008512581698596478,-0.0011094589717686176,-0.0012064166367053986
1746728661709051100,3.605051025390625,0.0014115418307483196,0.0012635760940611362,0.0007459679618477821
1746728661719069200,3.615069091796875,0.00046159233897924423,0.00023532938212156296,0.003147340379655361
1746728661729087200,3.625087158203125,0.0013073890004307032,-0.0005812924355268478,0.0005884545389562845
1746728661739106300,3.635106201171875,-0.001701184082776308,0.001879734918475151,0.0003969732206314802
1746728661749124400,3.645124267578125,0.0016666878946125507,0.00022900383919477463,-0.002124725840985775
1746728661759143400,3.655143310546875,0.0003588097169995308,0.0015419423580169678,0.0014580247225239873
1746728661769161200,3.6651611328125,-0.0014647417701780796,0.0012475475668907166,-0.0006738586816936731
1746728661779179300,3.67517919921875,-0.000040749553591012955,0.00019293604418635368,0.0009392178617417812
1746728661789198000,3.685197998046875,0.0015956484712660313,-0.0008117128163576126,0.0003137781750410795
1746728661799216400,3.69521630859375,-0.0003671012818813324,-0.0006428682245314121,-0.0017376549076288939
1746728661809235500,3.7052353515625,0.000790813472121954,-0.0016254903748631477,-0.0016848188824951649
1746728661819253200,3.715253173828125,0.0005908100865781307,-0.0008827350102365017,0.002110984642058611
1746728661829272300,3.725272216796875,-0.0006711669266223907,-0.0008713677525520325,-0.0006314592901617289
1746728661839290000,3.7352900390625,0.0005054175853729248,-0.00042715203016996384,0.00034592091105878353
1746728661849308200,3.74530810546875,-0.003378355409950018,-0.0006941524334251881,0.00025738007389009
1746728661859327200,3.7553271484375,-0.000057126861065626144,0.0023296005092561245,0.0006898774299770594
1746728661869345300,3.76534521484375,0.00027446961030364037,-0.0006861691363155842,0.0008981109131127596
1746728661879363300,3.77536328125,0.0006872597150504589,-0.00024781282991170883,-0.0010358765721321106
1746728661889382100,3.785382080078125,0.0012224270030856133,-0.000776942353695631,0.0008683572523295879
1746728661899400200,3.795400146484375,-0.0007022395730018616,0.0008827396668493748,-0.00010582711547613144
1746728661909419300,3.805419189453125,0.0005116271786391735,-0.0020251646637916565,-0.0016367670614272356
1746728661919437000,3.81543701171875,-0.0008100997656583786,0.0007391967810690403,0.0001656601671129465
1746728661929455400,3.825455322265625,-0.0007676389068365097,0.000976217444986105,-0.0003564762882888317
1746728661939474400,3.835474365234375,-0.0007556546479463577,0.0005847327411174774,-0.00010507390834391117
1746728661949492200,3.8454921875,-0.0025081606581807137,-0.0003767088055610657,-0.00039951596409082413
1746728661959511300,3.85551123046875,0.0010056141763925552,0.000794815830886364,0.00038957875221967697
1746728661969529000,3.865529052734375,0.0004155784845352173,-0.000275555532425642,-0.0027909695636481047
1746728661979547100,3.875547119140625,0.0008704466745257378,-0.00014745770022273064,-0.00271799904294312
1746728661989566200,3.885566162109375,-0.0012287814170122147,0.0004890109412372112,-0.0028712935745716095
1746728661999584300,3.895584228515625,0.0004815002903342247,0.0009675808250904083,0.00038308906368911266
1746728662009603300,3.905603271484375,-0.0015972214750945568,-0.0012909541837871075,-0.0007838730234652758
1746728662019621000,3.91562109375,0.0015029644127935171,0.00029975175857543945,-0.0038291977252811193
1746728662029639200,3.92563916015625,-0.0004275469109416008,-0.0005599949508905411,-0.0018053208477795124
1746728662039658200,3.935658203125,0.0007250690832734108,0.0012048818171024323,-0.0001959723886102438
1746728662049676300,3.94567626953125,-0.0029961136169731617,-0.001498331781476736,-0.001563378842547536
1746728662059695400,3.9556953125,0.000030036550015211105,-0.0009971251711249352,-0.0005716176237910986
1746728662069713200,3.965713134765625,0.0008987155742943287,-0.001578351017087698,-0.003850942710414529
1746728662079731200,3.975731201171875,0.0010033778380602598,-0.00039990246295928955,-0.0000351655762642622
1746728662089750300,3.985750244140625,-0.000476812943816185,0.0020066234283149242,-0.0011416797060519457
1746728662099768000,3.99576806640625,0.0018646379467099905,-0.00012523680925369263,-0.0010748340282589197
1746728662109787100,4.005787109375,-0.0011655515991151333,-0.0008712648414075375,0.0005805811379104853
1746728662119805400,4.015805419921875,0.00014552241191267967,0.00018680933862924576,-0.00003274483606219292
1746728662129823200,4.0258232421875,0.000695748720318079,-0.0008683553896844387,-0.00032631983049213886
1746728662139842300,4.03584228515625,0.00021265121176838875,0.0014757588505744934,-0.000003810971975326538
1746728662149860000,4.045860107421875,0.00029761670157313347,-0.0010550948791205883,0.00013079633936285973
1746728662159879200,4.055879150390625,0.0017050972674041986,-0.00036400463432073593,0.0013414693530648947
1746728662169897200,4.065897216796875,0.0003615599125623703,-0.0005822447128593922,0.00020396243780851364
1746728662179915300,4.075915283203125,0.0005240123718976974,0.0002899402752518654,0.0009342010598629713
1746728662189934300,4.085934326171875,-0.002805106807500124,0.0006697908975183964,-0.001403019530698657
1746728662199952100,4.0959521484375,-0.001730521209537983,-0.0006269020959734917,0.0004907543770968914
1746728662209971200,4.10597119140625,0.0005847266875207424,0.0019721100106835365,0.0017078868113458157
1746728662219989200,4.1159892578125,0.0008997786790132523,-0.0006785341538488865,-0.0011893659830093384
1746728662230007300,4.12600732421875,0.0006642439402639866,-0.0029824504163116217,-0.0025858478620648384
1746728662240026000,4.136026123046875,-0.0002958253026008606,0.00034357141703367233,0.0007777244318276644
1746728662250044400,4.14604443359375,0.0004253019578754902,-0.001878816168755293,-0.0010470799170434475
1746728662260063200,4.156063232421875,-0.0006042760796844959,-0.0001775887794792652,0.0005122008733451366
1746728662270081300,4.166081298828125,0.0010533928871154785,-0.00017873011529445648,-0.0005364138633012772
1746728662280099000,4.17609912109375,0.0024542156606912613,0.0007272772490978241,-0.0014730477705597878
1746728662290118100,4.1861181640625,-0.0011961678974330425,0.0003656763583421707,0.0009185129310935736
1746728662300136400,4.196136474609375,0.0008166488260030746,0.0001302529126405716,0.0008311611600220203
1746728662310155300,4.2061552734375,0.0007669045589864254,0.0016665449365973473,-0.0016870324034243822
1746728662320173300,4.21617333984375,0.0008230973035097122,0.0005405605770647526,-0.0011304321233183146
1746728662330191000,4.226191162109375,-0.0008769566193223,0.0037668105214834213,0.001088303280994296
1746728662340210200,4.236210205078125,-0.00009451992809772491,0.0006591677665710449,-0.0027261420618742704
1746728662350228200,4.246228271484375,-0.00005247676745057106,-0.0009029153734445572,-0.0031229571904987097
1746728662360247000,4.2562470703125,0.0012090625241398811,0.0013501187786459923,0.0012638017069548368
1746728662370265300,4.266265380859375,-0.0008499384857714176,0.000228766817599535,0.003025910584256053
1746728662380283100,4.276283203125,-0.0018132035620510578,0.0011406331323087215,-0.0017440770752727985
1746728662390302200,4.28630224609375,0.0003121434710919857,0.0015482348389923573,-0.0028280571568757296
1746728662400320300,4.2963203125,-0.0014026658609509468,-0.0016315793618559837,-0.0018219149205833673
1746728662410338000,4.306338134765625,-0.0010056756436824799,0.0005301213823258877,-0.00030366145074367523
1746728662420356900,4.31635693359375,-0.0021292632445693016,0.0006478331051766872,0.004433569498360157
1746728662430374700,4.326374755859375,-0.0010633552446961403,-0.0032363999634981155,0.0008537790272384882
1746728662440393700,4.336393798828125,-0.0002753259614109993,-0.0003543272614479065,0.0031395703554153442
1746728662450411800,4.346411865234375,0.0001980816014111042,-0.0011281687766313553,0.0012404122389853
1746728662460429600,4.3564296875,-0.0010131238959729671,-0.0022126080002635717,0.0017626581247895956
1746728662470448600,4.36644873046875,0.00026456546038389206,-0.00019065476953983307,-0.0005162064917385578
1746728662480467000,4.376467041015625,0.0006131734699010849,0.00048046186566352844,0.001170373405329883
1746728662490485800,4.38648583984375,0.0007834592834115028,-0.0019408590160310268,0.00023386580869555473
1746728662500503800,4.39650390625,0.001974158687517047,-0.0002002171240746975,-0.00028225500136613846
1746728662510521600,4.406521484375,-0.0006124689243733883,-0.00047981133684515953,-0.00016771233640611172
1746728662520540700,4.416540771484375,-0.0021160896867513657,-0.00035064807161688805,0.0012924987822771072
1746728662530558700,4.426558837890625,-0.0021969196386635303,0.0006679566577076912,0.0023714022245258093
1746728662540577500,4.43657763671875,0.00043534906581044197,-0.0006252741441130638,-0.0021298727951943874
1746728662550595800,4.446595947265625,0.00013785064220428467,0.0002368548884987831,0.00006980239413678646
1746728662560613600,4.456613525390625,0.0020505329594016075,0.001554054208099842,-0.002115854062139988
1746728662570632700,4.4666328125,-0.0031012692488729954,-0.0008574230596423149,-0.0021997152362018824
1746728662580650800,4.476650634765625,-0.00013157818466424942,0.0016528726555407047,-0.0005325763486325741
1746728662590669600,4.486669677734375,-0.00011295219883322716,0.00007322616875171661,0.00016717705875635147
1746728662600687600,4.4966875,-0.001967843621969223,-0.0005179955624043941,-0.0007553417235612869
1746728662610706000,4.506705810546875,0.0007347580976784229,0.00030522141605615616,-0.002623200649395585
1746728662620724700,4.516724853515625,-0.0007494213059544563,-0.00013499939814209938,-0.001509200083091855
1746728662630742800,4.52674267578125,0.00044211698696017265,0.00017477897927165031,0.00019384105689823627
1746728662640761900,4.536761962890625,-0.0011358060874044895,-0.00019540078938007355,-0.0020112565252929926
1746728662650779600,4.546779541015625,0.0005396557971835136,-0.0010531321167945862,0.002152439206838608
1746728662660798000,4.5567978515625,0.000823016045615077,-0.0015484797768294811,-0.001794898184016347
1746728662670816800,4.566816650390625,-0.0021894280798733234,0.000782339833676815,-0.0011277217417955399
1746728662680834800,4.576834716796875,-0.00006209500133991241,0.00019511301070451736,-0.0032862136140465736
1746728662690854000,4.58685400390625,-0.0009502763859927654,-0.000942885410040617,0.002933858660981059
1746728662700871700,4.59687158203125,-0.0008144555613398552,0.0011242600157856941,-0.0028630441520363092
1746728662710889700,4.6068896484375,-0.0018209051340818405,-0.00007329834625124931,-0.0014675299171358347
1746728662720908500,4.616908447265625,-0.0012800171971321106,-0.002007552422583103,-0.001881651347503066
1746728662730926800,4.6269267578125,0.004179822746664286,0.000524700153619051,-0.0019926666282117367
1746728662740944600,4.636944580078125,-0.001830399502068758,-0.0001584007404744625,-0.0004397772718220949
1746728662750963700,4.646963623046875,-0.0015435749664902687,0.00227461289614439,0.0027590401004999876
1746728662760981800,4.656981689453125,-0.0011313175782561302,0.0017236052080988884,0.0010325127514079213
1746728662771000600,4.66700048828125,0.00048631709069013596,0.00014649098739027977,0.00007128389552235603
1746728662781018600,4.6770185546875,-0.0010790890082716942,-0.0025358449202030897,-0.001526080071926117
1746728662791037000,4.687036865234375,0.0008128774352371693,0.00020396290346980095,0.0005517690442502499
1746728662801055700,4.6970556640625,-0.0020010187290608883,-0.00044078798964619637,0.0016804167535156012
1746728662811073800,4.70707373046875,0.00017531588673591614,-0.0015281802043318748,-0.00010262732394039631
1746728662821092900,4.7170927734375,0.00047891633585095406,-0.0007934141904115677,-0.0031045423820614815
1746728662831110700,4.727110595703125,-0.0016643451526761055,-0.001200913917273283,-0.0004963013343513012
1746728662841128700,4.737128662109375,0.0004938808269798756,0.0017828918062150478,0.001098665758036077
1746728662851147800,4.747147705078125,0.002280110726132989,0.00020309723913669586,0.0006001563742756844
1746728662861165800,4.757165771484375,0.00035544438287615776,-0.0012320801615715027,0.004447359126061201
1746728662871185000,4.767184814453125,-0.0007553254254162312,-0.0014261421747505665,0.0015867052134126425
1746728662881202700,4.77720263671875,-0.00016357097774744034,-0.0005233306437730789,-0.0020775380544364452
1746728662891220700,4.787220703125,0.0004504946991801262,-0.0007966323755681515,0.0008828865829855204
1746728662901239600,4.797239501953125,-0.0009284899570047855,0.00018847081810235977,0.0017540064873173833
1746728662911257900,4.8072578125,-0.00267206272110343,-0.001191508024930954,-0.0008983321022242308
1746728662921277000,4.81727685546875,0.0011027015279978514,0.00022209808230400085,0.0005807876586914062
1746728662931294700,4.827294677734375,-0.0006184685043990612,-0.00014319317415356636,-0.002643164247274399
1746728662941312800,4.837312744140625,0.0011322933714836836,-0.0014460119418799877,-0.0004604372661560774
1746728662951331600,4.84733154296875,0.00037022540345788,0.00022416934370994568,-0.0016422381158918142
1746728662961349600,4.857349609375,-0.00023298058658838272,0.0007560029625892639,-0.003275022143498063
1746728662971368700,4.86736865234375,-0.0002896715886890888,0.00014060456305742264,0.0005613050889223814
1746728662981386800,4.87738671875,0.00009728595614433289,0.0023233313113451004,-0.00008957157842814922
1746728662991404800,4.88740478515625,-0.0005285786464810371,-0.0005493946373462677,-0.0020425254479050636
1746728663001424000,4.897423828125,0.00020778505131602287,-0.0016556717455387115,-0.0015232092700898647
1746728663011441700,4.907441650390625,-0.0027954401448369026,-0.0004030815325677395,0.001769285649061203
1746728663021459700,4.917459716796875,0.0005108742043375969,-0.00247581978328526,0.0015327970031648874
1746728663031478500,4.927478515625,-0.00007671443745493889,-0.00028149643912911415,-0.00008217268623411655
1746728663041496800,4.937496826171875,-0.0008695372380316257,-0.00031212298199534416,0.0004272900987416506
1746728663051516000,4.947515869140625,-0.0003143097274005413,-0.0010774452239274979,0.0024128463119268417
1746728663061533700,4.95753369140625,-0.0010581305250525475,-0.0017032879404723644,-0.0008324817754328251
1746728663071551700,4.9675517578125,0.0007010358385741711,0.0005943779833614826,0.0015521268360316753
1746728663081570600,4.977570556640625,-0.00037461472675204277,0.0017587118782103062,-0.0009786752052605152
1746728663091588600,4.987588623046875,-0.001622884999960661,-0.004285199102014303,-0.001065633026883006
1746728663101607700,4.997607666015625,0.0010091173462569714,-0.0009692972525954247,0.003346425946801901
1746728663111625700,5.007625732421875,-0.0007636011578142643,-0.0001248857006430626,0.0014019464142620564
1746728663121643800,5.017643798828125,-0.0024062390439212322,0.0014237426221370697,0.00029806606471538544
1746728663131662800,5.027662841796875,0.0017244552727788687,0.0008521839044988155,-0.0003933464176952839
1746728663141680600,5.0376806640625,0.0016940950881689787,0.00035869982093572617,0.0037713046185672283
1746728663151699700,5.04769970703125,0.0009742840193212032,-0.0008864356204867363,0.00163684890139848
1746728663161717800,5.0577177734375,-0.0007786084897816181,-0.0013671363703906536,0.000634435098618269
1746728663171735800,5.06773583984375,-0.002027702983468771,-0.000399166252464056,0.0013335529947653413
1746728663181755000,5.0777548828125,0.0008405214175581932,-0.0002494966611266136,-0.0007277335971593857
1746728663191772700,5.087772705078125,0.0010163970291614532,0.0026259850710630417,-0.0028316194657236338
1746728663201790700,5.097790771484375,-0.00037643639370799065,-0.00005368748679757118,0.0014571351930499077
1746728663211809500,5.1078095703125,0.0009879178833216429,0.00020177196711301804,0.0019777659326791763
1746728663221827800,5.117827880859375,0.00009602541103959084,0.0022420198656618595,-0.0018281573429703712
1746728663231847000,5.127846923828125,-0.0009570736438035965,0.0014534760266542435,0.0023751449771225452
1746728663241864700,5.13786474609375,-0.0004934174939990044,-0.001337516587227583,0.0007769819349050522
1746728663251882800,5.1478828125,-0.0007539759390056133,-0.0027102234307676554,0.0017148519400507212
1746728663261901600,5.157901611328125,0.0009879975114017725,0.0010586823336780071,-0.00021194503642618656
1746728663271919600,5.167919677734375,-0.0011195652186870575,-0.0026366417296230793,-0.0015279585495591164
1746728663281938700,5.177938720703125,-0.0017280974425375462,-0.0018129260279238224,0.0033560125157237053
1746728663291956700,5.187956787109375,-0.002206385601311922,0.0018429425545036793,0.0014133249642327428
1746728663301974800,5.197974853515625,-0.0018319450318813324,-0.0006745434366166592,0.0008652464020997286
1746728663311993900,5.207993896484375,-0.0007029031403362751,-0.002416523639112711,-0.00002336222678422928
1746728663322011600,5.21801171875,-0.00015136273577809334,-0.0014410074800252914,0.00015293899923563004
1746728663332030700,5.22803076171875,0.00008196430280804634,-0.000018361490219831467,-0.0004395800642669201
1746728663342048800,5.238048828125,-0.00047490233555436134,-0.002269797958433628,-0.00021534203551709652
1746728663352066800,5.24806689453125,0.0012501731980592012,-0.0000026389025151729584,-0.0003722831606864929
1746728663362086000,5.2580859375,0.0005207331851124763,-0.0005736206658184528,-0.001149659976363182
1746728663372103700,5.268103759765625,0.0014332998543977737,0.0016433070413768291,-0.000702753197401762
1746728663382122800,5.278122802734375,-0.0019731493666768074,-0.00002116849645972252,0.0001665025483816862
1746728663392140500,5.288140625,0.0011004453990608454,0.0018095895648002625,0.001926860655657947
1746728663402158800,5.298158935546875,0.00011880416423082352,0.0007778806611895561,-0.0006124635692685843
1746728663412178000,5.308177978515625,0.0021539542358368635,0.0003722892142832279,-0.0020269001834094524
1746728663422196000,5.318196044921875,0.0002540550194680691,0.0002883998677134514,-0.0028455560095608234
1746728663432214000,5.328214111328125,0.0026531897019594908,-0.0009120847098529339,-0.0009881521109491587
1746728663442233000,5.338233154296875,0.000055542681366205215,0.0006357445381581783,0.0006315824575722218
1746728663452251000,5.3482509765625,0.001584953861311078,0.0008132108487188816,-0.0007489696145057678
1746728663462270000,5.35827001953125,-0.0013602362014353275,-0.00047336239367723465,-0.002020096406340599
1746728663472288300,5.368288330078125,0.0004902747459709644,-0.004251778591424227,-0.00159165496006608
1746728663482306000,5.37830615234375,-0.0008591492660343647,0.0004558912478387356,-0.0005013570189476013
1746728663492325000,5.3883251953125,-0.00013306224718689919,0.001982507761567831,-0.0008952138014137745
1746728663502343000,5.398343017578125,0.0007705483585596085,-0.0017049056477844715,0.0008009534794837236
1746728663512362000,5.408362060546875,0.0009497352875769138,0.00030785519629716873,0.001387784956023097
1746728663522380000,5.418380126953125,-0.0010255314409732819,-0.0009009535424411297,-0.0019025506917387247
1746728663532398000,5.428398193359375,0.0012945013586431742,-0.00045310892164707184,-0.0007264441810548306
1746728663542417200,5.438417236328125,0.0003067348152399063,0.0014944607391953468,0.0007603985723108053
1746728663552435000,5.44843505859375,0.000626102089881897,0.0008576987311244011,-0.00009088614024221897
1746728663562454000,5.4584541015625,0.00044980086386203766,-0.0006030448712408543,0.000010313931852579117
1746728663572472000,5.46847216796875,-0.0009780572727322578,0.0005336306057870388,-0.0006484452169388533
1746728663582489900,5.47848974609375,0.0010699136182665825,0.001482514664530754,0.0014208309585228562
1746728663592509000,5.488509033203125,0.0009054443798959255,0.0009087449871003628,0.0010051929857581854
1746728663602527200,5.49852734375,0.003071659477427602,0.0017646849155426025,-0.0015525068156421185
1746728663612546000,5.508546142578125,0.0005899099633097649,-0.0004954440519213676,-0.0006009265780448914
1746728663622564000,5.518564208984375,0.00014090072363615036,-0.0004544313997030258,0.0006310516037046909
1746728663632582000,5.528581787109375,0.0007338020950555801,0.0005590105429291725,-0.000775154447183013
1746728663642601000,5.53860107421875,-0.0010859356261789799,-0.001144613604992628,0.0018816151423379779
1746728663652619000,5.548618896484375,0.0005515660159289837,-0.001439404208213091,-0.000761848408728838
1746728663662637000,5.558636962890625,0.0007438464090228081,-0.00006601214408874512,0.000022985273972153664
1746728663672656100,5.56865625,0.0019283879082649946,0.00017647678032517433,-0.0010624837595969439
1746728663682674000,5.578673828125,0.0016074771992862225,0.00040976935997605324,-0.0015154874417930841
1746728663692693000,5.58869287109375,0.0003885277546942234,0.0013543441891670227,0.0029502997640520334
1746728663702711000,5.5987109375,-0.001093521248549223,0.00007469533011317253,-0.00016852817498147488
1746728663712729000,5.60872900390625,-0.0026827706024050713,-0.0023484020493924618,0.002401952398940921
1746728663722748200,5.618748046875,0.0010405948851257563,0.000394387636333704,-0.0008500334806740284
1746728663732766000,5.628765869140625,0.0018940879963338375,-0.00110666174441576,0.00019873818382620811
1746728663742785000,5.638784912109375,0.0020821071229875088,-0.0021519523579627275,0.002938332036137581
1746728663752803000,5.648802978515625,0.0012195801828056574,0.0018451735377311707,0.00129077082965523
1746728663762820900,5.65882080078125,0.0007692398503422737,0.0005932212807238102,-0.001984384609386325
1746728663772840000,5.66883984375,-0.0021692002192139626,-0.0008294116705656052,-0.001634880667552352
1746728663782858200,5.678858154296875,-0.0018605398945510387,-0.0020123880822211504,0.001263704034499824
1746728663792876000,5.6888759765625,0.00018038786947727203,0.0008484544232487679,0.00039647542871534824
1746728663802895000,5.69889501953125,0.001666165655478835,-0.0037942342460155487,-0.0006802405696362257
1746728663812913000,5.708912841796875,-0.0027849911712110043,-0.0007295669056475163,0.0004032712895423174
1746728663822932000,5.718931884765625,0.0022174904588609934,-0.00029467279091477394,0.0008096697274595499
1746728663832950000,5.728949951171875,-0.0018938402645289898,-0.0007393877021968365,-0.00250427913852036
1746728663842968000,5.738968017578125,0.0006199171766638756,0.00004517938941717148,0.0010529053397476673
1746728663852987100,5.748987060546875,-0.0015410268679261208,0.0005857408978044987,0.00016647926531732082
1746728663863005000,5.7590048828125,-0.0003338158130645752,0.0014560618437826633,-0.00027507287450134754
1746728663873024000,5.76902392578125,0.000026926398277282715,0.0012843986041843891,-0.000041633378714323044
1746728663883042000,5.7790419921875,0.0009185527451336384,0.00017998553812503815,0.00039113033562898636
1746728663893060000,5.78906005859375,0.0008248761296272278,0.0018782350234687328,0.0008137463591992855
1746728663903079000,5.799078857421875,0.0007519051432609558,-0.0000658729113638401,0.0007402431219816208
1746728663913097200,5.80909716796875,0.0012093880213797092,0.00042687542736530304,0.0017321299528703094
1746728663923116000,5.819115966796875,0.0024858410470187664,-0.0007518394850194454,-0.0008628540672361851
1746728663933134000,5.829134033203125,-0.0010986197739839554,0.00022897869348526,0.0009343430865556002
1746728663943151900,5.83915185546875,0.0006745127029716969,0.0022455244325101376,0.0005548426415771246
1746728663953171000,5.8491708984375,-0.000024416949599981308,0.0014468720182776451,-0.0007810441311448812
1746728663963189200,5.859189208984375,0.0009803934954106808,-0.0002620783634483814,-0.002112624468281865
1746728663973207000,5.86920703125,-0.0011280127801001072,0.002901354804635048,-0.0006652919109910727
1746728663983226000,5.87922607421875,-0.0007711495272815228,-0.000514947809278965,0.0006385918240994215
1746728663993244000,5.889243896484375,-0.0007436377927660942,0.001428769901394844,0.00026466138660907745
1746728664003263000,5.899262939453125,0.0012127202935516834,0.0008902787230908871,-0.000661053229123354
1746728664013281000,5.909281005859375,-0.0016831872053444386,0.0005743550136685371,0.0010223607532680035
1746728664023299000,5.919299072265625,0.0028005109634250402,-0.0005795927718281746,0.0006745520513504744
1746728664033318100,5.929318115234375,-0.0006698244251310825,0.0016149203293025494,-0.0021483893506228924
1746728664043336000,5.9393359375,-0.002944430336356163,0.0016713794320821762,0.0006553868297487497
1746728664053355000,5.94935498046875,-0.00368496123701334,0.0005162372253835201,-0.0014810359571129084
1746728664063373000,5.959373046875,0.0006812917999923229,-0.0014491756446659565,-0.0012354922946542501
1746728664073390800,5.969390869140625,-0.0020051696337759495,-0.0004332270473241806,0.0012116915313526988
1746728664083410000,5.979409912109375,0.00010245572775602341,-0.0008097980171442032,-0.001020569819957018
1746728664093428200,5.98942822265625,-0.0008442061953246593,-0.0002583051100373268,0.000985069666057825
1746728664103447000,5.999447021484375,-0.0007517943158745766,-0.0011984007433056831,0.0028548750560730696
1746728664113465000,6.009465087890625,0.0007299776189029217,-0.003115034196525812,0.0010897682514041662
1746728664123483000,6.01948291015625,-0.0010468834079802036,0.0029545766301453114,0.0024628941901028156
1746728664133502000,6.029501953125,0.0008921585977077484,-0.0003947857767343521,0.0019744359888136387
1746728664143520000,6.03952001953125,-0.0008106664754450321,-0.0016595213674008846,-0.00027673388831317425
1746728664153538000,6.0495380859375,-0.0018960642628371716,-0.00041845208033919334,-0.0028531968127936125
1746728664163557000,6.05955712890625,-0.001227078028023243,0.0001818244345486164,0.0007351462263613939
1746728664173575000,6.069574951171875,0.000687736552208662,0.0016998182982206345,-0.00008452055044472218
1746728664183594000,6.079593994140625,-0.0020350790582597256,0.0027368534356355667,0.0027445554733276367
1746728664193612000,6.089612060546875,-0.0015834248624742031,0.000696972943842411,0.0009257190395146608
1746728664203630000,6.099630126953125,-0.0017583942972123623,-0.0024823087733238935,0.0004399586468935013
1746728664213649200,6.109649169921875,-0.0007210331968963146,0.0006923661567270756,0.0009150991681963205
1746728664223667200,6.119667236328125,-0.00003180745989084244,-0.0003185695968568325,0.0021651871502399445
1746728664233686000,6.12968603515625,0.00009422376751899719,-0.0004177992232143879,0.0004425875376909971
1746728664243704000,6.1397041015625,-0.0011505377478897572,0.0011579934507608414,0.000042048050090670586
1746728664253721900,6.149721923828125,-0.0014671068638563156,-0.0005073947831988335,-0.0003906618803739548
1746728664263741000,6.159740966796875,-0.0009637693874537945,0.0008614696562290192,-0.0016205096617341042
1746728664273759200,6.16975927734375,-0.0015774392522871494,-0.001992362318560481,-0.0016938105691224337
1746728664283777000,6.179777099609375,-0.0030997018329799175,0.001592252403497696,0.0027273029554635286
1746728664293796000,6.189796142578125,0.0001430278643965721,-0.000582460779696703,0.0027736802585422993
1746728664303814000,6.19981396484375,-0.0007177060469985008,0.003074058797210455,0.0005693819839507341
1746728664313833000,6.2098330078125,-0.0018165628425776958,-0.00044925278052687645,0.001079582143574953
1746728664323851000,6.21985107421875,0.0010772279929369688,0.000820542685687542,0.0006779774557799101
1746728664333869000,6.229869140625,0.000644998624920845,0.0017261742614209652,-0.0007235032971948385
1746728664343888100,6.23988818359375,0.0015552667900919914,0.0010209688916802406,0.0006549488753080368
1746728664353906000,6.249906005859375,-0.0007515400648117065,-0.000844491645693779,0.0012246358674019575
1746728664363925000,6.259925048828125,-0.0007914872840046883,0.0018868464976549149,-0.0004206651356071234
1746728664373943000,6.269943115234375,0.0013424009084701538,0.00017917295917868614,-0.0031075815204530954
1746728664383961000,6.279961181640625,-0.0008547068573534489,-0.0026496367063373327,0.0018458979902788997
1746728664393980000,6.28997998046875,0.0020103524439036846,0.001199450809508562,-0.0007178676314651966
1746728664403998200,6.299998291015625,0.0008795745670795441,-0.00006768153980374336,-0.000322920735925436
1746728664414016000,6.31001611328125,-0.000844243448227644,-0.001099136658012867,0.00045767822302877903
1746728664424034300,6.320034423828125,-0.0005997652187943459,0.0007283245213329792,-0.0013692504726350307
1746728664434052400,6.33005224609375,0.0002872804179787636,-0.0006138347089290619,-0.0015386471059173346
1746728664444071200,6.3400712890625,0.00019620032981038094,0.00003491155803203583,0.0006033333484083414
1746728664454089200,6.350089111328125,0.002583616878837347,0.0020055952481925488,-0.0011621997691690922
1746728664464107300,6.360107177734375,0.0018405949231237173,0.0008556419052183628,-0.001443163026124239
1746728664474126300,6.370126220703125,0.001038204412907362,0.00022244732826948166,0.001258172793313861
1746728664484144000,6.38014404296875,0.00009677698835730553,0.002752982545644045,0.0007734773680567741
1746728664494163200,6.3901630859375,0.001983221620321274,0.0014137988910079002,0.0010134715121239424
1746728664504181500,6.400181396484375,0.0018332856707274914,-0.0007398994639515877,0.0024856668896973133
1746728664514199300,6.41019921875,0.0006834873929619789,0.0002782572992146015,0.0005391363520175219
1746728664524218400,6.42021826171875,-0.0007034866139292717,0.0004633469507098198,-0.0011322638019919395
1746728664534236200,6.430236083984375,0.0006074612028896809,-0.0007635978981852531,0.0009845929453149438
1746728664544254200,6.440254150390625,0.0019254598300904036,0.0016689333133399487,-0.0018751095049083233
1746728664554273300,6.450273193359375,-0.001167477574199438,-0.00117171136662364,-0.00026902370154857635
1746728664564291300,6.460291259765625,0.00104028289206326,-0.0005698371678590775,0.0007096880581229925
1746728664574310400,6.470310302734375,0.00079380813986063,-0.0017143809236586094,-0.0003467968199402094
1746728664584328200,6.480328125,0.0027472367510199547,0.002980771940201521,-0.0002940662670880556
1746728664594346200,6.49034619140625,-0.000769397709518671,0.0018505756743252277,0.00004511256702244282
1746728664604365300,6.500365234375,0.001656475942581892,0.0007240581326186657,0.0005780111532658339
1746728664614383000,6.510383056640625,-0.0028408593498170376,0.002626226283609867,0.0021377792581915855
1746728664624402200,6.520402099609375,-0.0023433808237314224,0.0002978243865072727,-0.001082781469449401
1746728664634420500,6.53042041015625,0.00044631632044911385,0.0013133767060935497,0.000041075749322772026
1746728664644438300,6.540438232421875,-0.0011558416299521923,-0.0010347324423491955,0.001306077348999679
1746728664654457300,6.550457275390625,-0.0008376208133995533,0.0024682381190359592,0.0008259224705398083
1746728664664475100,6.56047509765625,-0.000003518536686897278,0.00027006538584828377,0.001916753128170967
1746728664674493400,6.570493408203125,0.0005757403559982777,-0.0013330639339983463,-0.0014593740925192833
1746728664684512300,6.58051220703125,-0.0006527756340801716,-0.0021882050205022097,-0.0005626876372843981
1746728664694530300,6.5905302734375,-0.0027845115400850773,0.0008519473485648632,-0.0007874548900872469
1746728664704549400,6.60054931640625,-0.0019261748529970646,0.00043702684342861176,-0.0001211320050060749
1746728664714567200,6.610567138671875,-0.0007133889012038708,0.000270589254796505,-0.0006730630993843079
1746728664724585200,6.620585205078125,-0.0007868921384215355,-0.0014623296447098255,-0.0005372418090701103
1746728664734604300,6.630604248046875,0.0011674044653773308,0.00007447740063071251,-0.002523773582652211
1746728664744622300,6.640622314453125,-0.0009575318545103073,-0.0015274137258529663,0.002289889845997095
1746728664754641400,6.650641357421875,-0.0017434284090995789,0.0011118114925920963,0.0006430454086512327
1746728664764659200,6.6606591796875,-0.0004387455992400646,-0.0005244347266852856,-0.002763669937849045
1746728664774677200,6.67067724609375,-0.0025224690325558186,-0.0008278079330921173,0.00032506813295185566
1746728664784696300,6.6806962890625,0.0004565431736409664,0.0005471822805702686,-0.0010818797163665295
1746728664794714000,6.690714111328125,-0.0008688811212778091,-0.001884837169200182,-0.002113835420459509
1746728664804732400,6.700732421875,0.0016656492371112108,-0.0006552557460963726,-0.0001241876743733883
1746728664814751500,6.71075146484375,0.0009222663938999176,0.0008634058758616447,-0.0024062301963567734
1746728664824769300,6.720769287109375,0.0006026872433722019,-0.0017017507925629616,-0.0010336367413401604
1746728664834788400,6.730788330078125,-0.0012579760514199734,-0.0001457473263144493,0.0009001779835671186
1746728664844806100,6.74080615234375,0.0004565669223666191,0.0016082106158137321,-0.0019408820662647486
1746728664854824200,6.75082421875,-0.0006178803741931915,-0.000639243982732296,-0.003379576839506626
1746728664864843300,6.76084326171875,0.0006354032084345818,-0.0003707972355186939,0.0006428617052733898
1746728664874861300,6.770861328125,-0.00039130309596657753,-0.0021167120430618525,0.00023194961249828339
1746728664884880400,6.78088037109375,-0.0007431064732372761,-0.0003268015570938587,0.0013459499459713697
1746728664894898200,6.790898193359375,-0.00034598400816321373,-0.00021481094881892204,0.0013699932023882866
1746728664904916200,6.800916259765625,-0.0009284173138439655,-0.0001349160447716713,-0.0008894326165318489
1746728664914935300,6.810935302734375,0.00024002371355891228,0.0003559407778084278,0.0011623870814219117
1746728664924953300,6.820953369140625,0.0018741392996162176,-0.0007479395717382431,0.0001855397131294012
1746728664934971400,6.830971435546875,-0.0005882787518203259,-0.0011104363948106766,-0.001000621821731329
1746728664944990200,6.840990234375,0.00046659912914037704,-0.0003447774797677994,-0.001099158776924014
1746728664955008300,6.85100830078125,0.0005151457153260708,-0.001988043077290058,0.0018451799405738711
1746728664965027300,6.86102734375,-0.0005154977552592754,0.00023250048980116844,0.0028843453619629145
1746728664975045000,6.871045166015625,0.001011021202430129,-0.00037578120827674866,-0.001865803962573409
1746728664985063400,6.8810634765625,0.001823818078264594,0.00039813341572880745,-0.001829052111133933
1746728664995082500,6.89108251953125,-0.0009785890579223633,-0.00018329499289393425,0.0009110703831538558
1746728665005100300,6.901100341796875,-0.0016347919590771198,0.0003698435612022877,-0.003063431242480874
1746728665015118300,6.911118408203125,0.0010982125531882048,0.0015412247739732265,-0.0005702299531549215
1746728665025137200,6.92113720703125,-0.0006067431531846523,0.0001561143435537815,-0.0025913030840456486
1746728665035155200,6.9311552734375,-0.0012767747975885868,-0.0007989979349076748,0.0006354758515954018
1746728665045174300,6.94117431640625,0.0023725549690425396,-0.001020573079586029,-0.0013286054600030184
1746728665055192300,6.9511923828125,-0.00044907769188284874,0.00015973718836903572,-0.00318191503174603
1746728665065210400,6.96121044921875,-0.00021711643785238266,-0.0008200397714972496,-0.0012908040080219507
1746728665075229200,6.971229248046875,0.00037859566509723663,-0.00028043659403920174,-0.0008855157066136599
1746728665085247200,6.981247314453125,0.00025262823328375816,0.0017273207195103168,0.003229068126529455
1746728665095266300,6.991266357421875,-0.0004317527636885643,-0.002088623819872737,-0.00027238577604293823
1746728665105284000,7.0012841796875,-0.00183497229591012,-0.003180786268785596,-0.002712374087423086
1746728665115302400,7.011302490234375,-0.0005856510251760483,0.0005012680776417255,-0.002865200862288475
1746728665125321500,7.021321533203125,0.0005003861151635647,-0.0006153956055641174,-0.0002779399510473013
1746728665135339300,7.03133935546875,0.0032097548246383667,-0.0015934309922158718,-0.0018885999452322721
1746728665145357300,7.041357421875,-0.001121344044804573,-0.0013878350146114826,-0.0018957906868308783
1746728665155376000,7.051376220703125,0.0001533334143459797,-0.0021285791881382465,0.00029552867636084557
1746728665165394400,7.06139453125,-0.00014360900968313217,-0.001475838478654623,0.0009914126712828875
1746728665175413200,7.071413330078125,0.0010057531762868166,-0.001446892973035574,-0.0003124852664768696
1746728665185431300,7.081431396484375,0.0009852468501776457,0.0009488868527114391,0.0006039084400981665
1746728665195449300,7.091449462890625,-0.0011403621174395084,-0.000416584312915802,-0.0002530904021114111
1746728665205468200,7.10146826171875,-0.000045270659029483795,-0.0010075396858155727,-0.001383602386340499
1746728665215486200,7.111486328125,0.0003879065625369549,0.0006458796560764313,-0.00044524017721414566
1746728665225505300,7.12150537109375,-0.00018334155902266502,-0.000327505636960268,0.00007487530820071697
1746728665235523300,7.1315234375,-0.00029232772067189217,-0.0022662344854325056,0.0009879113640636206
1746728665245541400,7.141541259765625,0.0009676136542111635,0.0003125043585896492,-0.0002994607202708721
1746728665255560200,7.151560302734375,-0.0017474871128797531,0.0003189314156770706,-0.0009129724930971861
1746728665265578200,7.161578125,-0.0000265524722635746,0.00038337986916303635,-0.0009811494965106249
1746728665275596300,7.17159619140625,0.0010555745102465153,-0.0009773168712854385,-0.00122909527271986
1746728665285615000,7.181614990234375,0.0007583657279610634,-0.00025426875799894333,-0.003982537426054478
1746728665295633400,7.19163330078125,-0.0005256468430161476,-0.001664312556385994,-0.0003514648415148258
1746728665305652500,7.201652587890625,-0.0016977041959762573,-0.00008825352415442467,-0.00042976182885468006
1746728665315670300,7.211670166015625,-0.000899340957403183,0.0005813771858811378,-0.0003919729497283697
1746728665325688300,7.221688232421875,-0.0010812347754836082,-0.002181918825954199,0.0014717071317136288
1746728665335707100,7.23170703125,-0.003049919381737709,-0.00009595276787877083,-0.005130613222718239
1746728665345725200,7.24172509765625,0.0009051417000591755,0.0009631863795220852,0.00021514971740543842
1746728665355743200,7.2517431640625,-0.0005993498489260674,0.0016420306637883186,-0.0009480912704020739
1746728665365762300,7.26176220703125,-0.0008864388801157475,-0.0007939627394080162,-0.0017707417719066143
1746728665375780400,7.2717802734375,0.0000912998802959919,-0.0001182975247502327,-0.0012178809847682714
1746728665385799200,7.281799072265625,0.0006135455332696438,0.00018423749133944511,0.00010384595952928066
1746728665395817200,7.291817138671875,-0.0010373834520578384,0.0009027579799294472,0.0015273046446964145
1746728665405835300,7.301835205078125,0.0012031339574605227,0.0006859768182039261,0.00186499347910285
1746728665415854300,7.311854248046875,0.0014714179560542107,-0.0003059711307287216,-0.0038113936316221952
1746728665425873000,7.321872802734375,0.001532138092443347,0.00059151416644454,-0.0033991362433880568
1746728665435891000,7.331890869140625,-0.0018069157376885414,0.0006263731047511101,0.00012186658568680286
1746728665445910000,7.341909912109375,-0.000552833080291748,-0.0021672830916941166,-0.001123960129916668
1746728665455927800,7.351927734375,-0.00022126035764813423,0.00015686126425862312,0.0014443399850279093
1746728665465947000,7.36194677734375,0.0007771588861942291,0.0020695431157946587,-0.0016523837111890316
1746728665475964700,7.371964599609375,0.0007806872017681599,-0.0003749290481209755,-0.0018637420143932104
1746728665485983000,7.38198291015625,0.0007436694577336311,-0.000030582305043935776,-0.0009385598823428154
1746728665496002000,7.392001953125,0.0009771937038749456,-0.00023423833772540092,-0.002021241933107376
1746728665506019800,7.402019775390625,0.0011585550382733345,0.001895225141197443,-0.0015394757501780987
1746728665516039000,7.412038818359375,-0.0006336765363812447,-0.00023228907957673073,0.002221540315076709
1746728665526057000,7.422056884765625,0.0011740773916244507,-0.00042590126395225525,-0.0007758475840091705
1746728665536074800,7.43207470703125,0.0007006265223026276,-0.00007188506424427032,-0.0014630970545113087
1746728665546093800,7.44209375,-0.0012248391285538673,0.002507918979972601,-0.001578677911311388
1746728665556112000,7.45211181640625,0.00027737347409129143,-0.00004081893712282181,0.0022510350681841373
1746728665566130000,7.4621298828125,-0.0003388822078704834,-0.00017291167750954628,-0.004000735469162464
1746728665576149000,7.47214892578125,-0.00196237675845623,0.00046587130054831505,0.0021194536238908768
1746728665586166800,7.482166748046875,0.00008053425699472427,-0.0012377528473734856,-0.0029328290838748217
1746728665596185900,7.492185791015625,-0.00005090795457363129,0.0008989344350993633,-0.003732484532520175
1746728665606204000,7.502203857421875,-0.0005150968208909035,0.002294696867465973,-0.0018842506688088179
1746728665616222000,7.512221923828125,-0.0014446494169533253,0.0015979455783963203,-0.0007887575775384903
1746728665626241000,7.522240966796875,0.0007364796474575996,0.002163600642234087,0.0004581345710903406
1746728665636258800,7.5322587890625,0.00043624313548207283,0.000867331400513649,-0.0013045105151832104
1746728665646276900,7.54227685546875,-0.0013038665056228638,0.0007213898934423923,0.00040390738286077976
1746728665656296000,7.5522958984375,0.0008607853669673204,-0.0006405981257557869,-0.0018498320132493973
1746728665666314000,7.56231396484375,0.0005910070613026619,0.0006800633855164051,-0.0024136235006153584
1746728665676333000,7.5723330078125,0.0006439308635890484,-0.0005312082357704639,0.00019442103803157806
1746728665686350800,7.582350830078125,-0.0018056444823741913,0.0006970413960516453,0.00013609789311885834
1746728665696369000,7.592368896484375,0.0020052166655659676,-0.0017661834135651588,-0.00345685426145792
1746728665706388000,7.602387939453125,-0.0009679361246526241,0.001474084798246622,-0.001663215458393097
1746728665716405800,7.61240576171875,-0.00099913589656353,0.00014455150812864304,-0.0010774519760161638
1746728665726424000,7.622424072265625,0.0021308772265911102,0.0019131568260490894,-0.0015999639872461557
1746728665736443000,7.63244287109375,0.0008595050312578678,0.00038798805326223373,0.0008866577409207821
1746728665746461000,7.6424609375,-0.0005817976780235767,-0.0011531831696629524,0.0023934743367135525
1746728665756480000,7.65247998046875,0.000423382967710495,0.0015990082174539566,0.000008295290172100067
1746728665766497800,7.662497802734375,-0.00003334926441311836,0.002082105726003647,0.0018972753314301372
1746728665776515800,7.672515869140625,-0.0027730828151106834,0.0008997651748359203,0.0013115141773596406
1746728665786535000,7.682534912109375,0.002041113330051303,-0.00017934758216142654,-0.0009593633003532887
1746728665796553000,7.692552978515625,-0.00042117806151509285,-0.0003005960024893284,0.0007286458276212215
1746728665806572000,7.702572021484375,-0.0013104071840643883,-0.0009306999854743481,-0.0025196115020662546
1746728665816589800,7.71258984375,0.0017846748232841492,-0.00131931621581316,0.0001193927600979805
1746728665826607900,7.72260791015625,0.0016129009891301394,0.0009590182453393936,0.0002237886656075716
1746728665836627000,7.732626953125,-0.0013215197250247002,-0.00029529957100749016,-0.0018359108362346888
1746728665846645000,7.74264501953125,-0.000026424415409564972,0.00009565241634845734,-0.001433773199096322
1746728665856663000,7.7526630859375,0.0006884108297526836,0.0012745722196996212,0.0005198977887630463
1746728665866681900,7.762681884765625,-0.0011233375407755375,0.00016936007887125015,-0.0012966443318873644
1746728665876700000,7.772699951171875,-0.0007677418179810047,-0.0015462483279407024,0.0011642742902040482
1746728665886719000,7.782718994140625,0.0014333606231957674,0.0009046588093042374,-0.0010136589407920837
1746728665896736800,7.79273681640625,-0.004144660662859678,-0.0017120344564318657,-0.0017183269374072552
1746728665906755000,7.802755126953125,-0.00024286285042762756,0.0002184910699725151,0.001025794306769967
1746728665916774000,7.81277392578125,-0.001372933853417635,0.0016036336310207844,-0.0016178458463400602
1746728665926792000,7.8227919921875,-0.0010608113370835781,0.0011136122047901154,-0.0018977441359311342
1746728665936810000,7.83281005859375,0.0012829822953790426,-0.0006417687982320786,-0.003337651025503874
1746728665946828800,7.842828857421875,0.0008563438896089792,0.0004916726611554623,0.0006624171510338783
1746728665956846800,7.852846923828125,0.0010596481151878834,-0.001211727038025856,-0.002599904779344797
1746728665966866000,7.862865966796875,0.0005517830140888691,-0.0009850920177996159,-0.0016717929393053055
1746728665976884000,7.872884033203125,-0.0009918790310621262,0.00047932425513863564,0.000780581496655941
1746728665986902000,7.882902099609375,-0.0024246596731245518,0.00201117480173707,-0.0010809681843966246
1746728665996920800,7.8929208984375,-0.0003585340455174446,0.00008562533184885979,0.00004885462112724781
1746728666006939000,7.90293896484375,-0.0005345689132809639,0.00407077930867672,0.0000797472894191742
1746728666016957000,7.91295703125,-0.0000630631111562252,0.0015066824853420258,0.0019184882985427976
1746728666026975700,7.922975830078125,0.0013063345104455948,-0.0015974980778992176,-0.0009310941677540541
1746728666036994000,7.932994140625,0.000043575651943683624,0.0016564312390983105,-0.001702726585790515
1746728666047012900,7.943012939453125,-0.0016054539009928703,0.000004472211003303528,0.00024111452512443066
1746728666057031000,7.953031005859375,-0.00016210833564400673,-0.0013596382923424244,-0.0005991912912577391
1746728666067048700,7.963048583984375,-0.004162442404776812,0.0015629148110747337,-0.002515069441869855
1746728666077067800,7.97306787109375,-0.00097988685593009,0.001133154146373272,-0.00043113483116030693
1746728666087086000,7.983086181640625,0.000848905649036169,-0.00018138205632567406,0.0030488178599625826
1746728666097104000,7.993103759765625,0.000994032947346568,0.000986744649708271,-0.0014258180744946003
1746728666107123000,8.003123046875,-0.002029986586421728,0.0009566512890160084,0.0018006014870479703
1746728666117141000,8.01314111328125,0.002582741202786565,-0.0007228460162878036,-0.0011860732920467854
1746728666127159800,8.023159912109374,-0.00210095988586545,-0.0006690500304102898,0.0008720178157091141
1746728666137177900,8.033177734375,-0.0017817025072872639,-0.000818474218249321,-0.001193022821098566
1746728666147196000,8.04319580078125,0.000660416204482317,-0.0018184911459684372,0.00209278566762805
1746728666157215000,8.053215087890624,0.0005796076729893684,0.0006414731033146381,-0.00029282551258802414
1746728666167233000,8.06323291015625,0.0005883960984647274,0.0003458620049059391,-0.00017484743148088455
1746728666177251800,8.073251953125,-0.0006991676054894924,0.00017088325694203377,-0.0007144142873585224
1746728666187270000,8.083269775390624,0.0006020530126988888,-0.0019402042962610722,-0.0012750094756484032
1746728666197287700,8.09328759765625,-0.0001135021448135376,0.001231994479894638,0.0008452660404145718
1746728666207306800,8.103306640625,0.0009522950276732445,-0.0011403495445847511,0.0010434053838253021
1746728666217325000,8.113324951171874,-0.0008358578197658062,0.0001525096595287323,0.0013697670074179769
1746728666227342800,8.1233427734375,-0.0014856690540909767,0.0014020646922290325,-0.00043399189598858356
1746728666237362000,8.13336181640625,0.001609595725312829,0.00026057660579681396,-0.0033740936778485775
1746728666247380000,8.1433798828125,0.0010058572515845299,0.00005657831206917763,-0.0016848505474627018
1746728666257398800,8.153398681640626,0.0029827645048499107,0.00026105716824531555,-0.00031400471925735474
1746728666267416800,8.163416748046876,0.0008533010259270668,-0.0010020798072218895,-0.001561962068080902
1746728666277435000,8.173434814453126,0.00027543772011995316,-0.0021435683593153954,-0.0006080176681280136
1746728666287454000,8.183453857421876,-0.00015040161088109016,-0.002131317974999547,0.001219975994899869
1746728666297472000,8.193471923828126,0.0006723799742758274,0.00021172640845179558,0.00011654826812446117
1746728666307489800,8.20348974609375,0.00036318693310022354,-0.00125168077647686,-0.000044040149077773094
1746728666317508900,8.2135087890625,0.0019880642648786306,0.0009245793335139751,0.00010227109305560589
1746728666327527000,8.22352685546875,-0.00002901395782828331,0.0019759954884648323,-0.0014202583115547895
1746728666337546000,8.2335458984375,0.001065281918272376,0.000038928352296352386,-0.00036967312917113304
1746728666347564000,8.24356396484375,-0.00017947936430573463,-0.000030580442398786545,0.0016463396605104208
1746728666357581800,8.253581787109376,-0.00007661012932658195,0.0008883336558938026,0.001776953344233334
1746728666367601000,8.263600830078126,0.00021900050342082977,-0.000042707659304142,0.0008533690124750137
1746728666377618700,8.27361865234375,-0.0019029765389859676,-0.0001599700190126896,-0.0005377472843974829
1746728666387637000,8.283636962890625,-0.0018819374963641167,0.002529555931687355,0.0012510980013757944
1746728666397656000,8.293656005859376,-0.0006314683705568314,-0.0011337008327245712,-0.00031691347248852253
1746728666407673900,8.303673828125,-0.00016435002908110619,-0.0010391590185463428,-0.0018394424114376307
1746728666417693000,8.31369287109375,0.000772187951952219,0.0000621904619038105,0.0005800111684948206
1746728666427710500,8.32371044921875,-0.0009964173659682274,0.000952485017478466,-0.0016988555435091257
1746728666437728800,8.333728759765625,0.0005789683200418949,-0.00218158308416605,-0.000613043550401926
1746728666447747600,8.34374755859375,-0.0014088153839111328,-0.0006675757467746735,-0.0006418055854737759
1746728666457765600,8.353765625,-0.00115538714453578,-0.002173085231333971,0.0005823434330523014
1746728666467783400,8.363783447265625,-0.0009966627694666386,0.0013066008687019348,-0.0014848019927740097
1746728666477802500,8.373802490234375,-0.0007610348984599113,-0.0004664519801735878,0.002317138947546482
1746728666487820500,8.383820556640625,-0.002412194851785898,-0.0004030689597129822,-0.00025840429589152336
1746728666497839400,8.39383935546875,0.0007170988246798515,0.00015687989071011543,-0.0014460468664765358
1746728666507857700,8.403857666015625,0.00015916628763079643,-0.0011193067766726017,-0.0020204908214509487
1746728666517875500,8.41387548828125,-0.001653431449085474,-0.0021183013450354338,0.001297447830438614
1746728666527894500,8.42389453125,-0.00008536223322153091,0.00044339336454868317,-0.0017305663786828518
1746728666537912600,8.43391259765625,-0.0015517398715019226,-0.0016872324049472809,-0.0002068895846605301
1746728666547930400,8.443930419921875,0.0006126114167273045,-0.0015564709901809692,0.0011209624353796244
1746728666557949400,8.453949462890625,0.0004023541696369648,0.0029816501773893833,-0.001336443005129695
1746728666567967500,8.463967529296875,-0.0008892789483070374,0.0007256870158016682,-0.0012067470233887434
1746728666577985500,8.473985595703125,-0.0004653222858905792,-0.00028735212981700897,-0.0008841073140501976
1746728666588004600,8.484004638671875,-0.0017457697540521622,-0.0005773701705038548,-0.0023365956731140614
1746728666598022400,8.4940224609375,0.0018656407482922077,-0.0010093101300299168,-0.00044657476246356964
1746728666608041500,8.50404150390625,0.0006515057757496834,-0.0022524739615619183,-0.0016282193828374147
1746728666618059500,8.5140595703125,-0.00039712758734822273,0.0027385642752051353,0.0004294002428650856
1746728666628077600,8.52407763671875,-0.0020528146997094154,0.0004828670062124729,0.003170592011883855
1746728666638096600,8.5340966796875,0.0004375581629574299,0.0013857027515769005,-0.0018610982224345207
1746728666648114400,8.544114501953125,-0.0008114646188914776,-0.0004910272546112537,-0.0003702607937157154
1746728666658133500,8.554133544921875,-0.0019781943410634995,0.0012828451581299305,0.0015837792307138443
1746728666668151600,8.564151611328125,0.0030402662232518196,0.0013555493205785751,-0.0007238499820232391
1746728666678169600,8.574169677734375,0.0008491836488246918,-0.0011541005223989487,-0.00012326589785516262
1746728666688188700,8.584188720703125,0.0009908636566251516,0.0009825536981225014,0.000348113477230072
1746728666698206500,8.59420654296875,-0.0007803887128829956,0.0008362466469407082,0.0001046573743224144
1746728666708224500,8.604224609375,-0.001697581261396408,0.0009254626929759979,-0.0008519499097019434
1746728666718243600,8.61424365234375,0.0004871813580393791,0.0007896749302744865,-0.0008012168109416962
1746728666728261400,8.624261474609375,-0.00003160256892442703,-0.00003617117181420326,-0.0005492819473147392
1746728666738280400,8.634280517578125,-0.0002581728622317314,0.00015524495393037796,-0.0022106883116066456
1746728666748298800,8.644298828125,-0.0009487303905189037,0.0009320890530943871,0.0005195843987166882
1746728666758316500,8.654316650390625,0.000104513019323349,-0.0010559908114373684,0.0011251058895140886
1746728666768335600,8.664335693359375,-0.0005144057795405388,0.0014061015099287033,0.0008297613821923733
1746728666778353400,8.674353515625,-0.0017635873518884182,0.0017508319579064846,0.0023599378764629364
1746728666788371500,8.684371337890624,-0.0017196452245116234,0.0029894686304032803,0.0005561788566410542
1746728666798390500,8.694390625,0.0018946342170238495,-0.0007353718392550945,-0.0005484565626829863
1746728666808408600,8.70440869140625,0.0010394931305199862,0.0030047716572880745,-0.00007015280425548553
1746728666818426600,8.714426513671874,0.00025334348902106285,-0.0010033883154392242,0.0018812977941706777
1746728666828445400,8.724445556640624,0.000756680965423584,-0.0006055119447410107,-0.002265776740387082
1746728666838463500,8.73446337890625,0.0007454715669155121,-0.0005501466803252697,-0.0004979793448001146
1746728666848482600,8.744482666015625,-0.0008817198686301708,0.0016914359293878078,0.0023081935942173004
1746728666858500600,8.75450048828125,0.00009583961218595505,-0.00005829101428389549,-0.0013592212926596403
1746728666868518700,8.7645185546875,0.002713727066293359,0.0041433777660131454,0.0008245706558227539
1746728666878537500,8.774537353515624,-0.0016008024103939533,-0.0007142932154238224,-0.0003501914907246828
1746728666888555500,8.784555419921874,-0.0005565769970417023,0.0002857237122952938,0.0020972536876797676
1746728666898573600,8.794573486328124,0.0005365400575101376,0.001962391659617424,-0.00029454356990754604
1746728666908592400,8.80459228515625,-0.0016728187911212444,0.00009551551192998886,0.002522814553231001
1746728666918610700,8.814610595703124,-0.0028959489427506924,-0.0005315784364938736,0.00048336200416088104
1746728666928629800,8.824629638671874,0.00006921449676156044,0.000022625550627708435,0.0008151917718350887
1746728666938647600,8.8346474609375,0.0004384089261293411,0.0018073376268148422,-0.000741239869967103
1746728666948665600,8.84466552734375,0.0020126032177358866,0.0005932021886110306,-0.0002730560954660177
1746728666958684400,8.854684326171874,0.00009699584916234016,-0.00037283962592482567,0.00042861211113631725
1746728666968702500,8.864702392578126,0.0010591959580779076,0.00005939183756709099,-0.000033978838473558426
1746728666978720500,8.874720458984376,0.0008973898366093636,-0.00028857914730906487,-0.00037743430584669113
1746728666988739600,8.884739501953124,0.0007868688553571701,0.0016741706058382988,-0.001043224474415183
1746728666998757600,8.894757568359376,0.0005755787715315819,0.0011462932452559471,-0.00003605242818593979
1746728667008776400,8.9047763671875,0.0013958325143903494,0.00022137770429253578,0.0013053817674517632
1746728667018794500,8.91479443359375,-0.0007261261343955994,-0.0018032179214060307,0.000520934583619237
1746728667028812300,8.924812255859376,0.0011042642872780561,0.00003249896690249443,0.0013534387107938528
1746728667038831400,8.934831298828126,0.001750326482579112,-0.0008958568796515465,0.0004274742677807808
1746728667048849700,8.944849609375,0.0031117345206439495,0.0015691653825342655,0.001986755058169365
1746728667058867500,8.954867431640626,-0.001493857242166996,0.0007958365604281425,-0.0005052110645920038
1746728667068886500,8.964886474609376,-0.00048718228936195374,0.000978795811533928,0.000618642894551158
1746728667078904600,8.974904541015626,0.0030695232562720776,-0.0025014090351760387,-0.0005361090879887342
1746728667088923400,8.98492333984375,0.0019019932951778173,0.002375637646764517,-0.00018457183614373207
1746728667098941400,8.99494140625,-0.0004106578417122364,-0.0007537719793617725,-0.002111260313540697
1746728667108959500,9.00495947265625,0.00124449678696692,0.00026328908279538155,-0.0013922066427767277
1746728667118978600,9.014978515625,0.0007084906101226807,0.0003288155421614647,-0.0001310079824179411
1746728667128996600,9.02499658203125,0.00056840805336833,0.0007005925290286541,0.0002660693135112524
1746728667139014400,9.035014404296875,-0.001611180603504181,-0.00035884464159607887,-0.0020377926994115114
1746728667149033500,9.045033447265626,0.0016338811255991459,0.001809767447412014,-0.0011845158878713846
1746728667159051500,9.055051513671875,-0.000302713830024004,0.0008361246436834335,-0.0009584375657141209
1746728667169070600,9.065070556640626,0.0008211401291191578,0.000003087799996137619,-0.002449008636176586
1746728667179088600,9.075088623046875,0.00047425972297787666,0.00006479118019342422,0.0004510413855314255
1746728667189106400,9.0851064453125,-0.0013492070138454437,-0.0010244417935609818,-0.002233957638964057
1746728667199125500,9.09512548828125,-0.0008853347972035408,0.0005515813827514648,-0.0010274057276546955
1746728667209143600,9.1051435546875,-0.00047121336683630943,0.00024212198331952095,-0.0014617671258747578
1746728667219161600,9.11516162109375,0.0005426593124866486,0.001705193892121315,-0.001702689565718174
1746728667229180700,9.1251806640625,-0.0005103545263409615,0.00012540677562355995,0.00008003017865121365
1746728667239198500,9.135198486328125,0.001647719880566001,-0.002959582954645157,0.000005746958777308464
1746728667249217500,9.145217529296875,-0.0000159568153321743,-0.0024288150016218424,0.0011455798521637917
1746728667259235600,9.155235595703125,-0.0009526154026389122,-0.0008645001798868179,-0.0007260928396135569
1746728667269253400,9.16525341796875,-0.00037071481347084045,0.000014342833310365677,-0.0005841462407261133
1746728667279272400,9.1752724609375,-0.0025919172912836075,0.00045339809730648994,0.00008931919001042843
1746728667289290500,9.18529052734375,-0.0017719301395118237,-0.0002850964665412903,-0.0002302601933479309
1746728667299308500,9.19530859375,0.0021979580633342266,-0.00012753671035170555,-0.0007264087907969952
1746728667309327600,9.20532763671875,-0.00035920925438404083,-0.0008764178492128849,0.0007508464623242617
1746728667319345400,9.215345458984375,-0.001903110183775425,-0.00019981525838375092,0.0024766684509813786
1746728667329363700,9.22536376953125,0.000561113003641367,-0.002095187082886696,0.00048382487148046494
1746728667339382500,9.235382568359375,-0.0005343044176697731,0.0006630383431911469,-0.0024939998984336853
1746728667349400600,9.245400634765625,-0.0005446909926831722,-0.0008027656003832817,-0.001559496857225895
1746728667359419600,9.255419677734375,0.0011676058638840914,0.0012393570505082607,0.002576815662905574
1746728667369437400,9.2654375,0.0008773212321102619,-0.0005902345292270184,0.0013917089672759175
1746728667379455500,9.27545556640625,0.00010310672223567963,0.0017437972128391266,0.0027376897633075714
1746728667389474600,9.285474609375,0.0007896698080003262,-0.001063440926373005,-0.0017087238375097513
1746728667399492600,9.29549267578125,-0.0016832207329571247,-0.00029658013954758644,-0.000045139575377106667
1746728667409510700,9.3055107421875,0.0002696756273508072,-0.0021520047448575497,0.0015849812189117074
1746728667419529700,9.31552978515625,0.004522324539721012,-0.0006061187013983727,0.0004327460192143917
1746728667429547800,9.3255478515625,0.00011718971654772758,0.0015893909148871899,0.001022636191919446
1746728667439566800,9.33556689453125,0.0010951841250061989,-0.000742089468985796,0.0029755569994449615
1746728667449584600,9.345584716796875,0.000916752265766263,-0.00047923577949404716,-0.0013547430280596018
1746728667459603000,9.35560302734375,-0.0019553108140826225,-0.00017883116379380226,0.0012386715970933437
1746728667469621800,9.365621826171875,0.0002657654695212841,-0.0015146727673709393,0.0015713004395365715
1746728667479639800,9.375639892578125,-0.00048748962581157684,0.00011258479207754135,0.0017545061418786645
1746728667489657600,9.38565771484375,0.0007500811479985714,-0.001183309592306614,-0.0008639136794954538
1746728667499676700,9.3956767578125,0.00025529833510518074,-0.0010352698154747486,0.0003889987710863352
1746728667509694700,9.40569482421875,-0.0015266225673258305,-0.0008887955918908119,-0.0027274324093014
1746728667519713500,9.415713623046875,0.0008398201316595078,-0.0015441342256963253,0.0020325779914855957
1746728667529731800,9.42573193359375,0.0010416877921670675,0.0010436591692268848,0.001337759313173592
1746728667539749600,9.43574951171875,-0.001083440613001585,0.0017622718587517738,0.0007388952653855085
1746728667549768700,9.445768798828125,0.0013605423737317324,-0.0020375261083245277,0.001168729504570365
1746728667559786800,9.455786865234375,-0.0019033029675483704,0.00024088192731142044,-0.001955203013494611
1746728667569804500,9.465804443359374,0.0005697081796824932,-0.0008997498080134392,-0.002619395265355706
1746728667579823600,9.47582373046875,-0.0025403304025530815,-0.0011348892003297806,0.002299416810274124
1746728667589842000,9.485842041015625,-0.0000374913215637207,-0.0023769878316670656,-0.00008997134864330292
1746728667599859700,9.495859619140624,-0.00005143927410244942,-0.0004739081487059593,0.0023303013294935226
1746728667609878800,9.505878662109374,0.0011704189237207174,-0.002242246875539422,-0.0001195406075567007
1746728667619896600,9.515896484375,0.000031400471925735474,-0.002054656855762005,-0.0009215646423399448
1746728667629915600,9.52591552734375,0.00020716944709420204,-0.0008881920948624611,-0.000011029886081814766
1746728667639934000,9.535933837890624,-0.0007841521874070168,0.0012834579683840275,0.00178292125929147
1746728667649951700,9.54595166015625,0.0016401233151555061,-0.00004545925185084343,0.0009059424046427011
1746728667659970800,9.555970703125,-0.001095958985388279,0.0007437649182975292,0.0025854362174868584
1746728667669988600,9.565988525390624,-0.0008386974222958088,-0.0008048634044826031,-0.0014148980844765902
1746728667680006700,9.576006591796874,-0.0003538881428539753,-0.003254108363762498,0.000127437524497509
1746728667690025700,9.586025634765624,-0.0019091740250587463,-0.0011283732019364834,0.001511216047219932
1746728667700043800,9.596043701171874,0.0004865610972046852,-0.0006458163261413574,-0.0010487264953553677
1746728667710062800,9.606062744140624,-0.0008253119885921478,0.00011078780516982079,-0.002578446641564369
1746728667720081000,9.616080810546874,-0.0009031943045556545,0.0014911131002008915,-0.0026045814156532288
1746728667730098700,9.6260986328125,-0.0010837563313543797,-0.00046311458572745323,-0.002545725554227829
1746728667740117800,9.63611767578125,-0.0013309810310602188,-0.00010177074000239372,0.00018857233226299286
1746728667750135600,9.646135498046876,0.002681870013475418,-0.0017446745187044144,-0.001361387548968196
1746728667760153900,9.65615380859375,-0.0005921833217144012,-0.001597546972334385,-0.0011113272048532963
1746728667770173000,9.6661728515625,-0.000009483657777309418,-0.000256112776696682,-0.00003061676397919655
1746728667780190700,9.676190673828126,-0.000618442427366972,0.001972590107470751,-0.0009221320506185293
1746728667790208800,9.686208740234376,-0.0005044587887823582,-0.00023836595937609673,-0.0005892370827496052
1746728667800227600,9.6962275390625,-0.000688756350427866,-0.0014768070541322231,-0.00022551114670932293
1746728667810245600,9.70624560546875,-0.0007212469354271889,0.0008116471581161022,-0.0004718536511063576
1746728667820264700,9.7162646484375,-0.00017928658053278923,0.0005566617473959923,-0.0017760274931788445
1746728667830282800,9.72628271484375,0.0016455112490803003,0.0010168557055294514,-0.0009397952817380428
1746728667840300800,9.73630078125,-0.0010912278667092323,0.0010075066238641739,0.0002660672180354595
1746728667850319600,9.746319580078126,-0.0009735161438584328,-0.0017278259620070457,-0.002538774162530899
1746728667860337700,9.756337646484376,-0.0008157715201377869,0.0005387277342379093,-0.0017640269361436367
1746728667870356000,9.76635595703125,0.0004678722470998764,0.0007057078182697296,-0.0011107535101473331
1746728667880374800,9.776374755859376,-0.000279418658465147,0.000531456433236599,0.0014771085698157549
1746728667890392800,9.786392822265626,-0.00037848809733986855,-0.00019904877990484238,0.0017359679332002997
1746728667900412000,9.796411865234376,-0.00033805519342422485,-0.00008314894512295723,-0.0034791198559105396
1746728667910429700,9.8064296875,-0.0005037039518356323,-0.0009193816222250462,0.0015553197590634227
1746728667920447700,9.81644775390625,-0.0004532681778073311,-0.0011470885947346687,0.004227058496326208
1746728667930466600,9.826466552734376,-0.0011478201486170292,-0.0003678477369248867,-0.0014721062034368515
1746728667940484900,9.83648486328125,-0.0007114382460713387,-0.000009311363101005554,0.001261374680325389
1746728667950502700,9.846502685546875,-0.0009905374608933926,-0.003447718685492873,0.0032062812242656946
1746728667960521700,9.856521728515625,-0.0007779970765113831,0.0021173139102756977,0.0007839393801987171
1746728667970539800,9.866539794921875,0.0008433356415480375,0.0006973161362111568,0.00047261593863368034
1746728667980557600,9.8765576171875,-0.0007209419272840023,-0.0022949909325689077,-0.001004381338134408
1746728667990576600,9.88657666015625,0.0009075810667127371,0.00041291117668151855,-0.0005729494150727987
1746728668000594700,9.8965947265625,0.0015142960473895073,0.0017155581153929234,0.00020436919294297695
1746728668010613800,9.90661376953125,-0.0004907981492578983,0.00023271003738045692,0.002560734050348401
1746728668020631800,9.9166318359375,-0.0008328976109623909,0.001974781509488821,-0.0007248029578477144
1746728668030649600,9.926649658203125,-0.0025562290102243423,0.00204269215464592,0.0013511310098692775
1746728668040668700,9.936668701171875,0.0019734222441911697,0.0014289873652160168,-0.0010279554408043623
1746728668050686700,9.946686767578125,0.0008450408931821585,0.0006689210422337055,0.0037201945669949055
1746728668060704800,9.956704833984375,0.00022106338292360306,0.0007562576793134212,0.0014443943509832025
1746728668070723800,9.966723876953125,0.001982211833819747,-0.0008664065971970558,-0.0035239991266280413
1746728668080741600,9.97674169921875,0.0004109353758394718,0.0008329921402037144,-0.00040516071021556854
1746728668090759700,9.986759765625,-0.00029027462005615234,0.0009797322563827038,-0.0010211498010903597
1746728668100778800,9.99677880859375,0.001164060551673174,-0.0008547846227884293,-0.0012599390465766191
1746728668110796800,10.006796875,0.00035818805918097496,-0.00034771859645843506,-0.0013238552492111921
1746728668120815900,10.01681591796875,-0.0008397391065955162,0.0022951182909309864,0.0015474659157916903
1746728668130833700,10.026833740234375,0.002054317854344845,0.0012247934937477112,0.000011621043086051941
1746728668140851700,10.036851806640625,-0.0003328537568449974,0.0006118942983448505,0.0007241098210215569
1746728668150870800,10.046870849609375,-0.0015773489139974117,0.0011202916502952576,0.0015781857073307037
1746728668160888600,10.056888671875,0.0009012047667056322,0.00032974453642964363,-0.00026331469416618347
1746728668170907000,10.066906982421875,-0.002940671518445015,0.00005597155541181564,0.0009534836281090975
1746728668180926000,10.076926025390625,-0.001079566776752472,0.0016338280402123928,0.0004408655222505331
1746728668190943700,10.08694384765625,-0.000222028698772192,-0.001079134177416563,0.0012680432992056012
1746728668200962800,10.096962890625,-0.0001579001545906067,0.0017758947797119617,0.001102531561627984
1746728668210980600,10.106980712890625,-0.002130769658833742,0.00011994130909442902,-0.0005038871895521879
1746728668220998700,10.11699853515625,-0.000630523543804884,0.0023912074975669384,0.0011403437238186598
1746728668231017700,10.127017822265625,-0.0011005713604390621,0.0002947668544948101,-0.000783523777499795
1746728668241035800,10.137035888671875,0.0013914084993302822,0.0012176427990198135,0.002712052082642913
1746728668251053800,10.1470537109375,0.00025237444788217545,0.0005015186034142971,0.0011810008436441422
1746728668261072600,10.15707275390625,0.0016039032489061356,-0.0000020274892449378967,-0.0010986709967255592
1746728668271090700,10.167090576171875,-0.0007806913927197456,0.0009700264781713486,-0.002470998093485832
1746728668281108700,10.177108642578125,0.0025203621480613947,-0.0007185991853475571,0.0005563483573496342
1746728668291127800,10.1871279296875,-0.0011364244855940342,-0.002218225272372365,0.0017872613389045
1746728668301145900,10.197145751953125,-0.0006414852105081081,-0.0004956885240972042,0.0004214972723275423
1746728668311164700,10.20716455078125,0.00013429392129182816,-0.0017505702562630177,0.0015203176299110055
1746728668321182700,10.2171826171875,0.0020879365038126707,0.0005171867087483406,0.001723085530102253
1746728668331200800,10.22720068359375,-0.001055126078426838,-0.0008990825153887272,0.001484998851083219
1746728668341219600,10.237219482421875,0.0009849993512034416,-0.0007623452693223953,0.0000033436808735132217
1746728668351238000,10.24723779296875,-0.00021635228767991066,0.0013042674399912357,-0.0025394426193088293
1746728668361255700,10.257255615234374,-0.0018900218419730663,0.000750209204852581,0.0005239991005510092
1746728668371274800,10.267274658203124,-0.0018508732318878174,0.0011038770899176598,-0.0008477950468659401
1746728668381292800,10.277292724609374,-0.0012202146463096142,-0.0007488923147320747,-0.0015669064596295357
1746728668391311600,10.2873115234375,0.0009768933523446321,-0.0003811097703874111,-0.001188470982015133
1746728668401329700,10.29732958984375,0.0006117741577327251,-0.0016992022283375263,0.0005409214645624161
1746728668411347700,10.30734765625,-0.00014909077435731888,-0.0018978742882609367,-0.0003062302712351084
1746728668421366500,10.317366455078124,-0.000056780874729156494,0.00012722238898277283,0.0002823071554303169
1746728668431384300,10.32738427734375,0.0004785144701600075,-0.00037345197051763535,-0.00033261673524975777
1746728668441402400,10.33740234375,0.0018693502061069012,-0.0019246276933699846,-0.0010307903867214918
1746728668451421200,10.347421142578124,0.0008962310384958982,0.0020030024461448193,-0.0019698210526257753
1746728668461439500,10.357439453125,0.000533263199031353,0.0008222619071602821,-0.0017824529204517603
1746728668471457300,10.367457275390626,-0.0018215039744973183,-0.0015892302617430687,-0.0008676571305841208
1746728668481476400,10.377476318359374,-0.002414111979305744,-0.0019750678911805153,-0.00043959333561360836
1746728668491494400,10.387494384765626,-0.00012805452570319176,-0.0016890442930161953,-0.0013972660526633263
1746728668501513200,10.39751318359375,0.0012929572258144617,0.001263707410544157,-0.002203438663855195
1746728668511531300,10.40753125,-0.0014144121669232845,0.002054932527244091,-0.0015381809789687395
1746728668521549600,10.417549560546876,0.0010600944515317678,0.0020753564313054085,-0.0028491185512393713
1746728668531568400,10.427568359375,-0.00022567948326468468,-0.00044612446799874306,0.0013488221447914839
1746728668541586400,10.43758642578125,-0.0025156689807772636,-0.00042971689254045486,0.0021063736639916897
1746728668551604200,10.447604248046876,-0.0020501483231782913,0.0010107867419719696,-0.001204468309879303
1746728668561623300,10.457623291015626,-0.0012310277670621872,-0.0001415708102285862,-0.0016647402662783861
1746728668571641300,10.467641357421876,0.0004622098058462143,-0.0005983030423521996,-0.003375022439286113
1746728668581659400,10.477659423828126,-0.00017562462016940117,0.0010721376165747643,-0.0006282757967710495
1746728668591678500,10.487678466796876,0.0010757949203252792,0.0013238065876066685,0.0019850842654705048
1746728668601696300,10.4976962890625,-0.0015571867115795612,0.0007346621714532375,-0.00011033611372113228
1746728668611715300,10.50771533203125,-0.00024904171004891396,-0.00036389147862792015,-0.0021433932706713676
1746728668621733400,10.5177333984375,0.0009621221106499434,0.0014282581396400928,-0.0006009314674884081
1746728668631751400,10.52775146484375,-0.0010504284873604774,0.00039388658478856087,0.0002446221187710762
1746728668641770200,10.537770263671876,-0.0011512180790305138,0.0021849051117897034,0.0018772493349388242
1746728668651788500,10.54778857421875,-0.0014415024779736996,0.0002181604504585266,0.0005464677233248949
1746728668661806300,10.557806396484375,-0.001434097532182932,-0.00014061108231544495,0.0017999366391450167
1746728668671825400,10.567825439453125,0.00019176211208105087,0.0030416003428399563,0.0013498624321073294
1746728668681843200,10.57784326171875,-0.00045140646398067474,0.0006881174631416798,0.0015078753931447864
1746728668691861500,10.587861572265625,0.0010229195468127728,0.00017199665307998657,0.00012489594519138336
1746728668701880600,10.597880615234375,-0.002055823802947998,-0.0006133755668997765,0.00027130194939672947
1746728668711898400,10.6078984375,0.0003862949088215828,-0.0008527939207851887,-0.0006144654471427202
1746728668721917400,10.61791748046875,0.0005443482659757137,0.001976379193365574,-0.00048789940774440765
1746728668731935200,10.627935302734375,-0.0010085408575832844,0.0004746229387819767,-0.00016379286535084248
1746728668741953300,10.637953369140625,-0.0010688561014831066,0.0009598289616405964,0.00004485994577407837
1746728668751972400,10.647972412109375,0.0011439644731581211,-0.0011717653833329678,0.0012741752434521914
1746728668761990400,10.657990478515625,0.0021106055937707424,0.001722041517496109,-0.0004908393602818251
1746728668772008400,10.668008544921875,-0.0019203550182282925,-0.0004971702583134174,0.001250069122761488
1746728668782027300,10.67802734375,0.000494904350489378,-0.000490040984004736,-0.00039229332469403744
1746728668792045300,10.68804541015625,0.0008674804121255875,-0.00176303181797266,0.0004916097968816757
1746728668802063400,10.6980634765625,-0.0005654697306454182,0.001985998824238777,-0.0018702668603509665
1746728668812082200,10.708082275390625,0.000047856010496616364,0.0011367169208824635,0.0011468285229057074
1746728668822100500,10.7181005859375,-0.0003485502675175667,0.0032354528084397316,0.002305168891325593
1746728668832119600,10.72811962890625,-0.00007717404514551163,0.0011203708127140999,0.002111823298037052
1746728668842137300,10.738137451171875,0.0017136333044618368,0.00025453371927142143,-0.0018597019370645285
1746728668852155400,10.7481552734375,0.0019623725675046444,0.0023011728189885616,-0.0007944374810904264
1746728668862174200,10.75817431640625,0.00027137575671076775,-0.00032034749165177345,0.0010098002385348082
1746728668872192300,10.768192138671875,-0.0005829664878547192,0.00021654553711414337,-0.0015590849798172712
1746728668882210300,10.778210205078125,-0.0007532224990427494,-0.0026211864314973354,0.0013983719982206821
1746728668892229400,10.7882294921875,0.0018710563890635967,0.0004073604941368103,0.0007205975707620382
1746728668902247400,10.798247314453125,0.0004888535477221012,-0.0001134839840233326,-0.001442436594516039
1746728668912265200,10.80826513671875,0.0011889985762536526,0.0005717473104596138,-0.0006634620949625969
1746728668922284300,10.8182841796875,-0.0017022397369146347,-0.00011203112080693245,0.0010026160161942244
1746728668932302600,10.828302490234375,0.00024532992392778397,0.00008078152313828468,0.0010223235003650188
1746728668942321400,10.8383212890625,-0.0018601189367473125,-0.00004986952990293503,0.00019242241978645325
1746728668952339500,10.84833935546875,0.001986816991120577,0.0019451044499874115,-0.0008776355534791946
1746728668962357200,10.858357177734375,0.0009311819449067116,-0.0018414766527712345,-0.0023238910362124443
1746728668972376300,10.868376220703125,0.000015587080270051956,-0.003448427887633443,0.0006447345949709415
1746728668982394400,10.878394287109375,-0.0013137329369783401,-0.0005701817572116852,-0.0005084564909338951
1746728668992412400,10.888412353515625,0.00018988782539963722,-0.0007395590655505657,-0.0004378827288746834
1746728669002431500,10.898431396484375,0.0015700976364314556,-0.0008736131712794304,-0.0017009163275361061
1746728669012449300,10.90844921875,-0.004053699783980846,0.0024750451557338238,-0.0021009230986237526
1746728669022467300,10.91846728515625,0.0002831723541021347,0.001344891730695963,0.0013310321373865008
1746728669032486400,10.928486328125,0.0010365808848291636,0.00023461971431970596,0.0010372854303568602
1746728669042504200,10.938504150390624,0.0011272295378148556,0.0006798761896789074,-0.000051219016313552856
1746728669052523300,10.948523193359375,-0.0009801299311220646,-0.0003100205212831497,0.0025285850279033184
1746728669062541300,10.958541259765624,-0.0007360889576375484,0.00013146083801984787,-0.0003522098995745182
1746728669072559400,10.968559326171874,-0.0007800310850143433,0.003809552174061537,-0.0024840706028044224
1746728669082578400,10.978578369140624,-0.00034246500581502914,0.00018860260024666786,0.0012389991898089647
1746728669092596200,10.98859619140625,0.0010367860086262226,0.0017697210423648357,-0.0006952548865228891
1746728669102614500,10.998614501953124,0.0013968697749078274,-0.0008215666748583317,0.0023595336824655533
1746728669112633300,11.00863330078125,-0.000044965650886297226,-0.0002678954042494297,-0.0011353327427059412
1746728669122651400,11.0186513671875,-0.0017370739951729774,-0.0008909143507480621,-0.0021037692204117775
1746728669132669400,11.02866943359375,0.0008619050495326519,-0.0009934459812939167,0.0008938850369304419
1746728669142688300,11.038688232421874,0.00048427004367113113,0.00150586711242795,0.0001276605762541294
1746728669152706300,11.048706298828124,-0.0018143043853342533,-0.0028188403230160475,0.001185734523460269
1746728669162725400,11.058725341796874,0.00013789208605885506,0.00016708020120859146,0.000999997602775693
1746728669172743400,11.068743408203124,-0.0005619865842163563,0.0014469954185187817,0.00017841230146586895
1746728669182761500,11.078761474609376,0.00004260474815964699,-0.0002947421744465828,0.0010231188498437405
1746728669192780300,11.0887802734375,0.0011368975974619389,0.00020806258544325829,0.0004936824552714825
1746728669202798300,11.09879833984375,0.0001580812968313694,0.0007393704727292061,-0.0014166163746267557
1746728669212816400,11.10881640625,0.00021800212562084198,0.0010259267874062061,-0.0027255599852651358
1746728669222835200,11.118835205078126,0.0003831409849226475,-0.0012778318487107754,0.0026721905451267958
1746728669232853500,11.128853515625,-0.001910107210278511,0.0018971888348460197,0.00002420949749648571
1746728669242871300,11.138871337890626,-0.0016955998726189137,-0.0011826842091977596,-0.0006408202461898327
1746728669252890400,11.148890380859376,-0.001054044347256422,-0.0005416614003479481,0.0017014299519360065
1746728669262908400,11.158908447265626,0.0027324804104864597,-0.0014511686749756336,0.002518698573112488
1746728669272926200,11.16892626953125,0.0008528213948011398,0.0009781667031347752,-0.0017066725995391607
1746728669282945300,11.1789453125,0.0014578793197870255,-0.001808262662962079,0.0023262761533260345
1746728669292963300,11.18896337890625,-0.002615957986563444,0.00006500491872429848,-0.0027638236060738564
1746728669302982400,11.198982421875,0.0016903437208384275,-0.0011333376169204712,-0.00013136165216565132
1746728669313000400,11.20900048828125,0.0008157617412507534,-0.0007596961222589016,0.002539256354793906
1746728669323018200,11.219018310546875,0.0006178165785968304,-0.00021385680884122849,0.0012453561648726463
1746728669333037300,11.229037353515626,0.0014244879130274057,0.000244207214564085,0.002458426170051098
1746728669343055400,11.239055419921876,-0.00029686884954571724,-0.00020934687927365303,-0.0007890707347542048
1746728669353073400,11.249073486328125,0.0005902298726141453,-0.0016959230415523052,-0.000419956399127841
1746728669363092500,11.259092529296876,0.002690552733838558,0.0029386174865067005,0.0001224200241267681
1746728669373110300,11.2691103515625,0.00009929714724421501,-0.0005583795718848705,-0.0009340560063719749
1746728669383128300,11.27912841796875,-0.001629098318517208,0.0027976729907095432,0.001202150247991085
1746728669393147400,11.2891474609375,0.0000143381766974926,-0.0016306308098137379,0.000019706785678863525
1746728669403165400,11.29916552734375,0.0016360410954803228,0.0008939323015511036,0.0004297359846532345
1746728669413184500,11.3091845703125,0.0025574949104338884,0.0007096412591636181,0.0006499795708805323
1746728669423203000,11.319203125,0.0010070791468024254,0.0003339373506605625,-0.0009379363618791103
1746728669433221000,11.32922119140625,0.0004976163618266582,0.0022362330928444862,-0.0025387625209987164
1746728669443240000,11.339239990234375,-0.0003866972401738167,0.0009643686935305595,0.0011593964882194996
1746728669453258000,11.349258056640625,0.0011092002969235182,-0.0003517651930451393,0.0004587189760059118
1746728669463276000,11.359276123046875,0.0027231997810304165,0.0018482226878404617,-0.0008397758938372135
1746728669473294800,11.369294921875,0.0006858818233013153,-0.0009307861328125,-0.0005654704291373491
1746728669483313200,11.379313232421875,-0.001848659012466669,0.0016659009270370007,-0.0013045193627476692
1746728669493331000,11.3893310546875,-0.0020023230463266373,-0.0015157773159444332,0.002099533099681139
1746728669503350000,11.39935009765625,0.0005567725747823715,-0.0028754030354321003,0.0009275211486965418
1746728669513367800,11.409367919921875,0.0006260150112211704,-0.0008324920199811459,0.0016156819183379412
1746728669523387000,11.419386962890625,-0.0013380255550146103,-0.0027878929395228624,0.00030192267149686813
1746728669533405200,11.4294052734375,0.0010692060459405184,0.0010949959978461266,0.0009314939379692078
1746728669543423000,11.439423095703125,-0.0006366022862493992,0.0003301696851849556,-0.005675698630511761
1746728669553442000,11.449442138671875,-0.00007813749834895134,-0.0009572026319801807,-0.0014127760659903288
1746728669563459800,11.4594599609375,-0.00046832626685500145,0.00003103446215391159,0.0009695193730294704
1746728669573478000,11.469477783203125,0.004240408539772034,0.002941337414085865,-0.001827332191169262
1746728669583497000,11.4794970703125,0.0012369609903544188,0.0002227271907031536,-0.0008533047512173653
1746728669593515000,11.489514892578125,-0.0008469624444842339,0.0009548300877213478,-0.003533510025590658
