time,seconds_elapsed,z,y,x
1746734327446230300,0.015230224609375,0.0009484961628913879,0.0013730418868362904,-0.0016176309436559677
1746734327456197000,0.025197021484375,0.0008795203175395727,-0.0008363164961338043,0.0006745518185198307
1746734327466163200,0.0351630859375,0.0008632238022983074,-0.0014904309064149857,-0.0012941109016537666
1746734327476130000,0.045130126953125,-0.0009626392275094986,-0.0016014848370105028,-0.0014091595076024532
1746734327486097200,0.05509716796875,-0.0008377376943826675,-0.00038209324702620506,-0.001324567012488842
1746734327496064300,0.065064208984375,-0.000020147301256656647,-0.0006414852105081081,-0.001035347580909729
1746734327506031000,0.075031005859375,-0.0006566522642970085,-0.00032260455191135406,-0.0002710609696805477
1746734327515997200,0.0849970703125,-0.0006337491795420647,0.000009758397936820984,-0.0009046271443367004
1746734327525964000,0.094964111328125,-0.00011284928768873215,0.0006356057710945606,-0.00008195498958230019
1746734327535931100,0.10493115234375,-0.0008739810436964035,-0.00042007118463516235,-0.0029621636494994164
1746734327545898200,0.114898193359375,-0.0005391882732510567,0.0006668758578598499,0.00014299247413873672
1746734327555865000,0.124864990234375,-0.0010523791424930096,-0.0007640402764081955,0.0004188958555459976
1746734327565831200,0.1348310546875,-0.0005978415720164776,-0.0001787855289876461,0.00023226533085107803
1746734327575798000,0.144798095703125,0.001139072235673666,-0.00009862426668405533,-0.0007041022181510925
1746734327585765000,0.15476513671875,0.0007735549006611109,-0.00002893945202231407,-0.0003499952144920826
1746734327595732200,0.164732177734375,-0.0010951855219900608,0.00044989679008722305,-0.0005840868689119816
1746734327605699000,0.174698974609375,-0.0019366447813808918,0.00032637733966112137,0.000013601034879684448
1746734327615665200,0.1846650390625,-0.00004100659862160683,-0.001156737096607685,-0.0019179899245500565
1746734327625632000,0.194632080078125,0.000991520006209612,0.00010601850226521492,-0.000024120323359966278
1746734327635599000,0.20459912109375,0.0003486329223960638,-0.0018506059423089027,-0.0005389093421399593
1746734327645566200,0.214566162109375,0.002234508516266942,0.0017055817879736423,0.0013615286443382502
1746734327655533000,0.224532958984375,-0.0003444966860115528,0.0004709404893219471,0.0008952091448009014
1746734327665499100,0.2344990234375,0.0010456081945449114,0.0004780660383403301,-0.00037314556539058685
1746734327675466000,0.244466064453125,-0.0006676032207906246,0.00024823518469929695,0.0004457766190171242
1746734327685433000,0.25443310546875,0.0001774763222783804,0.00040418049320578575,0.0001277257688343525
1746734327695400200,0.264400146484375,-0.00025395583361387253,-0.001252305693924427,-0.0004781433381140232
1746734327705367000,0.274366943359375,0.0014513398054987192,0.000821803230792284,0.0009013316594064236
1746734327715333000,0.2843330078125,0.000822301022708416,-0.002067726571112871,-0.0011506341397762299
1746734327725300000,0.294300048828125,-0.000552074983716011,-0.001386756543070078,-0.0004221550188958645
1746734327735267000,0.30426708984375,0.0005648548249155283,-0.00029592541977763176,0.00022499309852719307
1746734327745234000,0.31423388671875,0.002125066239386797,0.0011089220643043518,0.00011510355398058891
1746734327755201000,0.324200927734375,-0.0019524996168911457,-0.0006399760022759438,-0.0013589560985565186
1746734327765167400,0.33416748046875,0.0018414671067148447,-0.001133497804403305,0.0011652891989797354
1746734327775134200,0.34413427734375,-0.0006826766766607761,-0.00016490602865815163,-0.00007840711623430252
1746734327785101000,0.35410107421875,0.0004662242718040943,-0.0009018764831125736,0.0017200133297592402
1746734327795068000,0.36406787109375,-0.0011047744192183018,0.0002957470715045929,0.00005021132528781891
1746734327805035000,0.374034912109375,0.0004242737777531147,-0.0010384186170995235,-0.00082427728921175
1746734327815001000,0.3840009765625,-0.0005669547244906425,0.0009315214119851589,-0.0003909808583557606
1746734327824968200,0.39396826171875,-0.0002974546514451504,-0.00045857159420847893,-0.00018953299149870872
1746734327834935300,0.403935302734375,0.0007558257784694433,-0.0007475246675312519,-0.00040658097714185715
1746734327844902100,0.413902099609375,-0.00037983059883117676,-0.00037956610321998596,-0.002509902697056532
1746734327854869200,0.423869140625,0.0010231228079646826,-0.0006378930993378162,0.00011224532499909401
1746734327864835000,0.4338349609375,0.0011239559389650822,-0.001699439948424697,-0.0006726495921611786
1746734327874802200,0.44380224609375,-0.0000028274953365325928,-0.0007273862138390541,-0.0010193930938839912
1746734327884769000,0.45376904296875,-0.0014445800334215164,-0.00017701787874102592,-0.0005001388490200043
1746734327894736000,0.46373583984375,0.0002465273719280958,-0.0004824823699891567,-0.002212551422417164
1746734327904703000,0.473702880859375,0.00010232580825686455,0.00042878836393356323,-0.0015284214168787003
1746734327914668800,0.483668701171875,-0.0008838428184390068,-0.001100398600101471,-0.0005297362804412842
1746734327924636000,0.493635986328125,-0.0010950290597975254,-0.00016339309513568878,-0.0006564520299434662
1746734327934603000,0.50360302734375,-0.0007339045405387878,-0.0003428901545703411,-0.0010974719189107418
1746734327944569900,0.51356982421875,0.0004637199454009533,0.000961989164352417,0.0006560850888490677
1746734327954537000,0.523536865234375,0.0005169832147657871,-0.0017376570031046867,-0.0016723163425922394
1746734327964502800,0.533502685546875,-0.0016961502842605114,0.00007839174941182137,-0.00014164485037326813
1746734327974470000,0.543469970703125,-0.0003858748823404312,-0.0012531890533864498,-0.0002766670659184456
1746734327984437000,0.55343701171875,0.0015864297747612,0.0013867206871509552,0.0008459868840873241
1746734327994403800,0.56340380859375,-0.000022652093321084976,0.001111882273107767,-0.0003002374432981014
1746734328004371000,0.573370849609375,0.0005485927686095238,0.0005805594846606255,-0.0001748679205775261
1746734328014336800,0.583336669921875,-0.0010975073091685772,-0.0004596710205078125,-0.0007652905769646168
1746734328024303900,0.593303955078125,-0.0035336087457835674,-0.0004553515464067459,-0.00022363290190696716
1746734328034271000,0.60327099609375,0.0007953597232699394,-0.000678524374961853,-0.000809262041002512
1746734328044237800,0.61323779296875,0.00013270415365695953,0.0004991013556718826,0.0005358508788049221
1746734328054205000,0.623204833984375,0.0010243305005133152,0.00008870847523212433,-0.00013633118942379951
1746734328064170800,0.633170654296875,0.0014462706167250872,-0.0006024260073900223,0.0001360783353447914
1746734328074137900,0.643137939453125,-0.0001015583984553814,-0.0009539634920656681,-0.0003464864566922188
1746734328084105000,0.65310498046875,-0.00042951107025146484,-0.0010841907933354378,-0.00002574501559138298
1746734328094071800,0.66307177734375,0.0010813004337251186,0.0011150478385388851,-0.00011975457891821861
1746734328104039000,0.673038818359375,0.000719842966645956,0.00019918614998459816,0.00017103832215070724
1746734328114004700,0.683004638671875,-0.00013529788702726364,0.0010860185138881207,0.00042244093492627144
1746734328123971800,0.692971923828125,0.0006441008299589157,0.0008422890678048134,-0.0012296256609261036
1746734328133939000,0.70293896484375,0.0003540825564414263,-0.00012017739936709404,0.00016400637105107307
1746734328143905800,0.71290576171875,0.002070391084998846,0.0012333989143371582,0.0004512704908847809
1746734328153873000,0.722872802734375,0.001187287038192153,0.0006064907647669315,-0.0013184002600610256
1746734328163839000,0.7328388671875,-0.0019172257743775845,-0.0009647393599152565,-0.00032484764233231544
1746734328173806000,0.74280615234375,-0.00043650856241583824,0.0005543273873627186,-0.0004281783476471901
1746734328183773000,0.75277294921875,-0.00027329567819833755,0.001889761071652174,-0.0005878470838069916
1746734328193739800,0.76273974609375,0.0006337768863886595,0.00044153397902846336,0.00030937185510993004
1746734328203707000,0.772706787109375,-0.000045085325837135315,-0.0006102239713072777,-0.000339265912771225
1746734328213673700,0.782673828125,-0.000006735790520906448,0.0004116310738027096,0.00013051601126790047
1746734328223640000,0.79264013671875,-0.0011065988801419735,0.0005184239707887173,0.00003043701872229576
1746734328233607000,0.80260693359375,0.001067606033757329,0.0010931342840194702,0.0011974340304732323
1746734328243574000,0.812573974609375,-0.001885042991489172,-0.0008059660904109478,-0.0005337116308510303
1746734328253541000,0.822541015625,-0.000037608202546834946,0.00007314328104257584,-0.000060467980802059174
1746734328263508000,0.832508056640625,0.0007136117201298475,0.00021114014089107513,0.00025293976068496704
1746734328273474000,0.84247412109375,0.0004832481499761343,-0.0010458719916641712,-0.000843217596411705
1746734328283441000,0.85244091796875,-0.00022500986233353615,0.00014748750254511833,0.00020190328359603882
1746734328293408000,0.862407958984375,0.001071949489414692,0.0008276589214801788,-0.00001381291076540947
1746734328303375000,0.872375,0.00011511147022247314,0.000585565809160471,0.0006554229184985161
1746734328313341000,0.8823408203125,-0.00021858280524611473,-0.0006956811994314194,0.00028737401589751244
1746734328323308000,0.89230810546875,0.0003242653328925371,0.00028779543936252594,-0.0006874599494040012
1746734328333275000,0.90227490234375,-0.0001540384255349636,-0.00046454789116978645,-0.0006160871125757694
1746734328343242000,0.912241943359375,0.0008827992714941502,-0.000012895092368125916,-0.000058525241911411285
1746734328353209000,0.922208984375,-0.00010177120566368103,-0.0005814800970256329,0.000613123644143343
1746734328363176000,0.932176025390625,-0.0004902179352939129,-0.00014597782865166664,0.0009152060374617577
1746734328373142000,0.94214208984375,-0.0012843725271522999,0.00007826043292880058,-0.0007474054582417011
1746734328383108900,0.95210888671875,0.001115106511861086,-0.00016599521040916443,0.0003910898230969906
1746734328393076000,0.962075927734375,0.0011340149212628603,0.001311260275542736,0.00040786806493997574
1746734328403043000,0.97204296875,0.0006259020883589983,-0.000021572690457105637,-0.0012555643916130066
1746734328413010000,0.982010009765625,-0.0004947562702000141,-0.0001954766921699047,0.0016150567680597305
1746734328422976000,0.99197607421875,-0.0007143337279558182,0.000271619763225317,-0.000304199755191803
1746734328432942800,1.00194287109375,0.0010223137214779854,0.0007802834734320641,0.0000041942112147808075
1746734328442910000,1.011909912109375,-0.0016457298770546913,-0.00033795740455389023,-0.00028325989842414856
1746734328452876800,1.021876708984375,-0.0005338601768016815,0.00022157281637191772,0.0016595162451267242
1746734328462844000,1.031843994140625,0.0005067475140094757,-0.00002150796353816986,0.001421009423211217
1746734328472810000,1.04181005859375,-0.0006171064451336861,0.00030339788645505905,-0.002410213928669691
1746734328482776800,1.05177685546875,-0.0006716963835060596,0.0004344475455582142,-0.00005747377872467041
1746734328492744000,1.061743896484375,-0.00017501693218946457,-0.00022175535559654236,-0.0008513620123267174
1746734328502710800,1.071710693359375,-0.0006511826068162918,-0.0013353254180401564,-0.001176371704787016
1746734328512678000,1.081677978515625,0.0025462089106440544,-0.0009928429499268532,0.0005653356201946735
1746734328522643700,1.091643798828125,-0.0013959198258817196,-0.00010936660692095757,0.0006944942288100719
1746734328532610800,1.10161083984375,0.0017743073403835297,0.00011540437117218971,-0.00040911976248025894
1746734328542578000,1.111577880859375,-0.00029493914917111397,-0.0004200437106192112,0.0008199959993362427
1746734328552544800,1.121544677734375,0.0007988209836184978,0.0004148571752011776,-0.00046231597661972046
1746734328562512000,1.131511962890625,0.000035832636058330536,0.00035827048122882843,-0.0005959612317383289
1746734328572477700,1.141477783203125,-0.001465924084186554,0.0005785138346254826,-0.0002811755985021591
1746734328582444800,1.15144482421875,0.0002726081293076277,0.00004930887371301651,-0.0005788551643490791
1746734328592412000,1.161411865234375,0.00033093150705099106,0.0005140309222042561,0.0019990848377346992
1746734328602378800,1.171378662109375,-0.00025313906371593475,-0.0009981580078601837,0.00011392217129468918
1746734328612345000,1.181344970703125,0.0014677955769002438,0.00017762742936611176,0.0008540148846805096
1746734328622312000,1.19131201171875,0.0011182641610503197,0.0018035252578556538,-0.001242038793861866
1746734328632279000,1.201279052734375,0.0014098803512752056,0.001284741796553135,-0.00047265179455280304
1746734328642246000,1.211245849609375,-0.0005733417347073555,-0.0002513360232114792,0.0008489210158586502
1746734328652212700,1.221212646484375,0.0006527774967253208,-0.0007448201067745686,0.0005391957238316536
1746734328662179000,1.231178955078125,0.0005892293993383646,0.0000135861337184906,0.0006725047715008259
1746734328672146000,1.24114599609375,-0.0007359595037996769,0.0007795109413564205,0.001392090693116188
1746734328682113000,1.251113037109375,0.0005528021138161421,-0.0006478396244347095,-0.0009730332531034946
1746734328692080000,1.261080078125,0.000007919501513242722,0.00052208686247468,-0.0005983263254165649
1746734328702047000,1.271046875,0.00047320500016212463,0.00015367986634373665,0.0010647070594131947
1746734328712013000,1.281012939453125,-0.0007672952488064766,0.00039922306314110756,-0.001436267513781786
1746734328721980000,1.29097998046875,0.00002660835161805153,0.00009731855243444443,0.0006115320138633251
1746734328731947000,1.300947021484375,-0.0002831174060702324,0.0008829510770738125,0.0004309695214033127
1746734328741914000,1.3109140625,0.0004280153661966324,0.0009001391008496284,-0.00024794507771730423
1746734328751881000,1.320880859375,0.0017787707038223743,0.0008495389483869076,0.00010119518265128136
1746734328761847000,1.330846923828125,-0.0008631679229438305,-0.0003462242893874645,-0.0031128129921853542
1746734328771814000,1.34081396484375,-0.00007354049012064934,0.0010474077425897121,0.0009288005530834198
1746734328781781000,1.350781005859375,0.00012465426698327065,0.00048757437616586685,-0.0014905128628015518
1746734328791747800,1.360747802734375,0.00042798835784196854,0.0011166129261255264,0.000698871910572052
1746734328801715000,1.37071484375,0.00005725538358092308,0.0009814524091780186,-0.0004945024847984314
1746734328811682000,1.38068212890625,0.00011291517876088619,-0.0004273601807653904,-0.0004790560342371464
1746734328821648000,1.39064794921875,-0.0007639913819730282,0.00004171207547187805,0.0006034867838025093
1746734328831615000,1.400614990234375,0.000045876018702983856,0.0003192136064171791,-0.0009776321239769459
1746734328841581800,1.410581787109375,-0.0009689917787909508,-0.001221293117851019,-0.0003361455164849758
1746734328851549000,1.420548828125,0.0009117324370890856,0.00012040743604302406,-0.00043201958760619164
1746734328861516000,1.43051611328125,0.0005456551443785429,0.0007662279531359673,0.0006130263209342957
1746734328871481900,1.44048193359375,-0.000984331127256155,-0.0008420548401772976,0.0009320732206106186
1746734328881449000,1.450448974609375,0.0001315923873335123,0.0012705898843705654,0.0014448761940002441
1746734328891416000,1.460416015625,0.0007683541625738144,0.000008517876267433167,-0.0007927119731903076
1746734328901383000,1.4703828125,-0.000638818833976984,0.000580701045691967,-0.00042400648817420006
1746734328911350000,1.48035009765625,0.0004671919159591198,0.0013317125849425793,-0.00029537593945860863
1746734328921315800,1.49031591796875,0.001543994527310133,0.000021563377231359482,0.0006670202128589153
1746734328931283000,1.500282958984375,0.0002915097866207361,0.0013371650129556656,0.00026727980002760887
1746734328941250000,1.51025,-0.000025657005608081818,0.0002256985753774643,-0.00024250242859125137
1746734328951217000,1.520216796875,0.0009658378548920155,0.0018472974188625813,0.0011271610856056213
1746734328961184000,1.53018408203125,0.0006828815676271915,0.0006997240707278252,-0.0005975677631795406
1746734328971149800,1.54014990234375,-0.002338740974664688,0.0012850873172283173,0.0009577181190252304
1746734328981117000,1.550116943359375,-0.0007698838599026203,0.00038848165422677994,0.0003921249881386757
1746734328991084000,1.560083984375,0.0016043244395405054,0.0005722399801015854,0.0006150314584374428
1746734329001051000,1.57005078125,0.00024690432474017143,0.0003911261446774006,0.0001958436332643032
1746734329011018000,1.58001806640625,-0.0004303376190364361,0.0001538386568427086,0.00006375089287757874
1746734329020983800,1.58998388671875,-0.0005188621580600739,-0.0008690669201314449,0.0002482868731021881
1746734329030951000,1.599950927734375,0.0014681222382932901,0.0009354907087981701,-0.0010811630636453629
1746734329040918000,1.60991796875,-0.0009031714871525764,0.0012892261147499084,0.0005583558231592178
1746734329050884900,1.619884765625,-0.000046166591346263885,0.001087890937924385,-0.0007918667979538441
1746734329060852000,1.62985205078125,-0.0009492943063378334,0.0006436426192522049,0.00027201417833566666
1746734329070818000,1.639818115234375,-0.00026725884526968,-0.0010887440294027328,-0.0004323921166360378
1746734329080785200,1.64978515625,-0.0007998468354344368,-0.0019454553257673979,0.0007374384440481663
1746734329090752000,1.659751953125,-0.00046109315007925034,0.0015731127932667732,0.00036752549931406975
1746734329100718800,1.66971875,-0.0006527286022901535,0.001408588606864214,0.0006513651460409164
1746734329110686000,1.67968603515625,0.00008390191942453384,0.00044052954763174057,-0.0008815503679215908
1746734329120652000,1.689652099609375,0.0005881215911358595,0.00045895297080278397,0.0003460170701146126
1746734329130619100,1.699619140625,0.0006485753692686558,0.0006107529625296593,0.00015027495101094246
1746734329140586000,1.7095859375,0.0015278556384146214,-0.0006942483596503735,-0.001134009100496769
1746734329150553000,1.719552978515625,0.0015504925977438688,0.0007720883004367352,-0.0008373325690627098
1746734329160520200,1.729520263671875,0.000023685861378908157,0.0010106181725859642,0.00032101990655064583
1746734329170486000,1.739486083984375,-0.0014258725568652153,0.000029509887099266052,-0.0001466311514377594
1746734329180453000,1.749453125,0.0019612114410847425,-0.00016081193462014198,-0.00031447364017367363
1746734329190420000,1.759419921875,-0.0006265821866691113,0.00029245810583233833,-0.002150989603251219
1746734329200387000,1.769386962890625,0.001551872817799449,0.00026997877284884453,-0.0001849285326898098
1746734329210354200,1.779354248046875,0.0004645043518394232,-0.0008765123784542084,0.0013362690806388855
1746734329220321000,1.789321044921875,0.0008640589658170938,0.0006907433271408081,-0.0006863069720566273
1746734329230287000,1.799287109375,0.00009626941755414009,-0.0005193972028791904,-0.0000735139474272728
1746734329240254000,1.80925390625,0.0018337499350309372,-0.0012918622232973576,0.0003621308133006096
1746734329250221000,1.819220947265625,0.00013571837916970253,0.0007009813562035561,-0.00012283120304346085
1746734329260188200,1.829188232421875,-0.0002931240014731884,-0.0010915165767073631,-0.0011576632969081402
1746734329270155000,1.839155029296875,-0.0005189604125916958,-0.00009655952453613281,-0.0010740403085947037
1746734329280121000,1.84912109375,0.0001693123485893011,0.0008850013837218285,0.00009584007784724236
1746734329290088000,1.859087890625,0.0010289805941283703,0.0006341314874589443,0.0020447412971407175
1746734329300055000,1.869054931640625,0.0011601813603192568,-0.000660942867398262,-0.0012526996433734894
1746734329310022100,1.879022216796875,0.00005017593502998352,0.0002618422731757164,0.0016221825499087572
1746734329319989000,1.888989013671875,-0.0013573579490184784,-0.00018909526988863945,0.0006043026223778725
1746734329329955000,1.898955078125,0.00013640918768942356,0.000521169975399971,-0.0006716176867485046
1746734329339922000,1.908921875,0.0012573061976581812,-0.001157030463218689,-0.00009814370423555374
1746734329349889000,1.918888916015625,0.0009481131564825773,0.0001591038890182972,0.00040066661313176155
1746734329359855900,1.92885595703125,0.0008411421440541744,0.0011164816096425056,-0.000360079575330019
1746734329369823000,1.938822998046875,0.002029710914939642,0.0005191345699131489,-0.0012184162624180317
1746734329379789000,1.9487890625,-0.0000069444067776203156,0.0005494598299264908,-0.00018606334924697876
1746734329389756000,1.958755859375,-0.0009944443590939045,-0.0007216669619083405,-0.0005021807737648487
1746734329399723000,1.968722900390625,0.001279974589124322,0.001229721587151289,0.00018914788961410522
1746734329409689900,1.97868994140625,-0.0002819695509970188,0.00024994462728500366,0.002181724878028035
1746734329419657000,1.988656982421875,-0.0002555921673774719,-0.00021761050447821617,0.0008882400579750538
1746734329429622800,1.998622802734375,-0.001016190741211176,0.00037121446803212166,-0.00021777069196105003
1746734329439590000,2.00858984375,0.0013052586000412703,0.0006632632575929165,-0.0003793463110923767
1746734329449557000,2.018556884765625,0.0008381400257349014,-0.0004299646243453026,0.00025155674666166306
1746734329459523800,2.02852392578125,-0.0008165240287780762,0.0005203834734857082,-0.001351999118924141
1746734329469491000,2.038490966796875,0.00015632878057658672,-0.0011456902138888836,-0.0009852820076048374
1746734329479457000,2.04845703125,-0.000863752793520689,-0.00004608882591128349,-0.00012671714648604393
1746734329489424000,2.058423828125,0.0005895341746509075,0.0012205103412270546,0.00012947898358106613
1746734329499391000,2.068390869140625,-0.00024175317957997322,0.0008337884210050106,0.00006362330168485641
1746734329509357800,2.07835791015625,-0.0006164601072669029,0.001501709222793579,-0.0009153545834124088
1746734329519325000,2.088324951171875,0.0005301414057612419,-0.00038270512595772743,-0.00009198253974318504
1746734329529291000,2.098291015625,0.0001889904960989952,0.0003051892854273319,0.000994587317109108
1746734329539258000,2.108258056640625,0.0003543111961334944,-0.0007863696664571762,-0.00021670199930667877
1746734329549225200,2.11822509765625,0.000593995675444603,-0.00020553404465317726,-0.002210610546171665
1746734329559192000,2.128192138671875,0.0015394289512187243,-0.0001539723016321659,-0.0009120372124016285
1746734329569159000,2.138158935546875,0.0005468688905239105,0.0015469887293875217,0.0008222130127251148
1746734329579125000,2.148125,-0.0016627744771540165,0.000680016353726387,0.001413870370015502
1746734329589092000,2.158092041015625,-0.00027526775375008583,0.0011412757448852062,-0.000030362047255039215
1746734329599059200,2.16805908203125,-0.0005194703117012978,-0.0006959349848330021,-0.0006213760934770107
1746734329609026000,2.178026123046875,0.0009769597090780735,0.0003967601805925369,-0.000010979361832141876
1746734329618993200,2.1879931640625,-0.0008699614554643631,0.001290060579776764,-0.0009377780370414257
1746734329628959000,2.197958984375,0.0010222143027931452,-0.0011118445545434952,-0.00033217528834939003
1746734329638926000,2.207926025390625,-0.0012252265587449074,-0.0004191724583506584,-0.0001577376388013363
1746734329648893000,2.217892822265625,0.0021812226623296738,-0.0005486020818352699,-0.000009399373084306717
1746734329658860000,2.227860107421875,-0.0012886878103017807,-0.00009198905900120735,-0.0005443901754915714
1746734329668827100,2.2378271484375,0.00032625324092805386,0.0001101451925933361,-0.000985143706202507
1746734329678793000,2.24779296875,0.000419325428083539,0.00038503436371684074,0.0008175969123840332
1746734329688760000,2.257760009765625,-0.00003793928772211075,0.0010383077897131443,-0.000007450580596923828
1746734329698727000,2.267726806640625,0.00005748448893427849,0.00005205255001783371,-3.543682396411896e-7
1746734329708694000,2.277694091796875,0.00048305769450962543,0.0008744364604353905,-0.001129800919443369
1746734329718661000,2.2876611328125,0.0003490906674414873,0.0004088995046913624,-0.000028297770768404007
1746734329728627000,2.297626953125,-0.0004141712561249733,0.0006099683232605457,-0.00019767461344599724
1746734329738594000,2.307593994140625,-0.0008787941187620163,-0.000472433865070343,0.0002079675905406475
1746734329748561000,2.317560791015625,-0.00021167239174246788,0.00023570097982883453,-0.0009678183123469353
1746734329758528000,2.327528076171875,0.00006165308877825737,-0.0004661940038204193,0.0005522635765373707
1746734329768495000,2.3374951171875,0.0006872296798974276,-0.0009626075625419617,-0.0004898314364254475
1746734329778461000,2.3474609375,-0.0005074786022305489,0.0013551977463066578,0.0009441319853067398
1746734329788428000,2.357427978515625,-0.00049948925152421,-0.00009515974670648575,-0.0009608273394405842
1746734329798395000,2.367394775390625,-0.0012618904002010822,-0.0001131650060415268,0.00011085625737905502
1746734329808362000,2.377362060546875,-0.0012248721905052662,0.00027831969782710075,0.0013761238660663366
1746734329818329000,2.3873291015625,-0.000337846577167511,-0.000671864952892065,0.0001982622779905796
1746734329828295000,2.397294921875,0.001006250735372305,-0.0008308556862175465,-0.0009181350469589233
1746734329838262000,2.407261962890625,-0.0008826805278658867,-0.00029825884848833084,-0.0013589579612016678
1746734329848228900,2.417228759765625,-0.00005097547546029091,-0.00009692367166280746,-0.0008747950196266174
1746734329858196000,2.427196044921875,-0.0010525011457502842,-0.0010753870010375977,-0.0009391112253069878
1746734329868163000,2.4371630859375,0.0010673750657588243,-0.000460995826870203,0.0005679712630808353
1746734329878129000,2.44712890625,0.0010935110040009022,-0.0000019865110516548157,-0.001355989370495081
1746734329888095700,2.457095703125,0.000495365122333169,-0.00042569544166326523,-0.00008406350389122963
1746734329898062800,2.467062744140625,-0.0010581822134554386,0.0008841138333082199,0.0002279495820403099
1746734329908030000,2.477030029296875,-0.0016462081111967564,0.0006572124548256397,0.00018800236284732819
1746734329917996000,2.48699609375,0.0011849673464894295,-0.0006508338265120983,0.00012301886454224586
1746734329927963100,2.496963134765625,0.0003846874460577965,-0.0002782577648758888,-0.0010338583961129189
1746734329937930000,2.506929931640625,0.00008417526260018349,0.0005544042214751244,0.000007441733032464981
1746734329947896800,2.516896728515625,0.0005249283276498318,0.0010494859889149666,-0.0014290674589574337
1746734329957863700,2.52686376953125,0.001063656061887741,0.00015685800462961197,-0.0010849693790078163
1746734329967830000,2.536830078125,-0.000532110221683979,-0.0004689847119152546,0.000399742741137743
1746734329977797000,2.546797119140625,-0.00009953463450074196,0.0002498137764632702,0.000513977836817503
1746734329987764000,2.556763916015625,-0.0006729131564497948,0.0009899064898490906,-0.00009748386219143867
1746734329997731000,2.56673095703125,-0.00025482894852757454,-0.00010315375402569771,0.0010693920776247978
1746734330007698000,2.576697998046875,0.0013798195868730545,-0.00006826641038060188,0.000022503547370433807
1746734330017664000,2.5866640625,0.0006701159290969372,-0.0003231288865208626,-0.000812542624771595
1746734330027630800,2.596630859375,0.00017636572010815144,0.001152795273810625,0.00026124389842152596
1746734330037598000,2.606597900390625,-0.000834297388792038,0.0005223434418439865,-0.00044626742601394653
1746734330047565000,2.61656494140625,-0.0004987390711903572,0.00020702555775642395,-0.0025437730364501476
1746734330057532000,2.626531982421875,-0.0015343064442276955,0.0013160943053662777,-0.000005132053047418594
1746734330067498000,2.636498046875,0.000986375380307436,0.000030053779482841492,-0.0004482818767428398
1746734330077464800,2.64646484375,0.00023112259805202484,-0.0013202647678554058,0.0009549884125590324
1746734330087432000,2.656431884765625,0.000005286652594804764,-0.00018629059195518494,-0.0006959051825106144
1746734330097399000,2.66639892578125,-0.00008527608588337898,0.0002796645276248455,-0.00033201416954398155
1746734330107366000,2.676365966796875,0.000047083012759685516,0.0013638376258313656,-0.001800747588276863
1746734330117332000,2.68633203125,0.001330614322796464,-0.00003455905243754387,-0.00013736775144934654
1746734330127298800,2.696298828125,-0.00022999802604317665,-0.0000816970132291317,0.00026184041053056717
1746734330137266000,2.706265869140625,0.0005597567651420832,0.0012323250994086266,0.0010669706389307976
1746734330147233000,2.71623291015625,0.0022612502798438072,-0.00043854210525751114,0.00124700041487813
1746734330157200000,2.726199951171875,0.0007670670747756958,-0.0003383597359061241,-0.00007667439058423042
1746734330167166000,2.736166015625,-0.0002958006225526333,0.0012829727493226528,-0.0010343468748033047
1746734330177132800,2.7461328125,-0.000947373453527689,-0.0009599514305591583,0.0008859154768288136
1746734330187100000,2.756099853515625,0.0008132425136864185,0.0009146477095782757,-0.0015154569409787655
1746734330197067000,2.76606689453125,0.0005300850607454777,-0.0002941046841442585,-0.0006067147478461266
1746734330207032800,2.77603271484375,0.0008264950010925531,0.0004955227486789227,-0.000504183117300272
1746734330217000000,2.786,-0.0002988716587424278,-0.00007888348773121834,-0.00014295382425189018
1746734330226966800,2.795966796875,0.0009269814472645521,0.0010513621382415295,-0.0004289774224162102
1746734330236934000,2.805933837890625,0.0016743126325309277,-0.00012793252244591713,0.0006568138487637043
1746734330246900700,2.815900634765625,0.00091344746761024,-0.000052298884838819504,-0.00012402469292283058
1746734330256866800,2.82586669921875,-0.0006139925681054592,-0.0006829085759818554,-0.001112646423280239
1746734330266834000,2.835833984375,0.000008654315024614334,0.001587436068803072,0.00040109455585479736
1746734330276800800,2.84580078125,0.000051730312407016754,0.0002949214540421963,0.0003531347028911114
1746734330286767900,2.855767822265625,0.0015644058585166931,0.0008134390227496624,0.0008807065896689892
1746734330296734700,2.865734619140625,-0.0022822623141109943,-0.0000502951443195343,-0.001003738958388567
1746734330306701000,2.875701171875,0.00029541109688580036,-0.0005594911053776741,0.00009880959987640381
1746734330316668200,2.885668212890625,0.0011582141742110252,-0.0005721487104892731,-0.001044378150254488
1746734330326635000,2.895635009765625,-0.00018907897174358368,-0.0007628309540450573,-0.0006297240033745766
1746734330336601900,2.905601806640625,0.0003884807229042053,-0.001049112994223833,-0.00026271864771842957
1746734330346568700,2.915568603515625,-0.0009638727642595768,0.001047593541443348,-0.0005127894692122936
1746734330356535000,2.92553515625,-0.001710446085780859,0.001278263982385397,-0.001013458240777254
1746734330366502000,2.935501953125,0.0002256717998534441,0.0001323055475950241,-0.00035725533962249756
1746734330376469000,2.945468994140625,-0.0011176364496350288,-0.00006826454773545265,0.001466328976675868
1746734330386436000,2.95543603515625,-0.00015357183292508125,0.00010377587750554085,-0.00024475203827023506
1746734330396402000,2.96540185546875,-0.0011522886343300343,-0.0016066418029367924,-0.0010442775674164295
1746734330406369000,2.975369140625,-0.00042231660336256027,-0.0007515009492635727,0.0006905053742229939
1746734330416336000,2.9853359375,0.00021445960737764835,-0.0012728990986943245,-0.0020611435174942017
1746734330426303000,2.995302978515625,0.0011854481417685747,0.0003630807623267174,-0.0015391637571156025
1746734330436270000,3.00527001953125,-0.000005362555384635925,0.00032484112307429314,-0.0007434883154928684
1746734330446236000,3.01523583984375,0.0018849489279091358,0.0009608040563762188,0.0004080627113580704
1746734330456203000,3.025203125,0.0008542947471141815,0.0003435160033404827,-0.0002754470333456993
1746734330466169900,3.035169921875,-0.00036330241709947586,0.001022089272737503,-0.0006967592053115368
1746734330476137000,3.045136962890625,0.000168174272403121,-0.0012889327481389046,-0.0011212551034986973
1746734330486104000,3.05510400390625,-0.00046698935329914093,0.0002993764355778694,0.0003384235315024853
1746734330496070000,3.06506982421875,0.0011175940744578838,0.0006793620996177197,-0.00042058853432536125
1746734330506037000,3.075037109375,-0.0011431630700826645,0.00024153850972652435,0.0003834199160337448
1746734330516003800,3.08500390625,-0.0007499409839510918,0.0012865345925092697,-0.0002522403374314308
1746734330525971000,3.094970947265625,0.0008090734481811523,0.0008274056017398834,0.0008697495795786381
1746734330535938000,3.10493798828125,-0.0008132527582347393,0.0005292338319122791,-0.00004035327583551407
1746734330545903900,3.11490380859375,0.0009404385928064585,0.00005252799019217491,0.00009706616401672363
1746734330555871000,3.12487109375,0.00023766211234033108,-0.0005812267772853374,-0.0011211829259991646
1746734330565837800,3.134837890625,0.0016491375863552094,-0.0006265002302825451,0.0006389003247022629
1746734330575805000,3.144804931640625,0.0003481588792055845,-0.0020298606250435114,-0.00012912927195429802
1746734330585771800,3.154771728515625,-0.00046916538849473,-0.00015020137652754784,-0.0010183588601648808
1746734330595737900,3.16473779296875,0.00023947679437696934,0.000723585020750761,-0.0010083331726491451
1746734330605705000,3.174705078125,-0.00042285118252038956,0.0003707162104547024,-0.0009457487612962723
1746734330615671800,3.184671875,0.0009126325603574514,0.00015556812286376953,-0.000680017750710249
1746734330625639000,3.194638916015625,-0.000938796903938055,0.0014687729999423027,0.0015810062177479267
1746734330635604700,3.204604736328125,0.001690129516646266,0.0012574619613587856,-0.00021700747311115265
1746734330645571800,3.21457177734375,-0.001395675353705883,-0.0013058306649327278,0.001237611286342144
1746734330655538700,3.22453857421875,0.0007574011106044054,-0.0018850888591259718,-0.0009120292961597443
1746734330665505800,3.234505859375,0.0002633847761899233,0.00020522624254226685,-0.0012028464116156101
1746734330675473000,3.244472900390625,0.0017451872117817402,0.0014009354636073112,-0.0007454864680767059
1746734330685439000,3.25443896484375,0.002326821442693472,0.001179093960672617,-0.000539091881364584
1746734330695406000,3.264406005859375,-0.0010787653736770153,0.0013307798653841019,0.0015843731816858053
1746734330705373000,3.274373046875,0.0016831988468766212,0.00040213530883193016,-0.001144567970186472
1746734330715339800,3.28433984375,-0.001920314971357584,0.0002572094090282917,-0.0010608495213091373
1746734330725307000,3.294306884765625,0.0003897107671946287,-0.0002642376348376274,-0.0012715058401226997
1746734330735273000,3.30427294921875,-0.0005544465966522694,-0.0003453395329415798,-0.000079302117228508
1746734330745240000,3.314239990234375,0.00020375545136630535,-0.00038129230961203575,-0.0001557348296046257
1746734330755207000,3.32420703125,-0.0009266897104680538,-0.000011079944670200348,-0.0009218808263540268
1746734330765174000,3.334174072265625,-0.000350115355104208,-0.00018232129514217377,-0.000059549231082201004
1746734330775139800,3.344139892578125,0.0014237761497497559,-0.0011189132928848267,0.00028189411386847496
1746734330785107000,3.35410693359375,0.0005641079042106867,-0.00020864512771368027,0.0005948157049715519
1746734330795074000,3.364073974609375,0.00032496429048478603,-0.0008032070472836494,0.00018203537911176682
1746734330805041000,3.374041015625,0.00047463388182222843,0.0005853651091456413,-0.0011929548345506191
1746734330815008000,3.384008056640625,-0.0008429279550909996,-0.00009433785453438759,0.0003045746125280857
1746734330824973800,3.393973876953125,0.0015682983212172985,0.0011142049916088581,0.000030535273253917694
1746734330834941000,3.40394091796875,-0.00109493313357234,-0.000017336569726467133,-0.0010369978845119476
1746734330844908000,3.413907958984375,0.0012342676054686308,-0.0018996587023139,-0.00147349014878273
1746734330854875000,3.423875,0.0014578120317310095,0.00012414809316396713,-0.0016909199766814709
1746734330864841000,3.433841064453125,0.0009323703125119209,0.0014535984955728054,-0.0014392510056495667
1746734330874807800,3.443807861328125,-0.0016961009241640568,-0.0012796111404895782,-0.0023678019642829895
1746734330884775700,3.453775634765625,-0.00012270500883460045,-0.00021487940102815628,-0.00040691671893000603
1746734330894742500,3.463742431640625,0.0012679453939199448,0.00013304408639669418,-0.00030323583632707596
1746734330904709600,3.473709716796875,0.000551555072888732,0.0011967108584940434,0.0002541639842092991
1746734330914675500,3.483675537109375,0.001091137994080782,0.00026243412867188454,-0.0004078531637787819
1746734330924642600,3.493642578125,0.001383020542562008,0.0002192910760641098,-0.00009306753054261208
1746734330934609700,3.503609619140625,-0.0009856317192316055,0.00010683480650186539,-0.0004082620143890381
1746734330944576500,3.513576416015625,0.0003755099605768919,-0.0006425785832107067,0.00010705972090363503
1746734330954543600,3.523543701171875,0.00025477143935859203,0.0006084339693188667,-0.0003036726266145706
1746734330964509400,3.533509521484375,0.00013386388309299946,0.00023266160860657692,-0.0007524155080318451
1746734330974476500,3.5434765625,0.0008140304125845432,0.00018520280718803406,-0.0004436857998371124
1746734330984443400,3.553443359375,-0.00003099068999290466,-0.00007525412365794182,-0.00003329245373606682
1746734330994410500,3.563410400390625,-0.0005796873010694981,0.00003576744347810745,-0.00010996730998158455
1746734331004376600,3.57337646484375,-0.0001655658707022667,0.002022219356149435,0.0002133403904736042
1746734331014343400,3.583343505859375,0.0006426579784601927,-0.000005037989467382431,-0.0006972583942115307
1746734331024310500,3.593310546875,0.0012043185997754335,0.00009749364107847214,-0.0010229633189737797
1746734331034277400,3.60327734375,-0.0003144852817058563,0.0004113782197237015,0.0002842317335307598
1746734331044244500,3.613244384765625,0.00026688259094953537,0.0007783621549606323,-0.0007677166722714901
1746734331054210300,3.623210205078125,-0.0010729762725532055,0.001131728757172823,-0.0014004521071910858
1746734331064177400,3.633177490234375,0.0012005646713078022,0.00044436659663915634,0.0006762808188796043
1746734331074144500,3.64314453125,0.0008804101962596178,-0.00006973603740334511,0.00012599723413586617
1746734331084111400,3.653111328125,0.000018611084669828415,0.0008091069757938385,-0.0018881512805819511
1746734331094078500,3.663078369140625,-0.0002328888513147831,0.0012239632196724415,-0.0006699780933558941
1746734331104044500,3.67304443359375,-0.0013428945094347,0.0003334023058414459,0.0007550790905952454
1746734331114011600,3.68301171875,-0.0005349437706172466,0.0002032434567809105,-0.00006563356146216393
1746734331123978500,3.692978515625,-0.0016324324533343315,-0.0017954588402062654,-0.0008704406209290028
1746734331133945300,3.7029453125,0.001416199142113328,0.0005120225250720978,0.0007826131768524647
1746734331143911700,3.71291162109375,0.0007767740171402693,0.0004968424327671528,-0.0005569569766521454
1746734331153878500,3.72287841796875,-0.0005464665591716766,-0.00016441987827420235,0.0003089732490479946
1746734331163845600,3.732845703125,0.0007241277489811182,-0.00009810738265514374,-0.0012156865559518337
1746734331173812700,3.742812744140625,-0.0005012326873838902,-0.0005734506994485855,-0.0005567190237343311
1746734331183779600,3.752779541015625,0.0007499202620238066,0.0005477401427924633,0.0005889730527997017
1746734331193745700,3.76274560546875,0.0007717390544712543,0.000507664866745472,-0.0005808677524328232
1746734331203712500,3.77271240234375,-0.0011494653299450874,-0.00020845886319875717,0.0004180837422609329
1746734331213679600,3.7826796875,0.00029485486447811127,-0.0004836311563849449,-0.0002122507430613041
1746734331223646700,3.792646728515625,0.0002967191394418478,0.0005765734240412712,0.00026392238214612007
1746734331233612500,3.802612548828125,0.00006454624235630035,-0.0005416129715740681,-0.0005281921476125717
1746734331243579600,3.81257958984375,-0.0006699534133076668,0.0006866366602480412,0.0001256139948964119
1746734331253546500,3.82254638671875,-0.0009124106727540493,-0.0003078239969909191,0.0003288225270807743
1746734331263513600,3.832513671875,0.0007131828460842371,-0.0000026258639991283417,-0.000078640878200531
1746734331273480700,3.842480712890625,0.00012439419515430927,0.00023415684700012207,0.00041368836537003517
1746734331283446500,3.852446533203125,0.0012320028617978096,-0.000024436041712760925,-0.0007610321044921875
1746734331293413600,3.86241357421875,0.0007661720737814903,0.0008270759135484695,-0.00044745393097400665
1746734331303380500,3.87238037109375,-0.00020561553537845612,0.00042094383388757706,0.0004604174755513668
1746734331313347600,3.88234765625,-0.0004657669924199581,0.0005412213504314423,-0.0005635209381580353
1746734331323313400,3.8923134765625,0.001924686599522829,0.00012736627832055092,-0.0015619397163391113
1746734331333280500,3.902280517578125,0.0015440017450600863,-0.00032776128500699997,-0.00047321664169430733
1746734331343247600,3.91224755859375,-0.0016150400042533875,-0.00012775789946317673,-0.0015930761583149433
1746734331353214500,3.92221435546875,-0.0009055137634277344,0.001229792833328247,-0.0007593696936964989
1746734331363181600,3.932181640625,-0.001595272682607174,0.0008452325128018856,0.0010670260526239872
1746734331373147400,3.9421474609375,-0.00033623818308115005,-0.0009583868086338043,0.0016805026680231094
1746734331383114500,3.952114501953125,-0.00013596843928098679,-0.0006894078105688095,-0.00014429539442062378
1746734331393081300,3.962081298828125,-0.00008014123886823654,-0.0006498796865344048,0.0019318226259201765
1746734331403048400,3.97204833984375,-0.0008974657393991947,-0.00042564189061522484,-0.0008820733055472374
1746734331413014500,3.9820146484375,0.0011471712496131659,0.0005179042927920818,-0.0005454258061945438
1746734331422981400,3.9919814453125,-0.00037882011383771896,0.00015837792307138443,0.001059394795447588
1746734331432948500,4.001948486328125,-0.0007875259034335613,0.00022101914510130882,-0.0000788150355219841
1746734331442915300,4.011915283203125,-0.0005331942811608315,-0.0008509033359587193,0.0009699380025267601
1746734331452882400,4.02188232421875,0.0011456857901066542,-0.0002988758496940136,0.0003118915483355522
1746734331462848500,4.0318486328125,0.0006679147481918335,-0.0005782414227724075,0.0014866117853671312
1746734331472815600,4.041815673828125,-0.00022032856941223145,-0.00016334187239408493,0.0001482008956372738
1746734331482782700,4.05178271484375,0.001208723522722721,0.0003767474554479122,0.0004579266533255577
1746734331492749600,4.06174951171875,-0.001466468907892704,0.001172762829810381,-0.00020142504945397377
1746734331502715600,4.071715576171875,-0.0016148071736097336,-0.00043978122994303703,0.0007455949671566486
1746734331512682500,4.0816826171875,-0.0008979029953479767,-0.0008004540577530861,-0.00005463697016239166
1746734331522649600,4.091649658203125,0.002639307640492916,0.0004520304501056671,0.0003155427984893322
1746734331532616700,4.10161669921875,-0.0012372825294733047,0.002180917654186487,0.000797465443611145
1746734331542583600,4.11158349609375,0.0006117499433457851,0.00025412067770957947,0.0010632486082613468
1746734331552549600,4.121549560546875,0.0014989182818681002,0.0001118956133723259,-0.0006294026970863342
1746734331562516500,4.1315166015625,0.0014395297039300203,0.00015716953203082085,0.00020230235531926155
1746734331572483600,4.141483642578125,-0.0004867962561547756,0.001167086884379387,0.0003358921967446804
1746734331582450700,4.15145068359375,0.00020669098012149334,0.00003870530053973198,-0.001180778257548809
1746734331592416500,4.16141650390625,-0.0019522286020219326,0.0002905186265707016,-0.0008384585380554199
1746734331602383600,4.171383544921875,0.0010981559753417969,0.0000777319073677063,-0.00021128403022885323
1746734331612350500,4.1813505859375,0.002399380784481764,0.0003799642436206341,-0.0003656279295682907
1746734331622317600,4.191317626953125,0.00019561476074159145,-0.00023629097267985344,-0.001107051968574524
1746734331632284700,4.20128466796875,0.0004978622309863567,-0.0013414593413472176,-0.00029238825663924217
1746734331642250500,4.21125048828125,-0.00027259020134806633,-0.0007166815921664238,0.0013537115883082151
1746734331652217600,4.221217529296875,0.0008450027089565992,-0.0001230211928486824,-0.000585577916353941
1746734331662184400,4.231184326171875,0.00037628645077347755,0.0002436959184706211,-0.00033204536885023117
1746734331672151600,4.241151611328125,-0.00029068998992443085,0.0014284965582191944,-0.0006003892049193382
1746734331682117400,4.251117431640625,0.00010372395627200603,-0.0004932400770485401,-0.0003588404506444931
1746734331692084500,4.26108447265625,0.0006700321100652218,0.0014938358217477798,-0.000020732171833515167
1746734331702051600,4.271051513671875,-0.0015598325990140438,-0.00041431933641433716,-0.00018930993974208832
1746734331712018400,4.281018310546875,-0.0001255297102034092,0.0011883457191288471,-0.0008492306806147099
1746734331721985500,4.290985595703125,-0.0006046323105692863,-0.00007292721420526505,-0.0001349705271422863
1746734331731951400,4.300951416015625,-0.0002605542540550232,0.0009278184734284878,-0.000348095316439867
1746734331741918500,4.31091845703125,-0.0007489779964089394,0.0006338055245578289,-0.0014176210388541222
1746734331751885600,4.320885498046875,-0.0011394559405744076,0.0006028404459357262,0.00018525775521993637
1746734331761852400,4.330852294921875,-0.001078736037015915,-0.00039424700662493706,-0.0006112935952842236
1746734331771818800,4.34081884765625,-0.0011245482601225376,-0.00006539560854434967,-0.00005274312570691109
1746734331781785600,4.35078564453125,0.0006645633839070797,-0.00103052519261837,-0.0009584841318428516
1746734331791752700,4.360752685546875,-0.0003644712269306183,-0.00031663384288549423,0.0012803238350898027
1746734331801719600,4.370719482421875,0.00012182188220322132,-0.001163518987596035,-0.00057936180382967
1746734331811686400,4.380686279296875,-0.0002914508804678917,0.001217784360051155,-0.001396185252815485
1746734331821652700,4.39065283203125,-0.001249922439455986,-0.0012128823436796665,-0.0005466369912028313
1746734331831619600,4.40061962890625,-0.00028087198734283447,0.0005025495775043964,-0.0008507617749273777
1746734331841586700,4.410586669921875,0.0018208948895335197,0.0004594065248966217,0.001061387825757265
1746734331851553500,4.420553466796875,-0.00038371235132217407,-0.000060249585658311844,-0.0005864482372999191
1746734331861519600,4.43051953125,0.00017581786960363388,-0.00047383876517415047,0.000969903077930212
1746734331871486500,4.440486572265625,0.0011903399135917425,0.0010279584676027298,0.00034595979377627373
1746734331881453600,4.45045361328125,-0.00015162676572799683,-0.0006767311133444309,0.0007600812241435051
1746734331891420400,4.46042041015625,-0.0016742171719670296,0.0007053562439978123,-0.0003718258813023567
1746734331901387500,4.470387451171875,0.0006435320246964693,0.0002241227775812149,0.001322743482887745
1746734331911353300,4.480353271484375,-0.0005971868522465229,0.00010949606075882912,0.00008771941065788269
1746734331921320400,4.490320556640625,-0.00024511711671948433,0.0007257517427206039,0.0004738778807222843
1746734331931287300,4.500287353515625,0.0010005789808928967,0.0011479044333100319,-0.0006666649132966995
1746734331941254400,4.51025439453125,0.0003608877304941416,0.000622196588665247,-0.0011385767720639706
1746734331951220200,4.52022021484375,0.00040101748891174793,-0.0003826553001999855,0.00026321597397327423
1746734331961187300,4.530187255859375,-0.00011137453839182854,0.0010810182429850101,0.00017453264445066452
1746734331971154400,4.540154541015625,-0.0008299569599330425,0.0006400500424206257,0.0006673424504697323
1746734331981121300,4.550121337890625,0.0012731412425637245,-0.0004808744415640831,-0.0011438732035458088
1746734331991088400,4.56008837890625,0.00044825603254139423,-0.0002536484971642494,-0.000055388547480106354
1746734332001054200,4.57005419921875,0.0008570512291043997,-0.0003063790500164032,-0.001440232153981924
1746734332011021300,4.580021240234375,-0.0017032776959240437,0.0004560141824185848,-0.0004643108695745468
1746734332020988400,4.589988525390625,0.00006585987284779549,0.00018517067655920982,0.00007311534136533737
1746734332030955300,4.599955322265625,-0.0005302322097122669,0.0000822562724351883,-0.000040706247091293335
1746734332040921300,4.60992138671875,-0.0007616612128913403,0.0006417864933609962,-0.0005445764400064945
1746734332050888200,4.61988818359375,-0.0014562471769750118,-0.0009374483488500118,0.0006564054638147354
1746734332060855300,4.629855224609375,-0.0011454559862613678,-0.00011612987145781517,-0.0004253704100847244
1746734332070822400,4.639822509765625,0.00002149771898984909,-0.0011066426523029804,-0.00013790372759103775
1746734332080789200,4.649789306640625,0.0006324269343167543,-0.00004910118877887726,0.0005973950028419495
1746734332090755600,4.659755615234375,0.0009066390339285135,0.00027830014005303383,0.0007159770466387272
1746734332100722400,4.669722412109375,0.001023818040266633,0.000002663116902112961,-0.00036792969331145287
1746734332110689300,4.679689208984375,0.0006431671790778637,0.00030225329101085663,-0.0009988280944526196
1746734332120656400,4.689656494140625,0.0019952538423240185,0.0008066562004387379,-0.00011971872299909592
1746734332130622500,4.69962255859375,-0.00007340637966990471,0.000002848450094461441,-0.00077840406447649
1746734332140589600,4.709589599609375,-0.0005407910794019699,0.0016433559358119965,-0.0012015802785754204
1746734332150556400,4.719556396484375,-0.00021666428074240685,-0.0007241442799568176,-0.0001353309489786625
1746734332160523500,4.7295234375,-0.0002936297096312046,0.0010495209135115147,-0.0004999176599085331
1746734332170490400,4.739490478515625,-0.0015382515266537666,0.0006049233488738537,0.0005802041850984097
1746734332180456400,4.74945654296875,-0.00013130344450473785,-0.0011437083594501019,-0.0003284667618572712
1746734332190423600,4.759423583984375,0.0008327411487698555,0.0004025939851999283,-0.00001645740121603012
1746734332200390400,4.769390380859375,-0.000896715559065342,-0.0007526855915784836,-0.0007442994974553585
1746734332210357500,4.779357421875,-0.00048099737614393234,0.0005981349386274815,0.0002993582747876644
1746734332220323300,4.7893232421875,0.0007818739395588636,-0.0001978836953639984,0.0003662034869194031
1746734332230290400,4.79929052734375,0.0006250294391065836,0.0009225411340594292,0.0004892461001873016
1746734332240257300,4.80925732421875,-0.00023969914764165878,-0.0012274286709725857,-0.0016881544142961502
1746734332250224400,4.819224365234375,0.00018564844503998756,0.0008744606748223305,-0.0008567287586629391
1746734332260190500,4.8291904296875,0.00046155182644724846,0.0005144011229276657,0.00020773662254214287
1746734332270157300,4.8391572265625,0.0004599636886268854,-0.0017704707570374012,0.0003987085074186325
1746734332280124400,4.84912451171875,-0.0006130239926278591,-0.00014461064711213112,-0.0009373994544148445
1746734332290091300,4.85909130859375,-0.0006927158683538437,-0.0001049400307238102,-0.0004594954662024975
1746734332300058400,4.869058349609375,-0.00011534243822097778,-0.0021185562945902348,-0.001096257008612156
1746734332310024200,4.879024169921875,0.0007463963702321053,0.00008615059778094292,0.0000017657876014709473
1746734332319991300,4.8889912109375,-0.0003170040436089039,0.00021611293777823448,0.00009684078395366669
1746734332329958400,4.89895849609375,-0.000030493829399347305,-0.0006297146901488304,0.00024811550974845886
1746734332339925200,4.90892529296875,0.0000760324764996767,-0.0016236063092947006,0.0003463858738541603
1746734332349891300,4.918891357421875,-0.0005972203798592091,0.00027274759486317635,-0.00029488373547792435
1746734332359858200,4.928858154296875,0.0008257064037024975,0.0007486543618142605,-0.0000613243319094181
1746734332369825300,4.9388251953125,0.0008153629023581743,0.0003427867777645588,0.0006210221908986568
1746734332379792400,4.94879248046875,0.0007674260996282101,0.0004426552914083004,-0.00046235183253884315
1746734332389759200,4.95875927734375,0.002160276984795928,-0.00044321827590465546,0.00011457409709692001
1746734332399725300,4.968725341796875,0.0011115241795778275,0.001558147370815277,0.00007515959441661835
1746734332409692200,4.978692138671875,0.0016234302893280983,0.0013584182597696781,-0.0003247722052037716
1746734332419659300,4.9886591796875,-0.0006104293279349804,-0.0008275043219327927,-0.0006227800622582436
1746734332429626400,4.99862646484375,0.000710400054231286,0.0003861687146127224,-0.00005664536729454994
1746734332439592400,5.008592529296875,-0.0014978931285440922,-0.00019173696637153625,-0.0001711612567305565
1746734332449559600,5.0185595703125,-0.0001232624053955078,-0.0009490707889199257,0.00047782203182578087
1746734332459526400,5.0285263671875,0.00014332006685435772,0.0003380347043275833,0.0005467976443469524
1746734332469493500,5.038493408203125,0.00013123941607773304,0.0005160719156265259,-0.0003601047210395336
1746734332479459300,5.048459228515625,-0.0004085833206772804,-0.00021363422274589539,0.000015667174011468887
1746734332489426400,5.058426513671875,-0.00013750139623880386,0.0009536705911159515,-0.0005070916377007961
1746734332499393500,5.0683935546875,0.0004001909401267767,-0.001107616350054741,-0.00036487868055701256
1746734332509360400,5.0783603515625,0.0013210142496973276,-0.0007830620743334293,0.0001369267702102661
1746734332519327500,5.088327392578125,-0.00030830781906843185,-0.0012350007891654968,0.00047035468742251396
1746734332529293300,5.098293212890625,-0.00011173542588949203,-0.000025493092834949493,-0.00039149075746536255
1746734332539260400,5.108260498046875,-0.00030321674421429634,-0.0002404102124273777,-0.001025855541229248
1746734332549227500,5.1182275390625,-0.0004878346808254719,-0.001462678425014019,0.00022415490821003914
1746734332559194400,5.1281943359375,-0.0021909261122345924,0.00010352674871683121,0.00038101524114608765
1746734332569160400,5.138160400390625,-0.000017482321709394455,0.00012947479262948036,-0.00005014985799789429
1746734332579127300,5.148127197265625,-0.0014412086457014084,0.0007422682829201221,0.00029845768585801125
1746734332589094400,5.158094482421875,0.00037576002068817616,0.0010281847789883614,0.000011723488569259644
1746734332599061500,5.1680615234375,-0.00006339512765407562,-0.00024560512974858284,0.0007326412014663219
1746734332609028400,5.1780283203125,0.0019034810829907656,0.001334087923169136,-0.0006402693688869476
1746734332618994400,5.187994384765625,0.00029786117374897003,-0.00027872249484062195,-0.0008437349461019039
1746734332628961300,5.197961181640625,-0.001013197936117649,-0.00034407712519168854,-0.0014407658018171787
1746734332638928400,5.207928466796875,-0.0001743021421134472,-0.0007637911476194859,-0.0005784342065453529
1746734332648895200,5.217895263671875,-0.000056296586990356445,-0.0002366374246776104,-0.00030640512704849243
1746734332658861300,5.227861328125,-0.0009215576574206352,0.0001583094708621502,0.00022063450887799263
1746734332668828400,5.237828369140625,0.00016422709450125694,-0.000045933760702610016,-0.00021894369274377823
1746734332678795300,5.247795166015625,0.00024785054847598076,-0.00027736229822039604,-0.0017561200074851513
1746734332688762400,5.257762451171875,-0.0006046928465366364,0.00019237911328673363,0.00005188211798667908
1746734332698728400,5.267728515625,-0.0002973643131554127,-0.00009684031829237938,0.00043830694630742073
1746734332708695300,5.2776953125,-0.0007659574039280415,0.0009501315653324127,-0.00024323444813489914
1746734332718662100,5.287662109375,-0.0004841950722038746,-0.0005739955231547356,-0.00023950589820742607
1746734332728629200,5.297629150390625,0.0016598107758909464,-0.000332084484398365,-0.0006565204821527004
1746734332738596400,5.307596435546875,-0.00038176821544766426,0.0008199987933039665,0.0006249928846955299
1746734332748562400,5.3175625,-0.0003597619943320751,-0.0007098102942109108,-0.000643653329461813
1746734332758529500,5.327529541015625,0.0008114962838590145,0.000977036077529192,-0.0006851986981928349
1746734332768496400,5.337496337890625,-0.001858509611338377,-0.0008685756474733353,0.000131203792989254
1746734332778463500,5.34746337890625,-0.0003157402388751507,0.001160752959549427,-0.0016725552268326283
1746734332788429300,5.35742919921875,-0.0017255744896829128,-0.00038550328463315964,-0.000009791925549507141
1746734332798396400,5.367396484375,-0.00036629708483815193,0.0000904034823179245,0.001318593043833971
1746734332808363500,5.377363525390625,0.001736771548166871,-0.00038489094004034996,-0.0009168107062578201
1746734332818330400,5.387330322265625,-0.00037884339690208435,0.00010060332715511322,0.0005729617550969124
1746734332828296400,5.39729638671875,-0.0003093024715781212,0.00030340254306793213,0.000768032856285572
1746734332838263300,5.40726318359375,-0.00011648936197161674,-0.0016588144935667515,0.0009632427245378494
1746734332848230400,5.41723046875,-0.0008573941886425018,-0.0009065810590982437,-0.00024097738787531853
1746734332858197500,5.427197509765625,0.000053140800446271896,-0.0005390644073486328,0.00007221009582281113
1746734332868164400,5.437164306640625,-0.0005257534794509411,0.00026254262775182724,0.00021108612418174744
1746734332878130400,5.44713037109375,-0.0014975410886108875,0.0004987651482224464,-0.00009464472532272339
1746734332888097000,5.457096923828125,-0.0003357171081006527,-0.00008726119995117188,0.0009848219342529774
1746734332898064100,5.467064208984375,0.00017055007629096508,-0.0009964643977582455,-0.00027884775772690773
1746734332908031200,5.47703125,0.0002558280248194933,-0.00004428252577781677,-0.0002309456467628479
1746734332917997000,5.4869970703125,0.0005559662822633982,-0.00013882480561733246,0.0016828018706291914
1746734332927964200,5.496964111328125,0.00018985127098858356,0.0003147125244140625,-0.00029477477073669434
1746734332937931000,5.506930908203125,0.0022665841970592737,-0.00003283005207777023,-0.0003943769261240959
1746734332947898000,5.516898193359375,-0.0013369382359087467,-0.0007970975711941719,-0.00008504511788487434
1746734332957864000,5.526864013671875,0.0014830832369625568,-0.00048204557970166206,0.00043027615174651146
1746734332967831000,5.5368310546875,0.00021955068223178387,0.0004496108740568161,-0.00043157581239938736
1746734332977798100,5.546798095703125,0.00009251805022358894,0.00008981814607977867,-0.0008371751755475998
1746734332987765000,5.556764892578125,0.001743184169754386,-0.0009071417152881622,-0.002060522325336933
1746734332997732000,5.566732177734375,0.00028244033455848694,0.0001461384817957878,-0.0008839378133416176
1746734333007698200,5.5766982421875,0.00007478706538677216,0.00033622048795223236,-0.001664109993726015
1746734333017665000,5.5866650390625,0.00040608434937894344,-0.0005396935157477856,-0.00024198228493332863
1746734333027632000,5.596632080078125,-0.0006305263377726078,0.0006750193424522877,-0.0007047574035823345
1746734333037599000,5.606598876953125,0.0013633822090923786,-0.001361233415082097,-0.0005889097228646278
1746734333047565300,5.6165654296875,-0.00044669583439826965,-0.0012956289574503899,-0.0001585986465215683
1746734333057532200,5.6265322265625,0.0009554584976285696,-0.0007835030555725098,0.000019832979887723923
1746734333067499300,5.636499267578125,-0.0003603803925216198,-0.0012760143727064133,0.0011682510375976562
1746734333077466000,5.646466064453125,-0.002003817353397608,0.00007127877324819565,-0.000625920481979847
1746734333087432200,5.65643212890625,0.0019317134283483028,0.00018159765750169754,0.0009754565544426441
1746734333097399300,5.6663994140625,-0.00002224789932370186,-0.0005965777672827244,-0.0004991353489458561
1746734333107366100,5.6763662109375,-0.00009779352694749832,0.0002671605907380581,-0.0028438628651201725
1746734333117333200,5.686333251953125,-0.0014328360557556152,-0.000018596649169921875,0.0009937519207596779
1746734333127300000,5.696300048828125,-0.002488542813807726,-0.0003670519217848778,-0.00042018014937639236
1746734333137266200,5.70626611328125,0.002067060675472021,-0.0007817060686647892,-0.0006129927933216095
1746734333147233000,5.71623291015625,0.0010108142159879208,-0.00005079014226794243,0.00066323671489954
1746734333157200100,5.7262001953125,0.0009298541117459536,-0.00035732006654143333,0.0002421909011900425
1746734333167167200,5.736167236328125,0.0006239949725568295,-0.000489573460072279,-0.0006067445501685143
1746734333177133000,5.746133056640625,-0.0000852048397064209,-0.00007918057963252068,0.0002358793281018734
1746734333187100200,5.75610009765625,-0.0003300388343632221,-0.001021845731884241,0.0010820613242685795
1746734333197067000,5.76606689453125,0.001669462537392974,-0.0008066622540354729,0.0006016269326210022
1746734333207034000,5.7760341796875,-0.0005633523687720299,0.00022589834406971931,-0.000053203199058771133
1746734333217001200,5.786001220703125,-0.00022060377523303032,-0.0015400438569486141,-0.00023669470101594925
1746734333226967000,5.795967041015625,0.0009910755325108767,-0.0006258231587707996,0.0018107292708009481
1746734333236934100,5.80593408203125,0.0008043879643082619,-0.00001595914363861084,0.0009193695150315762
1746734333246901000,5.81590087890625,-0.001702374778687954,-0.000983232632279396,0.00010883202776312828
1746734333256868000,5.8258681640625,0.0011836930643767118,-0.0007717777043581009,0.00040364405140280724
1746734333266834000,5.835833984375,-0.00045048492029309273,-0.00011625094339251518,-0.0005339076742529869
1746734333276801000,5.845801025390625,0.0007556609343737364,0.000048865098506212234,-0.00035121478140354156
1746734333286768000,5.85576806640625,-0.0016233092173933983,0.0000449521467089653,0.000540462788194418
1746734333296735000,5.86573486328125,0.000868344446644187,0.00025800522416830063,-0.0003855181857943535
1746734333306701000,5.875701171875,0.0007610025350004435,-0.00012588407844305038,-0.0007299906574189663
1746734333316668200,5.885668212890625,0.00027657346799969673,0.0014808010309934616,-0.0007257293909788132
1746734333326635000,5.895635009765625,0.00020001758821308613,-0.00014538085088133812,-0.0009025838226079941
1746734333336602000,5.90560205078125,-0.000667906366288662,-0.0002713487483561039,-0.0007893997244536877
1746734333346568200,5.915568115234375,0.0006390833295881748,0.0004126252606511116,-0.00025071995332837105
1746734333356535300,5.925535400390625,-0.00037158653140068054,0.0004240768030285835,-0.0008334196172654629
1746734333366502100,5.935502197265625,0.0011377024929970503,0.0005547525361180305,-0.001226572785526514
1746734333376469200,5.94546923828125,0.003062635427340865,-0.00045112334191799164,0.0005159336142241955
1746734333386436000,5.95543603515625,0.000955305527895689,0.0007272721268236637,-0.0009326278232038021
1746734333396402200,5.965402099609375,-0.00008812081068754196,0.0015738913789391518,0.001825874438509345
1746734333406369300,5.975369384765625,-0.00015256879851222038,0.0018906043842434883,0.0004480038769543171
1746734333416336100,5.985336181640625,-0.00034165335819125175,-0.00029132328927516937,0.00030206283554434776
1746734333426303200,5.99530322265625,-0.0005714166909456253,0.0021088197827339172,-0.0003855717368423939
1746734333436269000,6.00526904296875,-0.00017300760373473167,0.00028961431235074997,0.0005601169541478157
1746734333446236200,6.015236083984375,-0.0007501388899981976,-0.000570155680179596,-0.0008122972212731838
1746734333456203300,6.025203369140625,-0.00021484354510903358,0.000008016359061002731,-0.001285807229578495
1746734333466170000,6.035170166015625,0.0005570719949901104,0.0010842406190931797,-0.0026733409613370895
1746734333476136200,6.04513623046875,-0.0004338901489973068,-0.00011657876893877983,0.00011046137660741806
1746734333486103000,6.05510302734375,-0.0005874074995517731,0.00008178781718015671,0.00004317425191402435
1746734333496070100,6.065070068359375,-0.0008830181322991848,-0.000225807074457407,-0.0007368656806647778
1746734333506037200,6.075037353515625,-0.00017788400873541832,0.0000806921161711216,-0.0006239702925086021
1746734333516003000,6.085003173828125,0.00016965833492577076,0.0006343633867800236,0.0003131958656013012
1746734333525970200,6.09497021484375,0.00004740292206406593,0.0003818953409790993,-0.00003332458436489105
1746734333535937000,6.10493701171875,-0.0008122655563056469,0.0005507394671440125,0.001406380208209157
1746734333545904000,6.114904052734375,-0.0008666017092764378,-0.000008904840797185898,-0.0016023991629481316
1746734333555871000,6.12487109375,0.0013211851473897696,0.0007916414178907871,0.0005142814479768276
1746734333565837000,6.134837158203125,0.00025911652483046055,-0.0009203380905091763,0.0017539809923619032
1746734333575804200,6.14480419921875,0.00012382795102894306,-0.0013762714806944132,-0.00038400478661060333
1746734333585771000,6.15477099609375,-0.0003474699333310127,0.0009697228670120239,-0.001167976763099432
1746734333595738000,6.164738037109375,-0.0011607995256781578,-0.0019381828606128693,0.0001761205494403839
1746734333605704200,6.1747041015625,-0.0002756877802312374,-0.0005811750888824463,0.0011485298164188862
1746734333615671000,6.184671142578125,0.0013243393041193485,0.000732828862965107,-0.0004895804449915886
1746734333625638000,6.194637939453125,0.0014430885203182697,0.0017838110215961933,-0.00019755400717258453
1746734333635605000,6.20460498046875,-0.0005654674023389816,-0.000516627449542284,0.0004967320710420609
1746734333645571300,6.2145712890625,-0.0006680148653686047,0.0017379019409418106,0.0006896117702126503
1746734333655538200,6.2245380859375,-0.0002152775414288044,-0.0006205937825143337,-0.0011919112876057625
1746734333665505300,6.23450537109375,-0.0006212014704942703,0.00004010135307908058,-0.0004207962192595005
1746734333675472100,6.24447216796875,0.00012821215204894543,-0.0003631012514233589,0.00022874865680933
1746734333685438200,6.254438232421875,-0.0020218882709741592,-0.0003850748762488365,-0.0002659028396010399
1746734333695405000,6.264405029296875,0.00020824302919209003,-0.0004529855214059353,-0.0004714988172054291
1746734333705372200,6.2743720703125,-0.0003945669159293175,0.0008066697046160698,0.00002256873995065689
1746734333715339300,6.28433935546875,-0.0008816593326628208,0.0011446252465248108,-0.0020102220587432384
1746734333725306000,6.29430615234375,-0.0005057528614997864,0.0019140373915433884,-0.0011618011631071568
1746734333735272200,6.304272216796875,-0.00032412493601441383,0.000973675400018692,-0.0005657859146595001
1746734333745239000,6.314239013671875,0.000046842265874147415,0.00083544896915555,-0.001409393735229969
1746734333755206100,6.3242060546875,0.0007951904553920031,-0.0007153097540140152,-0.0008354824967682362
1746734333765173200,6.33417333984375,0.0024771899916231632,-0.0005290312692523003,-0.0008861892856657505
1746734333775139000,6.34413916015625,-0.00011672871187329292,0.0003127939999103546,-0.00026167789474129677
1746734333785106200,6.354106201171875,0.0006462845485657454,-0.00007795821875333786,-0.0017790207639336586
1746734333795073000,6.364072998046875,-0.000760131049901247,0.0007321755401790142,0.001261244062334299
1746734333805040000,6.3740400390625,-0.00041156914085149765,-0.000042947009205818176,0.0002989601343870163
1746734333815006000,6.384005859375,0.0003982982598245144,-0.0005683884955942631,0.0011202790774405003
1746734333824973000,6.39397314453125,-0.000135873444378376,-0.0011493777856230736,0.00037720194086432457
1746734333834940200,6.403940185546875,0.0005932997446507215,0.00001389114186167717,0.00017160596325993538
1746734333844907000,6.413906982421875,0.002578290645033121,0.0009433343075215816,-0.0003791297785937786
1746734333854873000,6.423873046875,0.0006586841773241758,0.0002658260054886341,-0.000012679025530815125
1746734333864840000,6.43383984375,-0.000001816079020500183,0.0002668495289981365,-0.0005044369027018547
1746734333874807000,6.44380712890625,0.0008589178323745728,-0.0000023958273231983185,0.0011927960440516472
1746734333884774100,6.453774169921875,0.0018335196655243635,0.0003114589489996433,0.0007521319203078747
1746734333894740700,6.46374072265625,0.00012137368321418762,-0.0002877521328628063,-0.0011373809538781643
1746734333904706800,6.473706787109375,-0.0015144650824368,-0.0014173351228237152,0.00044617755338549614
1746734333914674000,6.483673828125,0.0010719967540353537,-0.0009020133875310421,0.00001953914761543274
1746734333924640800,6.493640869140625,-0.0004025772213935852,0.0005625770427286625,-0.0008210637606680393
1746734333934608000,6.50360791015625,-0.0005884659476578236,0.000023020897060632706,-0.0007699308916926384
1746734333944574000,6.513573974609375,0.001074992585927248,-0.0006992844864726067,-0.000655509065836668
1746734333954540800,6.523540771484375,-0.00027549639344215393,-0.00021325750276446342,0.0010009771212935448
1746734333964508000,6.5335078125,-0.001043862197548151,0.0003193104639649391,0.0015591110568493605
1746734333974475000,6.54347509765625,0.0014850753359496593,0.0009504794143140316,-0.0009874035604298115
1746734333984440800,6.55344091796875,-0.0005936524830758572,0.00011267093941569328,0.000018388032913208008
1746734333994408000,6.563407958984375,-0.000680471770465374,0.0010700775310397148,-0.00026310794055461884
1746734334004374800,6.573374755859375,-0.0006031612865626812,-0.001538070384413004,0.0002569686621427536
1746734334014342000,6.583341796875,0.0001547744031995535,-0.0008509750477969646,-0.0003659450449049473
1746734334024307700,6.5933076171875,-0.000007682014256715775,0.0008435114286839962,-0.0003153993748128414
1746734334034274800,6.60327490234375,-0.00028837891295552254,0.0018781498074531555,-0.00018064351752400398
1746734334044242000,6.613241943359375,-0.00047352444380521774,-0.0005026049911975861,0.00008565839380025864
1746734334054208800,6.623208740234375,-0.0002490198239684105,0.0007016765885055065,0.000566891860216856
1746734334064174800,6.6331748046875,-0.0013369466178119183,-0.00022796913981437683,-0.0007050130516290665
1746734334074141700,6.6431416015625,0.0013893311843276024,-0.0005387598648667336,-0.000018716324120759964
1746734334084108800,6.65310888671875,0.0027099172584712505,-0.000290080439299345,-0.0006109317764639854
1746734334094075600,6.66307568359375,0.00016819615848362446,0.000013520009815692902,0.0016056171152740717
1746734334104041700,6.673041748046875,0.0008892561309039593,0.0007462017238140106,0.0009514559060335159
1746734334114008800,6.6830087890625,0.001066089840605855,-0.0004199966788291931,0.0000734119676053524
1746734334123975700,6.6929755859375,-0.0006234780885279179,0.00045643188059329987,-0.00045529287308454514
1746734334133942800,6.70294287109375,0.0007421909831464291,0.00033525843173265457,-0.0014348034746944904
1746734334143909600,6.71290966796875,0.00009452318772673607,0.0015213633887469769,0.0006766435690224171
1746734334153875700,6.722875732421875,-0.001698316540569067,0.0004616915248334408,0.0013405694626271725
1746734334163842600,6.732842529296875,-0.0000386345200240612,-0.0006795166991651058,0.0005381754599511623
1746734334173809700,6.7428095703125,0.0007296872790902853,0.0003836173564195633,0.00010647717863321304
1746734334183776800,6.75277685546875,-0.0005209632217884064,-0.00041382526978850365,0.00038099242374300957
1746734334193742800,6.762742919921875,0.0003719946835190058,0.00009909970685839653,-0.0009039826691150665
1746734334203710000,6.7727099609375,-0.0005174875259399414,0.0003772773779928684,-0.0001993393525481224
1746734334213676800,6.7826767578125,0.0005088946782052517,0.0007285480387508869,0.0005114581435918808
1746734334223644000,6.792643798828125,-0.0012075495906174183,0.0012208903208374977,-0.0010664002038538456
1746734334233609700,6.802609619140625,-0.000474647618830204,-0.0003770063631236553,-0.001729793380945921
1746734334243576800,6.812576904296875,-0.00002393638715147972,0.000407966785132885,0.000347403809428215
1746734334253544000,6.8225439453125,-0.001551792025566101,0.0005890619941055775,0.00037510087713599205
1746734334263510800,6.8325107421875,-0.0005964864976704121,0.00015879003331065178,0.0006114859133958817
1746734334273476900,6.842476806640625,-0.00036425888538360596,-0.00009261257946491241,0.001508438726887107
1746734334283443700,6.852443603515625,0.0013979070354253054,0.0021638916805386543,-0.0013697631657123566
1746734334293410800,6.862410888671875,-0.0012005390599370003,0.0008000871166586876,-0.0012145009823143482
1746734334303378000,6.8723779296875,-0.0008847326971590519,-0.00016725203022360802,-0.00007566669955849648
1746734334313343700,6.88234375,0.000739795621484518,0.0003209053538739681,0.0008737500756978989
1746734334323310800,6.892310791015625,0.000380384037271142,0.00007062545046210289,-0.00040335115045309067
1746734334333277700,6.902277587890625,0.0001007523387670517,0.0005944692529737949,-0.000026780180633068085
1746734334343244800,6.912244873046875,-0.0007259119302034378,0.00014425348490476608,-0.00010818662121891975
1746734334353210600,6.922210693359375,0.00008155824616551399,0.00005956506356596947,-0.0008155223913490772
1746734334363177700,6.932177734375,-0.001124274916946888,0.000382804311811924,-0.0005391924642026424
1746734334373144800,6.942144775390625,0.00006136437878012657,0.0015498013235628605,0.0007913229055702686
1746734334383111700,6.952111572265625,0.00037744315341115,-0.0001331958919763565,-0.0003713746555149555
1746734334393078800,6.962078857421875,0.00041312933899462223,-0.0005089682526886463,-0.0006736433133482933
1746734334403044600,6.972044677734375,-0.00022490648552775383,-0.00020041735842823982,-0.0006532096303999424
1746734334413011700,6.98201171875,0.00041851308196783066,0.0005375444889068604,-0.0014407061971724033
1746734334422978800,6.991978759765625,-0.00035057635977864265,0.0004920605570077896,-0.0007456797175109386
1746734334432945700,7.001945556640625,0.0004805964417755604,0.0004177582450211048,-0.000023696571588516235
1746734334442911700,7.011911865234375,-0.00012683868408203125,-0.0007478510960936546,0.0001543443650007248
1746734334452878600,7.021878662109375,-0.0002544042654335499,-0.0003995094448328018,-0.001462993212044239
1746734334462845700,7.031845703125,0.002467232756316662,0.0007762545719742775,0.00007395818829536438
1746734334472812800,7.041812744140625,-0.00043561309576034546,0.00014987913891673088,0.0005807578563690186
1746734334482779000,7.05177880859375,-0.0015700682997703552,-0.00037585292011499405,0.0008972063660621643
1746734334492746000,7.06174609375,-0.0012054815888404846,-0.00039609288796782494,-0.0009148083627223969
1746734334502712800,7.071712890625,0.0007349078077822924,0.0002210293896496296,-0.0007014074362814426
1746734334512680000,7.081679931640625,1.4156103134155273e-7,0.000020759645849466324,-0.0002529309131205082
1746734334522645800,7.091645751953125,0.0015983250923454762,-0.0002821427769958973,0.0012839250266551971
1746734334532612900,7.10161279296875,0.0015405346639454365,0.0001964275725185871,0.0005949651822447777
1746734334542580000,7.111580078125,0.0009083452168852091,0.00042551150545477867,-0.00030232779681682587
1746734334552546800,7.121546875,0.000008196569979190826,-0.0007105930708348751,-0.00012283073738217354
1746734334562513000,7.131512939453125,0.0013218116946518421,0.0013971966691315174,-0.0008957548998296261
1746734334572479700,7.141479736328125,0.00004136376082897186,-0.0007114945910871029,0.0006403564475476742
1746734334582446800,7.15144677734375,-0.0002545001916587353,0.00035829097032546997,-0.00006250385195016861
1746734334592414000,7.1614140625,0.003758350620046258,-0.00019990745931863785,-0.0011474755592644215
1746734334602380800,7.171380859375,0.0006932851392775774,0.0008639679290354252,-0.0002297600731253624
1746734334612347000,7.181346923828125,-0.0008241841569542885,-0.0003136820159852505,-0.00001111440360546112
1746734334622313700,7.191313720703125,0.00013502081856131554,0.0011982102878391743,-0.0019463472999632359
1746734334632280800,7.20128076171875,0.00034674210473895073,0.0006669093854725361,-0.0011133109219372272
1746734334642247700,7.21124755859375,0.00016812258400022984,0.00022009294480085373,0.0016599174123257399
1746734334652213800,7.2212138671875,0.00033936393447220325,0.00017668353393673897,-0.00037420494481921196
1746734334662180900,7.231180908203125,-0.0000931709073483944,0.0002042492851614952,0.0001166551373898983
1746734334672147700,7.241147705078125,0.00037847505882382393,-0.001163284294307232,0.00034036068245768547
1746734334682114800,7.25111474609375,0.0000074729323387146,0.0001805182546377182,0.00012422166764736176
1746734334692080600,7.26108056640625,-0.000640207901597023,0.0007970398291945457,0.0004504588432610035
1746734334702047700,7.2710478515625,0.00035709328949451447,-0.0005795569159090519,-0.0007141088135540485
1746734334712014600,7.2810146484375,-0.0008959239348769188,0.00021699443459510803,-0.00031596608459949493
1746734334721981700,7.290981689453125,0.0016171440947800875,-0.0008114995434880257,-0.00045155733823776245
1746734334731947800,7.30094775390625,-0.0000824853777885437,0.00029424484819173813,0.00020917272195219994
1746734334741914600,7.31091455078125,-0.001176302321255207,-0.0009545269422233105,0.0009741242974996567
1746734334751881700,7.3208818359375,0.001307894242927432,-0.0009936755523085594,-0.0006112554110586643
1746734334761848600,7.3308486328125,0.00048304046504199505,-0.0005885479040443897,-0.0006551817059516907
1746734334771815000,7.34081494140625,0.001022064359858632,-0.00010385271161794662,-0.00018140533939003944
1746734334781781800,7.35078173828125,0.0009537211153656244,-0.0002803388051688671,-0.001434823963791132
1746734334791748900,7.360748779296875,-0.00010222196578979492,0.0003926418721675873,-0.0003290795721113682
1746734334801716000,7.370716064453125,-0.0006799655966460705,0.0005816007032990456,-0.0005186568014323711
1746734334811681800,7.380681884765625,0.001300361007452011,0.0009118327870965004,0.0014843065291643143
1746734334821649000,7.39064892578125,0.0005264752544462681,-0.00032870378345251083,-0.00021218135952949524
1746734334831615700,7.40061572265625,-0.0009577046148478985,0.0005133873783051968,-0.00054214708507061
1746734334841582800,7.410582763671875,0.0006870056968182325,-0.0003105378709733486,-0.001085356343537569
1746734334851550000,7.420550048828125,0.0006598413456231356,-0.0003611375577747822,0.0011636833660304546
1746734334861515800,7.430515869140625,0.0008795242756605148,-0.0003779008984565735,-0.00014389166608452797
1746734334871483000,7.44048291015625,0.000055009499192237854,-0.0009922920726239681,0.00006383471190929413
1746734334881449700,7.45044970703125,-0.000543070025742054,-0.0005749152041971684,0.0002701147459447384
1746734334891417000,7.4604169921875,-0.0009622513316571712,-0.0003690524026751518,-0.0001756981946527958
1746734334901383200,7.470383056640625,0.0005667656660079956,-0.0009364220313727856,0.0010192920453846455
1746734334911350000,7.48035009765625,-0.00002711918205022812,-0.00021097715944051743,0.00009064795449376106
1746734334921317000,7.490317138671875,-0.00014110049232840538,-0.00020499993115663528,-0.00008822465315461159
1746734334931284200,7.5002841796875,-0.00009129941463470459,0.0021748007275164127,-0.0021772081963717937
1746734334941250000,7.51025,-0.0021164175122976303,-0.0020446369890123606,-0.001299188006669283
1746734334951217200,7.520217041015625,0.0000636461190879345,-0.0010518105700612068,-0.0008493801578879356
1746734334961184000,7.53018408203125,-0.0002465848810970783,-0.0016672692727297544,0.0002676132135093212
1746734334971151000,7.540151123046875,-0.00023273658007383347,-0.0006680511869490147,-0.0005073663778603077
1746734334981117000,7.550116943359375,0.0008491815533488989,-0.0014886416029185057,-0.0008401107043027878
1746734334991084000,7.560083984375,-0.0007183551788330078,0.00036811409518122673,0.0004824153147637844
1746734335001051100,7.570051025390625,0.0006928760558366776,0.0007174401544034481,0.0010288194753229618
1746734335011018000,7.58001806640625,0.000179684953764081,-0.000045289285480976105,-0.00020475639030337334
1746734335020984000,7.589984130859375,-0.00033635273575782776,0.0014307829551398754,-0.0014961850829422474
1746734335030951000,7.599950927734375,-0.0007515395991504192,0.001007606741040945,-0.0017079063691198826
1746734335040918000,7.60991796875,0.00045604794286191463,0.0002596406266093254,0.0002750838175415993
1746734335050885000,7.619885009765625,-0.00015035411342978477,-0.00023464206606149673,0.0006950646638870239
1746734335060851200,7.629851318359375,0.0014875601045787334,-0.0008656061254441738,-0.000600696075707674
1746734335070818300,7.639818359375,-0.0012576263397932053,-0.0005087424069643021,0.00011649355292320251
1746734335080785200,7.64978515625,-0.0009704749099910259,-0.00021522818133234978,0.00027747126296162605
1746734335090752000,7.659751953125,0.0017976148519665003,-0.0003204229287803173,0.0007219528779387474
1746734335100718000,7.669718017578125,0.0002481425181031227,-0.0004754099063575268,0.0002253921702504158
1746734335110685200,7.679685302734375,0.0011866404674947262,-0.0008764816448092461,-0.0002848696894943714
1746734335120652300,7.68965234375,0.0008074026554822922,-0.0005120262503623962,0.00021036062389612198
1746734335130619100,7.699619140625,-0.0013865097425878048,0.0002845251001417637,-0.00016887346282601357
1746734335140585200,7.709585205078125,-0.0004478972405195236,0.00038628699257969856,-0.0002368837594985962
1746734335150552000,7.719552001953125,-0.0008263327181339264,-0.00050773611292243,-0.0010030753910541534
1746734335160519200,7.729519287109375,0.0013397608418017626,0.00009949691593647003,0.0005830060690641403
1746734335170486300,7.739486328125,-0.00001392420381307602,-0.0004906593821942806,0.00034598493948578835
1746734335180452000,7.7494521484375,0.0004913103766739368,0.0002472922205924988,0.0009582927450537682
1746734335190419200,7.759419189453125,-0.0006759529933333397,0.0003088111989200115,-0.0008129756897687912
1746734335200386000,7.769385986328125,-0.0003581959754228592,0.0008476492948830128,-0.00011070352047681808
1746734335210353200,7.779353271484375,-0.0004833643324673176,-0.0002833954058587551,-0.0019504153169691563
1746734335220319000,7.789319091796875,-0.0018515619449317455,0.00019264360889792442,0.0006571891717612743
1746734335230286000,7.7992861328125,-0.001704555470496416,-0.0007429248653352261,0.001503008883446455
1746734335240253200,7.809253173828125,-0.00003593461588025093,0.000314964447170496,-0.000015154015272855759
1746734335250220000,7.819219970703125,0.0005808533169329166,0.0003008493222296238,-0.0006761504337191582
1746734335260187100,7.829187255859375,0.00026645115576684475,-0.0017942374106496572,-0.0006606555543839931
1746734335270153000,7.839153076171875,-0.0011333064176142216,-0.0007510771974921227,0.0015510998200625181
1746734335280120000,7.8491201171875,0.000841532601043582,-0.0002627689391374588,0.0005926294252276421
1746734335290087200,7.859087158203125,0.0013398099690675735,-0.000030275434255599976,0.000020848587155342102
1746734335300054000,7.869053955078125,0.00016358844004571438,0.0005900021642446518,-0.0007698535919189453
1746734335310020000,7.87902001953125,0.0014227309729903936,-0.0009461091831326485,0.0010842392221093178
1746734335319987000,7.888987060546875,0.0006583156064152718,0.00031005125492811203,-0.0006648781709372997
1746734335329954000,7.8989541015625,0.0008029250893741846,0.0003177747130393982,-0.000301889143884182
1746734335339921200,7.908921142578125,-0.0008281306363642216,-0.0009140726178884506,0.0007420149631798267
1746734335349887200,7.91888720703125,-0.00011014239862561226,0.0007189777679741383,-0.0002753124572336674
1746734335359854300,7.928854248046875,0.0013257160317152739,-0.0006977864541113377,-0.00004167482256889343
1746734335369821200,7.9388212890625,0.0008791037835180759,0.00012113573029637337,-0.00037696678191423416
1746734335379788300,7.948788330078125,-6.123445928096771e-7,-0.0008728946559131145,-0.0005508884787559509
1746734335389754000,7.958754150390625,0.00032056495547294617,-0.0011711688712239265,-0.001036116387695074
1746734335399721200,7.96872119140625,0.0008508078753948212,0.0008708699606359005,-0.0006401212885975838
1746734335409688300,7.978688232421875,-0.0004176557995378971,0.0003904355689883232,0.00008345954120159149
1746734335419655200,7.9886552734375,-0.0002000615932047367,0.00026828236877918243,0.00010561244562268257
1746734335429621200,7.998621337890625,0.00031392835080623627,-0.0006800694391131401,0.00016127247363328934
1746734335439588000,8.008588134765626,0.0013333417009562254,0.00011713569983839989,-0.00020915456116199493
1746734335449555200,8.01855517578125,-0.0005210172384977341,0.0007986384443938732,-0.0005875895731151104
1746734335459522000,8.02852197265625,-0.0006674299947917461,-0.0003989185206592083,-0.0005518984980881214
1746734335469488000,8.038488037109374,0.000240708002820611,0.0011872602626681328,0.00009072199463844299
1746734335479455200,8.048455322265625,-0.00015174830332398415,-0.000013003591448068619,0.00016848742961883545
1746734335489422000,8.058422119140625,0.000747068552300334,0.0006914022378623486,0.0007155006751418114
1746734335499389200,8.06838916015625,0.00041305250488221645,0.00048039620742201805,0.0006856927648186684
1746734335509355000,8.07835498046875,-0.0007550097070634365,0.0005453773774206638,0.0012183249928057194
1746734335519322000,8.088322021484375,-0.0005574468523263931,0.0010441262274980545,-0.0009578410536050797
1746734335529289000,8.0982890625,-0.0007957997731864452,0.0005288044922053814,0.00006880750879645348
1746734335539256000,8.108256103515625,0.0016062699723988771,-0.0010008434765040874,0.0014866602141410112
1746734335549222100,8.11822216796875,-0.0013274680823087692,-0.0003504995256662369,-0.00022095860913395882
1746734335559189000,8.12818896484375,0.0010193989146500826,-0.0007685073651373386,-0.0009979382157325745
1746734335569156000,8.138156005859376,0.0011733295395970345,-0.0007128473371267319,-0.001373710110783577
1746734335579123000,8.148123046875,-0.0014558322727680206,-0.00009017158299684525,0.00006617233157157898
1746734335589089300,8.15808935546875,0.0006107806693762541,0.00008053705096244812,0.0009492766112089157
1746734335599056100,8.16805615234375,0.00005419459193944931,0.0002825707197189331,0.0004850374534726143
1746734335609023000,8.17802294921875,-0.0006925556808710098,-0.00003407895565032959,-0.0003975341096520424
1746734335618990000,8.187989990234374,-0.0004954971373081207,0.0010470813140273094,0.001068644691258669
1746734335628956200,8.1979560546875,0.001285891281440854,-0.00016119470819830894,-0.0002924972213804722
1746734335638923300,8.20792333984375,0.0007450873963534832,0.00027415575459599495,-0.0003851279616355896
1746734335648890000,8.21789013671875,-0.0003199107013642788,0.0010672453790903091,-0.0011486564762890339
1746734335658857200,8.227857177734375,0.002443120814859867,0.0007008202373981476,-0.0003947615623474121
1746734335668824300,8.23782421875,-0.0003811614587903023,-0.000010776333510875702,0.0013131233863532543
1746734335678790100,8.2477900390625,-0.0004896093159914017,0.0005235215649008751,0.0010481053031980991
1746734335688757200,8.25775732421875,-0.00045179203152656555,0.00021352944895625114,0.0007098838686943054
1746734335698724000,8.26772412109375,0.00039409147575497627,-0.00018224725499749184,0.00011271564289927483
1746734335708691200,8.277691162109376,0.0007341771852225065,0.00006995396688580513,0.000853873323649168
1746734335718657000,8.287656982421876,-0.000979399774223566,-0.0009559700265526772,-0.0006072479300200939
1746734335728624000,8.2976240234375,0.0012185072991997004,-0.00030722375959157944,-0.0017353626899421215
1746734335738591200,8.30759130859375,-0.00027901120483875275,0.00010681943967938423,-0.00032920390367507935
1746734335748558000,8.31755810546875,-0.000014026649296283722,-0.0015768308658152819,0.0006108921952545643
1746734335758524200,8.327524169921874,0.0012677344493567944,-0.0008027334697544575,0.00022790441289544106
1746734335768491000,8.337490966796874,0.00012310780584812164,0.0003373655490577221,-0.00021098461002111435
1746734335778458000,8.3474580078125,0.0008700606413185596,0.00013244105502963066,0.0005113971419632435
1746734335788425200,8.35742529296875,-0.0006471420638263226,0.0012783994898200035,-0.0006015379913151264
1746734335798391000,8.36739111328125,0.0009814505465328693,0.0007404987700283527,0.0008191540837287903
1746734335808358100,8.377358154296875,-0.0005088546313345432,-0.00028801383450627327,0.001135803759098053
1746734335818325000,8.387324951171875,0.00014543114230036736,0.0008096289820969105,0.00018111709505319595
1746734335828292000,8.3972919921875,-0.0004910645075142384,-0.00012727128341794014,-0.0004069088026881218
1746734335838258000,8.4072578125,-0.00009448220953345299,-0.00006636139005422592,0.00003664195537567139
1746734335848225000,8.41722509765625,-0.00007104640826582909,-0.00015451200306415558,0.0010196147486567497
1746734335858192100,8.427192138671876,-0.00043781567364931107,0.0004971204325556755,-0.00014807796105742455
1746734335868159000,8.437158935546876,0.0005526139866560698,0.0012984653003513813,-0.0008847080171108246
1746734335878125300,8.447125244140626,0.00132059957832098,-0.0005719070322811604,-0.0003848802298307419
1746734335888092200,8.457092041015626,-0.00022696331143379211,0.0004233159124851227,0.00015121418982744217
1746734335898058800,8.467058837890624,-0.0011534099467098713,-0.00007244246080517769,0.0007384158670902252
1746734335908025600,8.477025634765624,0.0012519571464508772,0.0008420869708061218,-0.0005814465694129467
1746734335917991700,8.48699169921875,0.0009130716789513826,-0.0009977431036531925,-0.0018970891833305359
1746734335927958500,8.49695849609375,0.0008760537020862103,-0.000014503952115774155,-0.0009053279645740986
1746734335937925600,8.506925537109375,0.00009957095608115196,0.0005998127162456512,0.0003545088693499565
1746734335947892500,8.516892578125,0.0006103652995079756,-0.0007887594401836395,0.00013719499111175537
1746734335957858600,8.526858642578125,-0.0013786195777356625,0.0007532169111073017,-0.0007561603561043739
1746734335967825700,8.53682568359375,0.001391600351780653,-0.0009650546126067638,0.0007120403461158276
1746734335977792500,8.54679248046875,-0.0005618762224912643,-0.0007777903228998184,-0.0005626589991152287
1746734335987759600,8.556759521484375,-0.000610611867159605,0.0017322390340268612,-0.0006795716471970081
1746734335997725400,8.566725341796875,0.0006073135882616043,0.0015972359105944633,0.000656365416944027
1746734336007692500,8.576692626953125,0.0013335575349628925,0.0008275820873677731,0.0001996331848204136
1746734336017659400,8.586659423828126,-0.0011409418657422066,0.0003527142107486725,0.0002220654860138893
1746734336027626500,8.59662646484375,-0.0005936622619628906,0.0003255498595535755,-0.0012426730245351791
1746734336037592600,8.606592529296876,0.00024320906959474087,0.00036671943962574005,-0.00005713803693652153
1746734336047559400,8.616559326171876,-0.0009072762914001942,-0.0010804422199726105,0.0015165240038186312
1746734336057526500,8.626526611328124,0.0006143313366919756,-0.000029144808650016785,0.0006552664563059807
1746734336067493400,8.636493408203124,-0.001262664794921875,-0.0002664327621459961,0.0003287629224359989
1746734336077459500,8.64645947265625,-0.00045221811160445213,0.000847389455884695,-0.0010376335121691227
1746734336087426300,8.65642626953125,-0.0004335758276283741,0.00019677914679050446,0.0007791747339069843
1746734336097393400,8.666393310546875,-0.0010680872946977615,-0.0007941438816487789,-0.0005766674876213074
1746734336107360500,8.676360595703125,-0.00013864412903785706,-0.0007725721225142479,-0.0005460414104163647
1746734336117327400,8.686327392578125,-0.0004319404251873493,0.00004585226997733116,0.00038931146264076233
1746734336127293700,8.696293701171875,0.0008288000244647264,0.00022108852863311768,0.0015057087875902653
1746734336137260500,8.706260498046875,0.0008572903461754322,-0.0011393832974135876,-0.00030431849882006645
1746734336147227600,8.7162275390625,0.000666341744363308,-0.0004016878083348274,0.0002815769985318184
1746734336157194500,8.726194580078126,0.0019688031170517206,0.0012191240675747395,0.0001518893986940384
1746734336167160600,8.73616064453125,0.001008467050269246,0.0003152471035718918,0.00041740667074918747
1746734336177127700,8.746127685546876,0.0009407312609255314,0.0008241697214543819,-0.0003280220553278923
1746734336187094500,8.756094482421876,-0.0006073643453419209,-0.0002975538372993469,0.000870400108397007
1746734336197061600,8.7660615234375,-0.0008564284071326256,0.0006092097610235214,-0.0006669946014881134
1746734336207027500,8.77602734375,0.0014474720228463411,-0.0004379455931484699,-0.0011911047622561455
1746734336216994600,8.78599462890625,0.0000699465163052082,0.0012303218245506287,0.0002927999012172222
1746734336226961700,8.795961669921875,-0.0008115600794553757,-0.00016890279948711395,-0.00020041735842823982
1746734336236928500,8.805928466796875,0.0006956681609153748,0.00031367456540465355,-0.0008566402830183506
1746734336246894600,8.81589453125,0.0011334919836372137,0.0016194223426282406,0.000017675571143627167
1746734336256861400,8.825861328125,-0.0005743782967329025,-0.00025250110775232315,0.001092828344553709
1746734336266828500,8.83582861328125,-0.0018505649641156197,0.0003967774100601673,-0.00023875245824456215
1746734336276795600,8.845795654296875,-0.0002177152782678604,0.0009864992462098598,0.0009201043285429478
1746734336286761500,8.855761474609375,-0.00003209291025996208,0.0008972832001745701,-0.0011057625524699688
1746734336296728600,8.865728515625,-0.001222854945808649,0.0002871607430279255,0.0014004830736666918
1746734336306695400,8.8756953125,0.0006711853202432394,-0.0005448106676340103,-0.0007265838794410229
1746734336316662500,8.88566259765625,-0.00023493310436606407,-0.00006843963637948036,0.000588749535381794
1746734336326628400,8.89562841796875,0.0008588270284235477,-0.000006654299795627594,0.00035439105704426765
1746734336336595500,8.905595458984376,0.0011358370538800955,0.00005228305235505104,-0.0008900118991732597
1746734336346562600,8.9155625,-0.0004490101709961891,-0.0005938000977039337,-0.00033953646197915077
1746734336356529400,8.925529296875,0.00011305231600999832,0.0006331223994493484,-0.0007943757809698582
1746734336366495500,8.93549560546875,-0.000027029775083065033,0.0008951774798333645,0.0009337491355836391
1746734336376462300,8.94546240234375,-0.0010362551547586918,-0.0004303501918911934,-0.0007049338892102242
1746734336386429400,8.955429443359375,-0.00037419330328702927,0.00011479854583740234,-0.0009334329515695572
1746734336396396500,8.965396484375,-0.000008845236152410507,0.00037356140092015266,-0.0007015690207481384
1746734336406362600,8.975362548828125,0.000030302908271551132,0.00010857684537768364,-0.0003926423378288746
1746734336416329700,8.985329833984375,-0.00033188238739967346,0.00014222320169210434,-0.000022517051547765732
1746734336426296600,8.995296630859375,0.0011253992561250925,0.00026153307408094406,0.00019186735153198242
1746734336436263700,9.005263671875,-0.0005464106798171997,-0.0001608012244105339,0.0004663136787712574
1746734336446229500,9.0152294921875,0.0008133992087095976,0.0009185783565044403,-0.0009009535424411297
1746734336456196600,9.025196533203125,0.0013914750888943672,0.0006296960636973381,0.0005773305892944336
1746734336466163700,9.035163818359376,-0.00047753145918250084,0.0007833605632185936,0.00039170822128653526
1746734336476130600,9.045130615234376,0.0014156147371977568,0.0006064656190574169,0.0007049045525491238
1746734336486096600,9.0550966796875,0.000987911131232977,-0.00005772663280367851,-0.0019625178538262844
1746734336496063500,9.0650634765625,-0.0008524861186742783,0.0005831089802086353,-0.0010317238047719002
1746734336506030600,9.075030517578124,-0.0008884384296834469,-0.0005881492979824543,-0.001082057598978281
1746734336515997700,9.084997802734375,0.001664058305323124,-0.0007308796048164368,-0.0002796510234475136
1746734336525963500,9.094963623046874,-0.0000065425410866737366,-0.000349514652043581,-0.0005939039401710033
1746734336535930600,9.1049306640625,0.0013286680914461613,-0.0015373255591839552,0.0010992172174155712
1746734336545897500,9.1148974609375,0.0011273331474512815,-0.0008526267483830452,-0.0003852290101349354
1746734336555864600,9.124864501953125,0.0015053963288664818,0.0006446982733905315,0.0007688305340707302
1746734336565830400,9.134830322265625,-0.00008877180516719818,-0.0007148454897105694,0.00036216573789715767
1746734336575797500,9.144797607421875,-0.0010032691061496735,0.0009445967152714729,0.0005491692572832108
1746734336585764600,9.1547646484375,-0.000375295989215374,0.0011230288073420525,0.0010791383683681488
1746734336595731500,9.1647314453125,-0.0006618509069085121,0.0009798826649785042,-0.0002523604780435562
1746734336605697500,9.174697509765625,-0.0005300245247781277,0.000726083293557167,-0.0008505061268806458
1746734336615664400,9.184664306640625,0.00047148275189101696,0.000700752716511488,0.0007567936554551125
1746734336625631500,9.194631591796876,0.0003878595307469368,0.000025375280529260635,-0.0012038256973028183
1746734336635598600,9.2045986328125,-0.0015926002524793148,0.00010471371933817863,-0.0009993123821914196
1746734336645564700,9.214564697265626,-0.0014186957851052284,0.00000830693170428276,-0.0008794697932898998
1746734336655531500,9.224531494140624,0.0008197515271604061,-0.0005253325216472149,-0.0003323112614452839
1746734336665498400,9.234498291015624,0.0014162997249513865,-0.001214291900396347,-0.0006095464341342449
1746734336675465500,9.244465576171875,0.0003971448168158531,-0.00026458175852894783,0.0001446343958377838
1746734336685431600,9.254431640625,-0.001442833337932825,0.0001074615865945816,0.0012093661352992058
1746734336695398700,9.264398681640625,-0.001903073862195015,0.0016225771978497505,-0.0007649976760149002
1746734336705365800,9.27436572265625,0.0008335902821272612,0.0018721153028309345,-0.001392704900354147
1746734336715332600,9.28433251953125,0.0011110592167824507,0.0002138698473572731,-0.000009774696081876755
1746734336725299700,9.2942998046875,0.0002593803219497204,-0.0008292901329696178,0.0018270076252520084
1746734336735265500,9.304265625,0.0006554725114256144,-0.0004984750412404537,-0.0012584798969328403
1746734336745232600,9.314232666015625,0.00009594252333045006,-0.0010462873615324497,0.000776974018663168
1746734336755199500,9.324199462890626,0.00041883625090122223,-0.0003024139441549778,0.00036936020478606224
1746734336765166600,9.33416650390625,0.0009346904698759317,-0.0007293187081813812,0.00003060605376958847
1746734336775132700,9.344132568359376,-0.00010766787454485893,0.0007722275331616402,-0.000243376474827528
1746734336785099500,9.354099609375,0.0006875519175082445,0.0011839522048830986,0.0012778211385011673
1746734336795066600,9.364066650390624,0.0017450731247663498,0.0007377201691269875,0.00039425864815711975
1746734336805033500,9.374033447265624,0.0002723450306802988,0.0004040258936583996,-0.0008592912927269936
1746734336814999600,9.38399951171875,-0.0008975020609796047,-0.001062988769263029,-0.0005563669838011265
1746734336824966400,9.39396630859375,-0.00007724808529019356,0.0005977586843073368,0.0006119618192315102
1746734336834933500,9.40393359375,0.0010591072496026754,0.0012393929064273834,-0.00012782681733369827
1746734336844900600,9.413900634765625,0.00037094647996127605,0.0006289966404438019,0.0007369015365839005
1746734336854866400,9.423866455078125,0.000545864924788475,0.0004668980836868286,0.001719228457659483
1746734336864833500,9.43383349609375,-0.0003574793227016926,-0.00045322393998503685,0.0003154762089252472
1746734336874800400,9.44380029296875,-0.00028825225308537483,-0.00014902465045452118,0.0016579767689108849
1746734336884767500,9.453767578125,-0.0005950485356152058,-0.0007719383575022221,-0.0010019885376095772
1746734336894734000,9.463734130859375,0.00048241904005408287,-0.00031998055055737495,-0.00006449408829212189
1746734336904701200,9.473701171875,0.0003974640276283026,-0.00012849923223257065,0.0013666884042322636
1746734336914668300,9.483668212890626,-0.0002055126242339611,0.0003008311614394188,-0.0014057736843824387
1746734336924635100,9.49363525390625,-0.0006025899201631546,-0.0008837427012622356,0.00023872824385762215
1746734336934601200,9.503601318359374,0.0010010723490267992,0.0005305721424520016,-0.0011690878309309483
1746734336944568000,9.513568115234374,-0.0024874024093151093,0.00021232431754469872,0.0016362862661480904
1746734336954535200,9.52353515625,0.000917007215321064,0.00016062473878264427,0.0007540648803114891
1746734336964502300,9.533502197265625,-0.0002497239038348198,0.00017447303980588913,-0.0008606100454926491
1746734336974468400,9.54346826171875,0.0003606756217777729,0.0009038029238581657,-0.00015196064487099648
1746734336984435200,9.553435302734375,0.00001659523695707321,0.0006433455273509026,0.0017647163476794958
1746734336994402000,9.563402099609375,-0.0008001602254807949,0.0006107958033680916,0.000201523769646883
1746734337004369200,9.573369140625,0.00022595585323870182,-0.00025206850841641426,0.0007232371717691422
1746734337014335200,9.583335205078125,0.00021544750779867172,-0.0005630534142255783,-0.0010813907720148563
1746734337024302300,9.59330224609375,-0.0008205221965909004,0.0011972957290709019,0.0001947958953678608
1746734337034269400,9.60326953125,0.00005372520536184311,-0.0010772147215902805,-0.00035321759060025215
1746734337044236300,9.613236328125,0.0005759710911661386,0.000899649690836668,-0.0003473586402833462
1746734337054202400,9.623202392578126,0.0009136511944234371,-0.0005814949981868267,-0.0004723435267806053
1746734337064169200,9.633169189453126,-0.0004903674125671387,0.0003295727074146271,0.0010624364949762821
1746734337074136300,9.64313623046875,-0.0003342176787555218,0.00043191295117139816,-0.00023675011470913887
1746734337084103400,9.653103515625,-0.00007509207352995872,0.00021513178944587708,0.0016567576676607132
1746734337094069200,9.6630693359375,0.00019123428501188755,0.000028705690056085587,-0.0011064684949815273
1746734337104036400,9.673036376953124,0.00010042032226920128,-0.00019872793927788734,0.00007251277565956116
1746734337114003200,9.683003173828125,0.0003050435334444046,-0.0014686903450638056,0.0005273278802633286
1746734337123970300,9.69297021484375,0.0007500576321035624,0.0004461226053535938,0.00035848328843712807
1746734337133936000,9.70293603515625,-0.0013268990442156792,-0.0013552447780966759,0.0019971958827227354
1746734337143903200,9.7129033203125,0.0007572907488793135,0.00020989496260881424,0.0004845205694437027
1746734337153870300,9.722870361328125,-0.00011322367936372757,0.0010919948108494282,0.0010719397105276585
1746734337163837200,9.732837158203125,0.000795713160187006,-0.000014815013855695724,0.0008708708919584751
1746734337173803300,9.74280322265625,0.0005926759913563728,-0.00030688242986798286,-0.000008803792297840118
1746734337183770000,9.75277001953125,-0.00007045082747936249,0.00006063375622034073,-0.00041626766324043274
1746734337193737200,9.7627373046875,0.0005138209089636803,0.0004349849186837673,0.0011436054483056068
1746734337203704300,9.772704345703126,0.0008384601678699255,0.00006613694131374359,-0.0013065026141703129
1746734337213670100,9.782670166015626,0.0007179284002631903,0.00012786639854311943,-0.0009908005595207214
1746734337223637200,9.79263720703125,0.000250010984018445,0.0002101580612361431,0.00012879259884357452
1746734337233604000,9.80260400390625,-0.00006187008693814278,-0.00013467436656355858,0.0006849896162748337
1746734337243571200,9.8125712890625,-0.0004043527878820896,0.0004842439666390419,-0.0008561816066503525
1746734337253537300,9.822537353515624,-0.0002629249356687069,-0.00037256674841046333,0.0012352406047284603
1746734337263504400,9.83250439453125,0.0010031419806182384,-0.00009746244177222252,-0.00007263757288455963
1746734337273471200,9.84247119140625,-0.00006564287468791008,-0.00029582297429442406,0.0001942431554198265
1746734337283438000,9.85243798828125,0.0005322368815541267,-0.000663339626044035,0.0010267472825944424
1746734337293404400,9.862404296875,0.0001323914621025324,0.001591541338711977,0.000889836810529232
1746734337303371300,9.872371337890625,0.001022686017677188,0.00045064324513077736,0.00024535181000828743
1746734337313338400,9.88233837890625,0.001801873091608286,0.0004727588966488838,0.0005914280191063881
1746734337323305200,9.89230517578125,-0.0012013735249638557,-0.00023271236568689346,-0.0001864815130829811
1746734337333271300,9.902271240234375,0.001474760239943862,-0.0013778693974018097,-0.0015078578144311905
1746734337343238400,9.91223828125,0.0014790212735533714,-0.00006999075412750244,-0.0012191710993647575
1746734337353205200,9.922205322265626,-0.0010557565838098526,0.0008198628202080727,-0.0007250639609992504
1746734337363172400,9.93217236328125,0.0005448029842227697,-0.0007231724448502064,0.0007593818008899689
1746734337373138200,9.94213818359375,0.00042305863462388515,0.0003125895746052265,-0.0008780732750892639
1746734337383105300,9.952105224609374,-0.000029146205633878708,-0.001990778371691704,-0.000057552941143512726
1746734337393072400,9.962072265625,-0.0008962457068264484,0.00020842254161834717,0.0005782158114016056
1746734337403039200,9.972039306640625,0.000583939254283905,0.0017855465412139893,0.00010763527825474739
1746734337413005300,9.98200537109375,-0.001355418935418129,-0.000681417528539896,0.0004644072614610195
1746734337422972200,9.99197216796875,0.000987896230071783,-0.00033973390236496925,-0.00036117248237133026
1746734337432939300,10.001939208984375,0.00020100828260183334,0.00031420402228832245,-0.0008458392694592476
1746734337442906000,10.011906005859375,-0.00021151546388864517,0.0003605433739721775,0.0007488615810871124
1746734337452872200,10.0218720703125,0.00012843357399106026,-0.00007070600986480713,-0.0007138298824429512
1746734337462839300,10.03183935546875,-0.00034108152613043785,-0.0002933461219072342,-0.00015536462888121605
1746734337472806100,10.04180615234375,-0.0009271674789488316,0.000014578457921743393,0.0006726630963385105
1746734337482773200,10.051773193359375,0.0020752805285155773,0.0003029988147318363,0.0010068900883197784
1746734337492739300,10.0617392578125,-0.0007556579075753689,0.0008852784521877766,-0.0004705600440502167
1746734337502706200,10.0717060546875,-0.0022627408616244793,0.0009523900225758553,0.000932126771658659
1746734337512673000,10.081673095703126,0.0002739343326538801,0.0002676481381058693,-0.00017923256382346153
1746734337522640100,10.09164013671875,-0.0008347397670149803,0.00022583641111850739,0.0006932192482054234
1746734337532606500,10.1016064453125,0.0001660624984651804,0.0003690994344651699,-0.00011430308222770691
1746734337542573300,10.1115732421875,0.00009096134454011917,-0.00043490901589393616,0.00022232066839933395
1746734337552540400,10.12154052734375,0.00044552190229296684,-0.0008489317260682583,-0.0011390442959964275
1746734337562507300,10.13150732421875,0.0010242266580462456,0.000638709869235754,0.00014140363782644272
1746734337572473300,10.141473388671875,0.001828943844884634,-0.00003633089363574982,-0.000607670284807682
1746734337582440200,10.151440185546875,0.00048218341544270515,0.000010007992386817932,-0.000622317660599947
1746734337592407300,10.1614072265625,-0.0004675216041505337,-0.0018005978781729937,0.00012760283425450325
1746734337602374400,10.17137451171875,-0.0005082678981125355,-0.000799515750259161,-0.0004745377227663994
1746734337612340200,10.18134033203125,0.00028188712894916534,-0.0008520442061126232,-0.0017243321053683758
1746734337622307300,10.191307373046875,0.00016257748939096928,0.0007322700694203377,0.001246157567948103
1746734337632274200,10.201274169921875,0.00021422537975013256,0.0015387185849249363,0.0006739599630236626
1746734337642241300,10.2112412109375,-0.0012238817289471626,0.0003211214207112789,-0.00003630528226494789
1746734337652207000,10.22120703125,-0.00023288652300834656,0.0005316981114447117,0.0012087952345609665
1746734337662174200,10.23117431640625,-0.00017003575339913368,0.0007713828235864639,0.0005749627016484737
1746734337672141300,10.241141357421874,0.0023332571145147085,-0.000981357879936695,0.00006119022145867348
1746734337682108200,10.251108154296874,-0.0013562864623963833,0.00034995609894394875,-0.0015233904123306274
1746734337692074200,10.26107421875,-0.000253092497587204,0.00032203830778598785,0.000392258632928133
1746734337702041000,10.271041015625,0.0010936681646853685,0.0010019433684647083,0.000041253864765167236
1746734337712008200,10.28100830078125,-0.0005830866284668446,-0.0010215281508862972,-0.0008032433688640594
1746734337721975300,10.290975341796875,0.00017458293586969376,0.00019074277952313423,-0.0003385217860341072
1746734337731941000,10.300941162109375,0.0004422904457896948,0.00031091878190636635,0.0008722445927560329
1746734337741908200,10.310908203125,0.0011126080062240362,0.0009146574884653091,-0.0023003793321549892
1746734337751875000,10.320875,0.00033994484692811966,0.0009826705791056156,0.000393083319067955
1746734337761842200,10.33084228515625,0.0014251829124987125,0.000051895622164011,0.0007890956476330757
1746734337771808300,10.340808349609375,0.00029972498305141926,-0.001461926382035017,-0.0005097910761833191
1746734337781775400,10.350775390625,-0.0011165440082550049,-0.001707735937088728,-0.00004187365993857384
1746734337791742200,10.3607421875,-0.0002907100133597851,-0.0006670332513749599,0.001116656232625246
1746734337801709000,10.370708984375,0.00043233809992671013,0.0008597569540143013,-0.0005379659123718739
1746734337811675400,10.38067529296875,-0.0002706218510866165,0.0007849154062569141,-0.00024211080744862556
1746734337821642200,10.390642333984376,0.00008544279262423515,0.0005614757537841797,0.0002625579945743084
1746734337831609300,10.400609375,-0.0001909513957798481,0.0007152361795306206,0.000007718801498413086
1746734337841576400,10.410576416015624,0.001160603016614914,-0.00004163431003689766,-0.0003363615833222866
1746734337851542300,10.420542236328124,0.00017815246246755123,-0.0020180116407573223,0.0007093800231814384
1746734337861509400,10.43050927734375,0.001055131433531642,-0.000039282720535993576,0.0005812821909785271
1746734337871476200,10.440476318359375,-0.0002629058435559273,0.00026509445160627365,0.0010058218613266945
1746734337881443300,10.450443359375,0.0009735999628901482,0.00022674491629004478,-0.000502326525747776
1746734337891409400,10.460409423828125,0.0009363212157040834,0.0005945297889411449,0.0015849105548113585
1746734337901376300,10.470376220703125,-0.0006008553318679333,0.0003902651369571686,-0.000029764138162136078
1746734337911343400,10.48034326171875,0.00016379542648792267,-0.0013271896168589592,0.0005730311386287212
1746734337921310200,10.490310302734375,-0.001249011605978012,0.0003378186374902725,-0.0005236584693193436
1746734337931276300,10.5002763671875,-0.0015603937208652496,0.0017180154100060463,-0.0001090378500521183
1746734337941243100,10.5102431640625,-0.000325219240039587,0.0003384980373084545,-0.0010267631150782108
1746734337951210200,10.520210205078126,-0.00011361204087734222,-0.0003984058275818825,0.000509138684719801
1746734337961177300,10.53017724609375,0.0004403255879878998,0.000557935331016779,-0.00033375201746821404
1746734337971143200,10.54014306640625,-0.0006329379975795746,0.0007603629492223263,0.00041851168498396873
1746734337981110300,10.5501103515625,-0.0004497128538787365,-0.0007504485547542572,0.00029866909608244896
1746734337991077000,10.5600771484375,0.0005520146805793047,-0.00019390089437365532,-0.000989230815321207
1746734338001044200,10.570044189453125,0.0005685263313353062,-0.0012461156584322453,0.0005135908722877502
1746734338011010300,10.58001025390625,0.0009555353317409754,-0.0009107613004744053,-0.0010738112032413483
1746734338020977200,10.58997705078125,-0.0010567493736743927,0.0010381396859884262,0.00032834289595484734
1746734338030944300,10.5999443359375,0.00026762206107378006,-0.0008050673641264439,-0.0002709892578423023
1746734338040911000,10.6099111328125,0.00021595670841634274,-0.00106898695230484,0.0008091889321804047
1746734338050877400,10.61987744140625,-0.0022246036678552628,-0.0014051105827093124,-0.00013438845053315163
1746734338060844300,10.62984423828125,0.0011147339828312397,0.0006393981166183949,0.0009561763145029545
1746734338070811400,10.639811279296875,0.0020327523816376925,0.0007258723489940166,0.000598373357206583
1746734338080778200,10.6497783203125,-0.0002565006725490093,-0.0005058399401605129,0.0006825295276939869
1746734338090744300,10.659744384765625,-0.0005120267160236835,0.0002235020510852337,-0.00006412062793970108
1746734338100711400,10.66971142578125,-0.00035410095006227493,0.000387552659958601,-0.0003125937655568123
1746734338110678300,10.67967822265625,0.0012463892344385386,-0.00026870518922805786,0.0014829151332378387
1746734338120645400,10.689645263671874,-0.000011954456567764282,-0.00026444438844919205,-0.000173304695636034
1746734338130611200,10.699611083984376,0.0010496063623577356,0.0017300588078796864,-0.0012476658448576927
1746734338140578300,10.709578369140624,0.0014357648324221373,-0.00023109279572963715,0.0007739397697150707
1746734338150545400,10.71954541015625,-0.0020686197094619274,-0.0008985181339085102,-0.00013821851462125778
1746734338160512300,10.72951220703125,-0.0006254524923861027,-0.0001898505724966526,-0.00010146712884306908
1746734338170478300,10.739478271484375,-0.00025315117090940475,-0.0015115137211978436,-0.0008542980067431927
1746734338180445200,10.749445068359375,0.00011409888975322247,-0.0005394597537815571,-0.00028811022639274597
1746734338190412300,10.759412353515625,-0.0004350501112639904,0.0008762218058109283,0.0010778624564409256
1746734338200379400,10.76937939453125,0.0013505993410944939,0.00011855224147439003,-0.00023374473676085472
1746734338210345200,10.77934521484375,-0.0018879971466958523,0.00010991841554641724,0.00046709179878234863
1746734338220312300,10.789312255859375,-0.0001470888964831829,0.0007956824265420437,0.00047321710735559464
1746734338230279200,10.799279052734375,-0.0008048298768699169,0.00009288452565670013,0.0008986098691821098
1746734338240246300,10.809246337890626,-0.0003046882338821888,-0.0010834336280822754,-0.0009070131927728653
1746734338250212000,10.819212158203126,0.0005475932266563177,0.000294737983494997,-0.0008019134402275085
1746734338260179200,10.82917919921875,0.0010048579424619675,-0.0009396374225616455,-0.00006288615986704826
1746734338270146300,10.839146240234374,-0.0009102704934775829,-0.000825180672109127,-0.00016543734818696976
1746734338280113200,10.849113037109374,-0.0008796439506113529,0.0007676561363041401,0.0005360390059649944
1746734338290079200,10.859079345703124,0.0005458658561110497,0.0005503883585333824,0.002007149625569582
1746734338300046000,10.869046142578124,0.0006462670862674713,0.000012696254998445511,0.00011523999273777008
1746734338310013200,10.87901318359375,-0.0015723202377557755,-0.0003479132428765297,0.000360012985765934
1746734338319980300,10.888980224609375,-0.00046364590525627136,-0.0005439217202365398,-0.00013027526438236237
1746734338329946400,10.8989462890625,0.000979035859927535,0.001204663421958685,0.0011888048611581326
1746734338339913500,10.90891357421875,0.00036171521060168743,-0.0002680649049580097,-0.0009100325405597687
1746734338349880300,10.91888037109375,-0.0009097629226744175,-0.00041148532181978226,0.0002371193841099739
1746734338359847400,10.928847412109375,0.0011477952357381582,-0.0013627661392092705,-0.000604972243309021
1746734338369813200,10.938813232421875,-0.000669380184262991,0.0007299934513866901,0.000689149834215641
1746734338379780400,10.9487802734375,-0.0016211937181651592,-0.0006324793212115765,-0.001431258860975504
1746734338389747500,10.95874755859375,0.0009457783307880163,0.0015644212253391743,0.00018487032502889633
1746734338399714300,10.96871435546875,-0.00009844731539487839,-0.00006330292671918869,0.000516433734446764
1746734338409680400,10.978680419921876,0.00043555162847042084,-0.0017325629014521837,-0.00038072140887379646
1746734338419647200,10.988647216796876,0.0007322276942431927,-0.0005202922038733959,-0.0004217340610921383
1746734338429614300,10.9986142578125,-0.001215808093547821,0.0003602239303290844,0.0000041318126022815704
1746734338439581400,11.00858154296875,-0.0005353703163564205,-0.00011088931933045387,-0.00030133267864584923
1746734338449547300,11.01854736328125,-0.00002402113750576973,-0.00009701307862997055,0.0009823706932365894
1746734338459514400,11.028514404296875,-0.0008272305130958557,0.0003472021780908108,0.0007200492545962334
1746734338469481200,11.038481201171875,0.0006737869698554277,0.0006936099380254745,0.0002789478749036789
1746734338479448300,11.0484482421875,-0.0018575475551187992,0.0009575290605425835,0.0001742853783071041
1746734338489414100,11.0584140625,0.0006790298502892256,-0.00010150065645575523,-0.00009906897321343422
1746734338499381200,11.06838134765625,0.0003304220736026764,-0.0014152380172163248,0.0004966799169778824
1746734338509348400,11.078348388671875,0.00010686973109841347,-0.0002951864153146744,0.0005373558960855007
1746734338519315200,11.088315185546875,-0.0007741041481494904,0.0011226804926991463,-0.0004456168971955776
1746734338529281300,11.09828125,0.0022018440067768097,-0.00029437197372317314,0.0014559871051460505
1746734338539248000,11.108248046875,0.0009525550995022058,0.00039778323844075203,-0.0012212884612381458
1746734338549215200,11.11821533203125,-0.0005912026390433311,0.000730923842638731,0.0004921606741845608
1746734338559182300,11.128182373046876,-0.001119839958846569,-0.00046190572902560234,-0.00011823559179902077
1746734338569148400,11.1381484375,-0.0008228444494307041,0.0003079390153288841,0.001548530301079154
1746734338579115300,11.148115234375,0.0005878319498151541,-0.00017169630154967308,0.00036502163857221603
1746734338589082400,11.158082275390624,-0.00012995582073926926,-0.00041753891855478287,-0.00029003340750932693
1746734338599049200,11.16804931640625,-0.00008947541937232018,0.00026502925902605057,-0.0005755242891609669
1746734338609015300,11.178015380859375,-0.0005250885151326656,0.0012519522570073605,0.00038237543776631355
1746734338618982400,11.187982421875,-0.0009144428186118603,-0.0010322406888008118,0.0004675965756177902
1746734338628949500,11.197949462890625,-0.0006575407460331917,0.000594001729041338,-0.0005429629236459732
1746734338638916400,11.207916259765625,-0.0006261155940592289,0.00007947906851768494,0.001288226805627346
1746734338648882400,11.21788232421875,-0.0003617163747549057,0.0008844113908708096,-0.00017215916886925697
1746734338658849300,11.227849365234375,0.0005554761737585068,-0.0001241276040673256,-0.000421963632106781
1746734338668816400,11.23781640625,-0.0011289012618362904,0.0014336812309920788,-0.001085583120584488
1746734338678783200,11.247783203125,-0.00042316317558288574,-0.0013810135424137115,-0.0011311233974993229
1746734338688749300,11.257749267578125,0.0011474285274744034,0.00034260842949151993,0.001449930714443326
1746734338698716400,11.26771630859375,0.00019987579435110092,-0.0015857864636927843,-0.0003876504488289356
1746734338708683300,11.277683349609376,0.0008472008630633354,0.0006289221346378326,0.000020304229110479355
1746734338718650400,11.287650390625,0.00003653485327959061,-0.0006379438564181328,-0.0005549383349716663
1746734338728616200,11.2976162109375,0.00035708723589777946,0.0006865900941193104,0.0002538999542593956
1746734338738583300,11.307583251953124,0.0021182354539632797,-0.00043699750676751137,0.0008003809489309788
1746734338748550100,11.317550048828124,0.0003064835909754038,-0.00022839149460196495,-0.00002510426566004753
1746734338758517200,11.327517333984375,0.00023937178775668144,0.0004227515310049057,-0.0005569374188780785
1746734338768483300,11.3374833984375,0.0010023126378655434,-0.00018700165674090385,0.0003759041428565979
1746734338778450200,11.3474501953125,0.0009027104824781418,-0.000672229565680027,-0.0015998953022062778
1746734338788417300,11.357417236328125,0.0009864817839115858,-0.0009342338889837265,-0.0014858772046864033
1746734338798383400,11.36738330078125,-0.0015155579894781113,-0.0005235741846263409,-0.00016095442697405815
1746734338808350200,11.37735009765625,-0.0005994467064738274,-0.0004705064930021763,-0.00036209309473633766
