time,seconds_elapsed,z,y,x
1746575916982578700,0.01957861328125,0.0014600567519664764,0.0022003543563187122,-0.000354778952896595
1746575916992593700,0.02959375,0.00018600048497319221,0.0008333534933626652,0.0005301896017044783
1746575917002609700,0.039609619140625,0.000214344821870327,0.0010213456116616726,-0.0010141758248209953
1746575917012625700,0.049625732421875,-0.00008046720176935196,-0.0016386192291975021,0.0002827837597578764
1746575917022640600,0.059640625,-0.00020882952958345413,-0.0024198335595428944,-0.002818287117406726
1746575917032656600,0.06965673828125,-0.000038120895624160767,-0.0006562881171703339,-0.00287341489456594
1746575917042671600,0.079671630859375,0.0017570205964148045,-0.00020759738981723785,0.0007503828965127468
1746575917052687600,0.0896875,-0.0007620635442435741,0.00117911072447896,-0.0002669445239007473
1746575917062703600,0.09970361328125,-0.0008447263389825821,0.0010980148799717426,0.0006649049464613199
1746575917072718600,0.109718505859375,0.0016687652096152306,0.000642081256955862,-0.0017665610648691654
1746575917082734600,0.119734619140625,-0.002079958561807871,-0.0017456845380365849,0.0005072660278528929
1746575917092749600,0.12974951171875,0.0005131610669195652,-0.0005086460150778294,-0.0004117910284548998
1746575917102765600,0.139765625,-0.0010690996423363686,-0.00017120176926255226,0.001730324700474739
1746575917112781800,0.14978173828125,-0.0010366090573370457,0.0019478751346468925,-0.0012060769367963076
1746575917122796800,0.159796875,-0.0006933854892849922,-0.001064138486981392,0.003269762499257922
1746575917132812800,0.169812744140625,0.0001244712620973587,-0.0003360300324857235,0.0007919576019048691
1746575917142827800,0.179827880859375,-0.0009842352010309696,-0.0014148824848234653,0.0012375570368021727
1746575917152843800,0.18984375,-0.0017043538391590118,0.0008698436431586742,0.0008199734147638083
1746575917162859800,0.19985986328125,0.00011022435501217842,-0.0010448130778968334,0.0006161208730190992
1746575917172874800,0.209874755859375,0.00040477002039551735,-0.0008312277495861053,-0.0007255796808749437
1746575917182890800,0.219890869140625,-0.0012038382701575756,-0.0009244633838534355,-0.0005151142831891775
1746575917192905700,0.22990576171875,-0.0010126233100891113,-0.0003143330104649067,0.00041299755685031414
1746575917202921700,0.239921630859375,0.0016407743096351624,-0.0024654045701026917,0.0005479350220412016
1746575917212937700,0.249937744140625,-0.00007483409717679024,-0.0004243580624461174,-0.0009724637493491173
1746575917222953000,0.259952880859375,-0.0006963261403143406,0.0017395662143826485,-0.0009810093324631453
1746575917232968700,0.26996875,0.0006791965570300817,-0.00017817644402384758,0.0014600441791117191
1746575917242984000,0.27998388671875,-0.0006689112633466721,0.0009100688621401787,0.0003503444604575634
1746575917252999700,0.289999755859375,-0.000698472373187542,0.0012357737869024277,0.000732774380594492
1746575917263015700,0.300015625,-0.001350056380033493,0.0009340383112430573,0.0006485353223979473
1746575917273030700,0.31003076171875,0.0004047006368637085,-0.004004527814686298,0.0012919548898935318
1746575917283046700,0.320046630859375,0.0033064670860767365,0.0027916976250708103,0.0009503799956291914
1746575917293061600,0.3300615234375,0.0006710030138492584,0.0011325483210384846,0.00046861404553055763
1746575917303077600,0.34007763671875,-0.000634221825748682,-0.0033346530981361866,-0.0002546540927141905
1746575917313093600,0.35009375,-0.00011890009045600891,-0.0009758914820849895,0.0009557525627315044
1746575917323108600,0.360108642578125,0.0028204796835780144,-0.0003237510100007057,-0.0010738596320152283
1746575917333124600,0.37012451171875,0.00027955789119005203,0.002220100723206997,-0.0009566806256771088
1746575917343139600,0.3801396484375,-0.00006497092545032501,-0.0017631936352699995,-0.0010210908949375153
1746575917353155800,0.39015576171875,-0.0015957560390233994,0.0001231231726706028,-0.0006405250169336796
1746575917363171800,0.400171875,-0.0007518171332776546,-0.0028139993082731962,-0.0021577326115220785
1746575917373186800,0.410186767578125,-0.0012221317738294601,-0.0014446019195020199,0.001001841388642788
1746575917383202800,0.420202880859375,-0.0010170228779315948,0.00007914751768112183,0.0015728732105344534
1746575917393217800,0.4302177734375,0.0012674364261329174,0.0015097977593541145,-0.0010221109259873629
1746575917403233800,0.44023388671875,-0.0010702311992645264,0.0007461458444595337,-0.0028739350382238626
1746575917413249800,0.450249755859375,0.0004930440336465836,-0.0004115304909646511,0.0011493023484945297
1746575917423264800,0.4602646484375,0.000647885724902153,-0.0023124483413994312,0.0011020444799214602
1746575917433280800,0.47028076171875,0.000995161710307002,0.0017030658200383186,0.001991007709875703
1746575917443295700,0.480295654296875,-0.001771219540387392,-0.0007641511037945747,0.0009584429208189249
1746575917453311700,0.490311767578125,0.0014890222810208797,0.0006409324705600739,0.0006846699398010969
1746575917463327700,0.50032763671875,-0.0012507885694503784,-0.00021136924624443054,0.0007115958724170923
1746575917473342700,0.5103427734375,0.0004959786310791969,-0.002939245430752635,-0.000801079673692584
1746575917483358700,0.520358642578125,0.0006141774356365204,-0.00047682691365480423,0.00004630116745829582
1746575917493373700,0.530373779296875,0.002754826098680496,-0.0018877694383263588,0.0011555077508091927
1746575917503390000,0.540389892578125,-0.0020753168500959873,-0.00014457711949944496,0.0017940265825018287
1746575917513405700,0.55040576171875,0.0035095983184874058,0.0018554567359387875,-0.0004864383954554796
1746575917523421000,0.5604208984375,0.00040655583143234253,-0.0014103841967880726,0.0003416349645704031
1746575917533436700,0.570436767578125,0.0005578235723078251,-0.0016045286320149899,0.0008170092478394508
1746575917543452000,0.580451904296875,0.0008043991401791573,0.0006227088160812855,0.001139325788244605
1746575917553467600,0.590467529296875,0.00029626814648509026,-0.0012617437168955803,-0.00038906256668269634
1746575917563483600,0.600483642578125,0.0008753698784857988,0.0007588909938931465,-0.0006799567490816116
1746575917573498600,0.61049853515625,-0.00027058832347393036,0.0003373129293322563,-0.0010461416095495224
1746575917583514600,0.6205146484375,-0.0002784323878586292,-0.0006515905261039734,0.004189039580523968
1746575917593529600,0.630529541015625,0.002855042926967144,-0.0023932980839163065,0.0019154989859089255
1746575917603545600,0.640545654296875,-0.0012830952182412148,-0.00028969906270504,0.0007907769177109003
1746575917613561600,0.6505615234375,0.00025461381301283836,0.00033667683601379395,0.00005840766243636608
1746575917623576600,0.66057666015625,0.0015085549093782902,0.0018531912937760353,0.0013883286155760288
1746575917633592800,0.6705927734375,-0.00029999809339642525,-0.00002673408016562462,0.0005182737950235605
1746575917643607800,0.68060791015625,-0.00024235574528574944,-0.0004787389189004898,-0.000040412647649645805
1746575917653623800,0.690623779296875,-0.0010271896608173847,0.00197216821834445,0.0005822344683110714
1746575917663639800,0.700639892578125,-0.0009054234251379967,-0.0004568379372358322,0.002632296644151211
1746575917673654800,0.71065478515625,0.0009958071168512106,-0.00015883054584264755,0.0017822154331952333
1746575917683670800,0.7206708984375,-0.0012015639804303646,0.000722608994692564,-0.0011140771675854921
1746575917693685800,0.730685791015625,0.001170779811218381,0.0006448444910347462,0.00024333596229553223
1746575917703701800,0.74070166015625,0.003787312423810363,0.0014853021129965782,0.003007426392287016
1746575917713717800,0.7507177734375,-0.0021872231736779213,0.000002454034984111786,0.00036557065322995186
1746575917723732700,0.760732666015625,-0.0006457888521254063,-0.0008250256069004536,0.0005515585653483868
1746575917733748700,0.770748779296875,0.001145186834037304,0.001097510103136301,-0.0001714897807687521
1746575917743763700,0.780763671875,0.0013342697639018297,-0.00039371056482195854,-0.0022276488598436117
1746575917753779700,0.79077978515625,-0.0004159598611295223,-0.0018709658179432154,-0.0017456167843192816
1746575917763796000,0.8007958984375,-0.0010116598568856716,0.0004763505421578884,0.0013843346387147903
1746575917773810700,0.810810791015625,-0.0008508050814270973,-0.0012278063222765923,-0.001087079057469964
1746575917783827000,0.820826904296875,0.0023862833622843027,-0.002438569674268365,0.0020581684075295925
1746575917793842700,0.8308427734375,-0.0007812804542481899,0.0018251510336995125,-0.0018699942156672478
1746575917803858000,0.84085791015625,-0.0017036250792443752,0.002006025053560734,-0.0004557915963232517
1746575917813873700,0.850873779296875,-0.0011222567409276962,-0.0005647242069244385,-0.0017793825827538967
1746575917823889000,0.860888916015625,-0.0003728652372956276,-0.000056416261941194534,-0.00008965306915342808
1746575917833904600,0.870904541015625,-0.000042100902646780014,0.0012786262668669224,-0.0016233676578849554
1746575917843920000,0.880919921875,-0.0017265183851122856,0.0025176377967000008,0.0009114106651395559
1746575917853935600,0.890935546875,-0.0007792320102453232,-0.0016379584558308125,-0.0011924866121262312
1746575917863951600,0.90095166015625,0.0009091277606785297,-0.00008853385224938393,0.0003961410839110613
1746575917873966600,0.910966552734375,0.00022709229961037636,0.0018704873509705067,0.0025897868908941746
1746575917883982600,0.920982666015625,-0.001100426074117422,0.0009631570428609848,0.0006315195932984352
1746575917893997600,0.93099755859375,5.248002707958221e-7,0.0007676808163523674,-0.0016231124754995108
1746575917904013600,0.941013671875,0.0005781375803053379,-0.0012151864357292652,-0.00040518329478800297
1746575917914029800,0.95102978515625,-0.0012330785393714905,0.0010801921598613262,0.0009769974276423454
1746575917924044800,0.961044921875,-0.0012187203392386436,0.0005202721804380417,0.0011110007762908936
1746575917934060800,0.971060791015625,0.00102925393730402,-0.0016006692312657833,-0.001428323332220316
1746575917944076800,0.981076904296875,-0.0021409369073808193,0.003106184769421816,0.00256845960393548
1746575917954091800,0.991091796875,-0.0005028266459703445,0.0006736530922353268,0.0005148958880454302
1746575917964107800,1.001107666015625,-0.00040605152025818825,0.0015461919829249382,-0.0017038166988641024
1746575917974122800,1.011122802734375,-0.0011655851267278194,0.00028198910877108574,-0.002638852456584573
1746575917984138800,1.021138671875,-0.0010819691233336926,-0.0008307113312184811,-0.0006696188356727362
1746575917994154800,1.03115478515625,0.0001963479444384575,-0.00009221676737070084,-0.0012451277580112219
1746575918004169700,1.041169677734375,-0.00011513754725456238,-0.0017412886954843998,0.001241340534761548
1746575918014185700,1.051185791015625,-0.0006155455484986305,0.0019397325813770294,0.002651484217494726
1746575918024200700,1.06120068359375,-0.0003637555055320263,-0.00045466702431440353,0.0018629460828378797
1746575918034216700,1.071216796875,-0.000996256247162819,-0.0025100945495069027,0.0005558666307479143
1746575918044233000,1.08123291015625,-0.0018781344406306744,-0.0015637725591659546,-0.001118611777201295
1746575918054248000,1.091248046875,0.0005701095797121525,0.0006407923065125942,-0.0015646915417164564
1746575918064264000,1.101263916015625,-0.00001711258664727211,0.003066288772970438,-0.00214673625305295
1746575918074279000,1.11127880859375,0.001687843119725585,0.0007171141915023327,-0.0003312593325972557
1746575918084295000,1.121294921875,0.00021763471886515617,0.0005712760612368584,0.004605316556990147
1746575918094310700,1.131310546875,-0.002332608215510845,0.00009936420246958733,-0.0006096852011978626
1746575918104326000,1.141325927734375,-0.00005289865657687187,-0.0008432455360889435,-0.0009368143510073423
1746575918114341600,1.151341552734375,-0.00080923642963171,-0.0007433770224452019,0.0009231371805071831
1746575918124356900,1.16135693359375,0.0007187642622739077,0.000985600519925356,-0.0020288540981709957
1746575918134372600,1.17137255859375,-0.0014490489847958088,0.0003682798705995083,0.00002124742604792118
1746575918144388600,1.181388671875,0.001904898788779974,-0.0008059637621045113,0.0017486707074567676
1746575918154403600,1.191403564453125,0.0022335329558700323,0.0004153619520366192,0.0018088582437485456
1746575918164418800,1.201418701171875,-0.0004920265637338161,0.001276728231459856,0.0016265090089291334
1746575918174434000,1.21143408203125,-0.00006964895874261856,0.00037258490920066833,0.00016736285760998726
1746575918184450000,1.221449951171875,-0.00021383585408329964,-0.0015658359043300152,0.0023065824061632156
1746575918194466000,1.231466064453125,-0.0002489895559847355,0.0012003891170024872,0.0004008242394775152
1746575918204481000,1.24148095703125,0.001177545404061675,-0.0007040458731353283,-0.0009723363909870386
1746575918214497000,1.2514970703125,-0.0023258430883288383,-0.0012659728527069092,0.00020158500410616398
1746575918224512000,1.261511962890625,-0.000040090177208185196,0.0003951815888285637,0.0005507040768861771
1746575918234528000,1.271528076171875,-0.002003372646868229,-0.0008884621784090996,-0.00048047187738120556
1746575918244544000,1.2815439453125,-0.0008528209291398525,-0.0016072425059974194,0.001522077014669776
1746575918254559000,1.29155908203125,-0.0003809086047112942,-0.000897509977221489,0.0002597386483103037
1746575918264575000,1.301574951171875,-0.0005988213233649731,0.0005459203384816647,-0.0009208905976265669
1746575918274590000,1.31158984375,0.0019042836502194405,0.0011280872859060764,0.001833350514061749
1746575918284606000,1.32160595703125,0.0007251754868775606,-0.0012027481570839882,-0.0020427629351615906
1746575918294622000,1.3316220703125,0.000014377757906913757,-0.000043740496039390564,-0.0006493967957794666
1746575918304637000,1.341636962890625,-0.001632501371204853,0.0002927142195403576,-0.0008557271212339401
1746575918314653000,1.35165283203125,-0.0006018579006195068,-0.00038053281605243683,-0.0018781144171953201
1746575918324668000,1.36166796875,0.0004255748353898525,0.002572626806795597,-0.000030166469514369965
1746575918334684200,1.37168408203125,-0.0008588680066168308,0.0010791257955133915,-0.00017956970259547234
1746575918344700200,1.3817001953125,0.0004413966089487076,-0.001249189954251051,0.0003468170762062073
1746575918354715100,1.391715087890625,0.00029359152540564537,-0.0008835378102958202,-0.0017051484901458025
1746575918364731100,1.401731201171875,0.0008234323468059301,0.00026744185015559196,-0.0006101122125983238
1746575918374746000,1.41174609375,-0.0009009642526507378,0.0016104737296700478,-0.002131842542439699
1746575918384762000,1.42176220703125,-0.0012136534787714481,-0.0013083955273032188,-0.0005598834250122309
1746575918394778000,1.431778076171875,0.00032858317717909813,-0.00040531763806939125,0.0024931642692536116
1746575918404793000,1.44179296875,0.000015819910913705826,0.0009928233921527863,0.0014868148136883974
1746575918414809000,1.45180908203125,0.0015229026321321726,0.001894303597509861,0.0008540477138012648
1746575918424824000,1.461823974609375,-0.0010908986441791058,0.0011448189616203308,-0.000532542122527957
1746575918434840000,1.471840087890625,-0.0005414886400103569,-0.0001534721814095974,0.0016810771776363254
1746575918444855800,1.481855712890625,0.0009588359389454126,-0.0006057126447558403,0.00001189112663269043
1746575918454871000,1.49187109375,-0.00016848044469952583,0.0007977732457220554,-0.00044404203072190285
1746575918464887000,1.501886962890625,-0.000920445192605257,-0.0002354341559112072,-0.001687898300588131
1746575918474902000,1.511902099609375,0.0008092781063169241,0.0005097184330224991,-0.0020703282207250595
1746575918484918000,1.52191796875,-0.0014575696550309658,-0.0019318163394927979,0.001972483703866601
1746575918494934000,1.53193408203125,-0.00022266199812293053,0.0007465248927474022,0.0000792425125837326
1746575918504949000,1.541948974609375,-0.00003886781632900238,0.0006039892323315144,-0.0011604356113821268
1746575918514965000,1.551965087890625,-0.0003161029890179634,-0.0008250633254647255,0.0005943211726844311
1746575918524980000,1.56197998046875,-0.000012375880032777786,-0.00028013763949275017,0.0030716434121131897
1746575918534996000,1.571995849609375,-0.00003101816400885582,-0.0030804513953626156,-0.0007766240742057562
1746575918545012000,1.582011962890625,-0.0018116580322384834,-0.000550336204469204,0.0002962648868560791
1746575918555027000,1.59202685546875,-0.0005485210567712784,-0.0017154691740870476,0.0007926782127469778
1746575918565043000,1.60204296875,-0.00001926068216562271,0.0017800075002014637,0.0008042771369218826
1746575918575058000,1.612057861328125,0.0039118314161896706,0.0016092988662421703,-0.001131308265030384
1746575918585074000,1.622073974609375,-0.0004945392720401287,-0.0014183740131556988,0.00036444584839046
1746575918595090000,1.63208984375,-0.000987490639090538,0.0004985691048204899,-0.0004651290364563465
1746575918605105000,1.64210498046875,0.0014156426768749952,-0.0010880250483751297,-0.0009408078622072935
1746575918615121200,1.65212109375,0.0002734130248427391,0.0009261234663426876,-0.0017823667731136084
1746575918625136000,1.66213623046875,0.00038464274257421494,-0.0016612461768090725,-0.0032979093957692385
1746575918635152100,1.672152099609375,-0.0018777125515043736,0.0002580941654741764,0.0003911014646291733
1746575918645168000,1.682168212890625,0.0005248314701020718,-0.0011230935342609882,-0.0020604291930794716
1746575918655183000,1.69218310546875,0.0021243260707706213,0.001435937825590372,-0.001424466259777546
1746575918665199000,1.70219921875,-0.00046630948781967163,1.4435499906539917e-7,-0.0024761331733316183
1746575918675214000,1.712214111328125,-0.0022687367163598537,-0.001918397145345807,0.0005638652946799994
1746575918685230000,1.72222998046875,0.0018795148935168982,-0.001255895011126995,-0.0008082054555416107
1746575918695246000,1.73224609375,0.0009556643199175596,0.0003609098494052887,-0.0003831651993095875
1746575918705261000,1.742260986328125,0.0007370153907686472,-0.0026120925322175026,-0.0004947853740304708
1746575918715277000,1.752277099609375,-0.0010968372225761414,-0.0008141924627125263,-0.0014226308558136225
1746575918725292000,1.7622919921875,0.0004900642670691013,0.001784272026270628,-0.001161413500085473
1746575918735308000,1.77230810546875,-0.0006612204015254974,-0.0018157889135181904,0.00010971352458000183
1746575918745324000,1.782323974609375,0.0019572831224650145,-0.003416879568248987,-0.0008454045746475458
1746575918755339300,1.79233935546875,0.001984713599085808,-0.000027474481612443924,-0.0003572471905499697
1746575918765355000,1.80235498046875,-0.00021161464974284172,0.000953936018049717,-0.0007855338044464588
1746575918775370200,1.812370361328125,0.00008745864033699036,-0.0010386412031948566,-0.001252385787665844
1746575918785386000,1.822385986328125,-0.00033107027411460876,0.00018389709293842316,-0.00037860521115362644
1746575918795402000,1.832402099609375,-0.00009298371151089668,-0.00038628559559583664,-0.002920858794823289
1746575918805417000,1.8424169921875,-0.0007880274206399918,-0.0016223913989961147,-0.002116692718118429
1746575918815433000,1.852432861328125,0.0013433005660772324,0.002104169689118862,0.0013049368280917406
1746575918825448000,1.862447998046875,0.0003074929118156433,-0.0016966941766440868,0.0005021444521844387
1746575918835464000,1.8724638671875,-0.00010423175990581512,0.0015688743442296982,0.00019375048577785492
1746575918845480000,1.88247998046875,-0.002598697319626808,-0.001256073359400034,-0.0005003125406801701
1746575918855495000,1.892494873046875,-0.000004512257874011993,-0.000051792245358228683,-0.00048779556527733803
1746575918865511000,1.902510986328125,0.0018444934394210577,0.0014168387278914452,-0.0036183155607432127
1746575918875526000,1.91252587890625,-0.000215994194149971,0.0003521069884300232,0.0016797769349068403
1746575918885542000,1.9225419921875,-0.0001311195082962513,-0.0008077924139797688,0.0013606685679405928
1746575918895558100,1.93255810546875,0.0012017926201224327,0.0021696221083402634,-0.0009032844100147486
1746575918905573000,1.942572998046875,-0.001868771854788065,0.0013351161032915115,0.0015396787784993649
1746575918915589000,1.952589111328125,-0.0014509218744933605,0.000952686183154583,0.0015591199044138193
1746575918925604000,1.96260400390625,0.00031781988218426704,0.00046222424134612083,-0.002143880119547248
1746575918935620000,1.9726201171875,-0.00009044259786605835,0.00014770496636629105,-0.002167848637327552
1746575918945636000,1.982635986328125,0.0022831743117421865,-0.0005891933105885983,-0.0015672673471271992
1746575918955651000,1.992651123046875,0.0003923298791050911,-0.0016786926425993443,-0.0017640748992562294
1746575918965667000,2.0026669921875,0.002694307826459408,-0.0029552180785685778,0.00044362014159560204
1746575918975682000,2.01268212890625,0.000009309034794569016,0.0016400665044784546,-0.0010038076434284449
1746575918985698000,2.022697998046875,0.00024259043857455254,-0.0005072341300547123,0.0006453259848058224
1746575918995714000,2.032714111328125,0.00040371157228946686,-0.0009764828719198704,-0.00020502135157585144
1746575919005729000,2.04272900390625,-0.0008573643863201141,-0.0006594131700694561,-0.00030886707827448845
1746575919015745000,2.0527451171875,-0.0004637492820620537,0.0010782992467284203,0.001996897626668215
1746575919025760000,2.062760009765625,-0.0010621892288327217,0.0013915561139583588,0.000460317125543952
1746575919035776300,2.0727763671875,-0.0002770894207060337,-0.00030594272539019585,0.0008273005951195955
1746575919045792000,2.0827919921875,0.0000944412313401699,0.0006953543052077293,0.0017204431351274252
1746575919055807200,2.09280712890625,-0.0003780038096010685,-0.0008317022584378719,0.003516478929668665
1746575919065823000,2.102822998046875,0.000321805477142334,0.0007483875378966331,0.0008767987601459026
1746575919075838200,2.112838134765625,0.001201713690534234,-0.0005043637938797474,0.0019114367896690965
1746575919085854000,2.12285400390625,-0.0005511273629963398,-0.00021064979955554008,0.0015209794510155916
1746575919095870000,2.132869873046875,0.00025794096291065216,0.00035367393866181374,-0.0010340572334825993
1746575919105885000,2.142885009765625,-0.0017645214684307575,0.000057248398661613464,-0.0009351063054054976
1746575919115901000,2.15290087890625,0.0017167627811431885,-0.0009757913649082184,0.0004047299735248089
1746575919125916000,2.162916015625,0.002198349218815565,-0.00039585819467902184,-0.003061579540371895
1746575919135932000,2.172931884765625,0.0027911688666790724,0.0002888403832912445,-0.0012128129601478577
1746575919145948000,2.182947998046875,-0.0011417213827371597,-0.001368099357932806,0.0006057580467313528
1746575919155963000,2.192962890625,-0.0004378478042781353,0.0013768207281827927,0.0040207295678555965
1746575919165979400,2.2029794921875,-0.0006301039829850197,-0.0007727355696260929,0.00006073992699384689
1746575919175994400,2.212994384765625,-0.0005581988953053951,-0.0003940341994166374,0.0032634574454277754
1746575919186010400,2.22301025390625,-0.0006641126237809658,-0.0011308384127914906,0.00016656750813126564
1746575919196026400,2.2330263671875,-0.0017264476045966148,0.0009586778469383717,-0.003917922731488943
1746575919206041300,2.243041259765625,-0.0006936597637832165,0.0008225752972066402,-0.0014689327217638493
1746575919216057300,2.253057373046875,0.00026880670338869095,-0.000692497007548809,0.0011526828166097403
1746575919226072300,2.263072265625,-0.00175477284938097,0.002071503084152937,0.0031119203194975853
1746575919236088300,2.27308837890625,0.00023833662271499634,-0.0009708921425044537,0.0007590176537632942
1746575919246104600,2.2831044921875,0.0009478474967181683,-0.00035466719418764114,-0.0017259756568819284
1746575919256119300,2.293119384765625,0.0008418536745011806,0.0008639954030513763,0.0020072434563189745
1746575919266135600,2.303135498046875,0.0018948791548609734,-0.0003851326182484627,-0.00044148298911750317
1746575919276150500,2.313150634765625,-0.00017812522128224373,-0.0007933950982987881,-0.0031459226738661528
1746575919286166500,2.32316650390625,-0.0033332700841128826,-0.0003337920643389225,-0.0014298474416136742
1746575919296182300,2.333182373046875,-0.000021363142877817154,0.0009663635864853859,0.0012429007329046726
1746575919306197500,2.343197509765625,0.001073210733011365,-0.0020363195799291134,0.00031385314650833607
1746575919316213200,2.353213134765625,0.00015628430992364883,-0.0005822335369884968,-0.00033036526292562485
1746575919326228500,2.363228515625,-0.00025964900851249695,0.00020573800429701805,0.0006011594086885452
1746575919336244200,2.373244140625,-0.0005134479142725468,-0.0001828172244131565,-0.0015690505970269442
1746575919346259500,2.383259521484375,0.00045714620500802994,-0.001325136050581932,-0.0023402951192110777
1746575919356275200,2.393275146484375,0.0021077736746519804,-0.00046679936349391937,0.002664316911250353
1746575919366291200,2.403291259765625,0.0003165462985634804,0.0008688429370522499,0.0005686285439878702
1746575919376306200,2.41330615234375,-0.0012608440592885017,-0.0008955011144280434,-0.0006316581275314093
1746575919386322200,2.423322265625,0.0005109701305627823,-0.00011444045230746269,-0.0005530708003789186
1746575919396337200,2.433337158203125,-0.0017580431886017323,-0.0004710373468697071,0.00035906187258660793
1746575919406353400,2.443353515625,-0.0006227702833712101,0.00044925231486558914,0.002259767148643732
1746575919416369400,2.453369384765625,-0.00003447802737355232,-0.001360365655273199,0.0008837117347866297
1746575919426384400,2.46338427734375,-0.00015978841111063957,-0.0015446268953382969,0.0009211241267621517
1746575919436400400,2.473400390625,0.0005797715857625008,-0.0017598103731870651,-0.0015327122528105974
1746575919446416400,2.48341650390625,0.0003140037879347801,0.0013548261485993862,-0.0008201887831091881
1746575919456431400,2.493431396484375,0.0008564896415919065,-0.0018223249353468418,-0.0036388784646987915
1746575919466447400,2.503447265625,-0.0021860888227820396,-0.0015983516350388527,0.00010609184391796589
1746575919476462300,2.51346240234375,0.0010898658074438572,0.002006503287702799,0.001876827678643167
1746575919486478300,2.523478271484375,-0.000799157191067934,-0.0017674919217824936,-0.000064431456848979
1746575919496493300,2.533493408203125,0.000777434092015028,-0.0004439009353518486,0.0009049591608345509
1746575919506509300,2.54350927734375,0.00013223523274064064,-0.0006210878491401672,-0.0014028996229171753
1746575919516525300,2.553525390625,0.0021309377625584602,-0.0007768827490508556,-0.0009176717139780521
1746575919526540300,2.563540283203125,0.00030890852212905884,-0.0020399463828653097,0.0006082062609493732
1746575919536556500,2.573556640625,0.0017036059871315956,0.000817891675978899,-0.002826739102602005
1746575919546571300,2.5835712890625,-0.0016574780456721783,0.0005831974558532238,-0.0004064561799168587
1746575919556587500,2.59358740234375,0.0007968910504132509,0.0010164938867092133,0.0015187431126832962
1746575919566603500,2.603603515625,-0.002366448752582073,0.0005546710453927517,0.0019056453602388501
1746575919576618500,2.613618408203125,0.00002400483936071396,-0.0020176763646304607,0.0014150911010801792
1746575919586634500,2.623634521484375,0.0018373304046690464,-0.0006576958112418652,0.00027344818226993084
1746575919596649500,2.6336494140625,0.0011385169345885515,0.0009585767984390259,-0.001367857912555337
1746575919606665500,2.64366552734375,0.0006802377756685019,0.0024467632174491882,-0.0009336557704955339
1746575919616681200,2.65368115234375,0.000008322298526763916,0.0011945446021854877,-0.0009600210469216108
1746575919626696400,2.663696533203125,-0.0005632685497403145,-0.0008426215499639511,-0.0007585436105728149
1746575919636712200,2.673712158203125,0.00006204191595315933,0.0008791121654212475,0.0010571996681392193
1746575919646727400,2.6837275390625,-0.0004903227090835571,-0.0009043407626450062,-0.003871489781886339
1746575919656743200,2.6937431640625,0.0016476630698889494,-0.0017134090885519981,0.00046813138760626316
1746575919666759200,2.70375927734375,-0.0014000535011291504,-0.0028895840514451265,0.0008473033085465431
1746575919676774100,2.713774169921875,-0.0017420034855604172,-0.0010030008852481842,-0.0006054509431123734
1746575919686790400,2.723790283203125,0.0002057645469903946,0.0008843638934195042,-0.002143909689038992
1746575919696805400,2.733805419921875,0.0006616977043449879,-0.002139122923836112,-0.0014405688270926476
1746575919706821400,2.7438212890625,-0.001168784685432911,0.0004266980104148388,-0.000725865364074707
1746575919716837400,2.75383740234375,-0.002017267979681492,0.0001569199375808239,-0.0018984554335474968
1746575919726852400,2.763852294921875,-0.0011915778741240501,-0.0015786155126988888,-0.0021693247836083174
1746575919736868400,2.773868408203125,0.0003384081646800041,-0.0015192274004220963,0.000819008331745863
1746575919746883300,2.78388330078125,-0.00021074991673231125,-0.0004491102881729603,0.00005940860137343407
1746575919756899300,2.7938994140625,-0.00005016149953007698,-0.0028709887992590666,0.001288457540795207
1746575919766915300,2.803915283203125,0.000667742220684886,0.0004764939658343792,-0.0003008476924151182
1746575919776930300,2.813930419921875,-0.0010433387942612171,0.00022935261949896812,-0.000040656886994838715
1746575919786946300,2.8239462890625,-0.0006031044758856297,-0.003964859526604414,0.0025823437608778477
1746575919796961300,2.833961181640625,0.0011023837141692638,-0.00011339597404003143,0.000037427060306072235
1746575919806977300,2.843977294921875,-0.0003101280890405178,0.0009823311120271683,-0.0004034510347992182
1746575919816993500,2.85399365234375,-0.0002467450685799122,0.001530942041426897,0.00008657039143145084
1746575919827008300,2.86400830078125,0.002414523623883724,0.0027132155373692513,0.0023209741339087486
1746575919837024500,2.8740244140625,0.0007082363590598106,0.0004916065372526646,-0.0014857484493404627
1746575919847039500,2.88403955078125,-0.00013930723071098328,-0.00026286207139492035,0.0020180060528218746
1746575919857055500,2.894055419921875,-0.0011499766260385513,-0.0005952245555818081,-0.0018065597396343946
1746575919867071500,2.904071533203125,-0.00003891484811902046,0.002031482756137848,-0.0000670312438160181
1746575919877086500,2.91408642578125,-0.001514306291937828,-0.0006074435077607632,0.0016626918222755194
1746575919887102500,2.9241025390625,-0.0018717925995588303,-0.00191554706543684,-0.0011405760888010263
1746575919897117400,2.934117431640625,-0.00028002122417092323,-0.0012814481742680073,0.002142835408449173
1746575919907133400,2.944133544921875,-0.0004277443513274193,0.0013553155586123466,0.00022787367925047874
1746575919917149200,2.954149169921875,0.0000026226043701171875,0.0010386654175817966,-0.0007431148551404476
1746575919927164400,2.964164306640625,0.0012984599452465773,0.0025366870686411858,-0.00022490997798740864
1746575919937180200,2.97418017578125,-0.0005425834096968174,-0.00001595309004187584,0.00014819903299212456
1746575919947195400,2.9841953125,-0.0009258510544896126,0.0016532428562641144,0.0015291704330593348
1746575919957211100,2.994211181640625,-0.00004594260826706886,0.0003325813449919224,0.0008865497075021267
1746575919967227400,3.004227294921875,-0.0003859656862914562,-0.00020186463370919228,-0.0011949855834245682
1746575919977242400,3.014242431640625,-0.0005926266312599182,-0.0003017331473529339,0.0024077389389276505
1746575919987258400,3.02425830078125,0.0008325837552547455,0.0011635427363216877,-0.000986405648291111
1746575919997273300,3.0342734375,0.0005055475048720837,-0.00010012742131948471,-0.00011794897727668285
1746575920007289300,3.044289306640625,0.000138208270072937,0.0007678461261093616,-0.0007859659381210804
1746575920017305300,3.054305419921875,-0.0007986919954419136,-0.000005269888788461685,0.0005892906337976456
1746575920027320300,3.0643203125,-0.0006663808599114418,-0.00018036412075161934,-0.0012019048444926739
1746575920037336300,3.07433642578125,-0.000021895859390497208,-0.0009430935606360435,0.000327548710629344
1746575920047351300,3.084351318359375,-0.0009072725661098957,0.00013237539678812027,-0.0005713801365345716
1746575920057367300,3.0943671875,0.00008342321962118149,0.00047219498082995415,0.00025313463993370533
1746575920067383300,3.10438330078125,-0.002290546428412199,0.00003099814057350159,0.0009990721009671688
1746575920077398300,3.114398193359375,0.0008980561979115009,0.00037161633372306824,0.001628377242013812
1746575920087414300,3.124414306640625,-0.001672408077865839,-0.0003510420210659504,-0.0016926387324929237
1746575920097429200,3.13442919921875,0.0017297803424298763,-0.0005206852219998837,-0.0006332332268357277
1746575920107445500,3.144445556640625,-0.0016721379943192005,0.001411654520779848,0.0014741616323590279
1746575920117461500,3.15446142578125,-0.0009589432738721371,0.00019112741574645042,-0.0006174850277602673
1746575920127476500,3.1644765625,0.0012009399943053722,-0.0009753364138305187,-0.0008316196035593748
1746575920137492500,3.174492431640625,-0.0007650055922567844,-0.0008099540136754513,-0.0005586456973105669
1746575920147507500,3.184507568359375,0.0015526693314313889,0.003029146231710911,0.0015667129773646593
1746575920157523500,3.1945234375,-0.002264972310513258,0.0011201919987797737,-0.0005710064433515072
1746575920167539200,3.204539306640625,-0.00035170605406165123,-0.0014948719181120396,-0.0000942964106798172
1746575920177554200,3.21455419921875,-0.0007085693068802357,0.0018149050883948803,0.0014572611544281244
1746575920187570400,3.2245703125,-0.0012550153769552708,0.0002940455451607704,0.0006551430560648441
1746575920197585400,3.23458544921875,-0.001227052416652441,-0.001453787088394165,-0.000277496175840497
1746575920207601400,3.244601318359375,-0.0008264575153589249,0.0014734920114278793,-0.0009791231714189053
1746575920217617200,3.2546171875,0.0015016780234873295,0.00039650965481996536,-0.0003311759792268276
1746575920227632400,3.26463232421875,-0.0009577954187989235,-0.00005388353019952774,0.00009173410944640636
1746575920237648100,3.274648193359375,-0.00022089853882789612,-0.0011167512275278568,-0.0016984427347779274
1746575920247663400,3.284663330078125,-0.0022193905897438526,-0.0005834572948515415,-0.0009904999751597643
1746575920257679000,3.29467919921875,0.000659220153465867,0.000031200237572193146,-0.0012003572192043066
1746575920267695000,3.304695068359375,-0.0012579923495650291,-0.0012619844637811184,-0.0019765275064855814
1746575920277710000,3.3147099609375,-0.00008513638749718666,-0.0012521310709416866,-0.0008377598132938147
1746575920287726000,3.32472607421875,0.0004934552125632763,-0.0002004699781537056,-0.0006047801580280066
1746575920297741000,3.334740966796875,-0.0006309314630925655,0.001259475015103817,-0.0004138315562158823
1746575920307757000,3.344757080078125,-0.0001013064756989479,0.0010188505984842777,-0.0005173394456505775
1746575920317772000,3.35477197265625,0.0005287970416247845,-0.0003998149186372757,0.0002845386043190956
1746575920327788300,3.364788330078125,0.00029208511114120483,-0.0014575375244021416,-0.0015976286958903074
1746575920337804300,3.37480419921875,-0.0017311186529695988,0.001651969738304615,0.0030490546487271786
1746575920347819300,3.3848193359375,0.001103599090129137,0.0011554569937288761,0.0022918034810572863
1746575920357835300,3.394835205078125,-0.0037691867910325527,-0.0014163576997816563,-0.001599873648956418
1746575920367850200,3.404850341796875,0.00028214650228619576,0.0015394408255815506,0.00033362326212227345
1746575920377866200,3.4148662109375,0.0006283572874963284,0.002270478755235672,-0.001311145257204771
1746575920387882200,3.42488232421875,0.0006145855877548456,-0.0003355625085532665,-0.0004603902343660593
1746575920397897200,3.434897216796875,-0.000665862113237381,0.001400285866111517,0.00029754568822681904
1746575920407913200,3.444913330078125,-0.0010536289773881435,0.00045155035331845284,0.00018823915161192417
1746575920417928200,3.45492822265625,-0.0013897200115025043,0.000684577040374279,0.0003552194684743881
1746575920427944200,3.464944091796875,-0.0014021312817931175,-0.000696639996021986,-0.0032173683866858482
1746575920437960200,3.474960205078125,-0.000040457118302583694,-0.0016204905696213245,0.0015036172699183226
1746575920447975200,3.48497509765625,-0.0006956127472221851,-0.0006983638741075993,-0.0008096187375485897
1746575920457991200,3.4949912109375,0.0005001467652618885,-0.0009569567628204823,-0.00039469823241233826
1746575920468006100,3.505006103515625,0.00038872286677360535,0.0023045623674988747,0.0016488991677761078
1746575920478022400,3.5150224609375,-0.0008674901910126209,-0.0008094720542430878,0.00043822615407407284
1746575920488038400,3.525038330078125,0.0006900960579514503,0.0001668119803071022,-0.0003543877974152565
1746575920498053400,3.535053466796875,0.0014411075972020626,-0.00036715157330036163,-0.0010683811269700527
1746575920508069400,3.5450693359375,-0.0009886790066957474,0.00018365168944001198,-0.000979575328528881
1746575920518084400,3.55508447265625,-0.0022675287909805775,-0.002473650500178337,0.000017245998606085777
1746575920528100400,3.565100341796875,0.00143641815520823,-0.00008313776925206184,-0.0012556826695799828
1746575920538116000,3.5751162109375,0.00006728712469339371,0.0008132820948958397,0.0007728470955044031
1746575920548131300,3.58513134765625,-0.0012179859913885593,-0.00002326304093003273,-0.0016442688647657633
1746575920558147000,3.59514697265625,-0.0016422276385128498,0.0006824745796620846,-0.0013840778265148401
1746575920568162300,3.605162353515625,-0.0013625826686620712,-0.00028366781771183014,0.0005069263279438019
1746575920578178000,3.615177978515625,0.0018073776736855507,-0.0004197554662823677,-0.0008550144266337156
1746575920588194000,3.625194091796875,-0.0002405839040875435,-0.0017789793200790882,-0.0003062121104449034
1746575920598209000,3.635208984375,0.0004009711556136608,-0.0007283622398972511,0.0013374907430261374
1746575920608225300,3.645225341796875,-0.0004559592343866825,0.0012102355249226093,0.0013567947316914797
1746575920618240300,3.655240234375,-0.00045729056000709534,0.001869900617748499,0.0031027630902826786
1746575920628256300,3.66525634765625,0.0002877018414437771,-0.00015591830015182495,0.0029160380363464355
1746575920638272300,3.675272216796875,0.0004773186519742012,0.000954886432737112,-0.000986292026937008
1746575920648287200,3.685287353515625,-0.0009013195522129536,-0.0014231903478503227,-0.0011498776730149984
1746575920658303200,3.69530322265625,-0.0015274286270141602,-0.000017041340470314026,-0.00236214860342443
1746575920668318200,3.705318115234375,-0.0001264023594558239,-0.0008116103708744049,0.0017815935425460339
1746575920678334200,3.715334228515625,0.00028159376233816147,0.0005101161077618599,0.0018953104736283422
1746575920688350200,3.72535009765625,0.00022072019055485725,0.0011722682975232601,0.0009127932135015726
1746575920698365200,3.735365234375,0.00016905460506677628,0.0018990449607372284,-0.00011598574928939342
1746575920708381200,3.745381103515625,0.0011320426128804684,-0.002556678606197238,-0.001553001580759883
1746575920718396200,3.755396240234375,0.0008588023483753204,0.0006313915364444256,-0.00027761352248489857
1746575920728412200,3.765412109375,0.0005144993774592876,0.0022007408551871777,-0.001310849329456687
1746575920738428400,3.775428466796875,0.00008093658834695816,-0.0010610991157591343,-0.0016754360403865576
1746575920748443100,3.785443115234375,0.00012563448399305344,-0.0015132976695895195,-0.0018541922327131033
1746575920758459400,3.79545947265625,0.0003613238222897053,0.0005626366473734379,-0.00007866253145039082
1746575920768474400,3.805474365234375,0.0011337259784340858,0.0006294087506830692,-0.0029790252447128296
1746575920778490400,3.815490478515625,-0.0011784303933382034,-0.0008800709620118141,0.0013925537932664156
1746575920788506400,3.82550634765625,0.00047486647963523865,0.0000335141085088253,0.0025246283039450645
1746575920798521300,3.835521240234375,0.000025058630853891373,-0.0002487809397280216,0.00012378860265016556
1746575920808537300,3.845537353515625,0.0015023527666926384,-0.0008037686347961426,-0.002852303208783269
1746575920818552300,3.85555224609375,-0.0011315136216580868,0.0005083708092570305,-0.0018722598906606436
1746575920828568300,3.865568359375,-0.00034572649747133255,-0.0018676372710615396,-0.00013918965123593807
1746575920838584000,3.875583984375,0.0007597517687827349,0.00009165052324533463,-0.00041749002411961555
1746575920848599300,3.885599365234375,0.003018932417035103,0.001990922726690769,-0.00004256167449057102
1746575920858615000,3.895614990234375,-0.0013417275622487068,-0.00045838672667741776,0.00004798592999577522
1746575920868630300,3.90563037109375,0.0008359269704669714,0.0008920729160308838,-0.000678281532600522
1746575920878646000,3.91564599609375,0.002539284760132432,-0.0012800008989870548,-0.0017528666649013758
1746575920888661200,3.9256611328125,0.0014292644336819649,0.00015713414177298546,-0.0012060529552400112
1746575920898677200,3.93567724609375,0.0005075442604720592,-0.00009959470480680466,-0.0006342725828289986
1746575920908693200,3.945693359375,-0.0010993927717208862,-0.0017636064440011978,-0.0021827213931828737
1746575920918708200,3.955708251953125,-0.0015713046304881573,-0.001189961563795805,-0.0027550344821065664
1746575920928724200,3.96572412109375,-0.0006712158210575581,-0.0015583625063300133,0.0015720701776444912
1746575920938739200,3.9757392578125,0.0007935226894915104,0.00012182584032416344,0.0020064315758645535
1746575920948755200,3.985755126953125,0.0006226217374205589,0.00027691153809428215,0.000863437307998538
1746575920958771200,3.995771240234375,0.0017794989980757236,-0.001550815999507904,-0.00228361994959414
1746575920968786200,4.0057861328125,-9.66247171163559e-7,0.0015745209529995918,-0.000263590132817626
1746575920978802200,4.01580224609375,-0.0016654417850077152,0.0019729300402104855,-0.0004084657412022352
1746575920988817200,4.025817138671875,-0.0005579800345003605,-0.0003172867000102997,0.0019921553321182728
1746575920998833200,4.035833251953125,-0.0003571780398488045,-0.0018233044538646936,0.000637405551970005
1746575921008849200,4.04584912109375,0.0014834115281701088,0.0004197475500404835,0.002857672516256571
1746575921018864000,4.055864013671875,-0.0016311551444232464,0.0009300094097852707,-0.00020949007011950016
1746575921028880400,4.06588037109375,-0.00042067188769578934,0.00024025142192840576,0.0019551434088498354
1746575921038895000,4.07589501953125,-0.0014310753904283047,-0.000670283567160368,0.0008155768737196922
1746575921048911400,4.085911376953125,-0.0002696765586733818,-0.0008308105170726776,0.0009550491813570261
1746575921058927400,4.09592724609375,-0.0005439822562038898,0.0020480663515627384,-0.0008385898545384407
1746575921068942300,4.1059423828125,0.0007827726658433676,-0.00014974549412727356,0.0006101247854530811
1746575921078958300,4.115958251953125,-0.0014556143432855606,-0.00026053283363580704,-0.0017931116744875908
1746575921088973300,4.125973388671875,0.00018882937729358673,0.0009759580716490746,-0.0007036852184683084
1746575921098989300,4.1359892578125,0.000337433535605669,0.0001477147452533245,-0.00038517103530466557
1746575921109005300,4.14600537109375,-0.001945291180163622,0.0009404993616044521,0.00014881230890750885
1746575921119020300,4.156020263671875,-0.0017375648021697998,0.0011468944139778614,0.0015842560678720474
1746575921129036300,4.166036376953125,0.0012245636899024248,-0.0009802202694118023,-0.0019549629651010036
1746575921139051300,4.17605126953125,-0.0017467252910137177,-0.0006675655022263527,-0.003205849789083004
1746575921149067300,4.1860673828125,0.0010384917259216309,0.00009108055382966995,0.0012007695622742176
1746575921159083000,4.1960830078125,0.0006009344942867756,-0.0003147851675748825,0.001937133609317243
1746575921169098500,4.206098388671875,-0.0004194248467683792,-0.0018568867817521095,-0.001096218591555953
1746575921179114200,4.2161142578125,0.0015300088562071323,0.001215602271258831,-0.0019851818215101957
1746575921189129500,4.22612939453125,0.002500652801245451,-0.0017288799863308668,-0.0007097490597516298
1746575921199145200,4.236145263671875,-0.0032312688417732716,-0.0016519147902727127,-0.002509513171389699
1746575921209161500,4.246161376953125,0.0009471417870372534,-0.0012349127791821957,0.00263990368694067
1746575921219176200,4.25617626953125,-0.0008925697766244411,-0.0018660819623619318,-0.0009945123456418514
1746575921229192400,4.2661923828125,-0.0015725111588835716,0.0006491136737167835,-0.00232274760492146
1746575921239207400,4.27620751953125,0.00023763952776789665,-0.00037593673914670944,-0.0005980844143778086
1746575921249223400,4.286223388671875,-0.0002105366438627243,-0.0005228258669376373,-0.00036028609611094
1746575921259239400,4.296239501953125,-0.0020156274549663067,-0.0001172265037894249,-0.0007038342300802469
1746575921269254400,4.30625439453125,0.0008653886616230011,-0.0003771986812353134,-0.000009985174983739853
1746575921279270400,4.3162705078125,0.0012614007573574781,0.0011591790243983269,-0.0018912423402071
1746575921289285400,4.326285400390625,-0.0017109685577452183,0.000607069581747055,-0.00004892516881227493
1746575921299301400,4.33630126953125,0.0009692367166280746,-0.0009279763326048851,-0.00018288195133209229
1746575921309317400,4.3463173828125,-0.000978351105004549,0.00027096644043922424,-0.001139732077717781
1746575921319332400,4.356332275390625,-0.001264641061425209,-0.00029815128073096275,-0.0010374668054282665
1746575921329348400,4.366348388671875,0.0007395809516310692,-0.0013893595896661282,0.000912234652787447
1746575921339363300,4.37636328125,0.0011137549299746752,0.00033157505095005035,0.0007942565716803074
1746575921349379300,4.38637939453125,0.0006268736906349659,-0.0006047352217137814,0.0008185396436601877
1746575921359394300,4.396394287109375,0.00025349855422973633,-0.0008044722490012646,0.0013642213307321072
1746575921369410600,4.40641064453125,-0.0009425720199942589,0.0008866372518241405,0.00017409445717930794
1746575921379426600,4.416426513671875,0.0000020512379705905914,0.0010197949595749378,-0.0008309823460876942
1746575921389441500,4.426441650390625,-0.002564758528023958,0.0009572906419634819,0.0002091194037348032
1746575921399457500,4.43645751953125,-0.000051266979426145554,-0.0005756248719990253,-0.0019198115915060043
1746575921409472500,4.446472412109375,-0.00282440148293972,0.0007536630146205425,-0.0010867374949157238
1746575921419488500,4.456488525390625,0.0001024128869175911,0.00136911915615201,0.0004736084956675768
1746575921429504500,4.46650439453125,0.0029760031029582024,0.0009312136098742485,0.002911555813625455
1746575921439519500,4.47651953125,0.0018068754579871893,-0.00021261442452669144,-0.0016411179676651955
1746575921449535500,4.486535400390625,-0.0009624669328331947,0.001200411468744278,-0.0015394226647913456
1746575921459550500,4.496550537109375,0.00076699024066329,0.0011572684161365032,0.0008702052291482687
1746575921469566500,4.50656640625,0.00032703159376978874,-0.0010629892349243164,0.0006059366278350353
1746575921479582200,4.516582275390625,0.00010226061567664146,-0.0018124026246368885,-0.00028196140192449093
1746575921489597400,4.526597412109375,-0.0008896398358047009,0.0007649757899343967,-0.000595657154917717
1746575921499613400,4.536613525390625,0.0009210433345288038,0.0002656332217156887,0.002889355644583702
1746575921509628400,4.54662841796875,0.001690942095592618,0.0009191036224365234,-0.0007299885619431734
1746575921519644400,4.55664453125,-0.0007405239157378674,-0.000892378855496645,-0.0005733950529247522
1746575921529660400,4.566660400390625,0.002095137955620885,0.0022514299489557743,0.0013799963053315878
1746575921539675400,4.57667529296875,-0.001008243765681982,-0.00024208799004554749,-0.00019579590298235416
1746575921549691400,4.58669140625,0.0015240684151649475,-0.00018259696662425995,-0.0007022698409855366
1746575921559706400,4.596706298828125,0.00004574796184897423,-0.00166437984444201,-0.0010396922007203102
1746575921569722400,4.606722412109375,0.0015927173662930727,0.000008402392268180847,0.0017163914162665606
1746575921579738400,4.61673828125,0.0006246580742299557,0.0021317405626177788,0.00034965737722814083
1746575921589753300,4.62675341796875,-0.0007912144064903259,-0.0004503200761973858,0.0018383606802672148
1746575921599769300,4.636769287109375,0.0020557045936584473,0.0007797940634191036,-0.0013987116981297731
1746575921609784300,4.646784423828125,0.000873057171702385,0.0022984477691352367,-0.0008709481917321682
1746575921619800300,4.65680029296875,0.0018166149966418743,0.0017612879164516926,-0.0012810751795768738
1746575921629816300,4.66681640625,-0.0006172247231006622,0.00059471745043993,-0.0007467034738510847
1746575921639831300,4.676831298828125,-0.0018982049077749252,-0.0011885352432727814,-0.001982942456379533
1746575921649847600,4.68684765625,0.00037619052454829216,0.0010787621140480042,0.0013246138114482164
1746575921659862500,4.696862548828125,-0.0021705906838178635,-0.0016970504075288773,0.0011051692999899387
1746575921669878500,4.70687841796875,0.00031925924122333527,-0.0005136141553521156,-0.00017154589295387268
1746575921679894500,4.71689453125,-0.0002312157303094864,0.00008879275992512703,0.0011384633835405111
1746575921689909500,4.726909423828125,0.0005889763124287128,0.0006123301573097706,0.0005800884682685137
1746575921699925500,4.736925537109375,-0.000547927338629961,0.0015393765643239021,-0.0011102196294814348
1746575921709940500,4.7469404296875,-0.0019676177762448788,0.0008945460431277752,-0.0020495483186095953
1746575921719956500,4.75695654296875,0.0007890202105045319,-0.0005965577438473701,0.0017973880749195814
1746575921729972500,4.766972412109375,0.0007413141429424286,0.000528508797287941,-0.0005495650693774223
1746575921739987500,4.776987548828125,0.00047739502042531967,-0.0006731096655130386,0.0018075988627970219
1746575921750003500,4.78700341796875,-0.0006703874096274376,-0.00023128651082515717,0.000033864518627524376
1746575921760018400,4.797018310546875,-0.0005750460550189018,-0.0038601099513471127,0.0030237955506891012
1746575921770034400,4.807034423828125,-0.0005114399828016758,0.001886522863060236,0.0009794537909328938
1746575921780049400,4.81704931640625,0.001421748660504818,-0.0005406821146607399,-0.0011649234220385551
1746575921790065400,4.8270654296875,-0.0008444963023066521,0.0022284118458628654,-0.0008984676096588373
1746575921800081400,4.837081298828125,-0.00005620066076517105,-0.00013887230306863785,-0.0013277691323310137
1746575921810096400,4.847096435546875,0.0013193204067647457,0.0011591068468987942,0.002365286462008953
1746575921820112400,4.8571123046875,0.001638367073610425,-0.00005609355866909027,0.0017311880365014076
1746575921830127400,4.86712744140625,-0.001618791837245226,-0.0026918414514511824,-0.0008051004260778427
1746575921840143400,4.877143310546875,-0.002168734557926655,-0.0003642388619482517,0.0021323664113879204
1746575921850159400,4.887159423828125,0.0007615769281983376,0.0008759666234254837,0.00037235580384731293
1746575921860174300,4.89717431640625,0.001355994725599885,-0.0015091602690517902,-0.0010484408121556044
1746575921870190300,4.9071904296875,0.000880067003890872,0.0003772461786866188,-0.00018829316832125187
1746575921880205300,4.917205322265625,0.0019916705787181854,0.001337848138064146,0.0021915072575211525
1746575921890221300,4.92722119140625,0.0008760448545217514,-0.0023272798862308264,0.0003104305360466242
1746575921900237300,4.9372373046875,-0.0012409021146595478,0.00036996975541114807,0.0003977823071181774
1746575921910252300,4.947252197265625,0.0002494850195944309,-0.0000744527205824852,0.0011887887958437204
1746575921920268300,4.957268310546875,0.000247088260948658,0.0005963975563645363,0.003046609926968813
1746575921930283300,4.967283203125,0.0022043907083570957,0.0007740780711174011,-0.0017586098983883858
1746575921940299500,4.977299560546875,-0.0008984585292637348,0.0006779376417398453,-0.0009474107064306736
1746575921950315500,4.9873154296875,-0.0001481710933148861,0.0006787097081542015,0.00210942723788321
1746575921960330500,4.99733056640625,0.0007687555626034737,0.002324542962014675,-0.0003486704081296921
1746575921970346500,5.007346435546875,0.0009414241649210453,0.002271283883601427,0.001983898226171732
1746575921980361500,5.017361572265625,-0.00009161606431007385,0.0013271928764879704,0.0021333014592528343
1746575921990377500,5.02737744140625,0.0011961583513766527,-0.0004585804417729378,0.003251648973673582
1746575922000393500,5.0373935546875,-0.00008881697431206703,-0.0005469974130392075,-0.0003944849595427513
1746575922010408400,5.047408447265625,0.00020588422194123268,-0.0009447969496250153,0.0002572867088019848
1746575922020424400,5.057424560546875,-0.0020993477664887905,0.0015740208327770233,0.0010035042650997639
1746575922030439400,5.067439453125,-0.0017296243458986282,0.0012717535719275475,-0.00391761539503932
1746575922040455400,5.077455322265625,-0.0006670230068266392,-0.000469953753054142,0.0006576955784112215
1746575922050471400,5.087471435546875,0.0007564332336187363,-0.0006372849456965923,-0.0000693893525749445
1746575922060486400,5.097486328125,0.00033458881080150604,-0.0003816215321421623,-0.002944804495200515
1746575922070502400,5.10750244140625,-0.00029653916135430336,0.0006504268385469913,0.0030201287008821964
1746575922080517400,5.117517333984375,-0.00011331355199217796,0.0021780161187052727,0.0000014356337487697601
1746575922090533400,5.127533447265625,0.00048318319022655487,0.0014806827530264854,0.00001633330248296261
1746575922100548600,5.137548583984375,0.0013849292881786823,-0.0006730156019330025,-0.0025783847086131573
1746575922110564400,5.147564453125,0.0009596473537385464,0.0011480320245027542,-0.003486916422843933
1746575922120580400,5.157580322265625,-0.0011506415903568268,-0.0026395157910883427,0.0009946508798748255
1746575922130595300,5.16759521484375,-0.00020159641280770302,-0.001266308594495058,-0.0005691023543477058
1746575922140611300,5.177611328125,0.0007534129545092583,-0.0002700197510421276,-0.0005930708721280098
1746575922150627300,5.18762744140625,-0.000024619046598672867,0.00025483081117272377,-0.00026681111194193363
1746575922160642300,5.197642333984375,0.00200098124332726,-0.0006977822631597519,0.0019550640136003494
1746575922170658300,5.207658203125,-0.0010501113720238209,-0.0005426951684057713,-0.001326190773397684
1746575922180673300,5.21767333984375,-0.0008927183225750923,0.002241373062133789,0.001980922417715192
1746575922190689300,5.227689208984375,-0.003967334516346455,0.002054475247859955,0.00022778217680752277
1746575922200704300,5.237704345703125,0.0010681706480681896,0.00011622626334428787,0.002688542939722538
1746575922210720300,5.24772021484375,-0.0011464995332062244,-0.0016501732170581818,-0.0017099622637033463
1746575922220736500,5.257736572265625,-0.0019936515018343925,-0.0022512488067150116,-0.0019089006818830967
1746575922230751500,5.26775146484375,0.0013162721879780293,0.0013620378449559212,-0.0007097388152033091
1746575922240767500,5.277767578125,-0.0010613980703055859,-0.000684068538248539,-0.000980848679319024
1746575922250782500,5.287782470703125,-0.0011847480200231075,0.0022796490229666233,-0.00048515270464122295
1746575922260798500,5.297798583984375,0.0025788310449570417,-0.0007526259869337082,-0.00004413328133523464
1746575922270814500,5.307814453125,-0.00003771437332034111,0.0001758122816681862,-0.0007763796020299196
1746575922280829400,5.317829345703125,0.0009692269377410412,0.0007510553114116192,-0.0019281969871371984
1746575922290845400,5.327845458984375,-0.0008752127178013325,0.0010003945790231228,0.002397332340478897
1746575922300860400,5.3378603515625,0.0001772688701748848,-0.0006848536431789398,-0.0012048592325299978
1746575922310876400,5.34787646484375,0.0010504932142794132,0.0010516950860619545,-0.0005303358193486929
1746575922320892400,5.357892333984375,-0.00035645486786961555,0.00038830144330859184,0.0029996843077242374
1746575922330907400,5.367907470703125,0.000897061312571168,0.0012841043062508106,0.003275351831689477
1746575922340923400,5.37792333984375,-0.000331987626850605,-0.00010979408398270607,-0.0022712138015776873
1746575922350938400,5.3879384765625,-0.0020083393901586533,0.0006432808004319668,0.0003454310353845358
1746575922360954600,5.39795458984375,-0.0009060571901500225,0.0018568835221230984,-0.0007414051797240973
1746575922370970400,5.407970458984375,-0.000037097372114658356,0.0004075700417160988,0.0011641031596809626
1746575922380985600,5.417985595703125,-0.000035233329981565475,0.00028000446036458015,-0.0015523210167884827
1746575922391001300,5.42800146484375,0.0013123927637934685,0.00011005857959389687,-0.0006068078801035881
1746575922401016600,5.4380166015625,-0.00009881611913442612,-0.0002731704153120518,0.0013226522132754326
1746575922411032300,5.4480322265625,-0.0013909596018493176,0.0016096727922558784,0.0017790962010622025
1746575922421048300,5.45804833984375,0.0011337168980389833,-0.0002478822134435177,0.0002800028305500746
1746575922431063300,5.468063232421875,0.000131967943161726,-0.0013906434178352356,-0.0000011820811778306961
1746575922441079300,5.478079345703125,-0.0012888284400105476,-0.0005365675315260887,-0.002137836068868637
1746575922451094300,5.48809423828125,-0.0009209662675857544,-0.0006263135001063347,0.0005222593899816275
1746575922461110300,5.4981103515625,0.00035016052424907684,-0.0009381696581840515,-0.00123702478595078
1746575922471125200,5.508125244140625,0.001318720169365406,0.0008797105401754379,-0.0006170240230858326
1746575922481141200,5.518141357421875,0.0005626487545669079,0.0012917015701532364,0.0005478423554450274
1746575922491157200,5.5281572265625,-0.000586717389523983,-0.00016602175310254097,0.001103277551010251
1746575922501172200,5.538172119140625,-0.0026096547953784466,0.00022200122475624084,0.0008151235524564981
1746575922511188500,5.5481884765625,0.0005979384295642376,-0.001512817107141018,-0.0016231979243457317
1746575922521203500,5.558203369140625,-0.0005059419199824333,0.0004262304864823818,0.0007099974900484085
1746575922531219500,5.568219482421875,0.0007510506547987461,0.0016741519793868065,-0.00045332848094403744
1746575922541235500,5.5782353515625,-0.0004329909570515156,-0.0007045832462608814,-0.0018197966273874044
1746575922551250400,5.58825048828125,0.001121795503422618,-0.000630261842161417,-0.0012871723156422377
1746575922561266400,5.598266357421875,-0.0004907483235001564,-0.0010347962379455566,0.002077199053019285
1746575922571281400,5.608281494140625,0.0007060999050736427,0.0009375824593007565,0.001851866953074932
1746575922581297400,5.61829736328125,0.0004491047002375126,0.0005269232206046581,0.0005431894678622484
1746575922591313400,5.6283134765625,0.0008863508701324463,0.0012174416333436966,0.0008380829822272062
1746575922601328400,5.638328369140625,-0.0018045068718492985,-0.0003650086000561714,-0.0009305225685238838
1746575922611344400,5.648344482421875,-0.0001211012713611126,0.00018339324742555618,0.0004642670974135399
1746575922621359400,5.658359375,0.003062973963096738,0.001298192422837019,0.0004863713402301073
1746575922631375400,5.668375244140625,-0.0002249893732368946,0.0007263058796525002,0.0005336441099643707
1746575922641391600,5.6783916015625,-0.0002995575778186321,0.0019036894664168358,-0.0000037818681448698044
1746575922651406300,5.68840625,-0.0004152292385697365,-0.0006199469789862633,-0.0019115004688501358
1746575922661422600,5.698422607421875,0.000566145870834589,-0.0000662757083773613,-0.0009423759765923023
1746575922671437600,5.7084375,0.002327467082068324,-0.0017007349524646997,-0.0008609644137322903
1746575922681453600,5.71845361328125,0.002511757891625166,0.002045267727226019,0.0018298935610800982
1746575922691469300,5.72846923828125,-0.0011195698752999306,-0.00020510517060756683,0.0004572528414428234
1746575922701484500,5.738484619140625,-0.00013366760686039925,0.0003949049860239029,0.0020628725178539753
1746575922711500300,5.748500244140625,-0.003055532928556204,0.000006697140634059906,-0.0006948725786060095
1746575922721515500,5.758515625,-0.000875202938914299,0.0002935198135674,-0.00033428031019866467
1746575922731531300,5.76853125,0.0005281921476125717,0.0025574490427970886,-0.0021451127249747515
1746575922741547300,5.77854736328125,0.0009955770801752806,-0.0017036085482686758,-0.0014534902293235064
1746575922751562200,5.788562255859375,0.0003090579994022846,-0.0015101763419806957,-0.002962122904136777
1746575922761578200,5.798578125,-0.00025260262191295624,0.0019127847626805305,-0.0030316312331706285
1746575922771593200,5.80859326171875,0.000616198405623436,0.00025410857051610947,-0.0016089067794382572
1746575922781609200,5.818609130859375,0.00025960104539990425,-0.0011946512386202812,0.000016154255717992783
1746575922791624200,5.828624267578125,0.0006786510348320007,0.0005286373198032379,-0.0000814951490610838
1746575922801640400,5.838640380859375,-0.00032402900978922844,0.0011366368271410465,0.0014191963709890842
1746575922811656400,5.848656494140625,-0.0010893745347857475,-0.0013843048363924026,-0.0004037427715957165
1746575922821671400,5.85867138671875,-0.000409203115850687,0.0022650249302387238,-0.0016991044394671917
1746575922831687400,5.8686875,0.0013553164899349213,0.0010479995980858803,0.0012101856991648674
1746575922841702400,5.878702392578125,-0.001965645235031843,0.0010820883326232433,-0.002162974327802658
1746575922851718400,5.888718505859375,0.00028031039983034134,-0.002030518837273121,0.0026533124037086964
1746575922861734400,5.898734375,-0.0018257172778248787,0.0006755189970135689,-0.0019686033483594656
1746575922871749400,5.908749267578125,0.0007270663045346737,-0.0004992936737835407,-0.0003840434364974499
1746575922881765400,5.918765380859375,-0.000026341993361711502,-0.0017083687707781792,0.0007845514919608831
1746575922891780400,5.9287802734375,0.001968557946383953,0.000744182150810957,0.0018388812895864248
1746575922901796400,5.93879638671875,0.00035228533670306206,-0.000618291087448597,0.00008279294706881046
1746575922911812400,5.948812255859375,0.00010083429515361786,0.0008177105337381363,-0.002560323104262352
1746575922921827300,5.958827392578125,-0.0014928015880286694,0.0010842927731573582,0.0007305447943508625
1746575922931843600,5.968843505859375,0.0013966669794172049,-0.0012694946490228176,0.000351868337020278
1746575922941858300,5.9788583984375,0.0004443204961717129,-0.004102032631635666,0.0009880973957479
1746575922951874600,5.98887451171875,-0.0019234037026762962,0.000027788802981376648,-0.0019374024122953415
1746575922961890600,5.998890625,0.002960567595437169,0.0006837253458797932,-0.001763231586664915
1746575922971905500,6.008905517578125,-0.0005607451312243938,-0.0016123848035931587,0.00001909700222313404
1746575922981921500,6.018921630859375,-0.002655587624758482,0.00221617566421628,-0.0024379354435950518
1746575922991936500,6.0289365234375,-0.0018432298675179482,0.0017611957155168056,0.00040113087743520737
1746575923001952500,6.038952392578125,0.00023803021758794785,0.0012788972817361355,0.0014277794398367405
1746575923011968300,6.04896826171875,0.0005803406238555908,-0.0007951743900775909,-0.0019309211056679487
1746575923021983500,6.0589833984375,0.0012224286329001188,-0.0006180740892887115,0.0006755145732313395
1746575923031999200,6.068999267578125,0.00021410686895251274,-0.002443126169964671,0.0012500905431807041
1746575923042014500,6.079014404296875,0.000004515983164310455,-0.0006878366693854332,-0.0005805662367492914
1746575923052030200,6.0890302734375,0.00043959682807326317,-0.0018162927590310574,-0.0002015111967921257
1746575923062045400,6.09904541015625,0.0010697008110582829,-0.0015731463208794594,0.0008142185397446156
1746575923072061200,6.109061279296875,0.000350060872733593,0.003954081330448389,0.0017337608151137829
1746575923082077400,6.119077392578125,0.00044007599353790283,0.001263755839318037,0.0023252489045262337
1746575923092092400,6.129092529296875,-0.0009077312424778938,-0.0016924580559134483,0.0006932802498340607
1746575923102108400,6.1391083984375,-0.0008065309375524521,0.0006910711526870728,0.0009939512237906456
1746575923112123400,6.149123291015625,-0.0007397723384201527,-0.0005696429871022701,0.00006914115510880947
1746575923122139400,6.159139404296875,0.000127352774143219,0.0006436933763325214,-0.0008200884331017733
1746575923132155400,6.1691552734375,0.0008061712142080069,-0.0015768632292747498,-0.00048630288802087307
1746575923142170400,6.17917041015625,-0.00031848158687353134,-0.00065993657335639,-0.001291909022256732
1746575923152186400,6.189186279296875,-0.000017323996871709824,-0.001894659362733364,0.0002767557743936777
1746575923162201300,6.199201416015625,-0.00030867382884025574,0.001057454850524664,-0.000173850916326046
1746575923172217900,6.2092177734375,-0.0008815624751150608,0.0003195088356733322,0.0043405829928815365
1746575923182233900,6.21923388671875,-0.0003467998467385769,-0.0011351099237799644,0.0014907345175743103
1746575923192248800,6.229248779296875,-0.0004838895983994007,0.00008776970207691193,0.0023385074455291033
1746575923202264800,6.239264892578125,-0.000919050071388483,-0.0014699134044349194,-0.0018495796248316765
1746575923212279800,6.24927978515625,0.002909279428422451,0.00041047297418117523,-0.00032292259857058525
1746575923222295800,6.2592958984375,0.00008766027167439461,0.0022547119297087193,-0.0026910058222711086
1746575923232311800,6.269311767578125,-0.0005013127811253071,-0.0015099355950951576,0.0007035806775093079
1746575923242326800,6.279326904296875,0.0007138876244425774,-0.00007981806993484497,-0.0006817958783358335
1746575923252342800,6.2893427734375,0.00032185064628720284,0.0013605537824332714,-0.0013354159891605377
1746575923262357800,6.299357666015625,0.00006858399137854576,-0.000974506139755249,0.0009421193972229958
1746575923272373800,6.309373779296875,-0.0006514149717986584,-0.00021951226517558098,0.00022738240659236908
1746575923282389800,6.3193896484375,0.001515599200502038,-0.0006410907953977585,-0.0014163204468786716
1746575923292404700,6.32940478515625,0.0003144489601254463,-0.00024298764765262604,-0.002296749735251069
1746575923302420700,6.339420654296875,-0.0014429711736738682,0.00015089381486177444,-0.0008786164689809084
1746575923312435700,6.349435791015625,-0.00019287317991256714,-0.00006811274215579033,-0.0015467379707843065
1746575923322451700,6.35945166015625,-0.0006978083401918411,-0.0014449669979512691,0.0012495811097323895
1746575923332467700,6.3694677734375,0.000098424032330513,0.00038937153294682503,0.00025075115263462067
1746575923342482700,6.379482666015625,0.000624664593487978,-0.0007480643689632416,0.0003825775347650051
1746575923352498700,6.389498779296875,-0.0002128048799932003,0.0020889397710561752,0.0019489767728373408
1746575923362513700,6.399513671875,-0.0000916309654712677,-0.0016804987099021673,-0.0004561238456517458
1746575923372529700,6.40952978515625,-0.0002208971418440342,0.001087680459022522,0.0009936594869941473
1746575923382544600,6.419544677734375,-0.0003306195139884949,-0.00009183352813124657,-0.0003882546443492174
1746575923392560600,6.429560546875,-0.0018577449955046177,-0.0001580817624926567,-0.0003098661545664072
1746575923402576600,6.43957666015625,-0.0005770311690866947,0.0005620373412966728,-0.000618792837485671
1746575923412591600,6.449591552734375,-0.000023683998733758926,-0.0018111455719918013,0.000886332243680954
1746575923422607600,6.459607666015625,0.0011193447280675173,-0.0019347162451595068,-0.0005376599729061127
1746575923432622600,6.46962255859375,-0.00042562326416373253,0.0006970320828258991,0.0027502859011292458
1746575923442638600,6.479638671875,0.0015043693128973246,0.0012032990343868732,0.0007654321379959583
1746575923452654800,6.48965478515625,0.000765153206884861,-0.00007080007344484329,-0.0018480322323739529
1746575923462669800,6.499669921875,0.00029350724071264267,-0.0024985375348478556,0.00027504004538059235
1746575923472685800,6.509685791015625,-0.0010002665221691132,-0.0013893963769078255,0.00028501986525952816
1746575923482700800,6.51970068359375,0.001229332061484456,-0.0005656806752085686,-0.00015413551591336727
1746575923492716800,6.529716796875,-0.0029347888194024563,0.0007821856997907162,-0.0007781211752444506
1746575923502732800,6.53973291015625,-0.001161389984190464,0.0008578198030591011,-0.0002766477409750223
1746575923512747800,6.549747802734375,-0.0005319956690073013,-0.001176738180220127,-0.00008705654181540012
1746575923522763800,6.559763671875,0.00009118393063545227,0.0006517879664897919,0.0014112377539277077
1746575923532778800,6.56977880859375,-0.001863506156951189,-0.0004214290529489517,0.00039442325942218304
1746575923542794800,6.579794677734375,0.0009826140012592077,-0.0025453001726418734,-0.0010306343901902437
1746575923552810800,6.589810791015625,0.0024015167728066444,0.0009019109420478344,-0.002210155827924609
1746575923562825700,6.59982568359375,0.0005703275091946125,0.0007085655815899372,0.00043942290358245373
1746575923572841700,6.609841796875,0.0008015530183911324,-0.0016766961198300123,0.0016282813157886267
1746575923582856700,6.619856689453125,0.00039329053834080696,-0.00021142512559890747,-0.0006620374042540789
1746575923592873000,6.629873046875,0.000751095823943615,-0.00006011035293340683,-0.000015630852431058884
1746575923602887700,6.6398876953125,0.0006759949028491974,0.00014015939086675644,-0.00004199612885713577
1746575923612904000,6.649904052734375,-0.00110622588545084,0.0018875435926020145,0.0011187009513378143
1746575923622919700,6.659919677734375,-0.000582382082939148,0.0012142960913479328,-0.0009945174679160118
1746575923632935000,6.669934814453125,-0.0011788061819970608,-0.0009149336256086826,0.0017817893531173468
1746575923642950700,6.67995068359375,-0.0009758733212947845,-0.002404173370450735,-0.0007836336735635996
1746575923652966000,6.6899658203125,0.0016652585472911596,-0.0004560560919344425,0.0006543758790940046
1746575923662981600,6.699981689453125,-0.0007305210456252098,0.0023216204717755318,0.0008498518727719784
1746575923672997600,6.70999755859375,-0.0005190195515751839,-0.0006806892342865467,-0.000890467781573534
1746575923683012600,6.7200126953125,-0.0012039844878017902,-0.0016298398841172457,0.0019465978257358074
1746575923693028600,6.730028564453125,0.0015843920409679413,-0.0000348077155649662,0.0006807241588830948
1746575923703043600,6.740043701171875,0.00013936078175902367,0.0005992907099425793,0.000006411690264940262
1746575923713059600,6.7500595703125,-0.0004972228780388832,-0.0006081787869334221,0.00040341122075915337
1746575923723075600,6.76007568359375,-0.0009150728583335876,0.00021180836483836174,-0.001662935595959425
1746575923733090600,6.770090576171875,0.0008154157549142838,0.00033088866621255875,-0.0006706439889967442
1746575923743106800,6.78010693359375,-0.00022614654153585434,0.00131572550162673,0.0007160638924688101
1746575923753121800,6.790121826171875,0.0009122863411903381,-0.0004215133376419544,-0.0006344905123114586
1746575923763137800,6.8001376953125,0.001900052884593606,0.00012123864144086838,0.0003420906141400337
1746575923773153800,6.81015380859375,-0.0020873104222118855,0.0033318023197352886,0.00003203516826033592
1746575923783168800,6.820168701171875,0.0012168737594038248,-0.0005758544430136681,-0.00034054089337587357
1746575923793184800,6.830184814453125,0.0003420771099627018,-0.0006718169897794724,-0.0011768108233809471
1746575923803199700,6.84019970703125,0.002004954731091857,-0.001527490559965372,0.00020110886543989182
1746575923813215700,6.8502158203125,-0.0001619383692741394,-0.0007784110493957996,0.00010077212937176228
1746575923823231700,6.860231689453125,-0.00047272955998778343,-0.0017203714232891798,0.001218234421685338
1746575923833246700,6.870246826171875,0.0013225728180259466,-0.00006570154801011086,-0.00003783451393246651
1746575923843262700,6.8802626953125,0.0020687906071543694,0.0019822693429887295,0.004160372540354729
1746575923853277700,6.890277587890625,0.0016407736111432314,0.0006446461193263531,-0.0003534862771630287
1746575923863293700,6.900293701171875,0.00016538240015506744,-0.00020143995061516762,0.00028407457284629345
1746575923873308700,6.91030859375,-0.0006670793518424034,-0.00034478306770324707,0.0003328961320221424
1746575923883324700,6.92032470703125,0.0016325602773576975,-0.00023985467851161957,0.0016825860366225243
1746575923893341000,6.9303408203125,-0.0004563452675938606,-0.0011029178276658058,0.002339465543627739
1746575923903356000,6.94035595703125,0.0019194604828953743,-0.0011889380402863026,-0.0003204997628927231
1746575923913372000,6.950371826171875,0.0011722822673618793,0.002181383315473795,-0.0017063561826944351
1746575923923387000,6.960386962890625,0.00048412149772047997,-0.000492430292069912,0.00092697748914361
1746575923933403000,6.97040283203125,-0.0012097242288291454,0.0011114301159977913,0.0024855155497789383
1746575923943418600,6.980418701171875,-0.0003481917083263397,0.0016398010775446892,-0.0011704717762768269
1746575923953433900,6.990433837890625,-0.0016620750539004803,-0.0023183217272162437,-0.0016869367100298405
1746575923963449600,7.00044970703125,0.0008503512945026159,0.00029823416844010353,0.0008361421059817076
1746575923973464800,7.01046484375,-0.0031580859795212746,-0.0005260896869003773,0.0010699329432100058
1746575923983480600,7.02048046875,-0.0005085067823529243,-0.0008560554124414921,0.0030957995913922787
1746575923993496600,7.03049658203125,-0.0022485656663775444,-0.001327410340309143,0.0005141261499375105
1746575924003511600,7.040511474609375,0.0012068860232830048,-0.0021950681693851948,-0.00082038389518857
1746575924013527600,7.050527587890625,0.00008097104728221893,0.00019467482343316078,-0.00047521432861685753
1746575924023542500,7.06054248046875,-0.00023887446150183678,0.00011983979493379593,0.0017386714462190866
1746575924033558800,7.070558837890625,-0.000011251308023929596,0.001898083370178938,0.0014618367422372103
1746575924043573800,7.08057373046875,0.001274788985028863,-0.0016721505671739578,-0.0010652369819581509
1746575924053589800,7.09058984375,-0.0003004157915711403,-0.00019502406939864159,0.0009715741034597158
1746575924063605800,7.100605712890625,-0.002225348725914955,-0.0004291157238185406,0.00031750183552503586
1746575924073620700,7.110620849609375,-0.0008809617720544338,0.0020232717506587505,-0.0004890637937933207
1746575924083636700,7.12063671875,0.0002088039182126522,-0.0014660018496215343,-0.002531442092731595
1746575924093651700,7.130651611328125,0.0007827731315046549,-0.00014885608106851578,0.0013787539210170507
1746575924103667700,7.140667724609375,0.0003071324899792671,-0.00005165068432688713,0.004183328710496426
1746575924113683700,7.15068359375,0.0014706826768815517,0.0003966675139963627,-0.0005660834722220898
1746575924123698700,7.16069873046875,-0.000058770645409822464,-0.000951690599322319,-0.001870499923825264
1746575924133714700,7.170714599609375,0.0006656809709966183,-0.0008194781839847565,-0.0008566291071474552
1746575924143729700,7.180729736328125,0.00011786865070462227,-0.001762503758072853,-0.0018965937197208405
1746575924153745700,7.19074560546875,0.0002583893947303295,0.00014280108734965324,0.003986928146332502
1746575924163762000,7.200761962890625,0.00033002812415361404,-0.0037323646247386932,0.00021988688968122005
1746575924173776100,7.210776123046875,0.0015978608280420303,-0.002085696207359433,-0.002273907884955406
1746575924183792400,7.22079248046875,0.0009504463523626328,0.00001953262835741043,-0.0010989215224981308
1746575924193807000,7.23080712890625,-0.0000099879689514637,0.0009732721373438835,-0.001476671313866973
1746575924203823400,7.2408232421875,-0.00002969568595290184,-0.0010701711289584637,-0.002981090685352683
1746575924213839400,7.25083935546875,-0.0004954501055181026,-0.0009752558544278145,0.000025109155103564262
1746575924223854300,7.260854248046875,0.0011679602321237326,0.00015365798026323318,-0.0016207245644181967
1746575924233870300,7.270870361328125,0.0005385470576584339,-0.00038851331919431686,0.000244335038587451
1746575924243885300,7.28088525390625,0.002804896794259548,0.001253591850399971,0.0006723052356392145
1746575924253901300,7.2909013671875,-0.0020908392034471035,0.0005738306790590286,-0.0019632293842732906
1746575924263917300,7.300917236328125,-0.00008361460641026497,0.0013528051786124706,0.0006083189509809017
1746575924273932300,7.310932373046875,0.0016835755668580532,-0.002138895448297262,0.0001760928425937891
1746575924283948300,7.3209482421875,-0.002333536744117737,-0.0007263547740876675,-0.004103340208530426
1746575924293963300,7.33096337890625,-0.0015245438553392887,0.0007996228523552418,0.0005317276809364557
1746575924303979300,7.340979248046875,-0.0006283903494477272,0.00029415497556328773,-0.0017423455137759447
1746575924313994200,7.350994140625,-0.00023984210565686226,-0.0016874452121555805,0.0012945921625941992
1746575924324010200,7.36101025390625,-0.001947194803506136,0.0007794410921633244,0.0008804704993963242
1746575924334026200,7.371026123046875,-0.001054219901561737,0.0008402434177696705,-0.000767578138038516
1746575924344041500,7.38104150390625,0.000547138974070549,0.0006703338585793972,-0.0008693106938153505
1746575924354057200,7.39105712890625,-0.000539686530828476,0.0010385061614215374,0.00197520200163126
1746575924364072400,7.401072509765625,0.0007194560021162033,-0.0005625863559544086,0.0003850285429507494
1746575924374088200,7.411088134765625,-0.0003293449990451336,-0.0007950779981911182,-0.0004905336536467075
1746575924384104200,7.421104248046875,0.00034390203654766083,-0.0007846918888390064,-0.001649008598178625
1746575924394119200,7.431119140625,-0.002193522173911333,0.0005426150746643543,0.0005634247791022062
1746575924404135200,7.44113525390625,-0.0017453120090067387,0.001431311946362257,0.00018392433412373066
1746575924414150100,7.451150146484375,-0.00019671162590384483,0.0007437285967171192,-0.0008419035002589226
1746575924424166100,7.461166259765625,0.0007676188834011555,0.001969581935554743,0.0007932775188237429
1746575924434182100,7.47118212890625,0.0012492637615650892,0.0006954516284167767,-0.0019509389530867338
1746575924444197000,7.481197021484375,0.0013403438497334719,0.000920488964766264,-0.00010004197247326374
1746575924454213000,7.491213134765625,-0.0006855279207229614,0.0000031958334147930145,0.0024807415902614594
1746575924464228000,7.50122802734375,-0.0018131104297935963,0.00044634565711021423,0.0014519626274704933
1746575924474244400,7.511244384765625,-0.0007976684719324112,-0.0027866021264344454,0.0001476930920034647
1746575924484260400,7.52126025390625,0.0012761352118104696,0.002253962680697441,-0.0014611224178224802
1746575924494275300,7.531275390625,0.0011123535223305225,0.0017366749234497547,-0.0005940489936619997
1746575924504291300,7.541291259765625,-0.0017169886268675327,-0.0009248880669474602,-0.0011996517423540354
1746575924514306300,7.551306396484375,0.0006797346286475658,-0.0007304023019969463,0.0005210656672716141
1746575924524322300,7.561322265625,-0.00203376030549407,-0.00016208365559577942,0.0016976501792669296
1746575924534338300,7.57133837890625,-0.00042503559961915016,-0.0013778689317405224,0.0007967648562043905
1746575924544353300,7.581353271484375,-0.00210868613794446,0.00047675659880042076,-0.00006556650623679161
1746575924554369300,7.591369384765625,-0.0017351801507174969,-0.0017110975459218025,0.0004997907672077417
1746575924564384300,7.60138427734375,0.0010595412459224463,-0.0015097626019269228,0.0008292237762361765
1746575924574400300,7.611400146484375,0.0018005555029958487,-0.0013484773226082325,-0.00025733537040650845
1746575924584415200,7.621415283203125,-0.0005584727041423321,-0.0005945363081991673,0.00034533790312707424
1746575924594431200,7.63143115234375,-0.0010656989179551601,-0.0015519354492425919,0.0004905022215098143
1746575924604447200,7.641447265625,-0.0013184328563511372,0.00021453900262713432,-0.0003904714249074459
1746575924614462200,7.651462158203125,-0.002204162534326315,-0.000023631379008293152,0.002222931943833828
1746575924624478500,7.661478515625,0.0004691188223659992,-0.00009021023288369179,0.0015821752604097128
1746575924634493400,7.671493408203125,0.00009060418233275414,0.0020347009412944317,-0.0014485269784927368
1746575924644509400,7.681509521484375,0.00034839846193790436,-0.00242156651802361,-0.0017742319032549858
1746575924654525200,7.691525146484375,-0.00036428775638341904,0.00019286340102553368,0.00029128766618669033
1746575924664540400,7.70154052734375,0.00014464231207966805,-0.0006002262234687805,-0.0006562650669366121
1746575924674556200,7.71155615234375,0.00020147021859884262,0.00020850077271461487,0.000214847968891263
1746575924684571400,7.7215712890625,-0.001731185708194971,-0.00016247760504484177,-0.0022677509114146233
1746575924694587100,7.731587158203125,0.0007294833194464445,0.0008879001252353191,0.0022681315895169973
1746575924704603100,7.74160302734375,-0.0007688109762966633,0.002312158700078726,0.0014912874903529882
1746575924714618000,7.7516181640625,-0.001231989823281765,0.0005825599655508995,0.0014768964610993862
1746575924724634000,7.761634033203125,-0.001496974378824234,-0.0006635328754782677,0.00004278426058590412
1746575924734649000,7.771649169921875,-0.0007023955695331097,-0.0007982058450579643,-0.00024195853620767593
1746575924744665000,7.7816650390625,0.0001250486820936203,0.0006795823574066162,0.0013492803554981947
1746575924754681300,7.791681396484375,0.0004612598568201065,-0.0011721523478627205,-0.001961896661669016
1746575924764696000,7.801696044921875,-0.00024261325597763062,-0.00009383866563439369,0.001176905119791627
1746575924774712300,7.81171240234375,-0.0015020999126136303,-0.00004543596878647804,0.0027389745227992535
1746575924784727300,7.821727294921875,-0.0020184870809316635,0.0007761488668620586,0.0007434678263962269
1746575924794743300,7.831743408203125,0.0004582451656460762,0.00024895835667848587,0.001189372269436717
1746575924804759300,7.84175927734375,-0.0019891997799277306,0.0013286038301885128,-0.0006127888336777687
1746575924814774300,7.851774169921875,0.0027655058074742556,0.0008283844217658043,0.00030583166517317295
1746575924824790300,7.861790283203125,-0.00017648795619606972,-0.0006763013079762459,0.0018315566703677177
1746575924834805200,7.87180517578125,-0.002687085885554552,0.00317426398396492,0.0016573036555200815
1746575924844821200,7.8818212890625,0.0000985804945230484,0.00012840703129768372,0.0011928481981158257
1746575924854836200,7.891836181640625,0.0003087325021624565,-0.0006870655342936516,0.0006855332758277655
1746575924864852200,7.901852294921875,0.0002048690803349018,0.00009936559945344925,0.0006306720897555351
1746575924874868200,7.9118681640625,-0.002594548277556896,0.0005110879428684711,-0.0011131521314382553
1746575924884883200,7.92188330078125,-0.0004094247706234455,-0.0002958499826490879,0.0014671843964606524
1746575924894899200,7.931899169921875,0.0015612076967954636,0.0005710781551897526,0.00021198159083724022
1746575924904914200,7.9419140625,0.0008791720028966665,0.000011015217751264572,0.0003696405328810215
1746575924914930400,7.951930419921875,-0.001320738811045885,-0.0015866432804614305,-0.00032793590798974037
1746575924924946400,7.961946533203125,-0.0006032832898199558,0.0034579159691929817,-0.0010014493018388748
1746575924934961400,7.97196142578125,-0.0010726116597652435,0.0005340916104614735,-0.00016407063230872154
1746575924944977400,7.981977294921875,-0.0000020209699869155884,0.0011639287695288658,-0.0009651496075093746
1746575924954992400,7.991992431640625,0.0010840354952961206,0.0005975095555186272,-0.0017118505202233791
1746575924965008400,8.00200830078125,0.0007199812680482864,0.0005282671190798283,0.0009281409438699484
1746575924975024000,8.012024169921874,-0.0018694023601710796,-0.0006586480885744095,0.0011672524269670248
1746575924985039400,8.022039306640625,0.0020915172062814236,0.00013577286154031754,0.002131316578015685
1746575924995055000,8.03205517578125,0.000016745179891586304,-0.0015011667273938656,-0.0026637129485607147
1746575925005070300,8.0420703125,0.0004889238625764847,0.00002216128632426262,-0.0002442309632897377
1746575925015086000,8.052086181640625,0.0002059275284409523,0.00042611127719283104,0.00042256200686097145
1746575925025102000,8.06210205078125,0.0003609233535826206,0.0017518331296741962,-0.0008690713439136744
1746575925035117000,8.072116943359376,0.0013952944427728653,-0.0002380521036684513,0.0010877558961510658
1746575925045133300,8.08213330078125,0.0008211168460547924,-0.0006990451365709305,0.0019735232926905155
1746575925055148000,8.09214794921875,0.0018477598205208778,-0.0002182568423449993,0.0014718696475028992
1746575925065164300,8.102164306640624,0.0017745229415595531,0.0009463434107601643,0.002074010204523802
1746575925075179300,8.11217919921875,0.0006643850356340408,-0.0013696583919227123,-0.0029459148645401
1746575925085195300,8.1221953125,-0.002087992150336504,-0.002195238135755062,-0.0020004925318062305
1746575925095211300,8.132211181640624,0.00002041459083557129,0.002121406141668558,-0.0002904115244746208
1746575925105226200,8.142226318359375,0.0013192379847168922,0.00032244110479950905,0.0011005573906004429
1746575925115242200,8.1522421875,-0.0005061756819486618,-0.002640601247549057,0.00003321212716400623
1746575925125257200,8.16225732421875,0.0017399345524609089,0.00025265710428357124,-0.0007881065830588341
1746575925135273200,8.172273193359375,-0.00009252037853002548,0.0003244606778025627,0.0005048234015703201
1746575925145289200,8.182289306640625,0.0008132206276059151,-0.0006206952966749668,-0.0008017236832529306
1746575925155304200,8.19230419921875,0.001047781202942133,0.0005811285227537155,-0.0019100131466984749
1746575925165320200,8.2023203125,0.0014848059508949518,0.00021467776969075203,0.0007960246875882149
1746575925175335400,8.21233544921875,0.00003432249650359154,-0.0012558228336274624,-0.0014928169548511505
1746575925185351400,8.222351318359374,-0.00023359153419733047,0.0009886892512440681,-0.0010086540132761002
1746575925195367700,8.23236767578125,0.0007039774209260941,0.0010497402399778366,-0.0010243433061987162
1746575925205382700,8.242382568359375,0.0005505792796611786,-0.00028370413929224014,0.0031373784877359867
1746575925215398700,8.252398681640624,-0.00003953929990530014,0.0017313412390649319,0.0014364905655384064
1746575925225413600,8.26241357421875,0.0006760521791875362,-0.0006487257778644562,0.0040826075710356236
1746575925235429600,8.2724296875,-0.0026130778715014458,-0.0008587162010371685,0.0013463371433317661
1746575925245445400,8.2824453125,0.0005670026876032352,-0.00044699152931571007,-0.0003884460311383009
1746575925255460600,8.292460693359375,0.0005120825953781605,-0.00015531107783317566,-0.00043000606819987297
1746575925265476400,8.302476318359375,0.00003244727849960327,0.0011235387064516544,0.00038864975795149803
1746575925275491600,8.31249169921875,-0.0011119642294943333,0.0017503099516034126,-0.0002673694398254156
1746575925285507300,8.32250732421875,-0.0004230048507452011,-0.0010476070456206799,-0.001268185442313552
1746575925295522600,8.3325224609375,-0.0012160730548202991,-0.001432608813047409,-0.0005222717300057411
1746575925305538300,8.342538330078124,0.0013344362378120422,0.000469953753054142,0.0023201201111078262
1746575925315554300,8.35255419921875,0.001926189986988902,0.001423932146281004,0.0010787229984998703
1746575925325569300,8.3625693359375,0.001410868251696229,-0.0006061955355107784,-0.003777018515393138
1746575925335585500,8.37258544921875,0.0016284915618598461,0.0010063783265650272,0.00018906127661466599
1746575925345600500,8.3826005859375,0.0005579008720815182,-0.002311121439561248,0.0018673853483051062
1746575925355616500,8.392616455078125,-0.0012070941738784313,0.001971496269106865,-0.00023430632427334785
1746575925365632500,8.402632568359374,0.0005822833627462387,-0.0017265691421926022,0.0006650432478636503
1746575925375647500,8.4126474609375,0.0015005150344222784,0.0020542643032968044,0.0017311086412519217
1746575925385663500,8.42266357421875,-0.0003184238448739052,0.0007253466174006462,0.0031337954569607973
1746575925395678500,8.432678466796874,0.000539788044989109,-0.0006823865696787834,0.0040803090669214725
1746575925405694500,8.442694580078125,-0.0008951229974627495,-0.0007518953643739223,0.001942856004461646
1746575925415710500,8.45271044921875,-0.0008503887802362442,-0.000780993141233921,0.00040213437750935555
1746575925425725400,8.462725341796874,-0.0006077750585973263,-0.00014183437451720238,0.00044501107186079025
1746575925435741400,8.472741455078125,0.0004440103657543659,-0.0013499134220182896,0.002130171749740839
1746575925445756400,8.48275634765625,-0.0018372531048953533,0.00195693364366889,0.0022390950471162796
1746575925455772400,8.4927724609375,-0.0008507110178470612,-0.0006447951309382915,0.00039893644861876965
1746575925465787400,8.502787353515625,0.003532852279022336,-0.000566764734685421,0.00028468668460845947
1746575925475803400,8.512803466796875,0.0006615880411118269,0.00005440227687358856,-0.0004203375428915024
1746575925485819600,8.522819580078124,-0.002998660784214735,0.0013223332352936268,-0.0010722796432673931
1746575925495834600,8.532834716796875,-0.0011471486650407314,0.0020176181569695473,-0.00026332144625484943
1746575925505850600,8.5428505859375,0.0004211869090795517,-0.0014370344579219818,-0.0014934355858713388
1746575925515865600,8.552865478515624,-0.0003659650683403015,0.0011803656816482544,-0.000053520314395427704
1746575925525881600,8.562881591796875,0.00006679864600300789,0.0024075498804450035,-0.001836240291595459
1746575925535897600,8.572897705078125,0.0008565583266317844,0.0028067203238606453,0.0004361828323453665
1746575925545912600,8.58291259765625,0.0017915940843522549,-0.00009985314682126045,-0.00019951374270021915
1746575925555928600,8.592928466796875,0.00023896805942058563,0.0012277117930352688,-0.0010482617653906345
1746575925565943600,8.602943603515625,-0.0005895411595702171,0.001439699437469244,-0.0008527860045433044
1746575925575959600,8.61295947265625,-0.001712818630039692,-0.0007646721787750721,-0.00012938957661390305
1746575925585975300,8.622975341796876,0.0028081638738512993,0.0013352306559681892,-0.0005128844641149044
1746575925595990500,8.632990478515625,0.0013156987261027098,0.0010407748632133007,0.002010968280956149
1746575925606006300,8.64300634765625,-0.0009083067998290062,0.00005380762740969658,0.0022298800759017467
1746575925616021500,8.653021484375,0.0004673544317483902,-0.0010467995889484882,0.0020287991501390934
1746575925626037500,8.66303759765625,-0.0005310643464326859,0.001503176987171173,-0.0010511467698961496
1746575925636053500,8.673053466796874,0.0010321720037609339,-0.0006350595504045486,-0.0005899586249142885
1746575925646068500,8.683068359375,-0.002079199068248272,0.0017367512919008732,-0.0007295079994946718
1746575925656084500,8.69308447265625,-0.0014441083185374737,-0.00017240503802895546,-0.0013537497725337744
1746575925666099500,8.703099365234374,0.0016353048849850893,-0.0011718892492353916,-0.002087983535602689
1746575925676115500,8.713115478515626,0.0011212753597646952,-0.0004854216240346432,-0.0009266114793717861
1746575925686131500,8.72313134765625,-0.0018124626949429512,0.0011300519108772278,-0.00022540101781487465
1746575925696146400,8.733146484375,0.00021178554743528366,0.0001445072703063488,0.0010505146346986294
1746575925706162400,8.743162353515626,-0.001757355872541666,-0.0012461952865123749,-0.00020676362328231335
1746575925716177400,8.753177490234375,-0.000012971460819244385,-0.0006913621909916401,0.00042385421693325043
1746575925726193400,8.763193359375,-0.0004662415012717247,0.0009834999218583107,-0.0011596614494919777
1746575925736209400,8.77320947265625,-0.0001145191490650177,-0.001503683626651764,-0.00006237882189452648
1746575925746224400,8.783224365234375,-0.0010149339213967323,-0.0034733572974801064,-0.00013002287596464157
1746575925756240600,8.79324072265625,-0.000501587986946106,-0.0011316146701574326,0.0007853202987462282
1746575925766255400,8.80325537109375,-0.0013178465887904167,-0.00033426424488425255,-0.0016346941702067852
1746575925776271600,8.813271728515625,-0.0020568394102156162,-0.0013947025872766972,0.0005074276123195887
1746575925786286600,8.82328662109375,-0.0007790545932948589,0.0016554156318306923,-0.0009674311149865389
1746575925796302600,8.833302490234376,0.00022600730881094933,-0.000053223688155412674,-0.0005975617095828056
1746575925806318600,8.843318603515625,-0.001533809583634138,0.00013239867985248566,-0.0005863765254616737
1746575925816333600,8.85333349609375,-0.0004423079080879688,-0.000845917034894228,-0.0004711151123046875
1746575925826349600,8.863349609375,-0.001173345372080803,-0.0010134298354387283,-0.0022626235149800777
1746575925836364500,8.873364501953125,0.00007606949657201767,0.0011395788751542568,-0.0012758166994899511
1746575925846380500,8.883380615234374,-0.0005300659686326981,-0.0006519295275211334,0.0015647108666598797
1746575925856396500,8.893396484375,0.0006293875630944967,0.0006614867597818375,0.0009847157634794712
1746575925866411500,8.90341162109375,-0.0019347039051353931,-0.00012254808098077774,0.0018161546904593706
1746575925876427500,8.913427490234374,-0.0012344121932983398,-0.0025097352918237448,0.0009650266729295254
1746575925886442500,8.9234423828125,-0.0017803600057959557,0.0011081690900027752,-0.0002158191055059433
1746575925896458500,8.93345849609375,0.0013572962488979101,-0.0003136042505502701,-0.004147200845181942
1746575925906474500,8.943474609375,0.0006923049222677946,0.001551673747599125,-0.00018042162992060184
1746575925916489700,8.95348974609375,-0.001181068830192089,-0.00124423298984766,0.001969424542039633
1746575925926505500,8.96350537109375,-0.005162761081010103,0.00004899781197309494,0.0002628709189593792
1746575925936520700,8.973520751953124,0.00020946795120835304,-0.002183833857998252,0.0009607556276023388
1746575925946536400,8.983536376953126,-0.0011402219533920288,-0.001460519153624773,-0.0003801458515226841
1746575925956552400,8.993552490234375,-0.00048505933955311775,-0.0008533811196684837,0.00206339661963284
1746575925966567400,9.0035673828125,0.0005128271877765656,-0.0008110366761684418,0.0013147820718586445
1746575925976583400,9.01358349609375,-0.0018370901234447956,-0.0003092680126428604,-0.0008863585535436869
1746575925986598400,9.023598388671875,-0.0008067130111157894,0.0006705089472234249,0.0015427106991410255
1746575925996614400,9.033614501953124,-0.0004902337677776814,0.0003874157555401325,-0.0006165958475321531
1746575926006629400,9.04362939453125,0.0011963462457060814,0.001100077759474516,-0.00034308922477066517
1746575926016645400,9.053645263671875,-0.0034218505024909973,0.001836884766817093,0.0005989305209368467
1746575926026661400,9.063661376953124,-0.0007467055693268776,-0.0006869928911328316,-0.00031559914350509644
1746575926036676400,9.07367626953125,-0.0015610535629093647,0.002030659466981888,-0.0014150110073387623
1746575926046692400,9.0836923828125,0.00034976424649357796,-0.0026085672434419394,0.0011669236700981855
1746575926056707300,9.093707275390624,0.0002658190205693245,0.0011573727242648602,0.00014359410852193832
1746575926066723600,9.1037236328125,0.00046582240611314774,0.0012609697878360748,-0.001532333204522729
1746575926076739600,9.113739501953125,0.0003081946633756161,0.000879380851984024,-0.0013665084261447191
1746575926086754600,9.123754638671874,-0.002052165102213621,0.00038243504241108894,-0.00007647345773875713
1746575926096770600,9.1337705078125,-0.00037428131327033043,-0.00018977699801325798,0.0020192768424749374
1746575926106785500,9.14378564453125,0.00042573222890496254,0.0025215870700776577,0.0009300438687205315
1746575926116801500,9.153801513671874,0.0007704179733991623,0.0005386145785450935,-0.0008365577086806297
1746575926126817500,9.163817626953126,-0.0006839344277977943,-0.0007713944651186466,-0.0005207066424190998
1746575926136832500,9.17383251953125,0.00017695361748337746,0.001973720733076334,-0.0011667776852846146
1746575926146848500,9.1838486328125,-0.0006065485067665577,0.0006812885403633118,-0.002063463907688856
1746575926156863500,9.193863525390626,0.00031674373894929886,-0.001275127287954092,0.00016946438699960709
1746575926166879500,9.20387939453125,0.0016371386591345072,-0.0012407726608216763,0.00015774648636579514
1746575926176894700,9.213894775390624,-0.0003927741199731827,-0.00009141257032752037,0.0026498367078602314
1746575926186910700,9.22391064453125,-0.0004172748886048794,-0.001546031329780817,0.0011174539104104042
1746575926196926700,9.2339267578125,0.0014842904638499022,0.0011089993640780449,-0.0007413874845951796
1746575926206941700,9.243941650390624,-0.000010009389370679855,0.0007020682096481323,0.0004826011136174202
1746575926216957700,9.253957763671876,-0.00045329611748456955,-0.0028966045938432217,0.0016432111151516438
1746575926226972700,9.26397265625,-0.0023342869244515896,0.00013487180694937706,0.00009112083353102207
1746575926236988700,9.27398876953125,0.0001293569803237915,0.0005920757539570332,0.0018498948775231838
1746575926247004400,9.28400439453125,0.0008476118091493845,0.0020677330903708935,0.0008815694600343704
1746575926257019400,9.294019287109375,0.0015723463147878647,-0.00046126218512654305,0.0010717753320932388
1746575926267035600,9.30403564453125,0.0008279928006231785,-0.0003275712952017784,0.0005721661727875471
1746575926277050400,9.31405029296875,-0.001080857589840889,0.0004398329183459282,0.0010362851899117231
1746575926287066600,9.324066650390625,0.00018387753516435623,-0.0005250303074717522,-0.003050069324672222
1746575926297082600,9.33408251953125,-0.001618778333067894,-0.0015799980610609055,-0.0017368304543197155
1746575926307097600,9.34409765625,-0.00020091142505407333,-0.0005754535086452961,-0.0009456053376197815
1746575926317113600,9.354113525390625,-0.0021996540017426014,0.00009023863822221756,0.00030994764529168606
1746575926327128600,9.364128662109374,-0.0013333274982869625,-0.0008932668715715408,-0.00014119199477136135
1746575926337144600,9.37414453125,-0.0010152887552976608,0.0002770218998193741,0.0015890381764620543
1746575926347160600,9.38416064453125,0.00020816735923290253,-0.00008170586079359055,0.0005778358317911625
1746575926357175600,9.394175537109374,0.0019061518833041191,0.000410664826631546,0.0012491566594690084
1746575926367191600,9.404191650390626,-0.0012518246658146381,0.0013283900916576385,-0.001284308498725295
1746575926377206500,9.41420654296875,0.0007992258761078119,0.00044357357546687126,-0.0006482759490609169
1746575926387222500,9.424222412109375,0.0005611390806734562,-0.0007985248230397701,-0.0015415004454553127
1746575926397237500,9.434237548828126,-0.0002302965149283409,0.0011008675210177898,0.0016810435336083174
1746575926407253500,9.44425341796875,0.000751611078158021,0.0006316183134913445,0.0028027670923620462
1746575926417269800,9.454269775390625,0.001650151563808322,0.00045372499153018,0.0005852286703884602
1746575926427284700,9.46428466796875,0.0017209916841238737,0.0012044701725244522,0.002077930374071002
1746575926437300700,9.47430078125,0.00042778579518198967,-0.00027159275487065315,0.0029775607399642467
1746575926447315700,9.484315673828124,-0.00011310214176774025,-0.0003323126584291458,-0.0028840568847954273
1746575926457331700,9.494331787109376,0.00027376413345336914,0.00018249358981847763,-0.0006190119311213493
1746575926467347700,9.50434765625,0.0006450088694691658,0.00013721967115998268,-0.00018145469948649406
1746575926477362700,9.51436279296875,0.0011998447589576244,0.0004599969834089279,-0.0017116765957325697
1746575926487378700,9.524378662109376,0.0001905066892504692,0.0003510736860334873,0.0032223619055002928
1746575926497393700,9.5343935546875,0.0013634986244142056,-0.0003306032158434391,0.005207960493862629
1746575926507409700,9.54440966796875,0.00012938957661390305,0.0021234997548162937,0.0013748728670179844
1746575926517425700,9.55442578125,-0.004032462369650602,-0.0003283647820353508,-0.0007028011605143547
1746575926527440600,9.564440673828125,-0.00002041039988398552,-0.00012809503823518753,0.0017931133043020964
1746575926537456600,9.57445654296875,-0.0013629845343530178,0.0012699887156486511,-0.0012362743727862835
1746575926547471600,9.5844716796875,-0.0008465973660349846,-0.001387846190482378,-0.00027247611433267593
1746575926557487600,9.594487548828125,0.0003574923612177372,-0.0008612796664237976,0.0021628052927553654
1746575926567503600,9.604503662109375,-0.0008859378285706043,-0.0005369065329432487,-0.0011392480228096247
1746575926577518600,9.6145185546875,0.0003023482859134674,-0.0014982880093157291,-0.0004856279119849205
1746575926587534600,9.62453466796875,0.0002115345560014248,0.0011662044562399387,0.001668070675805211
1746575926597549600,9.634549560546875,0.000009621493518352509,-0.00012644147500395775,0.001248104264959693
1746575926607565600,9.644565673828126,-0.0005890568718314171,0.0006690449081361294,-0.0019476888701319695
1746575926617580500,9.65458056640625,0.0008902705740183592,-0.0004431181587278843,-0.0007463106885552406
1746575926627596500,9.664596435546875,-0.0030813016928732395,0.000005891080945730209,-0.00000675092451274395
1746575926637612500,9.674612548828126,-0.0031657195650041103,0.0012650820426642895,-0.0029714396223425865
1746575926647627500,9.68462744140625,-0.0013715480454266071,0.00017345231026411057,-0.0014017727226018906
1746575926657643500,9.6946435546875,0.0007865238003432751,-0.0018539016600698233,0.0016526125837117434
1746575926667658500,9.704658447265626,0.00028957799077033997,-0.000017119571566581726,-0.0005647353827953339
1746575926677674500,9.714674560546875,0.00012114550918340683,0.003243031445890665,0.0007326817139983177
1746575926687690500,9.7246904296875,-0.0017755581066012383,-0.0007138936780393124,-0.001086523523554206
1746575926697705500,9.73470556640625,0.000796143664047122,-0.00026721274480223656,-0.0008698725141584873
1746575926707721700,9.7447216796875,0.0016835089772939682,0.00013572350144386292,0.000496595399454236
1746575926717736700,9.75473681640625,-0.0021161166951060295,0.0004948335699737072,0.0007632621563971043
1746575926727752700,9.764752685546876,0.0011553105432540178,0.0006847167387604713,0.00037737004458904266
1746575926737768700,9.774768798828125,0.0003825454041361809,-0.002547531621530652,-0.0029343869537115097
1746575926747783700,9.78478369140625,0.0005639065057039261,0.0009159091860055923,-0.0003114398568868637
1746575926757799700,9.794799560546876,-0.0006507933139801025,0.0012365225702524185,-0.000584861496463418
1746575926767814700,9.804814697265625,-0.0011964752338826656,-0.001275370828807354,0.0008239508606493473
1746575926777830700,9.81483056640625,0.000005668960511684418,-0.0004422469064593315,-0.0006066658534109592
1746575926787846700,9.8248466796875,-0.0009528025984764099,-0.00006407825276255608,-0.0011267811059951782
1746575926797861600,9.834861572265625,0.000032541342079639435,0.00026582833379507065,-0.0003569896798580885
1746575926807877600,9.844877685546875,0.00046024471521377563,0.0005196277052164078,0.00046619330532848835
1746575926817892600,9.854892578125,-0.00011348584666848183,-0.0016813981346786022,0.0004242511931806803
1746575926827908600,9.86490869140625,-0.0019023311324417591,-0.0007594120688736439,0.0009667370468378067
1746575926837923600,9.874923583984375,-0.0009013772942125797,-0.0011950028128921986,-0.00078184949234128
1746575926847939800,9.88493994140625,0.0010059785563498735,0.00002685515210032463,-0.0012582889758050442
1746575926857955600,9.89495556640625,-0.00027388520538806915,-0.003938488196581602,-0.0012928249780088663
1746575926867970800,9.904970703125,0.001114953076466918,0.00022563012316823006,-0.00044833659194409847
1746575926877986600,9.914986572265626,-0.000070150475949049,0.0005912845954298973,0.0014322439674288034
1746575926888001800,9.925001708984375,-0.0016629872843623161,-0.0017307258676737547,-0.0004748455248773098
1746575926898017500,9.935017578125,0.0015034626703709364,0.0020596045069396496,0.0007909929845482111
1746575926908033500,9.945033447265626,0.000012891367077827454,-0.0009590885601937771,-0.0011131672654300928
1746575926918048500,9.955048583984375,-0.001398981548845768,0.0023233965039253235,-0.0004933406598865986
1746575926928064500,9.965064453125,-0.00011746864765882492,0.0005947388708591461,-0.001004667952656746
1746575926938079500,9.97507958984375,0.0006962865591049194,-0.0007488713599741459,-0.0004176301881670952
1746575926948095500,9.985095458984375,0.00038682762533426285,-0.00010971305891871452,-0.0002871355973184109
1746575926958111500,9.995111572265625,-0.0022468692623078823,-0.002959076315164566,-0.000492054270580411
1746575926968126500,10.00512646484375,-0.0011541745625436306,0.0004684119485318661,0.001964178867638111
1746575926978142500,10.015142578125,0.0021543321199715137,0.001017802394926548,0.0009842291474342346
1746575926988157400,10.025157470703125,-0.0004611583426594734,-0.00015185773372650146,-0.00042431685142219067
1746575926998173700,10.035173583984376,0.0004087011329829693,0.0012100907042622566,0.0011881410609930754
1746575927008189700,10.045189697265625,0.0004960526712238789,-0.000740408431738615,0.0011109092738479376
1746575927018204700,10.05520458984375,0.0003282572142779827,0.0005303206853568554,-0.0008574048988521099
1746575927028220700,10.065220703125,0.0002986961044371128,0.0018909294158220291,-0.0008848351426422596
1746575927038235600,10.075235595703125,0.0005700252950191498,0.0012752390466630459,0.0000718079973012209
1746575927048251600,10.085251708984375,0.0015900160651654005,-0.001087517011910677,0.00032480829395353794
1746575927058266600,10.0952666015625,0.0012353144120424986,-0.0004824078641831875,0.00029973755590617657
1746575927068282600,10.10528271484375,0.000724786426872015,-0.0015316931530833244,0.001815608935430646
1746575927078298600,10.115298583984375,0.0002286708913743496,0.0015251715667545795,-0.0012410616036504507
1746575927088313600,10.125313720703126,0.00016129249706864357,0.0009033232927322388,0.0016149124130606651
1746575927098329600,10.13532958984375,0.0006916243582963943,-0.00042414432391524315,-0.0023550037294626236
1746575927108344600,10.145344482421875,-0.001871401909738779,0.00022273743525147438,-0.0002993098460137844
1746575927118360600,10.155360595703126,0.0008480348624289036,0.0010760659351944923,-0.0020454460754990578
1746575927128376800,10.165376953125,0.0008312568534165621,-0.0012209108099341393,-0.0006089368835091591
1746575927138391600,10.1753916015625,-0.00040573161095380783,0.00013016676530241966,-0.0019694576039910316
1746575927148407800,10.18540771484375,0.0003194473683834076,-0.0006267032586038113,-0.0029004989191889763
1746575927158422800,10.1954228515625,-0.0019183079712092876,-0.0010231384076178074,0.0014152680523693562
1746575927168438800,10.205438720703125,-0.0008503803983330727,0.0008144429884850979,0.0005537352990359068
1746575927178454500,10.21545458984375,-0.0004945723339915276,-0.0006573251448571682,-0.002247299998998642
1746575927188469800,10.2254697265625,0.0008295511361211538,-0.0005457387305796146,-0.001745560672134161
1746575927198485500,10.235485595703125,0.0009130013640969992,0.0011267508380115032,0.0003177281469106674
1746575927208500700,10.245500732421876,-0.0015674666501581669,-0.0013944637030363083,-0.0007592542096972466
1746575927218516500,10.2555166015625,-0.0009836931712925434,0.000731287058442831,0.0009455948602408171
1746575927228531700,10.26553173828125,0.0022970547433942556,0.0006556534208357334,0.0027323097456246614
1746575927238547500,10.27554736328125,-0.00018718279898166656,0.00016437191516160965,-0.0003773162607103586
1746575927248563500,10.2855634765625,0.0017135150264948606,-0.00047904765233397484,0.0008786306716501713
1746575927258578400,10.295578369140625,0.00010096142068505287,-0.0013462384231388569,0.00253650126978755
1746575927268594400,10.305594482421874,-0.0009448621422052383,-0.0008170679211616516,-0.00039910105988383293
1746575927278609400,10.315609375,0.002108269603922963,0.0028699724934995174,0.00018862122669816017
1746575927288625700,10.325625732421875,-0.00010801292955875397,0.0026033897884190083,0.0010581433307379484
1746575927298641700,10.3356416015625,-0.00040660426020622253,0.0011786194518208504,-0.00257681286893785
1746575927308656600,10.34565673828125,0.0014530811458826065,0.002030031755566597,0.003057104302570224
1746575927318672600,10.355672607421875,-0.00001728162169456482,-0.0004066210240125656,0.000043462496250867844
1746575927328687600,10.3656875,-0.0009251534938812256,0.0011641113087534904,0.0019462910713627934
1746575927338703600,10.37570361328125,-0.0002875765785574913,0.001081562601029873,-0.0007191668264567852
1746575927348719600,10.3857197265625,0.00012148497626185417,0.0017209872603416443,-0.0006238254718482494
1746575927358734600,10.395734619140624,-0.001362278126180172,-0.0013490775600075722,-0.0004928100388497114
1746575927368750600,10.40575048828125,0.001320856623351574,-0.0002803509123623371,0.0016638180240988731
1746575927378765600,10.415765625,-0.0005992338992655277,0.0004692547954618931,-0.0003439891152083874
1746575927388781600,10.425781494140624,-0.0006402465514838696,-0.0005821613594889641,0.0016911986749619246
1746575927398796500,10.435796630859375,0.0018056645058095455,0.0017621186561882496,0.0012077216524630785
1746575927408812500,10.4458125,0.0013454703148454428,0.0025149942375719547,-0.0007928451523184776
1746575927418828800,10.455828857421874,-0.0009564417414367199,-0.0005858009681105614,-0.003965454176068306
1746575927428843500,10.465843505859375,-0.0004616263322532177,0.00041608046740293503,-0.004192621447145939
1746575927438859800,10.47585986328125,0.0005695102736353874,0.0011979532428085804,-0.002827612217515707
1746575927448874800,10.485874755859374,-0.0007996205240488052,0.002167610451579094,-0.000982574187219143
1746575927458890800,10.495890869140625,-0.0006623808294534683,-0.0016956767067313194,0.0019660380203276873
1746575927468906800,10.50590673828125,-0.0017311074770987034,0.00005029141902923584,0.0007207440212368965
1746575927478921700,10.515921630859374,-0.0005177920684218407,-0.0018560737371444702,0.0019623092375695705
1746575927488937700,10.525937744140625,-0.0005952902138233185,-0.0007135774940252304,0.0002885123249143362
1746575927498952700,10.53595263671875,-0.0000279964879155159,-0.0005578403361141682,0.0002759331837296486
1746575927508968700,10.54596875,0.0012644354719668627,-0.0003320043906569481,0.003038430120795965
1746575927518984400,10.555984375,0.0017322010826319456,-0.0001912582665681839,-0.0005080420523881912
1746575927528999700,10.565999755859375,-0.00004359474405646324,-0.0037729437462985516,0.0002560187131166458
1746575927539015400,10.576015380859374,-0.0002207411453127861,0.002226772252470255,0.0017065948341041803
1746575927549030700,10.58603076171875,0.0016645104624330997,0.00014737574383616447,-0.0013871993869543076
1746575927559046400,10.59604638671875,-0.00047664204612374306,0.0007270839996635914,-0.0030717726331204176
1746575927569062700,10.606062744140624,-0.0009118025191128254,0.0005827406421303749,-0.0031362210866063833
1746575927579077600,10.61607763671875,-0.000574333593249321,-0.0005097715184092522,-0.001495338510721922
1746575927589093600,10.62609375,0.0018696491606533527,-0.0008961963467299938,-0.0010844129137694836
1746575927599108600,10.636108642578124,-0.00025301286950707436,0.0023229937069118023,-0.0018021066207438707
1746575927609124600,10.64612451171875,0.002411213470622897,-0.0015545687638223171,0.00010072183795273304
1746575927619139600,10.6561396484375,0.0002538645640015602,-0.0017066400032490492,0.002778296358883381
1746575927629155600,10.666155517578124,0.0009409599006175995,0.0005634385161101818,0.002966315485537052
1746575927639171600,10.676171630859375,0.0008835494518280029,0.000074832234531641,0.0007762429304420948
1746575927649186600,10.6861865234375,0.00024518975988030434,-0.0007992172613739967,0.0018316535279154778
1746575927659202600,10.69620263671875,-0.0009337603114545345,-0.0007946980185806751,-0.0004146366845816374
1746575927669217500,10.706217529296875,-0.00007435819134116173,-0.0004788474179804325,0.0012543664779514074
1746575927679233500,10.716233642578125,-0.00082437414675951,0.000010901596397161484,0.0018520362209528685
1746575927689249500,10.72624951171875,-0.0003577885217964649,-0.0016642268747091293,0.0016030305996537209
1746575927699264500,10.736264404296875,0.0011983581352978945,-0.00009012827649712563,-0.0006294436752796173
1746575927709280800,10.74628076171875,-0.0009891623631119728,-0.0012126504443585873,0.0018475621473044157
1746575927719295500,10.75629541015625,-0.0021190401166677475,-0.0004537208005785942,-0.00047012954019010067
1746575927729311700,10.766311767578125,0.0006413264200091362,-0.0007578539662063122,-0.0012429787311702967
1746575927739327700,10.77632763671875,-0.0010164487175643444,0.00003298697993159294,0.0012011376675218344
1746575927749342700,10.7863427734375,-0.0006036586128175259,0.0011973208747804165,0.0008107181638479233
1746575927759358700,10.796358642578125,-0.0007145069539546967,0.0010393955744802952,0.0006991659756749868
1746575927769373700,10.806373779296875,-0.0003126361407339573,0.0008729482069611549,-0.0010627813171595335
1746575927779389700,10.8163896484375,0.0004938347265124321,-0.00035448186099529266,0.0009062169119715691
1746575927789404700,10.82640478515625,-0.0008776928298175335,0.001814928837120533,-0.002046430017799139
1746575927799420700,10.836420654296875,0.0021660251077264547,-0.0002153078094124794,-0.001526388106867671
1746575927809436700,10.846436767578124,0.0018166182562708855,0.0010651401244103909,0.00208246149122715
1746575927819451600,10.85645166015625,-0.0013318788260221481,0.0017117047682404518,0.0007295198738574982
1746575927829467600,10.866467529296875,-0.0006146896630525589,0.00045948661863803864,-0.00241940189152956
1746575927839482600,10.876482666015624,0.0012298375368118286,-0.0015628193505108356,-0.0007202269043773413
1746575927849498600,10.88649853515625,0.000357119832187891,0.0005554589442908764,0.00027792598120868206
1746575927859514600,10.8965146484375,0.0019055088050663471,0.0010891477577388287,-0.0014472869224846363
1746575927869529600,10.906529541015624,-0.0011118524707853794,-0.0012786691077053547,0.0004020119085907936
1746575927879545600,10.916545654296876,0.0006401399150490761,-0.0013941763900220394,0.0010954760946333408
1746575927889560600,10.926560546875,0.0012590587139129639,0.0005744323134422302,0.0007410093676298857
1746575927899576600,10.93657666015625,-0.0011928672902286053,0.00278135621920228,-0.001932214479893446
1746575927909592600,10.946592529296876,0.0016388720832765102,-0.000983554869890213,0.0008630396332591772
1746575927919607600,10.956607666015625,0.000039107631891965866,-0.00036606332287192345,-0.0028714381624013186
1746575927929623600,10.96662353515625,-0.0003883298486471176,0.00011650146916508675,0.0004298160783946514
1746575927939638500,10.976638427734375,0.0013347461353987455,-0.001523538026958704,0.00221563340164721
1746575927949654500,10.986654541015625,0.00016322173178195953,-0.0017062309198081493,0.0027104485780000687
1746575927959670500,10.99667041015625,-0.0009087375365197659,0.0006959503516554832,-0.001427606912329793
1746575927969685500,11.006685546875,0.0007277748081833124,-0.0006995461881160736,0.0015178490430116653
1746575927979701500,11.016701416015625,-0.00008783536031842232,-0.0012155738659203053,0.0007277210243046284
1746575927989716500,11.026716552734374,-0.001581336371600628,0.0005450421012938023,0.0009330508764833212
1746575927999732700,11.036732666015626,0.0017401531804352999,0.0009264391846954823,-0.0005322056822478771
1746575928009747500,11.04674755859375,-0.0017797467298805714,0.0016452264972031116,-0.000580142717808485
1746575928019763700,11.056763671875,-0.0014500166289508343,-0.0002850610762834549,-0.0006913638208061457
1746575928029779700,11.06677978515625,0.0015534963458776474,-0.00018465984612703323,0.0009161201305687428
1746575928039794700,11.076794677734375,0.0006674218457192183,-0.00013911211863160133,-0.0005856784991919994
1746575928049810700,11.086810791015624,0.0012927320785820484,-0.00023099081590771675,0.0006300546228885651
1746575928059825700,11.09682568359375,0.00045237038284540176,-0.0007831249386072159,0.003934906329959631
1746575928069841700,11.106841552734375,0.0013109734281897545,0.0011255624704062939,0.00043844198808074
1746575928079857700,11.116857666015624,-0.0005277162417769432,-0.0015996773727238178,-0.000542688649147749
1746575928089872600,11.12687255859375,0.000736752524971962,0.0006027570925652981,-0.0017733355052769184
1746575928099888600,11.136888671875,-0.0023129088804125786,0.000012124888598918915,0.0006858115084469318
1746575928109903600,11.146903564453124,-0.001129932701587677,0.0011349138803780079,-0.002078017219901085
1746575928119919600,11.156919677734376,-0.0020003048703074455,0.0004897164180874825,-0.0002006783615797758
1746575928129935600,11.166935546875,0.0006138542667031288,-0.0018522676546126604,-0.0007064125966280699
1746575928139950600,11.17695068359375,-0.00011586397886276245,0.00014292960986495018,-0.0005947314202785492
1746575928149966600,11.186966552734376,-0.0003768536262214184,-0.0003902353346347809,-0.0006341459229588509
1746575928159981800,11.19698193359375,-0.0004308018833398819,-0.0015854383818805218,0.0008788683917373419
1746575928169997600,11.20699755859375,0.0012493866961449385,-0.0011116620153188705,0.002847743220627308
1746575928180012500,11.217012451171875,0.0006417711265385151,-0.00020474614575505257,0.0010254657827317715
1746575928190028500,11.227028564453125,-0.00044000474736094475,-0.0018617648165673018,0.0017197518609464169
1746575928200044300,11.237044189453124,-0.00004387460649013519,0.00017656758427619934,0.0013426914811134338
1746575928210059500,11.2470595703125,-0.0025728121399879456,-0.0007017427124083042,-0.002652582945302129
1746575928220075300,11.2570751953125,-0.0021089399233460426,-0.00010684318840503693,0.00007047993130981922
1746575928230090500,11.267090576171874,0.0014943170826882124,-0.0005595805123448372,-0.0019197005312889814
1746575928240106200,11.277106201171875,0.0022671103943139315,-0.0008695567958056927,-0.001922300085425377
1746575928250122200,11.287122314453125,-0.0005169580690562725,-0.00004264526069164276,-0.0009608990512788296
1746575928260137200,11.29713720703125,0.0015800734981894493,-0.00019816076382994652,0.00033636041916906834
1746575928270153500,11.307153564453126,-0.0005547162145376205,0.0008987956680357456,0.0019281319109722972
1746575928280168200,11.317168212890625,0.0000031855888664722443,-0.000565811526030302,-0.000778811750933528
1746575928290184400,11.327184326171874,-0.0013670106418430805,0.00016096513718366623,0.0010105660185217857
1746575928300200400,11.337200439453126,0.0004028351977467537,-0.0003266693092882633,-0.001136748818680644
1746575928310215400,11.34721533203125,-0.00187656469643116,0.0012776185758411884,0.000831859651952982
1746575928320231400,11.3572314453125,0.00013057468459010124,-0.0013631843030452728,-0.0014116386882960796
1746575928330246400,11.367246337890625,-0.00022868532687425613,-0.0019133933819830418,-0.00040762685239315033
1746575928340262400,11.377262451171875,0.0014313776046037674,0.0005090376362204552,0.0002123501617461443
1746575928350278400,11.3872783203125,-0.001621936447918415,-0.0001932377927005291,-0.0029738557059317827
1746575928360293400,11.39729345703125,0.00022366084158420563,-0.0024263295345008373,0.0005535639356821775
1746575928370309400,11.407309326171875,-0.0011601177975535393,-0.0038998564705252647,0.001527748303487897
1746575928380324400,11.417324462890624,-0.001961176749318838,0.0033182878978550434,-0.0003977576270699501
1746575928390340400,11.42734033203125,-0.0016120364889502525,0.00008707493543624878,0.000744738383218646
1746575928400355300,11.437355224609375,0.0006132344715297222,0.0001370222307741642,-0.0010038651525974274
1746575928410371300,11.447371337890624,0.0015480041038244963,0.0001767030917108059,-0.0001295492984354496
1746575928420387600,11.4573876953125,-0.0005800062790513039,0.00047151045873761177,0.0020778507459908724
1746575928430402600,11.467402587890625,-0.00106843002140522,-0.0008179917931556702,0.0019494864391162992
1746575928440418600,11.47741845703125,-0.0020326166413724422,0.0006649652495980263,0.00181562639772892
