time,seconds_elapsed,z,y,x
1746728743030062800,0.027062744140625,-0.0005031097680330276,0.0029900879599153996,-0.0005520251579582691
1746728743040081200,0.0370810546875,0.001312633277848363,0.0002840496599674225,0.003160687629133463
1746728743050099000,0.047098876953125,-0.0021639568731188774,0.0000010151416063308716,-0.0016016792505979538
1746728743060117000,0.057116943359375,-0.000133562833070755,0.001612227875739336,-0.003965767100453377
1746728743070134800,0.067134765625,0.000930010573938489,0.0003867214545607567,-0.004500920884311199
1746728743080153000,0.077153076171875,0.00040510157123208046,-0.00025083962827920914,-0.000321089755743742
1746728743090172000,0.087171875,-0.00030170194804668427,-0.0010353741236031055,-0.0013674225192517042
1746728743100190000,0.09718994140625,-0.0002601565793156624,0.0028717494569718838,0.0008520558476448059
1746728743110207700,0.107207763671875,-0.0008890209719538689,0.00021961145102977753,0.003085547359660268
1746728743120225800,0.117225830078125,-0.0009060651063919067,-0.0009282110258936882,0.0018634226871654391
1746728743130244000,0.127244140625,-0.0004491475410759449,-0.0020012978930026293,-0.0022933490108698606
1746728743140262000,0.137261962890625,0.001856351038441062,0.0006533409468829632,0.002320577623322606
1746728743150280000,0.147280029296875,0.0010734337847679853,-0.0017242874018847942,-0.001446486683562398
1746728743160298000,0.157298095703125,0.0014891533646732569,0.00012873997911810875,-0.003337597707286477
1746728743170317000,0.167317138671875,-0.0006455858238041401,0.0027639404870569706,-0.0013167832512408495
1746728743180334800,0.1773349609375,-0.0010663652792572975,0.0000605657696723938,0.0017573036020621657
1746728743190353000,0.187352783203125,-0.004214482381939888,0.001984544098377228,0.000060556456446647644
1746728743200371000,0.197370849609375,0.0007227519527077675,-0.0000628940761089325,0.00004111556336283684
1746728743210389000,0.207388916015625,-0.0005806912668049335,-0.00005289865657687187,0.0013778735883533955
1746728743220407000,0.217406982421875,0.0036026020534336567,0.0025500748306512833,0.00007878360338509083
1746728743230424800,0.2274248046875,0.001815051306039095,0.000433498527854681,-0.0008595578838139772
1746728743240443000,0.23744287109375,0.000157233327627182,-0.00015372829511761665,-0.0007319925352931023
1746728743250461700,0.247461669921875,-0.0008174576796591282,0.0014457553625106812,-0.0012202276848256588
1746728743260480000,0.25747998046875,-0.0006619291380047798,0.00008035311475396156,0.00013878336176276207
1746728743270497800,0.267497802734375,0.0002567213959991932,0.00003102468326687813,-0.000016408739611506462
1746728743280515800,0.277515869140625,0.0002231658436357975,-0.00013675447553396225,-0.0011317406315356493
1746728743290534100,0.2875341796875,0.0018533070106059313,0.0002966062165796757,-0.0017738910391926765
1746728743300552000,0.297552001953125,0.000018122605979442596,0.001033769454807043,-0.0006465751212090254
1746728743310570000,0.307570068359375,-0.0011049136519432068,0.00036075711250305176,0.002291369251906872
1746728743320587800,0.317587890625,0.00006634462624788284,0.0019131135195493698,-0.000932653434574604
1746728743330606000,0.327606201171875,-0.0027169124223291874,-0.00029206275939941406,-0.0026424655225127935
1746728743340625000,0.337625,-0.0026644482277333736,0.0011409842409193516,0.0016537460032850504
1746728743350643000,0.347642822265625,0.000537277664989233,-0.0017842254601418972,0.0007788902148604393
1746728743360661000,0.357660888671875,0.0010528655257076025,0.0004152790643274784,0.0007650416810065508
1746728743370678800,0.3676787109375,-0.0020498204976320267,-0.002113151364028454,0.0023702308535575867
1746728743380697000,0.377697021484375,0.001120406435802579,0.0016275248490273952,0.003440022701397538
1746728743390715000,0.38771484375,0.0008356277830898762,0.000758348498493433,-0.00025252928026020527
1746728743400733000,0.39773291015625,-0.0009960946626961231,-0.0004861466586589813,0.0025041087064892054
1746728743410751000,0.4077509765625,0.0010986670386046171,0.0019447291269898415,-0.0016681086272001266
1746728743420770000,0.41777001953125,0.00018227333202958107,0.0007215393707156181,-0.0016659782268106937
1746728743430787800,0.427787841796875,-0.00018789200112223625,-0.0010494240559637547,0.0008845620322972536
1746728743440806000,0.437805908203125,-0.00042837532237172127,0.0007245074957609177,-0.0002659235615283251
1746728743450824000,0.447823974609375,0.0007683017756789923,0.001623773481696844,-0.0006552068516612053
1746728743460842000,0.457842041015625,0.001381095265969634,-0.00031127966940402985,-0.0009188598487526178
1746728743470860000,0.467860107421875,-0.001329504419118166,-0.0002896394580602646,0.0025523044168949127
1746728743480877800,0.4778779296875,0.0003480203449726105,-0.002056912984699011,-0.000479171983897686
1746728743490896000,0.487895751953125,0.0006054295226931572,-0.000812046229839325,-0.0005649805534631014
1746728743500914700,0.497914794921875,0.0019031879492104053,-0.00044852495193481445,-0.0005537953693419695
1746728743510933000,0.50793310546875,-0.0010102512314915657,0.0011326158419251442,0.0024131229147315025
1746728743520951000,0.517950927734375,-0.0007420708425343037,-0.0013835383579134941,0.0008565052412450314
1746728743530968800,0.52796875,-0.0008055851794779301,-0.0009810840710997581,-0.001738518476486206
1746728743540987100,0.537987060546875,-0.0006090439856052399,-0.0008828132413327694,-0.0006197243928909302
1746728743551005000,0.5480048828125,0.0009218277409672737,0.00047793425619602203,0.0011180188739672303
1746728743561023000,0.55802294921875,0.0018576625734567642,0.002097402699291706,-0.0014303599018603563
1746728743571040800,0.568040771484375,0.0013204461429268122,-0.0006223022937774658,0.0021322129759937525
1746728743581059000,0.57805908203125,0.00003919936716556549,0.0005236556753516197,0.0000277829822152853
1746728743591078000,0.588077880859375,-0.00040031038224697113,0.00016994215548038483,-0.0012587271630764008
1746728743601096000,0.598095947265625,0.0005123550072312355,0.000014413613826036453,-0.0013207788579165936
1746728743611114000,0.608114013671875,0.0012132192496210337,0.0008481089025735855,0.0002651158720254898
1746728743621131800,0.6181318359375,0.001782603096216917,0.00234906654804945,-0.0015658072661608458
1746728743631150000,0.628150146484375,-0.00043354323133826256,-0.00011319806799292564,-0.0016635821666568518
1746728743641168000,0.63816796875,-0.00017974432557821274,0.0005818870849907398,-0.0017727718222886324
1746728743651186000,0.64818603515625,0.00045975157991051674,-0.0017862021923065186,0.0006453895475715399
1746728743661204000,0.658203857421875,0.0016509834676980972,-0.00008817063644528389,0.0012443345040082932
1746728743671223000,0.66822314453125,-0.0004311497323215008,0.001992853358387947,0.0034461847972124815
1746728743681240800,0.67824072265625,-0.001164318062365055,-0.0015595373697578907,-0.0013344555627554655
1746728743691259000,0.6882587890625,0.0005726972594857216,-0.0021546457428485155,0.0006549595855176449
1746728743701277000,0.69827685546875,-0.003018043003976345,0.00040332041680812836,0.0002397727221250534
1746728743711295000,0.708294921875,-0.0008122497238218784,0.0019161277450621128,-0.003173013450577855
1746728743721313000,0.71831298828125,-0.0006015938706696033,0.0016000107862055302,-0.0015591380652040243
1746728743731330800,0.728330810546875,-0.002053892705589533,0.0005219606682658195,-0.0015257042832672596
1746728743741348900,0.738348876953125,0.0016953053418546915,-0.00015341723337769508,-0.0021584713831543922
1746728743751367700,0.74836767578125,-0.002237514592707157,-0.00007788185030221939,0.000218499219045043
1746728743761386000,0.758385986328125,0.002575882477685809,-0.00014179805293679237,0.0035700874868780375
1746728743771404000,0.768404052734375,-0.0020802519284188747,-0.0009970096871256828,-0.0014139956329017878
1746728743781421800,0.778421875,0.0007738580461591482,0.00047092465683817863,0.0011050882749259472
1746728743791440100,0.788440185546875,-0.0008544754236936569,-0.000790656078606844,-0.00023933127522468567
1746728743801458000,0.7984580078125,-0.0012339758686721325,-0.0010449881665408611,-0.002392230788245797
1746728743811476000,0.80847607421875,-0.0005946056917309761,0.00034690694883465767,0.0021613265853375196
1746728743821493800,0.81849365234375,-0.0005035256035625935,-0.0016672415658831596,-0.0004032973665744066
1746728743831512800,0.828512939453125,-0.0009278943762183189,-0.0023161901626735926,-0.000980508979409933
1746728743841531000,0.83853076171875,-0.0012200428172945976,0.0006716102361679077,0.000059455400332808495
1746728743851549000,0.848548828125,0.0019005218055099249,0.00026457104831933975,0.0009178626351058483
1746728743861567000,0.85856689453125,-0.0011277585290372372,-0.0005612755194306374,0.0015700707444921136
1746728743871584800,0.868584716796875,-0.0022353297099471092,0.0005803569220006466,0.000516081228852272
1746728743881603000,0.87860302734375,-0.002591127995401621,0.0015598675236105919,-0.0008967258036136627
1746728743891620900,0.888620849609375,0.002040320076048374,0.0019363868050277233,0.0002270431723445654
1746728743901639000,0.898638916015625,-0.0025477739982306957,0.00026072608307003975,0.0005620687734335661
1746728743911657000,0.908656982421875,0.00230562686920166,0.00012129126116633415,-0.0010958423372358084
1746728743921676000,0.918676025390625,-0.004882244858890772,-0.00037139328196644783,-0.0020934625063091516
1746728743931694000,0.928694091796875,0.0015222325455397367,0.0006244909018278122,-0.0020631884690374136
1746728743941712000,0.9387119140625,-0.0033268509432673454,-0.0006418423727154732,0.0006593610160052776
1746728743951730000,0.94872998046875,0.0015554185956716537,0.001412535086274147,0.001391810947097838
1746728743961748000,0.958748046875,-0.000024901237338781357,-0.0002625933848321438,-0.0007879864424467087
1746728743971766000,0.96876611328125,0.0014403453096747398,0.0009111138060688972,-0.00026229885406792164
1746728743981783800,0.97878369140625,-0.0029773060232400894,0.0006485260091722012,0.0013158904621377587
1746728743991801900,0.9888017578125,0.00040093250572681427,-0.0025318267289549112,0.0039213611744344234
1746728744001821000,0.998821044921875,-0.0032752947881817818,-0.0001807883381843567,0.00028641242533922195
1746728744011839000,1.0088388671875,0.0003092186525464058,0.00023567304015159607,0.0023235862608999014
1746728744021857000,1.01885693359375,-0.00325994985178113,-0.0003648698329925537,-0.0013592992909252644
1746728744031874800,1.028874755859375,-0.0011613257229328156,-0.0008804202079772949,-0.00039565470069646835
1746728744041893000,1.03889306640625,-0.0008401484228670597,-0.002042357577010989,-0.0016942122019827366
1746728744051911000,1.048910888671875,0.0006358311511576176,0.00017032073810696602,-0.0016858503222465515
1746728744061929000,1.058928955078125,0.0010020160116255283,0.0016851266846060753,-0.0006357657257467508
1746728744071946800,1.06894677734375,0.0008361258078366518,0.0008801082149147987,-0.00013384432531893253
1746728744081965800,1.0789658203125,-0.0011007911525666714,-0.0009745168499648571,0.0025322462897747755
1746728744091984000,1.08898388671875,-0.00022420473396778107,0.0011506704613566399,-0.0009142989292740822
1746728744102002000,1.099001953125,0.0006306702271103859,0.0009573251008987427,0.00001834006980061531
1746728744112020000,1.10902001953125,-0.0007879440672695637,-0.0002529500052332878,-0.0023252598475664854
1746728744122037800,1.119037841796875,0.0003574816510081291,-0.0005802526138722897,-0.0005755631718784571
1746728744132056000,1.12905615234375,-0.0006060553714632988,0.00020556198433041573,0.0021585901267826557
1746728744142073900,1.139073974609375,0.001580666285008192,-0.0002740733325481415,0.0025386232882738113
1746728744152092000,1.149091796875,-0.00003283517435193062,-0.0013786503113806248,-0.0010455218143761158
1746728744162110700,1.15911083984375,-0.00072126230224967,-0.0009344350546598434,-0.0024269036948680878
1746728744172129000,1.16912890625,0.00012590736150741577,-0.0003383420407772064,-0.00007956731133162975
1746728744182147000,1.17914697265625,-0.000973179005086422,0.0006070802919566631,-0.0021240757778286934
1746728744192164900,1.189164794921875,-0.000004359055310487747,0.0007946072146296501,0.0025168205611407757
1746728744202183000,1.199182861328125,-0.0002677454613149166,-0.0011612186208367348,-0.0000025297049432992935
1746728744212201000,1.209200927734375,0.0012548165395855904,0.00020614732056856155,0.0002493371721357107
1746728744222219000,1.219218994140625,0.0009205897804349661,-0.0012604552321135998,-0.001980261178687215
1746728744232236800,1.22923681640625,0.0008183848112821579,-0.000010034069418907166,-0.00217037508264184
1746728744242254800,1.2392548828125,-0.0022319997660815716,-0.001950413454324007,0.0003415183164179325
1746728744252274000,1.24927392578125,-0.0006033233366906643,0.001481679268181324,0.00013214768841862679
1746728744262292000,1.2592919921875,0.0002914988435804844,0.0005157506093382835,0.0007529305294156075
1746728744272310000,1.26931005859375,0.0004726122133433819,0.00035366974771022797,-0.0024245178792625666
1746728744282327800,1.279327880859375,-0.0010166275314986706,-0.0011294446885585785,0.002170766703784466
1746728744292346000,1.28934619140625,-0.00042686471715569496,-0.0008716746233403683,-0.0008922314736992121
1746728744302364000,1.299364013671875,-0.0014335396699607372,-0.0014855330809950829,0.0009621274657547474
1746728744312382000,1.3093818359375,0.0018691676668822765,0.0015970952808856964,-0.002443389967083931
1746728744322399700,1.319399658203125,0.0008691507391631603,-0.0009432942606508732,-0.0001836980227380991
1746728744332418000,1.32941796875,-0.0033052400685846806,0.002831418998539448,-0.002774055115878582
1746728744342437000,1.33943701171875,-0.0001350133679807186,0.0008500269614160061,-0.0014573880471289158
1746728744352455000,1.349454833984375,-0.0005796151235699654,-0.001284632831811905,-0.0027283804956823587
1746728744362473000,1.359472900390625,0.0006856527179479599,0.000607543159276247,-0.002360065234825015
1746728744372491000,1.369490966796875,0.0008677770383656025,0.00279407249763608,0.0014318217290565372
1746728744382509000,1.379509033203125,0.00028694188222289085,-0.0007798895239830017,0.00012740539386868477
1746728744392526800,1.38952685546875,-0.0001277318224310875,-0.0006979908794164658,-0.003449558513239026
1746728744402545000,1.399544921875,0.0004898551851511002,-0.0005163629539310932,0.00024531129747629166
1746728744412563000,1.40956298828125,0.00021854788064956665,0.000612303614616394,-0.0032895675394684076
1746728744422582000,1.41958203125,-0.0019436725415289402,-0.0010812007822096348,-0.002150267129763961
1746728744432600000,1.42960009765625,-0.002246383111923933,-0.0011718817986547947,-0.00018238765187561512
1746728744442617900,1.439617919921875,0.0004940093494951725,-0.0007319273427128792,-0.00040582683868706226
1746728744452636000,1.449635986328125,0.0007910479325801134,0.0006444845348596573,0.0034063805360347033
1746728744462654000,1.459654052734375,0.0009039659053087234,0.0020655468106269836,-0.0005550715140998363
1746728744472672000,1.469672119140625,-0.0009505115449428558,0.00018901564180850983,0.00022986135445535183
1746728744482689800,1.479689697265625,0.001247128937393427,-0.0009217886254191399,-0.002420516451820731
1746728744492707800,1.489707763671875,-0.0010091080330312252,0.0010373275727033615,0.0006257279310375452
1746728744502726700,1.4997265625,0.0012303441762924194,0.0003856518305838108,-0.0012938787695020437
1746728744512744700,1.50974462890625,-0.0009553083218634129,-0.0014508021995425224,-0.00248624081723392
1746728744522762800,1.5197626953125,0.00006867712363600731,-0.0006313477642834187,-0.0007155053317546844
1746728744532780500,1.529780517578125,0.0006713815964758396,0.0009336089715361595,0.0011314807925373316
1746728744542798800,1.539798828125,0.0014663352631032467,-0.0010419241152703762,0.0009024490136653185
1746728744552816600,1.549816650390625,0.0012022608425468206,0.0018138131126761436,0.000877623911947012
1746728744562834700,1.559834716796875,-0.00023318268358707428,-0.0005729119293391705,-0.0014606313779950142
1746728744572852700,1.569852783203125,0.0012042231392115355,0.00016456842422485352,-0.0006215367466211319
1746728744582870800,1.579870849609375,-0.0009084627963602543,0.0009307600557804108,0.0032538953237235546
1746728744592889600,1.5898896484375,0.001542709767818451,-0.001983263762667775,-0.0010534289758652449
1746728744602907600,1.59990771484375,-0.00029593659564852715,0.00019014207646250725,-0.002932023024186492
1746728744612925700,1.60992578125,0.0005610771477222443,0.000596135389059782,-0.0002197246067225933
1746728744622943700,1.61994384765625,-0.00016117235645651817,0.0019085411913692951,0.002501493552699685
1746728744632961800,1.6299619140625,-0.000719358678907156,0.0010697748512029648,0.00048385164700448513
1746728744642979600,1.6399794921875,-0.00012866966426372528,-0.00007644994184374809,0.00041514215990900993
1746728744652997600,1.64999755859375,0.001914795022457838,0.00011512544006109238,0.0009960161987692118
1746728744663015700,1.660015625,-0.0003867088817059994,0.0007801167666912079,-0.0012005593162029982
1746728744673034800,1.67003466796875,-0.0019424143247306347,-0.0014855265617370605,0.0024692099541425705
1746728744683052800,1.680052734375,0.000024596229195594788,0.0024658055044710636,-0.0012970324605703354
1746728744693070600,1.690070556640625,-0.0011644815094769,-0.0006782975979149342,-0.000981154851615429
1746728744703088600,1.700088623046875,0.001880310708656907,0.00047245435416698456,0.00241277739405632
1746728744713106700,1.710106689453125,-0.0016183359548449516,0.001741204410791397,-0.0001507431734353304
1746728744723124700,1.720124755859375,0.00012550223618745804,-0.0002657538279891014,-0.0015710070729255676
1746728744733142500,1.730142578125,0.00047603948041796684,0.0002048509195446968,0.0020448090508580208
1746728744743160800,1.740160888671875,0.00007017375901341438,-0.0011427085846662521,-0.0005049016326665878
1746728744753179600,1.7501796875,-0.00039374828338623047,-0.0004312279634177685,0.00024022231809794903
1746728744763197700,1.76019775390625,0.001969807082787156,0.00012803589925169945,-0.0006767038721591234
1746728744773215700,1.7702158203125,-0.0003196569159626961,-0.0011754282750189304,-0.001673826016485691
1746728744783233500,1.780233642578125,0.0003032567910850048,-0.0013408106751739979,-0.00037633394822478294
1746728744793251800,1.790251953125,0.000563956331461668,0.001998825930058956,-0.00009744195267558098
1746728744803269600,1.80026953125,-0.0008190232329070568,0.00041664158925414085,-0.001944876741617918
1746728744813287700,1.81028759765625,-0.0008541569113731384,0.0017897370271384716,0.00014747632667422295
1746728744823305700,1.8203056640625,0.0008499997202306986,-0.0018521358724683523,-0.0043356893584132195
1746728744833323800,1.83032373046875,-0.00028541451320052147,0.003218825440853834,0.0009740109089761972
1746728744843342800,1.8403427734375,-0.0011448166333138943,0.0018289214931428432,-0.0004838034510612488
1746728744853360600,1.850360595703125,0.0003008726052939892,0.0001898929476737976,-0.004544624127447605
1746728744863378700,1.860378662109375,-0.0001326901838183403,-0.00048468587920069695,0.0012506806524470448
1746728744873396700,1.870396728515625,0.00038012396544218063,0.0017450517043471336,-0.002452490385621786
1746728744883414800,1.880414794921875,-0.0019293692894279957,-0.001281630713492632,-0.00139228580519557
1746728744893432600,1.8904326171875,-0.002184145152568817,0.0017859493382275105,0.0036596786230802536
1746728744903450600,1.90045068359375,0.00019751954823732376,0.0010386663489043713,-0.00032041571103036404
1746728744913468700,1.91046875,-0.0012193466536700726,0.00011030910536646843,-0.0007970908191055059
1746728744923487700,1.92048779296875,0.0019428906962275505,0.0011345609091222286,-0.0009654026944190264
1746728744933505800,1.930505859375,0.00038972822949290276,-0.0009170747362077236,-0.00011560670100152493
1746728744943523600,1.940523681640625,-0.00047473376616835594,0.0003844117745757103,-0.00026261317543685436
1746728744953541600,1.950541748046875,-0.0001634838990867138,0.00020123785361647606,0.00018273084424436092
1746728744963559700,1.9605595703125,-0.0009515131823718548,0.0007903287187218666,-0.0006716111674904823
1746728744973577700,1.97057763671875,-0.0018323729746043682,0.0007886737585067749,-0.0009807345923036337
1746728744983595500,1.980595458984375,0.00003743218258023262,0.0022486187517642975,0.0010278215631842613
1746728744993613800,1.99061376953125,-0.0009091696701943874,-0.000787640456110239,0.0013815918937325478
1746728745003631600,2.000631591796875,0.002741757780313492,0.0008629867807030678,0.0008359102066606283
1746728745013650700,2.010650634765625,-0.001531270332634449,-0.0016799685545265675,0.0011429700534790754
1746728745023668700,2.020668701171875,0.0018613303545862436,-0.0021665282547473907,-0.0003899454604834318
1746728745033686500,2.0306865234375,0.002398824319243431,0.0015669814310967922,-0.000022375723347067833
1746728745043704800,2.040704833984375,0.00024672411382198334,0.0008167689666152,0.001396023784764111
1746728745053722600,2.05072265625,-0.0007246374152600765,0.001744584646075964,0.0015366006409749389
1746728745063740700,2.06074072265625,-0.002168603241443634,-0.002416338073089719,-0.00044292700476944447
1746728745073758700,2.0707587890625,0.0004335641860961914,0.002668605651706457,0.0015757972141727805
1746728745083776800,2.08077685546875,-0.0010074721649289131,-0.00031466735526919365,0.0013172043254598975
1746728745093795800,2.0907958984375,0.00011222250759601593,-0.00021371571347117424,0.0009357756935060024
1746728745103813600,2.100813720703125,0.0008682941552251577,-0.00033808546140789986,-0.0011023415718227625
1746728745113831700,2.110831787109375,-0.0010743881575763226,0.0011245678178966045,-0.0016918003093451262
1746728745123849700,2.120849609375,0.0008966175373643637,0.0009839525446295738,-0.0009599633049219847
1746728745133867800,2.13086767578125,-0.0011343755759298801,0.0005055698566138744,-0.000383234117180109
1746728745143885600,2.140885498046875,-0.0011833775788545609,0.0015615131705999374,0.001181639265269041
1746728745153903600,2.150903564453125,0.000692479545250535,0.0011438168585300446,-0.0025723627768456936
1746728745163921700,2.160921630859375,-0.0022838693112134933,-0.0006940308958292007,0.001633301144465804
1746728745173940700,2.170940673828125,-0.0009276042692363262,-0.00040682079270482063,0.002246107906103134
1746728745183958800,2.180958740234375,-0.0004008309915661812,0.001320771872997284,0.0019435727735981345
1746728745193976600,2.1909765625,-0.0005225627683103085,0.0006057033315300941,-0.0014590388163924217
1746728745203994600,2.20099462890625,0.00005720742046833038,0.0031993561424314976,-0.0014417283236980438
1746728745214012700,2.2110126953125,-0.0007089823484420776,0.0008729398250579834,0.0009592361748218536
1746728745224030700,2.22103076171875,-0.0005348115228116512,0.0006303261034190655,0.0003528343513607979
1746728745234048500,2.231048583984375,-0.0008024824783205986,-0.0003604460507631302,-0.003767829854041338
1746728745244066800,2.24106689453125,-0.0023316694423556328,-0.0011735092848539352,0.0009435683023184538
1746728745254084600,2.251084716796875,-0.0001150001771748066,0.00013706879690289497,-0.00017972243949770927
1746728745264103700,2.261103759765625,-0.0010092896409332752,0.0003157667815685272,0.002578247105702758
1746728745274121700,2.271121826171875,0.0001234305091202259,-0.000967265572398901,-0.00027357786893844604
1746728745284139500,2.281139404296875,-0.00010480266064405441,0.00011610845103859901,-0.0012083472684025764
1746728745294157800,2.29115771484375,0.00006983429193496704,0.00022864295169711113,-0.0003158820327371359
1746728745304175600,2.301175537109375,0.0004338887520134449,-0.0006904136389493942,-0.0020826233085244894
1746728745314193700,2.311193603515625,-0.0000012032687664031982,0.0013414775021374226,0.0017674744594842196
1746728745324211700,2.321211669921875,0.001419326988980174,-0.0003269929438829422,0.002089450601488352
1746728745334229800,2.331229736328125,-0.0012144721113145351,0.002077294047921896,-0.00043464009650051594
1746728745344248800,2.341248779296875,-0.000020843464881181717,0.0018892749212682247,-0.0005009528249502182
1746728745354266600,2.3512666015625,-0.00046680355444550514,0.0005994108505547047,-0.0011324912775307894
1746728745364284700,2.36128466796875,0.00018646987155079842,0.0013964949175715446,0.0005082821007817984
1746728745374302700,2.371302734375,-0.00007359636947512627,-0.00037983618676662445,-0.00042742746882140636
1746728745384320800,2.38132080078125,-0.000369207002222538,0.0005306988023221493,0.0005638010334223509
1746728745394338600,2.391338623046875,0.00010017678141593933,0.0013355030678212643,0.0006355708464980125
1746728745404356600,2.401356689453125,-0.00018052058294415474,0.0008603953756392002,0.00020014401525259018
1746728745414374700,2.411374755859375,-0.00044139381498098373,0.0015613669529557228,0.00007797963917255402
1746728745424392700,2.421392822265625,0.0002086837776005268,-0.0008360105566680431,0.0024082455784082413
1746728745434411800,2.431411865234375,0.0029622772708535194,-0.0008811252191662788,0.0011977546382695436
1746728745444429600,2.4414296875,-0.001658306922763586,-0.0006142766214907169,-0.0010515511967241764
1746728745454447900,2.45144775390625,-0.0004247925244271755,0.0010662530548870564,0.00034344173036515713
1746728745464465700,2.461465576171875,0.0004359413869678974,-0.0015550963580608368,0.0005514344666153193
1746728745474483700,2.471483642578125,0.000670730834826827,-0.00045291008427739143,-0.00040699122473597527
1746728745484501500,2.48150146484375,-0.0008965395390987396,0.00011620717123150826,-0.001034964807331562
1746728745494519600,2.49151953125,-0.0007354016415774822,0.0007829787209630013,-0.0012055621482431889
1746728745504537600,2.50153759765625,-0.0009583081118762493,0.0015845904126763344,-0.000585844274610281
1746728745514556700,2.511556640625,-0.0021156175062060356,-0.00013833818957209587,-0.0034310766495764256
1746728745524574500,2.521574462890625,-0.00007110880687832832,0.0012073568068444729,0.0002390258014202118
1746728745534592500,2.531592529296875,-0.000339326448738575,0.0007600798271596432,-0.0019366892520338297
1746728745544610600,2.541610595703125,0.0008220782037824392,0.00040135206654667854,0.0025526012759655714
1746728745554628600,2.551628662109375,-0.0008193845860660076,0.0025132917799055576,-0.000089308712631464
1746728745564646400,2.561646484375,0.00010393327102065086,-0.0010079401545226574,0.0013927404070273042
1746728745574664700,2.571664794921875,-0.003166778013110161,0.0022906619124114513,0.00048667285591363907
1746728745584682500,2.5816826171875,0.00087004154920578,0.000742033589631319,0.00043101259507238865
1746728745594700500,2.591700439453125,0.0008385921828448772,0.0008884957060217857,-0.0019142853561788797
1746728745604719600,2.6017197265625,0.00036108726635575294,-0.0026942549739032984,-0.00016698543913662434
1746728745614737400,2.6117373046875,0.003794108284637332,0.0006409874185919762,-0.00014432286843657494
1746728745624755700,2.621755615234375,-0.0022467398084700108,-0.0004775403067469597,-0.0019989481661468744
1746728745634773500,2.6317734375,-0.0028816289268434048,0.0037969714030623436,-0.00046051456592977047
1746728745644791600,2.64179150390625,-0.0007982379756867886,-0.0008297380991280079,0.0010060882195830345
1746728745654809600,2.6518095703125,0.0018517118878662586,0.0015096738934516907,-0.0010933817829936743
1746728745664827600,2.66182763671875,-0.001675378531217575,-0.0007686605677008629,0.0004105053376406431
1746728745674845700,2.671845703125,-0.0020784935913980007,0.0020804419182240963,0.0015422991709783673
1746728745684864500,2.681864501953125,0.00041156215593218803,0.0011424762196838856,-0.0009104723576456308
1746728745694882600,2.691882568359375,0.0006891353987157345,-0.0015755468048155308,0.0007451190613210201
1746728745704900600,2.701900634765625,-0.0003676069900393486,0.0011147786863148212,0.0014545851154252887
1746728745714918700,2.711918701171875,0.0030144178308546543,0.0006388532929122448,-0.002699905075132847
1746728745724936400,2.7219365234375,-0.0005760560743510723,0.0006649522110819817,0.00031505944207310677
1746728745734954500,2.73195458984375,-0.0020216736011207104,-0.0003470592200756073,-0.0022862625773996115
1746728745744972500,2.74197265625,-0.0005979477427899837,-0.000658116303384304,-0.000882244436070323
1746728745754990600,2.751990478515625,0.002906943205744028,-0.0005389265716075897,0.001124819042161107
1746728745765008600,2.762008544921875,-0.0007895245216786861,-0.0019006009679287672,-0.002688561100512743
1746728745775027500,2.77202734375,-0.00026990287005901337,0.0009207087568938732,0.0005617274437099695
1746728745785045500,2.78204541015625,-0.0005812267772853374,-0.0020694884005934,-0.0011560115963220596
1746728745795063600,2.7920634765625,0.0007060342468321323,0.0009623258374631405,-0.0008745118975639343
1746728745805081600,2.80208154296875,0.000943321967497468,0.0006310287863016129,-0.0026697488501667976
1746728745815099400,2.812099365234375,0.000854917336255312,-0.00034508761018514633,0.0007388785015791655
1746728745825117700,2.82211767578125,0.000322817824780941,-0.0029768235981464386,-0.0007314528338611126
1746728745835135700,2.8321357421875,-0.00038857245817780495,-0.0006285710260272026,0.0008931492920964956
1746728745845153500,2.842153564453125,-0.0016205511055886745,0.0002484079450368881,-0.0006698600482195616
1746728745855172600,2.852172607421875,-0.0007033180445432663,0.0013009351678192616,-0.00003977818414568901
1746728745865190400,2.8621904296875,0.000012007076293230057,-0.0009244023822247982,0.00236132787540555
1746728745875208700,2.872208740234375,0.00042986730113625526,0.0007680580019950867,0.00004479684866964817
1746728745885226500,2.8822265625,0.0008999151177704334,-0.0005169170908629894,0.00046823942102491856
1746728745895244500,2.89224462890625,-0.0015486585907638073,-0.00008925795555114746,-0.0012356657534837723
1746728745905262600,2.9022626953125,-0.0009481157176196575,0.000008213333785533905,0.00017820647917687893
1746728745915280600,2.91228076171875,-0.00024833017960190773,0.0011035609059035778,-0.0007728117052465677
1746728745925298700,2.922298583984375,0.000585505273193121,0.0012154136784374714,-0.00040795840322971344
1746728745935316500,2.93231640625,-0.0005992460064589977,-0.00044241640716791153,0.0011007662396878004
1746728745945335600,2.94233544921875,-0.0008850032463669777,-0.0004930165596306324,-0.0009679771028459072
1746728745955353600,2.952353515625,0.0018159314058721066,0.0008009220473468304,-0.000774456886574626
1746728745965371600,2.96237158203125,-0.00014601927250623703,0.0006824112497270107,0.0014759140321984887
1746728745975389400,2.972389404296875,0.00047231558710336685,0.0006373589858412743,0.002185496035963297
1746728745985407500,2.982407470703125,0.00035407161340117455,0.0005326964892446995,0.0007284805178642273
1746728745995425500,2.992425537109375,0.00010365806519985199,-0.0007037967443466187,0.00020362203940749168
1746728746005443600,3.002443603515625,-0.0006822408176958561,0.001000093761831522,-0.00037002284079790115
1746728746015461600,3.012461669921875,-0.0019754301756620407,0.0010036635212600231,-0.00015735486522316933
1746728746025479700,3.022479736328125,0.0021695138420909643,-0.00001552840694785118,-0.0043917810544371605
1746728746035498500,3.03249853515625,0.0015640233177691698,-0.0006293430924415588,-0.001768897520378232
1746728746045516500,3.0425166015625,-0.00046743592247366905,0.0006013037636876106,0.001365909120067954
1746728746055534600,3.05253466796875,0.00024836882948875427,0.0015827515162527561,-0.0011605611070990562
1746728746065552400,3.062552490234375,0.0009343991987407207,-0.0007110289297997952,-0.00005135475657880306
1746728746075570700,3.07257080078125,0.0002480335533618927,0.0006640502251684666,0.0016461575869470835
1746728746085588700,3.082588623046875,0.0003364505246281624,-0.0007114722393453121,0.0009739757515490055
1746728746095606500,3.0926064453125,0.00027448125183582306,0.000948470551520586,0.0009505944326519966
1746728746105624600,3.10262451171875,0.0010907403193414211,0.002051019575446844,0.0006613752339035273
1746728746115643400,3.112643310546875,-0.00128621282055974,0.00035530608147382736,0.0046798852272331715
1746728746125661700,3.12266162109375,0.0013694912195205688,-0.000144303310662508,0.0016563984099775553
1746728746135679500,3.132679443359375,0.0007011773996055126,-0.0005360599607229233,-0.00018294877372682095
1746728746145697500,3.142697509765625,0.0030783149413764477,0.0014072488993406296,-0.002301493426784873
1746728746155715600,3.152715576171875,0.0009940552990883589,0.00023080501705408096,0.001277503790333867
1746728746165733600,3.162733642578125,0.000788192730396986,0.00022441381588578224,-0.00026739598251879215
1746728746175751700,3.172751708984375,-0.0012469389475882053,-0.0010288958437740803,0.0002652960829436779
1746728746185769500,3.18276953125,0.000773601233959198,0.002183675765991211,0.000016557052731513977
1746728746195788500,3.19278857421875,-0.0007116189226508141,-0.0030435645021498203,-0.00034185824915766716
1746728746205806600,3.202806640625,-0.001529475674033165,0.0000017601996660232544,-0.0009450644720345736
1746728746215824600,3.21282470703125,-0.0023050010204315186,0.0025875186547636986,0.000217813765630126
1746728746225842400,3.222842529296875,0.0012793473433703184,-0.00044608814641833305,-0.001960119465366006
1746728746235860500,3.232860595703125,0.001118323765695095,0.0011619157157838345,-0.00001659337431192398
1746728746245878800,3.242878662109375,-0.00004547787830233574,-0.0017878017388284206,0.00039166933856904507
1746728746255896600,3.252896484375,0.00015776976943016052,-0.0006061033345758915,-0.0016107140108942986
1746728746265914600,3.26291455078125,0.0000445852056145668,-0.00036934809759259224,-0.0013595777563750744
1746728746275932700,3.2729326171875,0.0015965390484780073,0.0005595246329903603,-0.0008731512352824211
1746728746285951500,3.282951416015625,-0.0002785925753414631,0.0005901511758565903,-0.0013479930348694324
1746728746295969500,3.292969482421875,0.0020542738493531942,0.0007972382009029388,-0.0015949795488268137
1746728746305987600,3.302987548828125,0.0010750293731689453,0.00017645535990595818,-0.00022318516857922077
1746728746316005400,3.31300537109375,-0.0010391143150627613,-0.0002069869078695774,-0.0007370910607278347
1746728746326023700,3.323023681640625,-0.0007871789857745171,-0.0009454814717173576,0.0022839989978820086
1746728746336041700,3.333041748046875,-0.0008144085295498371,0.0005251574330031872,-0.00033636437729001045
1746728746346059500,3.3430595703125,0.0013352949172258377,-0.00021014129742980003,0.0004189079627394676
1746728746356077600,3.35307763671875,-0.002095084171742201,-0.0004335623234510422,-0.0015759640373289585
1746728746366095600,3.363095703125,0.0009726108983159065,0.0013603433035314083,-0.000880612526088953
1746728746376114700,3.37311474609375,-0.0017211679369211197,0.0014437846839427948,0.001361421192996204
1746728746386132500,3.383132568359375,0.0008080359548330307,-0.00019485829398036003,0.0005933656357228756
1746728746396150500,3.393150634765625,-0.00021168310195207596,-0.00018900493159890175,0.0018346223514527082
1746728746406168600,3.40316845703125,-0.0018596472218632698,0.0001292424276471138,0.000985606573522091
1746728746416186600,3.4131865234375,0.0004152259789407253,0.0018733292818069458,-0.0016569551080465317
1746728746426204700,3.42320458984375,-0.0010005105286836624,0.0013774489052593708,0.0010163260158151388
1746728746436222500,3.433222412109375,-1.4435499906539917e-7,0.0011379728093743324,0.001456957426853478
1746728746446240800,3.44324072265625,0.0007553943432867527,0.00041732145473361015,-0.003390528494492173
1746728746456258600,3.453258544921875,-0.0013654474169015884,-0.00021215202286839485,-0.0024375994689762592
1746728746466277600,3.463277587890625,-0.001948679331690073,0.0008826735429465771,-0.0021795392967760563
1746728746476295400,3.47329541015625,0.0017481993418186903,0.0026842025108635426,0.0017907905858010054
1746728746486313500,3.4833134765625,-0.0006848648190498352,0.000667656771838665,-0.00014772429130971432
1746728746496332300,3.493332275390625,0.000540880486369133,0.002008040901273489,0.000014911172911524773
1746728746506350300,3.503350341796875,-0.001303358469158411,-0.0005885409191250801,-0.0011755218729376793
1746728746516368400,3.513368408203125,-0.00000786222517490387,-0.001534877810627222,0.0003966144286096096
1746728746526386200,3.52338623046875,-0.00033969199284911156,0.0004798034206032753,0.002137789037078619
1746728746536404500,3.533404541015625,-0.0005271988920867443,-0.00036135967820882797,-0.0008829748257994652
1746728746546423300,3.54342333984375,-0.0005144155584275723,0.0005214782431721687,-0.0013610124588012695
1746728746556441300,3.55344140625,0.0007600369863212109,0.0018526348285377026,-0.0008738718461245298
1746728746566459100,3.563459228515625,-0.0003086891956627369,-0.001098679844290018,0.0009762262925505638
1746728746576477200,3.573477294921875,-0.0021622092463076115,0.0009779552929103374,-0.00030663772486150265
1746728746586495500,3.58349560546875,-0.0001627081073820591,-0.001070814672857523,0.0008326626848429441
1746728746596513300,3.59351318359375,-0.002051848452538252,0.0008382871747016907,-0.00098444614559412
1746728746606531300,3.60353125,0.0029040281660854816,0.00032988982275128365,-0.0014494340866804123
1746728746616549400,3.61354931640625,0.0013503087684512138,0.00010390719398856163,0.0007066004909574986
1746728746626567400,3.6235673828125,0.0005779918283224106,-0.0012223473750054836,-0.0017333875875920057
1746728746636586200,3.633586181640625,0.0005372678861021996,0.0002512275241315365,-0.0011364552192389965
1746728746646604300,3.643604248046875,-0.00009123794734477997,-0.0028204626869410276,0.0014444140251725912
1746728746656622000,3.6536220703125,-0.001982314046472311,-0.001666535623371601,-0.0015793249476701021
1746728746666640400,3.663640380859375,-0.00093888770788908,-0.002284655347466469,-0.0009103391785174608
1746728746676658400,3.673658447265625,0.000036654993891716003,-0.00015800492838025093,-0.0017278504092246294
1746728746686676200,3.68367626953125,-0.0006629573181271553,0.00193816889077425,-0.00011850218288600445
1746728746696694300,3.6936943359375,-0.0002955119125545025,-0.0006677391938865185,-0.0007795216515660286
1746728746706712300,3.70371240234375,0.002260323613882065,0.0010364176705479622,-0.0002404979895800352
1746728746716731400,3.7137314453125,0.0015765957068651915,-0.001720877829939127,-0.001320934621617198
1746728746726749200,3.723749267578125,-0.0015355744399130344,0.0000013886019587516785,0.0006090581882745028
1746728746736767200,3.733767333984375,-0.0015498893335461617,0.00041670212522149086,0.001020968658849597
1746728746746785300,3.743785400390625,-0.0004153824411332607,0.000655055046081543,-0.0004291227087378502
1746728746756803300,3.75380322265625,0.00028875237330794334,0.0005097184330224991,-0.0013584811240434647
1746728746766821400,3.7638212890625,-0.0007778438739478588,0.0004221005365252495,-0.00041305902414023876
1746728746776839200,3.773839111328125,-0.00020996294915676117,-0.0019479694310575724,0.0010120433289557695
1746728746786857500,3.783857421875,0.00022519752383232117,-0.0009623337537050247,-0.0014532450586557388
1746728746796875300,3.793875244140625,-0.0017494489438831806,0.0007068361155688763,-0.00023994548246264458
1746728746806894300,3.803894287109375,0.0010378153529018164,-0.0001602889969944954,-0.00008202018216252327
1746728746816912100,3.813912109375,-0.0007135248742997646,-0.0009603719227015972,-0.001513700233772397
1746728746826930200,3.82393017578125,-0.0015167342498898506,-0.00006741425022482872,-0.00031288107857108116
1746728746836948500,3.833948486328125,-0.0021041380241513252,-0.0009759045206010342,0.0002187162172049284
1746728746846966300,3.84396630859375,0.0005161459557712078,0.0018012397922575474,-0.0012508160434663296
1746728746856984300,3.853984375,0.0010083073284476995,0.0007910220883786678,-0.00019840826280415058
1746728746867002400,3.86400244140625,-0.000837529543787241,-0.0010683969594538212,0.0018998963059857488
1746728746877020400,3.8740205078125,0.0000466187484562397,-0.0010651396587491035,0.0010659934487193823
1746728746887038200,3.8840380859375,0.0009257281199097633,-0.0013634138740599155,-0.002960706129670143
1746728746897057300,3.894057373046875,-0.0007276465184986591,0.00288071995601058,0.0026678116992115974
1746728746907075300,3.904075439453125,-0.0017510992474853992,0.0005166316404938698,-0.00004861271008849144
1746728746917093400,3.91409326171875,-0.0009611188434064388,-0.00197007623501122,0.00078784697689116
1746728746927111400,3.924111328125,-0.0004969299770891666,0.00016498006880283356,0.0014879920054227114
1746728746937129200,3.934129150390625,0.00017318688333034515,-0.0006050406955182552,-0.002125466475263238
1746728746947147300,3.944147216796875,-0.0008734352886676788,0.000951843336224556,-0.0009142609778791666
1746728746957165300,3.954165283203125,0.0012458714190870523,0.0013235840015113354,0.0007072612643241882
1746728746967183400,3.964183349609375,-0.00017332704737782478,0.00200029369443655,-0.0036619205493479967
1746728746977202200,3.9742021484375,0.0019417323637753725,-0.0017259051091969013,0.00008240807801485062
1746728746987220200,3.98422021484375,-0.0008809519931674004,0.0007156808860599995,0.001306929625570774
1746728746997238300,3.99423828125,0.0005588694475591183,-0.0015976685099303722,-0.0013382816687226295
1746728747007256300,4.00425634765625,0.0004084012471139431,0.0014644339680671692,0.0012511098757386208
1746728747017274400,4.0142744140625,0.0015826013404875994,0.00027304282411932945,-0.001001213677227497
1746728747027292200,4.024292236328125,-0.0008688382804393768,0.00021099112927913666,-0.00009387475438416004
1746728747037310500,4.034310546875,0.0004115793853998184,-0.0017981347627937794,0.00038583739660680294
1746728747047328300,4.044328369140625,0.0000014523975551128387,0.002047203481197357,-0.0026445735711604357
1746728747057346300,4.05434619140625,0.0022939597256481647,0.00014151586219668388,-0.0017025817651301622
1746728747067365400,4.064365478515625,-0.00202169269323349,0.00036948220804333687,0.0015661821234971285
1746728747077383200,4.074383056640625,0.0018433614168316126,0.0003149891272187233,-0.0011260746978223324
1746728747087401500,4.0844013671875,-0.0003116684965789318,-0.0036493923980742693,-0.0009180819615721703
1746728747097419300,4.094419189453125,-0.0029088067822158337,0.000592594500631094,-0.0013749164063483477
1746728747107437300,4.104437255859375,0.000335189513862133,-0.0013634972274303436,-0.000018035760149359703
1746728747117455400,4.114455322265625,0.0010495958849787712,0.00045568589121103287,-0.0015535245183855295
1746728747127473400,4.124473388671875,0.0006722258403897285,0.0005065524019300938,0.0011788785923272371
1746728747137491200,4.1344912109375,-0.001786956563591957,0.0006874189712107182,0.0037749798502773046
1746728747147510300,4.14451025390625,0.0005068243481218815,-0.0004188581369817257,0.0008937057573348284
1746728747157528300,4.1545283203125,-0.0004669800400733948,-0.0013097082264721394,-0.0013495238963514566
1746728747167546400,4.16454638671875,0.0003221146762371063,-0.0018948046490550041,-0.0010741527657955885
1746728747177564400,4.174564453125,0.0009406623430550098,0.00014739297330379486,0.0015007300535216928
1746728747187582200,4.184582275390625,0.0003963122144341469,0.0009769676253199577,0.0009153671562671661
1746728747197600300,4.194600341796875,-0.0011736564338207245,0.0010920013301074505,0.001466529443860054
1746728747207618300,4.204618408203125,-0.00023622391745448112,-0.0011636964045464993,0.0023424429818987846
1746728747217636400,4.21463623046875,-0.0003957292065024376,-0.0019939919002354145,0.0021116482093930244
1746728747227654100,4.224654052734375,0.0008069546893239021,0.0012159161269664764,0.0015939295990392566
1746728747237673200,4.234673095703125,0.0026381155475974083,-0.00003693858161568642,0.001252323156222701
1746728747247691500,4.24469140625,-0.0019020414911210537,-0.00017435802146792412,0.001716245780698955
1746728747257709300,4.254709228515625,-0.0014607724733650684,0.001017182134091854,0.0011068996973335743
1746728747267727400,4.264727294921875,0.0003288714215159416,0.0010360907763242722,0.002817448228597641
1746728747277745200,4.2747451171875,-0.00025488296523690224,-0.00016730837523937225,0.002201307099312544
1746728747287763500,4.284763427734375,-0.0017691561952233315,0.0008923634886741638,-0.0036105092149227858
1746728747297781200,4.29478125,0.0026114750653505325,-0.0013646981678903103,-0.00032667280174791813
1746728747307799300,4.30479931640625,0.00022688042372465134,-0.00017399899661540985,-0.0007152280304580927
1746728747317817000,4.314817138671875,-0.0013722707517445087,0.00018739048391580582,0.0008384000975638628
1746728747327836200,4.324836181640625,-0.0008990271016955376,-0.0018206331878900528,0.00013905414380133152
1746728747337854500,4.3348544921875,-0.0005316617898643017,0.00037338025867938995,0.0005780057981610298
1746728747347872300,4.344872314453125,-0.000689320731908083,0.00016139261424541473,0.0005622932221740484
1746728747357890300,4.354890380859375,0.0002732439897954464,-0.0020839297212660313,0.0016441792249679565
1746728747367908400,4.364908447265625,-0.000003991182893514633,-0.0006402302533388138,0.0011653427500277758
1746728747377926400,4.374926513671875,-0.00198665214702487,0.0015466716140508652,-0.0010748142376542091
1746728747387944200,4.384944091796875,0.00006344914436340332,0.0005746176466345787,-0.0020263618789613247
1746728747397962200,4.394962158203125,-0.0025266078300774097,0.001521256286650896,0.001092806225642562
1746728747407981300,4.404981201171875,0.0009594699367880821,-0.0026287478394806385,0.004882751032710075
1746728747417999400,4.414999267578125,0.00016401009634137154,0.0013026599772274494,-0.00043999869376420975
1746728747428017400,4.425017333984375,0.0005392497405409813,-0.00003211619332432747,0.00034297071397304535
1746728747438035200,4.43503515625,0.00006476091220974922,-0.00043661706149578094,-0.00043101399205625057
1746728747448053200,4.44505322265625,0.0009318860247731209,0.0004749828949570656,-0.00042781815864145756
1746728747458071300,4.4550712890625,0.0011799733620136976,0.0016145473346114159,-0.0034189505968242884
1746728747468089300,4.46508935546875,0.0022705376613885164,0.0025405283086001873,0.000507081625983119
1746728747478107100,4.475107177734375,0.0010104014072567225,-0.001542443409562111,0.0016535311006009579
1746728747488125000,4.485125,0.002221873262897134,-0.0014002304524183273,0.0007509859278798103
1746728747498144000,4.49514404296875,-0.0002765851095318794,-0.00023515010252594948,0.002729269443079829
1746728747508162000,4.505162109375,0.0005319504998624325,0.0006080064922571182,-0.0032545870635658503
1746728747518179800,4.515179931640625,0.0007870467379689217,-0.0013458593748509884,0.0035532426554709673
1746728747528198000,4.525197998046875,0.0006528235971927643,-0.0010635643266141415,0.00007648579776287079
1746728747538216000,4.5352158203125,-0.00048219552263617516,-0.001714574173092842,0.003351829247549176
1746728747548234000,4.54523388671875,0.001193465432152152,0.0009698923677206039,-0.002822709968313575
1746728747558251800,4.555251708984375,-0.003542089369148016,0.0018418184481561184,0.0036713769659399986
1746728747568270000,4.56527001953125,-0.0010975743643939495,0.0013536610640585423,-0.0007452091667801142
1746728747578287900,4.575287841796875,-0.00019542407244443893,0.002041279338300228,0.0008056794758886099
1746728747588307000,4.585306884765625,0.0006842180155217648,-0.0012226910330355167,-0.0011197859421372414
1746728747598325000,4.595324951171875,-0.000800588633865118,0.000151811633259058,-0.0009894880931824446
1746728747608342800,4.6053427734375,0.0003879801370203495,-0.002129718428477645,-0.000226492527872324
1746728747618361000,4.615361083984375,-0.000626775436103344,-0.0014180047437548637,0.0025441916659474373
1746728747628379000,4.62537890625,0.00011624675244092941,0.0008795042522251606,-0.0004209717735648155
1746728747638397000,4.63539697265625,0.0006115557625889778,0.0009897644631564617,0.001101593254134059
1746728747648415000,4.6454150390625,0.0009716153144836426,-0.00016338424757122993,0.002762340474873781
1746728747658433000,4.65543310546875,-0.0018325559794902802,0.0012275520712137222,0.0009168335236608982
1746728747668452000,4.6654521484375,0.00024391105398535728,-0.00027207424864172935,-0.0019391404930502176
1746728747678470000,4.675469970703125,0.0008200113661587238,0.0013414230197668076,0.0022271466441452503
1746728747688488000,4.685488037109375,0.00023145321756601334,-0.0016541006043553352,-0.00010658148676156998
1746728747698506000,4.695506103515625,-0.0004944102838635445,-0.0007476853206753731,0.0016179831000044942
1746728747708524000,4.70552392578125,-0.0005974746309220791,0.0011918949894607067,0.0009772265329957008
1746728747718541800,4.715541748046875,-0.0007872190326452255,-0.0006648027338087559,-0.0005170991644263268
1746728747728559900,4.725559814453125,-0.0012205149978399277,-0.00042218901216983795,0.0007116834167391062
1746728747738578000,4.735577880859375,-0.0016215257346630096,-0.00004369812086224556,-0.0017342790961265564
1746728747748596000,4.745595947265625,0.00210769847035408,-0.00035022804513573647,-0.0004897837061434984
1746728747758615000,4.755614990234375,0.0010258201509714127,-0.0002721687778830528,0.001711154356598854
1746728747768632800,4.7656328125,-0.00045170169323682785,-0.0006551314145326614,0.001387047697789967
1746728747778651000,4.77565087890625,-0.00036593852564692497,-0.0006904634647071362,0.00019981293007731438
1746728747788669000,4.7856689453125,0.00034006545320153236,-0.0007911305874586105,0.001240043668076396
1746728747798687000,4.79568701171875,-0.00045939115807414055,-0.0005142521113157272,0.0015357487136498094
1746728747808704800,4.805704833984375,-0.000640486367046833,0.0027140318416059017,0.002244682051241398
1746728747818723000,4.81572314453125,-0.0009496491402387619,0.0003004837781190872,-0.0010525104589760303
1746728747828740900,4.825740966796875,0.0004700818099081516,-0.00045185908675193787,0.000007960479706525803
1746728747838760000,4.835760009765625,0.0000780569389462471,-0.0019323322921991348,-0.002314356854185462
1746728747848778000,4.845778076171875,-0.0006796121597290039,0.0018863743171095848,-0.00012843427248299122
1746728747858795800,4.855795654296875,-0.0017282096669077873,-0.00030995579436421394,0.0011799035128206015
1746728747868814000,4.86581396484375,0.00017248839139938354,-0.0010114326141774654,-0.004174914211034775
1746728747878831900,4.875831787109375,-0.0009545851498842239,0.0013782363384962082,-0.0033991460222750902
1746728747888850000,4.885849853515625,0.0014595706015825272,0.0007049893029034138,-0.0001844444777816534
1746728747898868000,4.895867919921875,-0.0005431259050965309,-0.0009274808689951897,0.001313455868512392
1746728747908886000,4.905885986328125,-0.0010035866871476173,0.0004395199939608574,-0.0003379702102392912
1746728747918903800,4.91590380859375,0.00011451961472630501,0.0017435625195503235,-0.0003498729784041643
1746728747928923000,4.9259228515625,0.0008990869391709566,0.0019600773230195045,0.0007188536692410707
1746728747938941000,4.93594091796875,0.0004326929338276386,0.0008540707640349865,0.0009831348434090614
1746728747948959000,4.945958984375,0.00009527010843157768,-0.0010064137168228626,-0.001156182261183858
1746728747958977000,4.95597705078125,-0.0010540084913372993,-0.0009872429072856903,-0.0008750373963266611
1746728747968994800,4.965994873046875,0.002437129383906722,0.0016279811970889568,-0.0002065841108560562
1746728747979012900,4.976012939453125,-0.00011827703565359116,0.0010645282454788685,-0.0003867777995765209
1746728747989031000,4.986031005859375,-0.0019265632145106792,0.001208605244755745,0.0013482717331498861
1746728747999049000,4.996049072265625,0.0002338630147278309,0.0005952361971139908,0.0026855641044676304
1746728748009066800,5.006066650390625,-0.0007131570018827915,0.0017622332088649273,0.0003648854326456785
1746728748019085800,5.0160859375,0.0016344867181032896,-0.0000029085204005241394,0.001306440681219101
1746728748029103900,5.026103759765625,-0.0016657025553286076,-0.0015214430168271065,-0.00012500840239226818
1746728748039122000,5.036121826171875,-0.0009139198809862137,0.00004714634269475937,-0.0024409694597125053
1746728748049140000,5.046139892578125,-0.0007288302294909954,0.00006285915151238441,0.0021095741540193558
1746728748059157800,5.05615771484375,0.00027657952159643173,-0.00028386153280735016,-0.00021269521676003933
1746728748069176000,5.066176025390625,0.001979404827579856,-0.00016961153596639633,-0.0007048472762107849
1746728748079193900,5.07619384765625,-0.0013174740597605705,-0.0009975363500416279,0.0014770557172596455
1746728748089212000,5.0862119140625,0.001703882124274969,-0.0005325484089553356,0.0009367002639919519
1746728748099231000,5.09623095703125,0.0000616665929555893,0.0008353819139301777,0.0002767962869256735
1746728748109248800,5.106248779296875,0.0014145520981401205,0.0027555213309824467,-0.001980499131605029
1746728748119267000,5.11626708984375,0.000009675044566392899,0.00024611037224531174,-0.0008477682713419199
1746728748129284900,5.126284912109375,0.00047945650294423103,-0.0002186112105846405,-0.0006834513042122126
1746728748139303000,5.136302978515625,0.00043006427586078644,0.0014415676705539227,-0.0006329582538455725
1746728748149321000,5.146321044921875,-0.00042534293606877327,0.001870869193226099,-0.0009520046878606081
1746728748159339000,5.156339111328125,0.0024231919087469578,0.0008079195395112038,0.0005981773138046265
1746728748169356800,5.166356689453125,-0.0015225475654006004,-0.0002813129685819149,0.0010708882473409176
1746728748179374800,5.176374755859375,0.0008064433932304382,-0.0006846580654382706,-0.0024332795292139053
1746728748189394000,5.186393798828125,0.0002855290658771992,0.0002596988342702389,-0.0004785193596035242
1746728748199412000,5.196411865234375,0.0011948063038289547,0.0008274149149656296,-0.0012778795789927244
1746728748209430000,5.206429931640625,0.0008424699772149324,0.0024860315024852753,0.002373047871515155
1746728748219447800,5.21644775390625,0.0015027797780930996,-0.0011513084173202515,-0.0005835089832544327
1746728748229465900,5.2264658203125,-0.0006495872512459755,0.000852720346301794,-0.001451699761673808
1746728748239484000,5.23648388671875,-0.0016456986777484417,0.00012051453813910484,0.002306536305695772
1746728748249502000,5.246501953125,0.00037484150379896164,0.0017181448638439178,-0.0034741212148219347
1746728748259519700,5.256519775390625,0.00023634126409888268,-0.0005039446987211704,-0.0007188213057816029
1746728748269538000,5.2665380859375,-0.0008725989609956741,0.0008300323970615864,0.0013387368526309729
1746728748279556900,5.276556884765625,0.00044525042176246643,-0.00028269505128264427,-0.00009368220344185829
1746728748289575000,5.286574951171875,-0.002971851732581854,0.0009234505705535412,0.0014866376295685768
1746728748299593000,5.296593017578125,0.003915070556104183,-0.00021472759544849396,0.000669930363073945
1746728748309610800,5.30661083984375,-0.00023866165429353714,0.002345636021345854,-0.0033719490747898817
1746728748319629000,5.316629150390625,-0.000225740484893322,-0.0007870369590818882,0.0012084678746759892
1746728748329646800,5.326646728515625,-0.001013769768178463,-0.0015649464912712574,0.0007032663561403751
1746728748339665000,5.336664794921875,0.0009966681245714426,0.0005281255580484867,0.00012739840894937515
1746728748349682700,5.3466826171875,0.001419311622157693,-0.00023513659834861755,0.0032614064402878284
1746728748359701000,5.356700927734375,-0.00011601252481341362,-0.0016897860914468765,-0.0012472209054976702
1746728748369720000,5.366719970703125,0.00021555135026574135,0.0005845534615218639,-0.0011769135016947985
1746728748379737900,5.37673779296875,-0.001654881052672863,0.0005796044133603573,-0.0012665993999689817
1746728748389756000,5.386755859375,-0.0008681835606694221,-0.0005005737766623497,-0.00020586233586072922
1746728748399774000,5.39677392578125,-0.0004120729863643646,-0.0010763616301119328,0.0013193455524742603
1746728748409792000,5.4067919921875,-0.001940194983035326,-0.0020015439949929714,0.0015065658371895552
1746728748419809800,5.416809814453125,0.0006182719953358173,-0.0019853045232594013,0.0015463522868230939
1746728748429827800,5.426827880859375,0.0010017671156674623,-0.0007096501067280769,0.0035077703651040792
1746728748439846000,5.436845947265625,0.0035396830644458532,0.0008495091460645199,0.00014520087279379368
1746728748449864000,5.446864013671875,-0.0009072632528841496,0.0005507026799023151,0.002809427212923765
1746728748459883000,5.456883056640625,0.00034901732578873634,0.0015025981701910496,0.0016508203698322177
1746728748469900800,5.46690087890625,-0.0002472642809152603,-0.00023857643827795982,-0.0010637398809194565
1746728748479918800,5.4769189453125,-0.0012019257992506027,0.0005810647271573544,0.0015950577799230814
1746728748489937200,5.486937255859375,-0.000019215978682041168,-0.0019718417897820473,0.00010022544302046299
1746728748499955000,5.496954833984375,-0.0001311260275542736,0.0014923526905477047,0.0010321871377527714
1746728748509973000,5.506972900390625,0.001417235704138875,-0.0003534844145178795,-0.0003968651872128248
1746728748519991000,5.516990966796875,-0.00003182748332619667,-0.002754128072410822,-0.0005498102400451899
1746728748530009000,5.527009033203125,0.00039587635546922684,0.00026243459433317184,0.001229181420058012
1746728748540027100,5.537027099609375,0.0015402601566165686,0.002033516764640808,-0.0006733117625117302
1746728748550046000,5.5470458984375,-0.0009513935074210167,-0.0022075672168284655,0.00031525338999927044
1746728748560064000,5.55706396484375,-0.0001036343164741993,-0.00008556246757507324,0.001137198181822896
1746728748570082000,5.56708203125,-0.0017883498221635818,-0.000439496710896492,-0.001820508623495698
1746728748580100000,5.57710009765625,0.0006659203208982944,0.001785735134035349,-0.0013477555476129055
1746728748590118000,5.587117919921875,-0.0012832474894821644,-0.0018521426245570183,-0.0019237971864640713
1746728748600136000,5.597135986328125,-0.001316159963607788,0.0018325629644095898,-0.0012442043516784906
1746728748610154200,5.607154296875,0.0002678884193301201,-0.00209852890111506,-0.0005648322403430939
1746728748620172000,5.617172119140625,0.00012932252138853073,-0.002396753989160061,-0.0000014223624020814896
1746728748630191000,5.627191162109375,0.0006084251217544079,0.0019252900965511799,-0.001083731185644865
1746728748640209000,5.637208984375,0.004193078726530075,0.0002317577600479126,-0.00047727348282933235
1746728748650227000,5.64722705078125,0.004243412055075169,-0.0004750452935695648,-0.0008128318004310131
1746728748660245000,5.657244873046875,-0.0009712763130664825,-0.001102916430681944,0.00011592288501560688
1746728748670263000,5.667262939453125,-0.0021260231733322144,-0.001057642512023449,0.0005465559661388397
1746728748680280800,5.67728076171875,-0.0005753068253397942,0.00061021838337183,0.0030206250958144665
1746728748690299100,5.687299072265625,0.00005772663280367851,0.0020493906922638416,-0.0015032868832349777
1746728748700317200,5.697317138671875,-0.0007618567906320095,0.0007786452770233154,0.0026213526725769043
1746728748710335000,5.7073349609375,0.0006962241604924202,0.00016824854537844658,0.002674349583685398
1746728748720354000,5.71735400390625,0.0017564434092491865,0.0001470283605158329,0.0018912777304649353
1746728748730371800,5.727371826171875,-0.00024652015417814255,0.00037233205512166023,0.00027447263710200787
1746728748740390100,5.73739013671875,-0.0008962615393102169,-0.0004406757652759552,0.0012216528411954641
1746728748750408000,5.747407958984375,0.0005516991950571537,0.000547356903553009,-0.00041752285324037075
1746728748760426000,5.757426025390625,-0.0013287374749779701,-0.0019970140419900417,0.00038905348628759384
1746728748770444000,5.767444091796875,-0.0012781373225152493,0.003162594512104988,0.000031390925869345665
1746728748780462000,5.777462158203125,0.000056360382586717606,0.00032283738255500793,-0.001436223043128848
1746728748790480100,5.787480224609375,0.00014610914513468742,-0.0017746682278811932,-0.0008889434393495321
1746728748800498000,5.797497802734375,0.00032799411565065384,0.0015754429623484612,0.0012108080554753542
1746728748810517000,5.80751708984375,-0.0009053158573806286,-0.0009886487387120724,-0.0009223842062056065
1746728748820535000,5.81753515625,0.0006685461848974228,-0.0007298523560166359,-0.001264458755031228
1746728748830553000,5.827552978515625,-0.0014324216172099113,-0.000688573345541954,-0.00019972724840044975
1746728748840571000,5.83757080078125,-0.0002952828072011471,0.002454973291605711,-0.00011472380720078945
1746728748850589000,5.8475888671875,-0.0011996924877166748,-0.0011173905804753304,0.002237113658338785
1746728748860607200,5.857607177734375,0.00017768610268831253,-0.0007342752069234848,-0.0014498329255729914
1746728748870625000,5.867625,0.0010253700893372297,-0.0005342718213796616,-0.0004956221673637629
1746728748880643000,5.87764306640625,-0.001927290577441454,-0.0005760597996413708,0.0006931270472705364
1746728748890661000,5.8876611328125,-0.000847378745675087,-0.001837332732975483,-0.0002621486783027649
1746728748900680200,5.89768017578125,-0.0029665129259228706,0.0015394235961139202,-0.0008857413195073605
1746728748910698000,5.907697998046875,-0.0015582330524921417,-0.0010419785976409912,0.0007483742665499449
1746728748920716000,5.917716064453125,-0.0020132334902882576,-0.0004029273986816406,0.0014657102292403579
1746728748930734000,5.927734130859375,0.000035536475479602814,-0.0010498091578483582,0.00151923974044621
1746728748940752100,5.937752197265625,-0.0017231698147952557,0.00019669998437166214,0.001373854698613286
1746728748950770200,5.947770263671875,-0.0008749528788030148,-0.0022054712753742933,-0.0013335146941244602
1746728748960788000,5.9577880859375,0.0007195714861154556,-0.00048034870997071266,-0.0019862328190356493
1746728748970806000,5.967805908203125,-0.0013638194650411606,-0.0003613056614995003,-0.0008083165157586336
1746728748980824000,5.977823974609375,-0.0012843012809753418,-0.001169638242572546,0.0011597604025155306
1746728748990843100,5.987843017578125,0.001968217547982931,0.0021065822802484035,-0.0010993990581482649
1746728749000861000,5.99786083984375,-0.0009626979008316994,0.0026526222936809063,-0.0007043073419481516
1746728749010879000,6.00787890625,0.001706055598333478,0.0006403378210961819,-0.0033160692546516657
1746728749020897000,6.01789697265625,0.0015199428889900446,0.00022927159443497658,0.002598807215690613
1746728749030915000,6.0279150390625,0.0030840174295008183,-0.0008724783547222614,0.0014741544146090746
1746728749040933000,6.03793310546875,-0.0003264937549829483,-0.0020285265054553747,-0.0006376772653311491
1746728749050951000,6.047950927734375,-0.00014193682000041008,-0.0027118935249745846,0.000051548704504966736
1746728749060969200,6.05796923828125,-0.001330321654677391,-0.0009287274442613125,0.001617318019270897
1746728749070987000,6.067987060546875,-0.0009622727520763874,-0.0009372495114803314,0.0012657807674258947
1746728749081006000,6.078006103515625,-0.0010384013876318932,0.0016018720343708992,0.0008614857215434313
1746728749091024000,6.08802392578125,-0.000009622424840927124,0.00039705773815512657,0.000904895132407546
1746728749101042000,6.0980419921875,0.0015435696113854647,0.00032904045656323433,0.0011350417044013739
1746728749111060200,6.108060302734375,0.0006881621666252613,0.0004837699234485626,-0.0008194523397833109
1746728749121078000,6.118078125,-0.0016165454871952534,0.0005594105459749699,-0.0008817161433398724
1746728749131096000,6.128095947265625,0.0012524777557700872,0.0005293171852827072,0.0025087541434913874
1746728749141114000,6.138114013671875,0.0016091284342110157,0.000009802635759115219,0.0004905050154775381
1746728749151132200,6.148132080078125,0.0001387973316013813,0.000607416033744812,0.0013632229529321194
1746728749161150000,6.15814990234375,-0.001280548982322216,-0.00018092291429638863,0.0012107572983950377
1746728749171169000,6.1681689453125,-0.00181477889418602,-0.0008528386242687702,-0.00045797950588166714
1746728749181187000,6.17818701171875,0.001741588581353426,0.0017781672067940235,0.0007387662772089243
1746728749191205000,6.188205078125,-0.0005796225741505623,0.0017097238451242447,0.0029984584543854
1746728749201223200,6.19822314453125,0.0009656432084739208,0.0001836232841014862,0.0029511821921914816
1746728749211241000,6.208240966796875,-0.001778478268533945,0.0023479745723307133,-0.0003777691163122654
1746728749221259000,6.218259033203125,-0.0009920592419803143,-0.00042315712198615074,0.0018462850712239742
1746728749231277000,6.228277099609375,-0.0019784942269325256,-0.0018793735653162003,0.0011272316332906485
1746728749241295000,6.238295166015625,-0.00007939431816339493,-0.0030300947837531567,0.001075824722647667
1746728749251314000,6.24831396484375,-0.0006996444426476955,0.0010410794056952,0.002081966958940029
1746728749261332000,6.25833203125,0.0018008071929216385,-0.004210983403027058,-0.0006998677272349596
1746728749271350300,6.268350341796875,-0.001521219965070486,0.0002239784225821495,0.002028008457273245
1746728749281368000,6.2783681640625,0.0017837167251855135,-0.0011276775039732456,0.0005313223227858543
1746728749291386000,6.28838623046875,0.0007277731783688068,-0.00026055239140987396,0.000345699954777956
1746728749301404000,6.29840380859375,0.002669823355972767,-0.00009806826710700989,0.0008357700426131487
1746728749311422200,6.308422119140625,-0.0009198514744639397,-0.0013119368813931942,0.00019714399240911007
1746728749321440000,6.31843994140625,-0.0008894228376448154,-0.0006624194793403149,-0.0006637165788561106
1746728749331458000,6.3284580078125,-0.0012476183474063873,0.0010683690197765827,-0.0011220464948564768
1746728749341477000,6.33847705078125,-0.0009600231423974037,-0.0010332916863262653,-0.002269914373755455
1746728749351495000,6.348494873046875,-0.0020644357427954674,0.00040534790605306625,-0.002027300652116537
1746728749361513200,6.35851318359375,-0.001504786778241396,0.0003704470582306385,0.0006310881581157446
1746728749371531000,6.368531005859375,-0.000979078933596611,0.0002524689771234989,0.002822337206453085
1746728749381549000,6.378549072265625,0.0010795763228088617,0.0002288818359375,-0.0007644647266715765
1746728749391567000,6.388567138671875,0.00042044417932629585,-0.001073137391358614,0.0005106565076857805
1746728749401585200,6.398585205078125,0.0005978127010166645,-0.00002829311415553093,-0.0011031420435756445
1746728749411603000,6.40860302734375,0.00019487645477056503,-0.0004322943277657032,0.0010505563113838434
1746728749421621000,6.41862109375,-0.0019072308205068111,0.00109588960185647,0.0009771231561899185
1746728749431640000,6.42864013671875,0.0013154603075236082,0.0009390297345817089,-0.002841849811375141
1746728749441658000,6.438658203125,0.0005269707180559635,-0.0016432437114417553,0.0033904509618878365
1746728749451676200,6.44867626953125,-0.000013118144124746323,0.0005975398235023022,0.0012849557679146528
1746728749461694000,6.45869384765625,0.00046202540397644043,-0.000002598389983177185,0.001667816424742341
1746728749471712000,6.4687119140625,0.0012031830847263336,0.0011257827281951904,0.0022483854554593563
1746728749481730000,6.47872998046875,-0.0015863548032939434,-0.0003338945098221302,0.0008603793103247881
1746728749491747600,6.48874755859375,-0.0009993943385779858,0.00011085346341133118,-0.001906378660351038
1746728749501765600,6.498765625,0.00033549824729561806,0.0006563831120729446,0.000575411831960082
1746728749511783700,6.50878369140625,-0.0006743725389242172,-0.003126370720565319,-0.000005689915269613266
1746728749521802800,6.518802734375,0.0019361411686986685,-0.0020248841028660536,0.001204242231324315
1746728749531820800,6.52882080078125,-0.0002867993898689747,-0.0011031641624867916,-0.0008543813601136208
1746728749541838600,6.538838623046875,-0.00019547110423445702,0.000551372766494751,0.0006171953864395618
1746728749551856600,6.548856689453125,0.0009353072382509708,0.0009753480553627014,-0.00033754785545170307
1746728749561874700,6.558874755859375,-0.001865630503743887,0.0009208503179252148,0.0015785627765581012
1746728749571892700,6.568892822265625,-0.00039529893547296524,-0.00003149639815092087,0.0023024098481982946
1746728749581910500,6.57891064453125,0.000257913488894701,0.0007086070254445076,0.0018761118408292532
1746728749591928800,6.5889287109375,-0.002083803992718458,-0.000033881980925798416,0.0006350788753479719
1746728749601946600,6.598946533203125,-0.0000032782554626464844,-0.0011534001678228378,0.00044661364518105984
1746728749611965700,6.608965576171875,-0.0009689405560493469,-0.00013820314779877663,0.00020959251560270786
1746728749621983700,6.618983642578125,-0.00037336070090532303,-0.00005725584924221039,0.004388592671602964
1746728749632001500,6.62900146484375,0.00016379868611693382,0.00047164782881736755,0.0019704424776136875
1746728749642019800,6.639019775390625,-0.0012749764136970043,0.0021720961667597294,0.0015024181921035051
1746728749652037600,6.64903759765625,-0.00136845326051116,0.00033371616154909134,0.0015026844339445233
1746728749662055700,6.6590556640625,-0.0010284227319061756,-0.001794910989701748,0.0014461609534919262
1746728749672073700,6.66907373046875,0.0010602944530546665,-0.0009080781601369381,0.0012735880445688963
1746728749682091800,6.679091796875,-0.0011220299638807774,0.0010591531172394753,0.0005924645811319351
1746728749692109800,6.68910986328125,-0.0015478692948818207,-0.0001073111779987812,-0.00038677966222167015
1746728749702128600,6.699128662109375,0.0017661566380411386,-0.0021222159266471863,-0.0020540535915642977
1746728749712146700,6.709146728515625,-0.00019739195704460144,0.0013332352973520756,0.0022456198930740356
1746728749722164700,6.719164794921875,0.001345497090369463,0.0004366375505924225,-0.0009914105758070946
1746728749732182800,6.729182861328125,-0.0007211160846054554,0.00028137536719441414,-0.00142950052395463
1746728749742200600,6.73920068359375,-0.0008460697717964649,0.0001872326247394085,-0.0009710048325359821
1746728749752218600,6.749218505859375,0.0002884366549551487,-0.0002649719826877117,0.00009479210712015629
1746728749762236700,6.759236572265625,0.00016077840700745583,-0.0018092026002705097,-0.00048175081610679626
1746728749772254700,6.769254638671875,0.0005756989121437073,0.0005317162722349167,-0.0007392785046249628
1746728749782272800,6.779272705078125,0.001415191451087594,-0.00045794108882546425,-0.0003594355657696724
1746728749792291600,6.78929150390625,0.0005611157976090908,-0.00033357134088873863,-0.00032268394716084003
1746728749802309600,6.7993095703125,-0.0020220004953444004,0.00024703843519091606,-0.0008120813872665167
1746728749812327700,6.80932763671875,0.0010592767503112555,0.0007719476707279682,-0.001485328422859311
1746728749822345700,6.819345703125,-0.0016743936575949192,-0.00023434311151504517,0.00037465826608240604
1746728749832363500,6.829363525390625,-0.0005159187130630016,0.0019278773106634617,0.0011730741243809462
1746728749842381800,6.8393818359375,0.002766456687822938,-0.0013402672484517097,0.00040718051604926586
1746728749852399600,6.849399658203125,0.0005536363460123539,-0.0011471877805888653,-0.0010274644009768963
1746728749862417700,6.859417724609375,0.00019706273451447487,0.0008675875142216682,-0.000467546284198761
1746728749872435700,6.869435791015625,0.0007171784527599812,-0.000604607630521059,-0.0002824566327035427
1746728749882454500,6.87945458984375,0.0011623918544501066,-0.0018616849556565285,0.0013222410343587399
1746728749892472800,6.889472900390625,-0.0007111416198313236,-0.0017857849597930908,-0.001238388242200017
1746728749902490600,6.89949072265625,0.00034294789656996727,-0.0003528590314090252,0.000677293399348855
1746728749912508700,6.9095087890625,-0.00018169498071074486,0.0005518170073628426,0.0002780857030302286
1746728749922526700,6.919526611328125,0.000919511541724205,-0.0016953498125076294,-0.002333604032173753
1746728749932544800,6.929544677734375,-0.00065947650000453,0.0006524929776787758,-0.0016185452695935965
1746728749942562800,6.939562744140625,-0.0019427873194217682,-0.001256223302334547,0.0015332422917708755
1746728749952580600,6.94958056640625,-0.0015694117173552513,-0.001596042886376381,0.000383289298042655
1746728749962599000,6.959598876953125,-0.0004044235683977604,0.0002587842755019665,0.001164266373962164
1746728749972617700,6.96961767578125,0.0011705697979778051,0.0009983442723751068,0.0009165925439447165
1746728749982635800,6.9796357421875,-0.00037283962592482567,-0.0002251220867037773,-0.0020399505738168955
1746728749992653600,6.989653564453125,-0.0004311632364988327,0.00003453623503446579,-0.0006692216265946627
1746728750002671600,6.999671630859375,0.0001056017354130745,0.001798924058675766,0.0013939091004431248
1746728750012689700,7.009689697265625,0.0006632679142057896,-0.00002614036202430725,-0.0004093172028660774
1746728750022707700,7.019707763671875,-0.0007632756605744362,0.00045727239921689034,-0.003078910754993558
1746728750032725800,7.029725830078125,0.000248725526034832,0.0007683294825255871,-0.0015606426168233156
1746728750042743800,7.039743896484375,-0.0008066403679549694,-0.0013510962016880512,0.0008640694431960583
1746728750052761900,7.049761962890625,0.0016977963969111443,0.0021190023981034756,-0.000978838186711073
1746728750062780700,7.05978076171875,-0.001120829489082098,0.00014183390885591507,0.0013587160501629114
1746728750072798700,7.069798828125,0.0005542985163629055,-0.0018531396053731441,-0.0014823442324995995
1746728750082816500,7.07981640625,0.0003643096424639225,0.00010397657752037048,-0.0013214123900979757
1746728750092834800,7.089834716796875,0.0011741770431399345,-0.0014555705711245537,0.0011300274636596441
1746728750102852900,7.099852783203125,0.0019142285455018282,-0.001110763754695654,-0.0023191883228719234
1746728750112870700,7.10987060546875,0.0002947603352367878,0.0007550469599664211,0.0011011091992259026
1746728750122888700,7.119888671875,0.00003919890150427818,-0.00012227287515997887,0.000847099581733346
1746728750132906800,7.12990673828125,0.0009433422237634659,-0.00003465497866272926,-0.002733520232141018
1746728750142924800,7.1399248046875,0.002184078097343445,0.00035186950117349625,-0.0024739778600633144
1746728750152943600,7.149943603515625,-0.00017681391909718513,-0.0008833045139908791,0.0010033112484961748
1746728750162961700,7.159961669921875,-0.00018682191148400307,-0.0010847365483641624,-0.0019474062137305737
1746728750172979700,7.169979736328125,0.0005692495033144951,0.0007914602756500244,0.0023767685052007437
1746728750182997800,7.179997802734375,-0.0003124214708805084,-0.0015317341312766075,-0.0007387988734990358
1746728750193015800,7.190015869140625,0.0009059743024408817,0.0002573775127530098,0.0005368553102016449
1746728750203033600,7.20003369140625,-0.0007725502364337444,0.0006487993523478508,0.00019662524573504925
1746728750213052000,7.210052001953125,0.0015252253506332636,0.00047196540981531143,-0.00018607103265821934
1746728750223069700,7.220069580078125,-0.00028008129447698593,-0.001980376895517111,-0.0008400387596338987
1746728750233087700,7.230087646484375,-0.001856406219303608,-0.0014626584015786648,-0.0020781427156180143
1746728750243106600,7.2401064453125,-0.001866963692009449,-0.0009004576131701469,-0.00311310519464314
1746728750253124600,7.25012451171875,0.0004888684488832951,-0.0014658467844128609,-0.0006675245240330696
1746728750263143000,7.260142822265625,-0.0007292879745364189,-0.00038351165130734444,0.001444936147890985
1746728750273160700,7.27016064453125,0.000641973689198494,0.0005382085219025612,0.0010451956186443567
1746728750283178800,7.2801787109375,0.0002835877239704132,-0.0021467211190611124,0.0015062597813084722
1746728750293196800,7.29019677734375,-0.002037889789789915,-0.0022356705740094185,0.0008894717320799828
1746728750303214800,7.30021484375,-0.000011964235454797745,0.0008944123983383179,-0.0011302991770207882
1746728750313232600,7.310232666015625,-0.00023806700482964516,-0.0015104222111403942,-0.0037324740551412106
1746728750323250700,7.320250732421875,-0.0008132546208798885,-0.0002165236510336399,0.0004040747880935669
1746728750333268700,7.330268798828125,-0.0027176812291145325,-0.0000982792116701603,0.004660604987293482
1746728750343287800,7.340287841796875,0.00018839910626411438,0.00028967997059226036,0.0010503926314413548
1746728750353305900,7.350305908203125,-0.00000547897070646286,0.0004593231715261936,0.0008360082283616066
1746728750363323600,7.36032373046875,-0.0005754614248871803,0.00007212208583950996,-0.0015291483141481876
1746728750373341700,7.370341796875,0.0002935281954705715,0.0001040799543261528,0.0033670731354504824
1746728750383359700,7.38035986328125,0.00011541135609149933,-0.0009210435673594475,0.0005993572995066643
1746728750393377800,7.390377685546875,0.00011780858039855957,0.0016339928843080997,-0.0005945379380136728
1746728750403395600,7.4003955078125,-0.0006188470870256424,0.001526947133243084,-0.002683150116354227
1746728750413414000,7.410413818359375,0.00045067816972732544,-0.00012075062841176987,-0.002123353537172079
1746728750423431700,7.420431640625,0.0010763348545879126,-0.001911782193928957,-0.0014601761940866709
1746728750433450800,7.43045068359375,-0.0005410029552876949,-0.0007895263843238354,0.002593687502667308
1746728750443468800,7.44046875,-0.0017350823618471622,0.0006167874671518803,0.0015530717791989446
1746728750453486600,7.450486572265625,0.0013882729690521955,-0.0001507354900240898,0.001646815100684762
1746728750463505000,7.4605048828125,0.0004082564264535904,-0.00018765823915600777,-0.0005441682878881693
1746728750473522700,7.470522705078125,-0.001173927914351225,-0.0011040517129004002,-0.0005921050906181335
1746728750483540700,7.480540771484375,-0.0031131962314248085,-0.0011177035048604012,-0.0007024037186056376
1746728750493559000,7.49055908203125,0.0016125834081321955,-0.00028786249458789825,0.0015149441314861178
1746728750503577000,7.5005771484375,0.00006758794188499451,-0.00042743468657135963,0.002262349473312497
1746728750513595100,7.51059521484375,-0.000886356458067894,0.00023409444838762283,-0.0006527467630803585
1746728750523614000,7.520614013671875,0.00008435407653450966,0.0008259559981524944,-0.0024134779814630747
1746728750533632000,7.530632080078125,0.0016135412734001875,0.0018747090362012386,0.000824659364297986
1746728750543650000,7.540650146484375,-0.0014930577017366886,-0.002370330737903714,0.001193883828818798
1746728750553668000,7.550668212890625,0.001379161374643445,0.0011453083716332912,0.0010580627713352442
1746728750563686100,7.56068603515625,-0.0010919421911239624,-0.00014737946912646294,-0.0007114824838936329
1746728750573704000,7.570703857421875,0.001015150686725974,-0.0018970761448144913,-0.0011977755930274725
1746728750583722200,7.58072216796875,0.0008524185977876186,-0.0017594941891729832,-0.0022019899915903807
1746728750593740000,7.590739990234375,-0.0026230067014694214,0.0017409645952284336,0.002530713565647602
1746728750603758000,7.600758056640625,0.0019546374678611755,-0.002125983126461506,0.0012274628970772028
1746728750613777000,7.61077685546875,-0.0012083989568054676,-0.0011427439749240875,0.002652253955602646
1746728750623795000,7.620794921875,0.0005024303682148457,0.00018884474411606789,-0.0030380827374756336
1746728750633813200,7.630813232421875,-0.000015554483979940414,0.0007987082935869694,-0.0025232937186956406
1746728750643831000,7.6408310546875,-0.0013129143044352531,-0.0009481408633291721,-0.0005007230211049318
1746728750653849000,7.65084912109375,-0.000843132846057415,0.0006795828230679035,0.0010553619358688593
1746728750663867000,7.660866943359375,0.000336197204887867,-0.00004210742190480232,-0.0007710801437497139
1746728750673885200,7.67088525390625,0.0004190215840935707,0.00033952342346310616,0.00019165268167853355
1746728750683903000,7.680903076171875,-0.0005803750827908516,0.000007531139999628067,0.002619226463139057
1746728750693921000,7.690921142578125,-0.0005263127386569977,-0.001243621576577425,0.0036282981745898724
1746728750703939000,7.70093896484375,0.003080261405557394,0.00020921416580677032,0.0019622724503278732
1746728750713958100,7.710958251953125,-0.0002905018627643585,0.0012092315591871738,0.0020642713643610477
1746728750723976200,7.72097607421875,0.0012849110644310713,0.00025355443358421326,0.0014560227282345295
1746728750733994000,7.730993896484375,-0.0003843582235276699,0.00026181014254689217,0.001154020195826888
1746728750744012000,7.741011962890625,0.0004363860934972763,-0.00038368673995137215,-0.0002106057945638895
1746728750754030000,7.751030029296875,0.001035863533616066,-0.0015157968737185001,0.00027781794779002666
1746728750764048100,7.761048095703125,0.0003773234784603119,0.0006012292578816414,0.000655255513265729
1746728750774066000,7.77106591796875,-0.0008722320199012756,0.0009647510014474392,-0.0013682141434401274
1746728750784084000,7.781083984375,0.002069654408842325,-0.0019463489297777414,-0.001027771271765232
1746728750794102000,7.79110205078125,-0.0006233341991901398,0.0005309237167239189,0.0007834446150809526
1746728750804121000,7.80112109375,0.00008938834071159363,-0.00008599972352385521,0.00021015037782490253
1746728750814139100,7.81113916015625,-0.0012469859793782234,-0.0003778822720050812,-0.0015006642788648605
1746728750824157000,7.821156982421875,0.002141170436516404,-0.0012040999718010426,-0.003423125483095646
1746728750834175200,7.83117529296875,-0.00033370545133948326,-0.000325523316860199,0.00017853360623121262
1746728750844193000,7.841193115234375,-0.0000010151416063308716,-0.0015391507185995579,-0.000027006957679986954
1746728750854211000,7.851211181640625,0.00016090506687760353,-0.0004160953685641289,0.0031874284613877535
1746728750864228900,7.861228759765625,-0.0006470954976975918,-0.0010689017362892628,0.002525694202631712
1746728750874247200,7.8712470703125,-0.000600490253418684,0.0014379313215613365,0.0008510984480381012
1746728750884265000,7.881264892578125,-0.0005108206532895565,0.0000927080400288105,0.0002305817324668169
1746728750894284000,7.891283935546875,0.00039998022839426994,0.000979540403932333,0.0005943693686276674
1746728750904302000,7.901302001953125,0.0007622200064361095,-0.00028244731947779655,-0.004864056594669819
1746728750914320000,7.91131982421875,0.0002618120051920414,0.000961249228566885,-0.001612603897228837
1746728750924338200,7.921338134765625,0.0004232088103890419,0.00009697768837213516,-0.0021986414212733507
1746728750934356000,7.93135595703125,0.001073286635801196,0.000886604655534029,-0.0034649742301553488
1746728750944374000,7.9413740234375,-0.0013000830076634884,-0.0019442709162831306,-0.0021998947486281395
1746728750954392000,7.95139208984375,0.0002932865172624588,-0.0007367935031652451,-0.0005423431284725666
1746728750964410000,7.96141015625,0.0019535874016582966,-0.002260437933728099,-0.00035785697400569916
1746728750974428000,7.971427978515625,0.003163195215165615,-0.0040498161688447,-0.0008856956847012043
1746728750984447000,7.981447021484375,0.0016975458711385727,-0.0016198242083191872,-0.0009607365354895592
1746728750994465000,7.991465087890625,0.001457861391827464,-0.0006120838224887848,-0.000523712020367384
1746728751004483000,8.001483154296874,-0.0000013695098459720612,0.0003766096197068691,-0.0011215279810130596
1746728751014501000,8.011501220703124,-0.000563296489417553,-0.001501984428614378,0.002418611664324999
1746728751024519000,8.021518798828126,-0.0007832157425582409,0.00028373440727591515,-0.0007131856400519609
1746728751034537000,8.031536865234376,-0.002006139140576124,0.0002515101805329323,-0.0003283587284386158
1746728751044555000,8.041554931640626,-0.0017695375718176365,-0.001921327318996191,0.00043396023102104664
1746728751054573000,8.051572998046876,-0.0011402326636016369,-0.0007652491331100464,0.0019945725798606873
1746728751064590800,8.0615908203125,0.001985148759558797,-0.000710813794285059,-0.0003194434102624655
1746728751074609200,8.071609130859375,0.00038379011675715446,0.00003593647852540016,-0.000427567632868886
1746728751084628200,8.081628173828125,-0.00021119974553585052,0.0011203768663108349,-0.0002460838295519352
1746728751094646000,8.09164599609375,0.0021616765297949314,-0.0006594136357307434,0.0022319876588881016
1746728751104664000,8.1016640625,-0.0020352303981781006,-0.0010776049457490444,-0.0011620076838880777
1746728751114681900,8.111681884765625,0.0016993202734738588,-0.0010469784028828144,-0.002460298826918006
1746728751124700200,8.1217001953125,-0.0018717404454946518,0.0017845886759459972,-0.0006630748976022005
1746728751134718000,8.131718017578125,0.000773577019572258,-0.00041065504774451256,0.0021809146273881197
1746728751144736000,8.141736083984375,-0.001475765835493803,-0.000005995854735374451,-0.0014901603572070599
1746728751154754000,8.151754150390625,0.0014222858007997274,-0.000012653879821300507,0.0006108072120696306
1746728751164772000,8.161772216796875,-0.0003151032142341137,-0.0015291692689061165,0.0003029238432645798
1746728751174791200,8.171791259765625,-0.00044213607907295227,0.0008357176557183266,-0.0015213412698358297
1746728751184809000,8.18180908203125,-0.0012808865867555141,0.0007321392185986042,-0.0013551726005971432
1746728751194827000,8.191826904296875,0.0009740118402987719,0.0016940729692578316,-0.0014995159581303596
1746728751204845000,8.201844970703124,-0.0017010257579386234,-0.00009060511365532875,-0.002323330147191882
1746728751214863000,8.211863037109374,0.0001360229216516018,0.0006383024156093597,0.00031053624115884304
1746728751224881000,8.221880859375,-0.0004543871618807316,-0.0003131255507469177,-0.00020986818708479404
1746728751234899000,8.23189892578125,-0.00037662312388420105,0.00015772134065628052,0.0012684524990618229
1746728751244917200,8.241917236328124,-0.0019441060721874237,0.0010394537821412086,0.0014730712864547968
1746728751254935000,8.25193505859375,0.00003355741500854492,-0.0009789559990167618,-0.0016878345049917698
1746728751264954000,8.2619541015625,-0.003053646069020033,0.0010409164242446423,-0.0015383646823465824
1746728751274972000,8.271971923828126,-0.0005854284390807152,0.0018648984842002392,0.0023969882167875767
1746728751284990000,8.281989990234376,-0.0024501988664269447,0.001118113286793232,-0.0004431649576872587
1746728751295008000,8.292008056640626,0.0012191045098006725,0.0003742924891412258,0.0001531168818473816
1746728751305026000,8.302026123046875,0.0009587181266397238,0.0007709721103310585,-0.0019211447797715664
1746728751315043800,8.3120439453125,0.001955805579200387,0.00024925870820879936,-0.0013120798394083977
1746728751325062100,8.322062255859375,0.00047299545258283615,0.0018628924153745174,0.0016116974875330925
1746728751335080200,8.332080078125,-0.00038214540109038353,-0.0005637798458337784,0.0006455027032643557
1746728751345098000,8.342097900390625,-0.0010414151474833488,-0.0010226531885564327,0.0006099981255829334
1746728751355116000,8.352115966796875,0.00012611504644155502,0.0006327680312097073,0.001762880478054285
1746728751365134800,8.362134765625,0.0007718950510025024,0.000696688424795866,-0.0008172006346285343
1746728751375153200,8.372153076171875,0.001660325564444065,-0.001184036023914814,0.0012619292829185724
1746728751385171000,8.3821708984375,0.00013474421575665474,0.00017721625044941902,0.002683397149667144
1746728751395189000,8.39218896484375,0.0005888128653168678,0.0012653837911784649,-0.00006205565296113491
1746728751405207000,8.40220703125,-0.0012403959408402443,0.002487952820956707,0.003044380573555827
1746728751415225000,8.41222509765625,-0.0001682075671851635,-0.0007022474892437458,-0.0011666095815598965
1746728751425243100,8.4222431640625,0.00099281407892704,-0.0004696846008300781,-0.00048016710206866264
1746728751435261000,8.432260986328124,0.001551545225083828,0.0026334309950470924,-0.0014040176756680012
1746728751445279200,8.442279296875,-0.001437564380466938,0.0003013415262103081,-0.001128961332142353
1746728751455298000,8.452298095703124,0.000141956377774477,0.00013942131772637367,0.001787466462701559
1746728751465316000,8.462316162109374,0.00036768941208720207,0.0036705126985907555,0.0003299152012914419
1746728751475334000,8.472333984375,0.00019644806161522865,0.0015053628012537956,0.0005427019204944372
1746728751485352000,8.48235205078125,-0.0013364520855247974,-0.0011518332175910473,0.00026920787058770657
1746728751495369700,8.49236962890625,0.0008795643225312233,-0.0008090841583907604,-0.0014871465973556042
1746728751505387800,8.5023876953125,0.00011082645505666733,-0.000727504026144743,0.0009822782594710588
1746728751515405800,8.51240576171875,0.0006269472651183605,-0.00008381810039281845,-0.00018578418530523777
1746728751525423900,8.522423828125,-0.0014905459247529507,-0.0007484969682991505,0.0009103536140173674
1746728751535442000,8.53244189453125,-0.00192330963909626,-0.00009256042540073395,0.0016243471764028072
1746728751545460700,8.542460693359375,-0.0010565095581114292,0.0008749011904001236,0.0015647506806999445
1746728751555478800,8.552478759765625,-0.000631469301879406,-0.0010417760349810123,0.0005498200189322233
1746728751565496600,8.56249658203125,-0.0013002497144043446,-0.00033238762989640236,0.0006974644493311644
1746728751575515000,8.572514892578125,0.001105117378756404,-0.0006740712560713291,-0.0008421086240559816
1746728751585533000,8.582532958984375,-0.00011708308011293411,0.0013564159162342548,-0.002827890682965517
1746728751595550700,8.59255078125,0.0011401951778680086,0.00022111041471362114,-0.0016635567881166935
1746728751605568800,8.60256884765625,-0.0013290159404277802,-0.0010014651343226433,-0.0015310561284422874
1746728751615586800,8.6125869140625,-0.0004080948419868946,0.0014864597469568253,0.00036644586361944675
1746728751625604900,8.62260498046875,-0.0017226878553628922,-0.0008931756019592285,-0.0013415354769676924
1746728751635622700,8.63262255859375,-0.0007754014804959297,-0.000520066823810339,0.0012590413680300117
1746728751645641700,8.642641845703125,0.0027325458358973265,0.0004069935530424118,0.000702426303178072
1746728751655659800,8.65265966796875,-0.0008909511379897594,-0.002034858800470829,-0.0005569825880229473
1746728751665677800,8.662677734375,-0.00013820920139551163,-0.0008125454187393188,-0.0026094333734363317
1746728751675695900,8.67269580078125,-0.001611203420907259,0.0013600611127912998,0.00033868616446852684
1746728751685713700,8.682713623046874,0.0007637618109583855,0.0011181589215993881,-0.0025105378590524197
1746728751695732000,8.69273193359375,-0.0012043141759932041,-0.0008464548736810684,0.00017579272389411926
1746728751705749800,8.702749755859376,0.0011253978591412306,-0.0001969379372894764,0.00021120230667293072
1746728751715767800,8.712767822265626,0.00016745878383517265,-0.00026591401547193527,0.0028919402975589037
1746728751725785900,8.722785888671876,0.0009270079899579287,0.0007603354752063751,0.0003951236139982939
1746728751735804700,8.7328046875,0.001512104645371437,0.001355019398033619,0.000041988445445895195
1746728751745823000,8.742822998046876,-0.0005395738407969475,-0.0025229228194803,0.00016828463412821293
1746728751755840800,8.7528408203125,0.00020717643201351166,-0.0009769578464329243,0.00021355831995606422
1746728751765858800,8.76285888671875,0.00040230853483080864,0.0011624074541032314,0.000906696543097496
1746728751775876900,8.772876953125,-0.00006321165710687637,0.000038553494960069656,-0.00016735633835196495
1746728751785895000,8.78289501953125,-0.0021102367900311947,-0.0002695615403354168,0.0009504214394837618
1746728751795912700,8.79291259765625,-0.001998650375753641,-0.0016663898713886738,-0.00038355588912963867
1746728751805930800,8.8029306640625,-0.00023961486294865608,-0.000035974662750959396,0.0014629981014877558
1746728751815948800,8.81294873046875,-0.0011283117346465588,0.0014090565964579582,0.0016246519517153502
1746728751825966800,8.822966796875,-0.0007016723975539207,0.00025104545056819916,-0.0022905415389686823
1746728751835986000,8.83298583984375,-0.0014233887195587158,-0.00020249094814062119,-0.0022154406178742647
1746728751846003700,8.843003662109375,0.000437071081250906,0.0004973942413926125,0.0003282164689153433
1746728751856021800,8.853021728515625,-0.0004774583503603935,0.0012324266135692596,0.0012422133004292846
1746728751866039800,8.863039794921875,0.0006810356862843037,-0.001814556773751974,-0.0001979731023311615
1746728751876057900,8.873057861328125,-0.0015019574202597141,0.0014265100471675396,0.0010555768385529518
1746728751886075600,8.88307568359375,0.0031295004300773144,0.002315997611731291,0.00041247368790209293
1746728751896094000,8.893093994140624,0.0001616738736629486,-0.0022172348108142614,0.0022497884929180145
1746728751906111700,8.90311181640625,0.001267486484721303,-0.0008145798929035664,-0.0020079060923308134
1746728751916129800,8.9131298828125,-0.0032260650768876076,0.0005452297627925873,0.0016190530732274055
1746728751926148900,8.92314892578125,0.0010992703028023243,-0.0009727184660732746,-0.0002918737009167671
1746728751936166700,8.933166748046874,0.0009216375183314085,-0.001957555301487446,-0.0013904278166592121
1746728751946185000,8.94318505859375,-0.002020241692662239,-0.0011447854340076447,0.0024190987460315228
1746728751956202800,8.95320263671875,0.000016011297702789307,0.0006568431854248047,-0.00199748738668859
1746728751966220800,8.963220703125,-0.0015835165977478027,0.0013187755830585957,-0.0007319001015275717
1746728751976238800,8.97323876953125,-0.0009337053634226322,0.0018303687684237957,-0.001568665262311697
1746728751986257000,8.9832568359375,-0.0017459751106798649,-0.0011884761042892933,-0.0014426116831600666
1746728751996274700,8.993274658203125,-0.0004649944603443146,0.00018251920118927956,-0.0003451232332736254
1746728752006292700,9.003292724609375,0.000513231847435236,0.0019688522443175316,-0.0008486306760460138
1746728752016311800,9.013311767578125,-0.00047160545364022255,0.0015595247969031334,-0.00009548896923661232
1746728752026329900,9.023329833984375,0.0015979446470737457,-0.0011171274818480015,-0.00033937604166567326
1746728752036348000,9.033347900390625,-0.0016849339008331299,0.001415804959833622,-0.0008131524082273245
1746728752046365700,9.04336572265625,0.0008233191911131144,-0.0010721567086875439,-0.00010120309889316559
1746728752056383700,9.0533837890625,-0.0006478107534348965,0.0008506453596055508,-0.000533700454980135
1746728752066401800,9.06340185546875,0.002445892198011279,0.0003385823220014572,0.0022713751532137394
1746728752076419800,9.073419921875,-0.000074789859354496,0.00027999281883239746,-0.0003425176255404949
1746728752086437600,9.083437744140625,-0.00012443261221051216,0.0005410946905612946,0.002518405904993415
1746728752096456000,9.0934560546875,-0.00017236964777112007,0.0011653397232294083,0.003363959491252899
1746728752106473700,9.1034736328125,-0.000005025416612625122,0.0007748864591121674,-0.002519728150218725
1746728752116492800,9.113492919921875,0.0017883472610265017,0.000564762856811285,-0.0013801613822579384
1746728752126510800,9.1235107421875,-0.0023086927831172943,0.001667131669819355,0.000713057117536664
1746728752136528600,9.133528564453124,-0.0010655294172465801,-0.000478310976177454,-0.000640894053503871
1746728752146547000,9.143546875,0.0016915984451770782,0.0011446927674114704,0.0018096081912517548
1746728752156564700,9.153564697265624,-0.0005766157992184162,0.0020722723565995693,-0.00282082986086607
1746728752166582800,9.163582763671876,-0.0006004092283546925,0.0005524922162294388,0.0032598907127976418
1746728752176600600,9.1736005859375,0.00047604041174054146,-0.0003636353649199009,0.0009029931388795376
1746728752186619000,9.183618896484376,-0.00017697224393486977,-0.00025340449064970016,0.0017693592235445976
1746728752196636700,9.19363671875,-0.0008688610978424549,0.0030425232835114002,-0.0010397431906312704
1746728752206654700,9.20365478515625,0.000616640318185091,0.0006759762763977051,-0.0010692402720451355
1746728752216673800,9.213673828125,0.0028787292540073395,-0.0002739732153713703,-0.0037414561957120895
1746728752226691800,9.22369189453125,-0.0014103082939982414,-0.001101554837077856,-0.0005601369775831699
1746728752236710000,9.2337099609375,-0.0008518435060977936,0.00037623289972543716,0.002115008421242237
1746728752246727700,9.243727783203125,-0.0008915090002119541,-0.0010238857939839363,0.0005383335519582033
1746728752256745700,9.253745849609375,0.000165499746799469,0.0006824014708399773,-0.0018944640178233385
1746728752266763800,9.263763671875,0.0006636432372033596,0.0004944531247019768,-0.0014064018614590168
1746728752276781800,9.27378173828125,0.0009259646758437157,0.0011634393595159054,0.0029795581940561533
1746728752286800000,9.2837998046875,0.0008309297263622284,-0.00020256871357560158,0.0012817123206332326
1746728752296817700,9.293817626953125,-0.0006069112569093704,-0.0018044603057205677,0.0006569346878677607
1746728752306836700,9.303836669921875,0.00043865200132131577,-0.0001290077343583107,0.0009718998335301876
1746728752316854800,9.313854736328125,0.0002751336432993412,-0.00004458567127585411,-0.0019274838268756866
1746728752326872800,9.323872802734375,0.0011436829809099436,0.001210531685501337,0.0012946659699082375
1746728752336890600,9.333890625,0.0007077236659824848,-0.001166872214525938,0.00019984040409326553
1746728752346909000,9.343908935546875,0.00008691102266311646,-0.0010577463544905186,0.0023728590458631516
1746728752356926700,9.3539267578125,0.0003106165677309036,0.0015449607744812965,-0.00035634846426546574
1746728752366944800,9.36394482421875,0.0008488777093589306,-0.0011839978396892548,-0.0018716210033744574
1746728752376962800,9.373962890625,0.00010399147868156433,-0.0006588222458958626,-0.0010811949614435434
1746728752386980900,9.38398095703125,0.000022463500499725342,-0.0002107224427163601,0.00009190523996949196
1746728752396999000,9.3939990234375,0.001287731109187007,0.002487326040863991,0.00028178864158689976
1746728752407017700,9.404017822265626,-0.00008478434756398201,-0.0009221825748682022,0.0007197672966867685
1746728752417035800,9.414035888671876,-0.0012286119163036346,-0.001212466973811388,-0.0032784363720566034
1746728752427053600,9.424053466796876,0.0005102190189063549,0.00027733994647860527,-0.002025775844231248
1746728752437072000,9.43407177734375,0.000045497436076402664,-0.0011700880713760853,-0.0010467979591339827
1746728752447089700,9.444089599609375,-0.0015255138278007507,-0.000056063756346702576,0.00041976128704845905
1746728752457107700,9.454107666015625,-0.000380620826035738,-0.002202038886025548,0.00007887673564255238
1746728752467126000,9.4641259765625,-0.000006483402103185654,0.0001914268359541893,-0.0000749973114579916
1746728752477143800,9.474143798828125,-0.0007974421605467796,-0.0009646513499319553,-0.0012276135385036469
1746728752487161900,9.484161865234375,-0.0017908047884702682,0.00015336740761995316,0.0005607649218291044
1746728752497180200,9.49418017578125,0.0006824731826782227,0.0001802654005587101,-0.0013945281971246004
1746728752507199200,9.50419921875,-0.00006624311208724976,-0.00048327306285500526,-0.0022006272338330746
1746728752517217300,9.51421728515625,0.00007623620331287384,-0.0010089809074997902,0.0037619241047650576
1746728752527235300,9.5242353515625,-0.00008553173393011093,-0.0019098552875220776,0.001182139152660966
1746728752537253400,9.53425341796875,-0.00045730872079730034,0.0010800757445394993,-0.000047176145017147064
1746728752547271200,9.544271240234375,0.0031871122773736715,-0.002125645289197564,0.0025700768455863
1746728752557289500,9.55428955078125,-0.0002462351694703102,0.0010784040205180645,-0.0005610017105937004
1746728752567307300,9.564307373046875,-0.0010093632154166698,-0.0000337907113134861,0.0015237925108522177
1746728752577325300,9.5743251953125,0.0004127644933760166,0.0006296024657785892,-0.00005705980584025383
1746728752587343000,9.584343017578124,-0.0006248303689062595,0.001650624442845583,-0.0005955500528216362
1746728752597362200,9.594362060546874,0.0009520272724330425,0.0007574004121124744,-0.0010940937791019678
1746728752607380500,9.60438037109375,-0.001401911024004221,0.0009626527316868305,0.0029624870512634516
1746728752617398300,9.614398193359374,0.0003339373506605625,0.0027823904529213905,-0.001545711886137724
1746728752627416300,9.624416259765624,-0.002255906816571951,-0.0010675597004592419,0.0013360627926886082
1746728752637434400,9.634434326171874,-0.0017594937235116959,-0.0017948690801858902,-0.0008541208226233721
1746728752647452400,9.644452392578126,0.0005181338638067245,0.0006803250871598721,0.0004953534808009863
1746728752657470200,9.65447021484375,0.0006113448180258274,-0.00024831946939229965,-0.0007715120445936918
1746728752667488300,9.66448828125,-0.0004246411845088005,-0.0007461044006049633,-0.0006056465208530426
1746728752677506600,9.674506591796876,0.00044248439371585846,-0.001041981391608715,0.0010196806397289038
1746728752687524400,9.6845244140625,-0.0007275165989995003,0.0012864270247519016,0.0012287547579035163
1746728752697543400,9.69454345703125,0.00047916173934936523,0.0011577960103750229,-0.0010671564377844334
1746728752707561200,9.704561279296875,0.0013702560681849718,0.00006008334457874298,-0.0007525202818214893
1746728752717579300,9.714579345703125,0.0016549478750675917,0.0007114927284419537,0.00041474332101643085
1746728752727597300,9.724597412109375,-0.002851411234587431,0.0014593922533094883,0.0018095598788931966
1746728752737615400,9.734615478515625,0.0014282886404544115,-0.0016639628447592258,-0.0014882327523082495
1746728752747633200,9.744633056640625,-0.0007719602435827255,0.0015548192895948887,0.0012717427453026175
1746728752757651500,9.7546513671875,-0.0008720946498215199,-0.00021325331181287766,-0.0022950288839638233
1746728752767669500,9.76466943359375,0.00011310074478387833,0.0015660645440220833,-0.003373656887561083
1746728752777687300,9.774687255859375,-0.0006336495280265808,0.001369523350149393,-0.0016790875233709812
1746728752787706400,9.784706298828125,-0.0016286284662783146,0.0016663339920341969,-0.0015940209850668907
1746728752797724200,9.79472412109375,0.0006976425647735596,-0.0002476796507835388,0.0001942915841937065
1746728752807742500,9.804742431640625,0.00047096796333789825,0.0018428950570523739,-0.0027399808168411255
1746728752817760300,9.81476025390625,-0.0006816480308771133,-0.00008683186024427414,-0.004231883678585291
1746728752827778300,9.8247783203125,-0.0005567860789597034,-0.0009100926108658314,-0.0013530724681913853
1746728752837796400,9.83479638671875,0.002243794035166502,-0.0016009164974093437,0.0018054364481940866
1746728752847814400,9.844814453125,0.0007939632050693035,-0.00003504706546664238,0.0001871963031589985
1746728752857832400,9.85483251953125,0.0011700016912072897,0.0003628288395702839,-0.0003012274391949177
1746728752867850200,9.864850341796876,-0.0020075999200344086,0.0006940430030226707,0.0002577111590653658
1746728752877868300,9.874868408203126,0.0005700737237930298,-0.0010870788246393204,0.002198356669396162
1746728752887886300,9.88488623046875,-0.002189389429986477,0.0002087196335196495,0.0003266038838773966
1746728752897905400,9.894905517578126,0.000491082202643156,-0.0011673360131680965,-0.0004856602754443884
1746728752907923200,9.904923095703126,0.0015267676208168268,-0.0019053705036640167,0.0014276833971962333
1746728752917941200,9.914941162109375,-0.0012354631908237934,-0.0009919065050780773,-0.0013449336402118206
1746728752927959600,9.92495947265625,-0.0015014703385531902,-0.0013141157105565071,0.0025512883439660072
1746728752937977300,9.934977294921875,-0.0007491274736821651,-0.00011089956387877464,0.002121720463037491
1746728752947995400,9.944995361328125,-0.0014785798266530037,0.002446140628308058,0.0008378245402127504
1746728752958013200,9.95501318359375,0.0005960222333669662,0.0005078916437923908,0.00014779949560761452
1746728752968031500,9.965031494140625,-0.000570414587855339,0.0002700961194932461,0.0013668210012838244
1746728752978049300,9.97504931640625,0.001534814015030861,0.0017782445065677166,-0.0013711750507354736
1746728752988068400,9.985068359375,-0.0007421551272273064,0.002028603572398424,0.0004608435556292534
1746728752998086100,9.995086181640625,-0.0003991397097706795,-0.0002792919985949993,-0.0026342824567109346
1746728753008104400,10.0051044921875,0.0004965388216078281,0.0001405901275575161,0.00003641517832875252
1746728753018122500,10.01512255859375,-0.001841716468334198,-0.0002940376289188862,-0.0017391142901033163
1746728753028140300,10.025140380859375,0.000980922020971775,0.0012842356227338314,0.0002453338820487261
1746728753038158300,10.035158447265625,-0.0005517271347343922,-0.0009344439022243023,0.0003872804809361696
1746728753048176400,10.04517626953125,0.00036413921043276787,-0.0032599831465631723,-0.0023478239309042692
1746728753058194400,10.0551943359375,0.001676545012742281,-0.0007046801038086414,-0.0008900093380361795
1746728753068212200,10.065212158203124,0.0002789674326777458,-0.0008103935979306698,0.0009894073009490967
1746728753078230300,10.075230224609374,0.001437708968296647,0.002801385708153248,-0.0019568477291613817
1746728753088249300,10.085249267578124,-0.0004573417827486992,0.0009452416561543941,-0.0005086720921099186
1746728753098267400,10.095267333984374,-0.002887476235628128,-0.0010992675088346004,0.001195218414068222
1746728753108285400,10.105285400390626,0.00019189249724149704,-0.002174497116357088,-0.005027258303016424
1746728753118303200,10.11530322265625,-0.0021639401093125343,-0.00021361187100410461,-0.0002460847608745098
1746728753128321500,10.125321533203126,0.0006512599065899849,-0.0004330086521804333,-0.00038610631600022316
1746728753138339300,10.13533935546875,-0.0014414521865546703,0.0012935185804963112,0.000034673139452934265
1746728753148357400,10.145357421875,0.0009936373680830002,0.0017687296494841576,0.00031417468562722206
1746728753158375200,10.155375244140625,0.0016184148844331503,0.001073378138244152,0.0000752890482544899
1746728753168393500,10.1653935546875,0.0002771657891571522,-0.0011739078909158707,-0.000660550082102418
1746728753178411300,10.175411376953125,0.0003597233444452286,-0.0007557915523648262,-0.003151138313114643
1746728753188430300,10.185430419921875,0.0018111364915966988,-0.0006075538694858551,0.0010637824889272451
1746728753198448400,10.195448486328125,-0.0030651111155748367,0.00035837478935718536,0.001976714003831148
1746728753208466200,10.205466064453125,-0.0008721230551600456,0.0005133026279509068,-0.000052295858040452003
1746728753218484500,10.215484375,0.0027918540872633457,0.0012326226569712162,0.0024036713875830173
1746728753228502300,10.225502197265625,0.0027111987583339214,-0.0014353892765939236,0.0005731789860874414
1746728753238520300,10.235520263671875,0.0002387198619544506,0.00106851477175951,0.0013383051846176386
1746728753248538400,10.245538330078125,-0.002783847041428089,0.0001641395501792431,0.000548819312825799
1746728753258556400,10.255556396484375,0.0001581469550728798,0.0005668094381690025,0.00046146754175424576
1746728753268574200,10.26557421875,0.00010689301416277885,0.0010660472325980663,0.000218244269490242
1746728753278592300,10.27559228515625,-0.0018364153802394867,-0.0006487620994448662,-0.0041709113866090775
1746728753288611300,10.285611328125,0.0011914432980120182,0.002483620774000883,0.003620258066803217
1746728753298629400,10.29562939453125,-0.0004639779217541218,-0.0016807643696665764,0.0013075690949335694
1746728753308647400,10.3056474609375,-0.0005913665518164635,-0.0008609332144260406,-0.00014732521958649158
1746728753318665200,10.315665283203124,0.00004912354052066803,0.001139101106673479,0.0016242095734924078
1746728753328683300,10.325683349609376,-0.0014315256848931313,-0.00035487115383148193,-0.0009627030231058598
1746728753338701300,10.335701416015626,-0.000622989609837532,0.0009434199891984463,0.002331094816327095
1746728753348719400,10.34571923828125,0.002951519563794136,-0.0007210527546703815,0.001270845765247941
1746728753358737200,10.355737060546875,-0.00022110436111688614,-0.0002611246891319752,0.0012026687618345022
1746728753368755500,10.36575537109375,-0.0015104832127690315,0.0012575187720358372,0.0008700345642864704
1746728753378773200,10.375773193359375,0.0003063254989683628,0.0008263532072305679,-0.00014782557263970375
1746728753388792300,10.385792236328125,-0.0010598869994282722,0.0001972992904484272,-0.0008434203919023275
1746728753398810400,10.395810302734375,-0.001913163810968399,0.0017704283818602562,-0.0013222566340118647
1746728753408828200,10.405828125,0.001237951684743166,-0.000559006817638874,0.0007607454899698496
1746728753418846500,10.415846435546875,-0.00007232371717691422,0.0006101210601627827,-0.004873705096542835
1746728753428864300,10.4258642578125,0.002868842799216509,0.0018887887708842754,0.0003176475875079632
1746728753438882300,10.43588232421875,0.0005897092632949352,-0.0009647882543504238,-0.001664809649810195
1746728753448900000,10.445900146484375,0.0006046588532626629,0.0016771438531577587,-0.0019873962737619877
1746728753458918400,10.45591845703125,0.0019452942069619894,0.0022196294739842415,0.0006651121657341719
1746728753468936400,10.4659365234375,-0.0013448703102767467,0.0004743160679936409,0.001244076993316412
1746728753478955300,10.475955322265625,-0.000027404632419347763,0.0027513187378644943,-0.0011759374756366014
1746728753488973300,10.485973388671875,0.00045644165948033333,-0.0006821323186159134,-0.0009085149504244328
1746728753498991000,10.4959912109375,0.0015640503261238337,-0.001919969916343689,-0.00001582317054271698
1746728753509009200,10.506009033203124,0.0021186601370573044,0.0005456493236124516,0.0010227710008621216
1746728753519027000,10.51602685546875,-0.0002446291036903858,-0.0032789164688438177,-0.0006036215927451849
1746728753529045000,10.526044921875,0.0005341712385416031,0.000016606412827968597,-0.001167697599157691
1746728753539063000,10.53606298828125,0.00002497481182217598,0.0006725429557263851,-0.0029272481333464384
1746728753549081000,10.5460810546875,0.0017621871083974838,-0.0007985359989106655,0.0015407227911055088
1746728753559099000,10.556098876953126,-0.004271204583346844,0.0017724796198308468,0.0021114381961524487
1746728753569117200,10.5661171875,-0.00042190728709101677,-0.0006412630900740623,0.001181428087875247
1746728753579136300,10.57613623046875,0.0008614698890596628,-0.0005214205011725426,-0.0015754762571305037
1746728753589154000,10.586154052734376,-0.002641388215124607,0.002219435293227434,0.0009860738646239042
1746728753599172000,10.596172119140626,-0.002079194877296686,-0.0007281512953341007,-0.0011740163899958134
1746728753609190000,10.60618994140625,0.0013254026416689157,-0.0016274047084152699,-0.0007255584932863712
1746728753619208200,10.616208251953125,-0.0004392080008983612,0.0006051231175661087,-0.0013623200356960297
1746728753629226000,10.62622607421875,0.0007233200594782829,-0.0006521050818264484,0.001236572628840804
1746728753639244000,10.636244140625,0.0007904316298663616,0.00078174052760005,-0.0004856935702264309
1746728753649261800,10.64626171875,0.000529920682311058,0.0009002955630421638,0.0004087404813617468
1746728753659280100,10.656280029296875,-0.0007430701516568661,0.0001615346409380436,0.0007219281978905201
1746728753669298000,10.6662978515625,0.0007321280427277088,0.0005349484272301197,-0.0005326452665030956
1746728753679317000,10.67631689453125,-0.0005091717466711998,0.0004156390205025673,0.0009952103719115257
1746728753689335000,10.6863349609375,0.0006601214408874512,-0.0019859359599649906,-0.00011572055518627167
1746728753699353000,10.69635302734375,0.0002683703787624836,-0.002088733948767185,-0.0005005472339689732
1746728753709371100,10.70637109375,-0.000027507543563842773,0.0003453996032476425,-0.00041143293492496014
1746728753719389000,10.716388916015624,0.00007475772872567177,0.000474296510219574,0.000615481985732913
1746728753729407000,10.726406982421874,0.0006647552363574505,0.0009266361594200134,0.00011312332935631275
1746728753739425000,10.736425048828124,0.000280194915831089,-0.0025085750967264175,-0.000848810188472271
1746728753749443000,10.746443115234374,-0.0011590225622057915,-0.001456559170037508,-0.0008106064051389694
1746728753759460900,10.7564609375,-0.00025754282251000404,-0.00008636293932795525,-0.002242321614176035
1746728753769479000,10.76647900390625,0.0005676853470504284,0.0016977405175566673,-0.0007762664463371038
1746728753779498000,10.776498046875,0.0015181673225015402,-0.0018650363199412823,0.0018384249415248632
1746728753789516000,10.78651611328125,0.00007239589467644691,0.0016747834160923958,0.0004506062250584364
1746728753799534000,10.7965341796875,0.000548036303371191,-0.00024695368483662605,0.0035180351696908474
1746728753809552000,10.8065517578125,0.001380430767312646,0.0013897093012928963,-0.00025780010037124157
1746728753819570200,10.816570068359376,0.0004728254862129688,0.001703962218016386,-0.0005313067231327295
1746728753829588000,10.826587890625,-0.0012412667274475098,-0.0010174470953643322,0.0015050153015181422
1746728753839606000,10.83660595703125,0.00240593240596354,-0.00017482275143265724,0.0008996787946671247
1746728753849624000,10.8466240234375,-0.00031119678169488907,-0.0022323178127408028,-0.00018312502652406693
1746728753859642000,10.85664208984375,-0.000854747835546732,-0.00032709259539842606,0.00010103429667651653
1746728753869660200,10.86666015625,-0.0014823093079030514,0.00011476734653115273,0.0007196997758001089
1746728753879678000,10.876677978515625,-0.0020093489438295364,0.001672716811299324,-0.0010728740599006414
1746728753889697000,10.886697021484375,-0.00009570550173521042,0.000863468274474144,-0.0005365766119211912
1746728753899715000,10.896715087890625,0.0010031149722635746,-0.0000843508169054985,0.0034429850056767464
1746728753909733000,10.906733154296875,-0.0038908803835511208,-0.0020285090431571007,0.003602001117542386
1746728753919751000,10.9167509765625,0.0035574487410485744,-0.0015813643112778664,-0.00158770103007555
1746728753929769000,10.92676904296875,-0.0008478304371237755,0.00013302965089678764,-0.0017886667046695948
1746728753939787300,10.936787353515625,0.0011948139872401953,0.0000033336691558361053,-0.0016235506627708673
1746728753949805000,10.94680517578125,-0.00059534702450037,0.00039915693923830986,0.002475172746926546
1746728753959823000,10.956822998046874,0.0021322625689208508,-0.0009816917590796947,-0.0013192989863455296
1746728753969841000,10.9668408203125,0.0005573066882789135,0.0014149653725326061,0.001379291876219213
1746728753979859200,10.976859130859374,0.00048140669241547585,-0.0016681761480867863,0.00036542629823088646
1746728753989878000,10.9868779296875,-0.0005887588486075401,0.001406155526638031,-0.0004590936005115509
1746728753999896000,10.99689599609375,0.0008948883041739464,0.000027703121304512024,0.0044802711345255375
1746728754009913900,11.006913818359376,-0.0008555701933801174,-0.00006198743358254433,-0.0012635104358196259
1746728754019932000,11.016931884765626,-0.0008965828455984592,-0.000007925089448690414,0.0004161451943218708
1746728754029950200,11.0269501953125,0.0005480637773871422,-0.0022957194596529007,-0.0011665846686810255
1746728754039968000,11.036968017578126,0.000026617199182510376,-0.002315693302080035,0.0003450256772339344
1746728754049986000,11.046986083984375,0.0010036793537437916,-0.0017577656544744968,0.0016071160789579153
1746728754060004000,11.057004150390625,-0.0027023758739233017,0.00027262791991233826,0.0014457284705713391
1746728754070022100,11.067022216796875,-0.002164398320019245,-0.001043250784277916,-0.00032289070077240467
1746728754080040000,11.0770400390625,0.0021419331897050142,-0.000030450988560914993,-0.00015351362526416779
1746728754090059000,11.08705908203125,0.001237667864188552,-0.000675213523209095,-0.0016903041396290064
1746728754100077000,11.0970771484375,-0.001281416043639183,-0.00123128155246377,-0.001069255406036973
1746728754110095000,11.10709521484375,-0.0008289250545203686,0.0003697006031870842,0.00016341963782906532
1746728754120113200,11.117113037109375,0.0009503327310085297,0.0005228323861956596,-0.001908786129206419
1746728754130131000,11.127130859375,-0.0008140970021486282,-0.0007760445587337017,0.0014626741176471114
1746728754140149000,11.13714892578125,-0.0012394040822982788,-0.0011470229364931583,-0.0025472473353147507
1746728754150167000,11.1471669921875,-0.0010820901952683926,-0.00015057530254125595,-0.0012077519204467535
1746728754160185000,11.15718505859375,-0.002024050336331129,-0.0014331536367535591,-0.0009851113427430391
1746728754170203000,11.167202880859374,-0.0006867912597954273,-0.0002651945687830448,-0.0023799841292202473
1746728754180221200,11.17722119140625,-0.002399203833192587,0.0009361570701003075,-0.0028289933688938618
1746728754190240300,11.187240234375,0.00035456428304314613,0.0007658996619284153,0.0003861298318952322
1746728754200258000,11.197258056640624,0.0005130222998559475,-0.00006687082350254059,0.0005810733418911695
1746728754210276000,11.207276123046874,-0.0004172385670244694,0.0015824474394321442,-0.0005881476681679487
1746728754220294000,11.2172939453125,-0.0018239202909171581,-0.00014887331053614616,-0.0037266830913722515
1746728754230312200,11.227312255859376,-0.0015629306435585022,-0.001783527433872223,-0.0010707932524383068
1746728754240330000,11.237330078125,-0.001367454882711172,0.0009885565377771854,-0.0007448224350810051
1746728754250348000,11.24734814453125,-0.00023244647309184074,0.00008003320544958115,-0.0008652431424707174
1746728754260366000,11.257365966796876,-0.0034727142192423344,0.0013149413280189037,0.001156096113845706
1746728754270384000,11.267384033203125,-0.00047486787661910057,-0.0006317207589745522,-0.0023456078488379717
1746728754280402000,11.27740185546875,0.00034991325810551643,-0.001210958231240511,-0.001966640120372176
1746728754290421000,11.2874208984375,0.000027535483241081238,-0.0022440017201006413,0.00025527505204081535
1746728754300439000,11.29743896484375,-0.0008249422535300255,0.00004764832556247711,-0.0000334116630256176
1746728754310457000,11.30745703125,0.000687833409756422,-0.001490723341703415,-0.0007984992116689682
1746728754320475100,11.31747509765625,0.00022577494382858276,-0.0004896414466202259,-0.0017873309552669525
1746728754330493000,11.327492919921875,0.003008984960615635,0.0016459007747471333,0.002296182792633772
1746728754340511000,11.337510986328125,-0.00020545022562146187,0.00029754266142845154,0.000662866048514843
1746728754350529000,11.347529052734375,-0.001602325588464737,-0.0012559308670461178,0.0012011602520942688
1746728754360547000,11.357547119140625,-0.00208861893042922,0.0013467762619256973,0.001995581202208996
1746728754370564900,11.36756494140625,0.0002000122331082821,-0.00019073160365223885,0.002325741108506918
1746728754380583200,11.377583251953125,-0.00043568434193730354,0.0017049065791070461,0.0021443800069391727
1746728754390602000,11.38760205078125,-0.0007256660610437393,-0.00013962062075734138,-0.002609743271023035
1746728754400620000,11.3976201171875,-0.0030514043755829334,0.0012963558547198772,0.0011077634990215302
1746728754410638000,11.40763818359375,-0.0003467118367552757,0.001331376377493143,-0.0009439415298402309
1746728754420655900,11.41765576171875,-0.00020423252135515213,0.000054656993597745895,0.0009245323017239571
1746728754430674200,11.427674072265624,-0.0008885310962796211,0.0022410228848457336,-0.001971268327906728
1746728754440692000,11.43769189453125,-0.0010999860242009163,-0.0016551814042031765,0.0011640710290521383
1746728754450710000,11.4477099609375,0.0004524276591837406,-0.0009927782230079174,0.00019808020442724228
1746728754460727800,11.457727783203126,0.0007424456998705864,0.001585161779075861,0.0007999546360224485
1746728754470746000,11.46774609375,0.0006572995334863663,0.003986330237239599,0.0024113082326948643
1746728754480764200,11.47776416015625,0.00011454708874225616,-0.0006092204712331295,0.0005870428867638111
1746728754490782000,11.487781982421875,-0.001356641761958599,0.0018392335623502731,-0.00086773163639009
