time,seconds_elapsed,z,y,x
1746575984725964300,0.01296435546875,0.00001635332591831684,-0.0010741031728684902,0.0007950738072395325
1746575984735929300,0.022929443359375,0.00008184858597815037,-0.0010987953282892704,0.0014147763140499592
1746575984745893000,0.03289306640625,-0.0019501433707773685,-0.0013195713981986046,0.00008985353633761406
1746575984755857200,0.042857177734375,0.001076364191249013,0.0008360720239579678,-0.0004029250703752041
1746575984765822200,0.052822265625,-0.0000019497238099575043,-0.000024928245693445206,-0.0009717764332890511
1746575984775786200,0.0627861328125,0.00033302372321486473,-0.00036930758506059647,-0.0007035806775093079
1746575984785750300,0.072750244140625,0.00026431423611938953,0.0009633381851017475,-0.0012207664549350739
1746575984795715300,0.08271533203125,0.001222777646034956,0.0007424238137900829,-0.0002948860637843609
1746575984805679400,0.092679443359375,-0.0013588906731456518,0.0009323069825768471,-0.0001769079826772213
1746575984815644200,0.10264404296875,-0.00016290321946144104,-0.0010859635658562183,0.000660283025354147
1746575984825608200,0.112608154296875,-0.001503804698586464,-0.00026863953098654747,-0.0002987212501466274
1746575984835572200,0.122572265625,-0.0005911251064389944,0.0009003393352031708,0.0005737594328820705
1746575984845537300,0.132537353515625,-0.0006438556592911482,-0.0017026341520249844,-0.0004305182956159115
1746575984855501000,0.1425009765625,0.0013592327013611794,-0.0004294784739613533,0.0008052228949964046
1746575984865465000,0.152465087890625,0.0008005015552043915,-0.000036129727959632874,0.0007335836999118328
1746575984875430100,0.16243017578125,0.0002759522758424282,-0.00040281470865011215,-0.000021822750568389893
1746575984885394400,0.17239453125,0.0006541211623698473,-0.0003921622410416603,-0.00025165360420942307
1746575984895358200,0.182358154296875,0.0002622350584715605,-0.0004760674200952053,0.0015950854867696762
1746575984905323300,0.1923232421875,-0.0015404587611556053,-0.0003050924278795719,0.0006938716396689415
1746575984915287300,0.202287353515625,0.0012370687909424305,-0.0007628635503351688,0.00005248980596661568
1746575984925251300,0.212251220703125,-0.00013951933942735195,-0.00120494794100523,0.00026421109214425087
1746575984935216000,0.222216064453125,0.00022359308786690235,0.000771042425185442,0.0010680644772946835
1746575984945180200,0.23218017578125,0.0005154756363481283,-0.0002976842224597931,0.0005945540033280849
1746575984955144200,0.242144287109375,0.0014888935256749392,0.0011728969402611256,-0.00046550203114748
1746575984965109000,0.25210888671875,0.0013586650602519512,0.0013974015600979328,0.001132394652813673
1746575984975073300,0.2620732421875,0.00005177711136639118,0.00039679184556007385,-0.0004417356103658676
1746575984985038300,0.272038330078125,-0.0002523560542613268,0.00041703181341290474,0.00036733271554112434
1746575984995002400,0.28200244140625,0.00032627140171825886,-0.00042679905891418457,-0.0009772875346243382
1746575985004966100,0.291966064453125,0.0002889872994273901,-0.0006720763631165028,0.0002999645657837391
1746575985014931200,0.30193115234375,0.0012227916158735752,-0.00013703526929020882,0.0011313129216432571
1746575985024895200,0.311895263671875,-0.00034873979166150093,0.0008235666900873184,-0.0007563354447484016
1746575985034859300,0.321859375,-0.0007609550375491381,-0.00015647662803530693,-0.0016201585531234741
1746575985044824000,0.331823974609375,0.0003597030881792307,-0.00014076381921768188,0.0008011874742805958
1746575985054788000,0.3417880859375,-0.0004014754667878151,-0.0009979521855711937,-0.0002192300744354725
1746575985064752400,0.35175244140625,-0.0011626072227954865,-0.00011964142322540283,-0.0008831559680402279
1746575985074717200,0.36171728515625,-0.0016092690639197826,0.00007623899728059769,-0.00026732590049505234
1746575985084681200,0.37168115234375,0.0006669347640126944,-0.000018303282558918,0.0022903739009052515
1746575985094645200,0.381645263671875,-0.00009299861267209053,0.00019199494272470474,0.001260428223758936
1746575985104610300,0.3916103515625,-0.00001816381700336933,-0.0006463681347668171,-0.0005276179872453213
1746575985114574000,0.401573974609375,0.0008337970357388258,-0.00130365788936615,-0.00047454796731472015
1746575985124539100,0.4115390625,-0.00013506109826266766,0.0010180859826505184,0.0010983152315020561
1746575985134503200,0.421503173828125,-0.00026039546355605125,0.0016776504926383495,-0.0014186645857989788
1746575985144467200,0.43146728515625,0.0015404338482767344,-0.0012033572420477867,-0.0007635271176695824
1746575985154432300,0.441432373046875,0.00013580592349171638,0.00008554477244615555,0.0009304210543632507
1746575985164396300,0.451396240234375,-0.00022212299518287182,0.00014839554205536842,-0.0001787855289876461
1746575985174360300,0.4613603515625,0.00045757018961012363,-0.00038123223930597305,0.0009104674682021141
1746575985184325000,0.4713251953125,0.0006184251978993416,-0.0005980138666927814,0.00019301148131489754
1746575985194289200,0.4812890625,0.001205898355692625,-0.0011974633671343327,0.0004035322926938534
1746575985204253200,0.491253173828125,-0.0005035849753767252,0.0000382433645427227,-0.0014609466306865215
1746575985214218200,0.50121826171875,-0.0007992514874786139,-0.0015248749405145645,-0.00025656213983893394
1746575985224182000,0.51118212890625,0.0018796224612742662,0.00019632605835795403,0.00025476468726992607
1746575985234146000,0.52114599609375,0.001055670203641057,0.00006807921454310417,0.0004554358310997486
1746575985244111400,0.531111328125,-0.0003305054269731045,0.00035490142181515694,0.0006487816572189331
1746575985254075400,0.541075439453125,-0.0017535975202918053,-0.0011635390110313892,0.0003071608953177929
1746575985264040200,0.551040283203125,-0.0006883330643177032,-0.00038349907845258713,-0.00048539601266384125
1746575985274004200,0.561004150390625,0.00048574386164546013,-0.0003621745854616165,0.00003116624429821968
1746575985283968300,0.57096826171875,0.00042742048390209675,-0.0005467315204441547,-0.0006495374254882336
1746575985293932800,0.580932861328125,-0.0007653387729078531,-0.001151743344962597,0.002127896761521697
1746575985303896600,0.590896484375,-0.0001623991411179304,-0.0006513353437185287,0.00019257748499512672
1746575985313860600,0.600860595703125,-0.00004402198828756809,-0.0006670542061328888,-0.000385879073292017
1746575985323826000,0.610825927734375,-0.0005998238921165466,-0.00022763293236494064,-0.0006727017462253571
1746575985333790000,0.6207900390625,0.0006135536823421717,0.00016901781782507896,0.0005160667933523655
1746575985343753700,0.630753662109375,-0.00005889451131224632,-0.0005172789096832275,0.00008889567106962204
1746575985353718800,0.64071875,0.0018615808803588152,-0.0005031037144362926,-0.0006797565147280693
1746575985363682800,0.650682861328125,-0.0006279419176280499,-0.00033931899815797806,-0.00027495622634887695
1746575985373646800,0.660646728515625,0.0003835230600088835,0.0005889334715902805,0.0012834034860134125
1746575985383611600,0.670611572265625,-0.0016122495289891958,-0.0009053661487996578,-0.0005435249768197536
1746575985393575700,0.68057568359375,-0.0006500687450170517,-0.0010156710632145405,-0.0011292719282209873
1746575985403539700,0.690539794921875,-0.0002732314169406891,0.0015873024240136147,-0.0014081047847867012
1746575985413504800,0.7005048828125,-0.0011220562737435102,-0.0002451809123158455,-0.00094551220536232
1746575985423468800,0.71046875,-0.0007926232647150755,0.00039264606311917305,-0.00033564819023013115
1746575985433433900,0.720433837890625,-0.00007219403050839901,-0.00029910774901509285,0.0006966716609895229
1746575985443398000,0.73039794921875,-0.0006245335098356009,-0.0013766228221356869,0.0006553926505148411
1746575985453361700,0.740361572265625,-0.00013397005386650562,-0.0015780585817992687,0.00032184552401304245
1746575985463326700,0.75032666015625,0.0011392871383577585,-0.00011518411338329315,0.0003263726830482483
1746575985473290800,0.760290771484375,-0.0007080507930368185,0.0002647899091243744,-0.0005357274785637856
1746575985483254800,0.7702548828125,-0.0006896748673170805,0.0010056812316179276,-0.0005557010881602764
1746575985493219600,0.780219482421875,-0.0009280464146286249,0.0009317202493548393,0.001400279812514782
1746575985503184000,0.790183837890625,-0.0010446927044540644,-0.0009522000327706337,-0.0005899006500840187
1746575985513148000,0.80014794921875,-0.000716380774974823,-0.0013362732715904713,0.00004859408363699913
1746575985523112700,0.81011279296875,0.000711073400452733,0.0007681567221879959,0.000057116150856018066
1746575985533076700,0.82007666015625,0.0003834289964288473,0.00011109793558716774,-0.001208411529660225
1746575985543040800,0.830040771484375,0.00010353070683777332,-0.0002580159343779087,0.000015577301383018494
1746575985553005600,0.840005615234375,0.0010959410574287176,-0.0005933004431426525,0.0006157881580293179
1746575985562969600,0.849969482421875,0.0014698486775159836,-0.0005096769891679287,0.0010211211629211903
1746575985572934700,0.8599345703125,0.00026749703101813793,-0.0002541881985962391,-0.001455533318221569
1746575985582898700,0.869898681640625,0.00005497667007148266,-0.00038415007293224335,-0.0013849595561623573
1746575985592862700,0.87986279296875,0.0003998589236289263,-0.00023415032774209976,-0.00138175580650568
1746575985602827800,0.889827880859375,0.00024060183204710484,-0.0003382796421647072,0.001279008574783802
1746575985612791800,0.899791748046875,-0.001034915680065751,-0.00038585253059864044,-0.0005575153045356274
1746575985622755800,0.909755859375,-0.0011728673707693815,0.0008344077505171299,-0.0005556512624025345
1746575985632720600,0.919720703125,0.0010484405793249607,0.0007108957506716251,-0.0006663925014436245
1746575985642684700,0.9296845703125,-0.0006796845700591803,-0.0011570458300411701,0.00003242073580622673
1746575985652648700,0.939648681640625,0.0011396687477827072,0.00016666948795318604,-0.00040246546268463135
1746575985662613500,0.949613525390625,0.0012123729102313519,-0.0009462656453251839,0.0012737284414470196
1746575985672577500,0.95957763671875,0.0006361848209053278,0.000413703266531229,-0.0001618713140487671
1746575985682541600,0.96954150390625,-0.0014136501122266054,-0.001704308670014143,0.0007113791070878506
1746575985692507000,0.9795068359375,0.0016990161966532469,-0.00006825616583228111,-0.00124311912804842
1746575985702470700,0.989470703125,-0.0001199226826429367,0.000009774230420589447,0.0006072451360523701
1746575985712435700,0.999435791015625,0.0002638718578964472,-0.0009504109621047974,-0.00041151605546474457
1746575985722399700,1.009399658203125,-0.0001534454058855772,-0.001064926851540804,0.0016556293703615665
1746575985732363800,1.01936376953125,0.0008432618342339993,0.0007075183093547821,-0.000334219541400671
1746575985742328600,1.02932861328125,0.00008346186950802803,-0.0005638748407363892,-0.0006029321812093258
1746575985752292600,1.039292724609375,-0.00010600406676530838,-0.0006844704039394855,-0.0006244922988116741
1746575985762256600,1.049256591796875,0.00009879283607006073,-0.0003643585368990898,-0.0000796094536781311
1746575985772221700,1.0592216796875,0.0010232413187623024,-0.0008639879524707794,0.001036894042044878
1746575985782185700,1.069185791015625,0.0006551924161612988,0.0009530871175229549,-0.0006398321129381657
1746575985792149800,1.079149658203125,0.00035325903445482254,0.0007948293350636959,-0.00012048054486513138
1746575985802114800,1.08911474609375,0.0002709671389311552,0.00023929355666041374,0.0003386484459042549
1746575985812078600,1.09907861328125,-0.00008937832899391651,0.00019699009135365486,0.00036076921969652176
1746575985822042600,1.109042724609375,-0.00006594252772629261,-0.00036600232124328613,0.00042361998930573463
1746575985832007700,1.119007568359375,-0.0018197731114923954,-0.00004454469308257103,0.0008421973325312138
1746575985841971700,1.1289716796875,-0.0013827481307089329,-0.0002245744690299034,0.00023233378306031227
1746575985851935700,1.138935791015625,0.0015016735997051,-0.0011060843244194984,0.0002806279808282852
1746575985861900800,1.14890087890625,0.000826029572635889,-0.00009914301335811615,0.0012148646637797356
1746575985871864800,1.15886474609375,0.0006348877213895321,-0.0012068841606378555,0.0004790755920112133
1746575985881829600,1.16882958984375,0.0006053266115486622,0.0004501347430050373,0.00048173870891332626
1746575985891793700,1.178793701171875,-0.0021151199471205473,-0.0007142899557948112,-0.0000853436067700386
1746575985901757700,1.1887578125,0.0014934635255485773,-0.0001925765536725521,0.0012462367303669453
1746575985911722800,1.19872265625,0.0019394373521208763,-0.0003048270009458065,0.0010905931703746319
1746575985921686500,1.2086865234375,0.0001671037171036005,-0.00047340523451566696,-0.0001616254448890686
1746575985931650600,1.218650634765625,0.00001246994361281395,0.00003229361027479172,0.0009351768530905247
1746575985941615900,1.228615966796875,0.00023324601352214813,0.000783305149525404,0.0014038928784430027
1746575985951580000,1.238579833984375,-0.0007589154411107302,0.00045699672773480415,-0.0004520406946539879
1746575985961543700,1.248543701171875,-0.00021403306163847446,-0.00037790415808558464,0.0006715469062328339
1746575985971508700,1.2585087890625,-0.0004971239250153303,-0.0014855964109301567,-0.000696246512234211
1746575985981472800,1.26847265625,-0.0008888749871402979,-0.00001153675839304924,-0.00029570702463388443
1746575985991436800,1.278436767578125,-0.000920730410143733,0.000017087440937757492,0.00012089451774954796
1746575986001401600,1.288401611328125,0.0016255180817097425,0.00015210965648293495,0.001392287202179432
1746575986011365600,1.29836572265625,0.0009553274139761925,-0.00010659778490662575,-0.0008525913581252098
1746575986021329700,1.30832958984375,0.0009196412283927202,0.0006518703885376453,-0.0009980001486837864
1746575986031294700,1.318294677734375,-0.00021469942294061184,0.0002797194756567478,-0.00033885519951581955
1746575986041258800,1.3282587890625,-0.000444263918325305,-0.0005056466907262802,-0.0001327265053987503
1746575986051223800,1.338223876953125,-0.00042296992614865303,-0.000269060954451561,0.0004775817506015301
1746575986061187800,1.348187744140625,0.0001296361442655325,0.00009099859744310379,0.0006048805080354214
1746575986071151600,1.358151611328125,-0.00025266921147704124,0.0003809528425335884,-0.00029277196153998375
1746575986081116700,1.36811669921875,-0.00042684003710746765,0.0007319571450352669,-0.0003178059123456478
1746575986091080700,1.378080810546875,-0.000537363812327385,-0.0001447303220629692,-0.00021712062880396843
1746575986101044700,1.388044677734375,-0.0005773110315203667,0.0004723239690065384,-0.0002370942384004593
1746575986111009800,1.398009765625,0.00044276006519794464,-0.0004009087570011616,-0.0003566993400454521
1746575986120973800,1.407973876953125,0.0006590087432414293,-0.0006634960882365704,0.00042067747563123703
1746575986130937900,1.417937744140625,0.0016852801200002432,-0.0010266839526593685,-0.0007076659239828587
1746575986140902700,1.427902587890625,-0.0011006526183336973,0.00013205735012888908,0.00014667585492134094
1746575986150866700,1.43786669921875,-0.00141673325560987,0.0004501710645854473,0.0015578693710267544
1746575986160830700,1.447830810546875,-0.0009637295734137297,0.000763891264796257,0.00015145400539040565
1746575986170795800,1.457795654296875,-0.0003432303201407194,0.00015767617151141167,0.0001330748200416565
1746575986180759600,1.467759521484375,-0.0015368589665740728,-0.0008375472389161587,0.00036769965663552284
1746575986190723600,1.4777236328125,-0.00008346675895154476,-0.0007463833317160606,-0.00027461862191557884
1746575986200689000,1.48768896484375,-0.0002965193707495928,-0.0006510424427688122,-0.00017182063311338425
1746575986210653000,1.49765283203125,0.001325327204540372,-0.0007384149357676506,-0.0013796566054224968
1746575986220617700,1.50761767578125,-0.000007318565621972084,-0.00007981527596712112,0.0001497967168688774
1746575986230581800,1.517581787109375,0.0014074882492423058,0.00005844561383128166,-0.000936026219278574
1746575986240545800,1.5275458984375,0.00022291415371000767,-0.0004566097632050514,-0.0010777064599096775
1746575986250510600,1.537510498046875,-0.0006450088694691658,-0.0008259806782007217,-0.0010108528658747673
1746575986260474600,1.547474609375,-0.00046204961836338043,-0.0009149303659796715,0.0014088954776525497
1746575986270438700,1.557438720703125,-0.00023649469949305058,0.000623323954641819,0.00047882460057735443
1746575986280403700,1.56740380859375,-0.0010444975923746824,-0.00034020794555544853,0.001119581051170826
1746575986290367700,1.57736767578125,-0.0009933516848832369,-0.0017801991198211908,-0.0016271546483039856
1746575986300331800,1.587331787109375,-0.0006077259313315153,0.0002264929935336113,-0.000050829723477363586
1746575986310296800,1.597296875,-0.0002382465172559023,0.000534136313945055,-0.0007040854543447495
1746575986320260900,1.6072607421875,-0.000579131068661809,-0.0005143503658473492,0.001092216931283474
1746575986330224600,1.617224609375,-0.00009576301090419292,0.00039048586040735245,0.0007812269032001495
1746575986340189700,1.627189697265625,0.0010853488929569721,-0.0005248426459729671,-0.0002699228934943676
1746575986350153700,1.63715380859375,-0.0004498411435633898,-0.0004884549416601658,-0.0012131673283874989
1746575986360117800,1.64711767578125,-0.0000809933990240097,0.0007395287975668907,0.0021493397653102875
1746575986370082600,1.65708251953125,-0.000026159919798374176,-0.0005897171795368195,-0.0009314771741628647
1746575986380046600,1.667046630859375,0.0007972894236445427,-0.000722875352948904,-0.0003154883161187172
1746575986390012000,1.677011962890625,0.00010422826744616032,-0.0017052032053470612,-0.0004501054063439369
1746575986399975700,1.6869755859375,0.000060019781813025475,-0.00010464340448379517,-0.00037580356001853943
1746575986409939700,1.696939697265625,0.00003560958430171013,-0.0005416632629930973,0.001594936940819025
1746575986419904800,1.70690478515625,-0.0004693258088082075,0.0002799215726554394,0.00043806014582514763
1746575986429868800,1.716868896484375,-0.00023664976470172405,0.0000814259983599186,0.0005928096361458302
1746575986439832600,1.72683251953125,0.00027600862085819244,0.0005378918722271919,0.00021916814148426056
1746575986449797600,1.736797607421875,-0.000363870058208704,-0.0001220889389514923,0.0005859299562871456
1746575986459761700,1.74676171875,0.001310459105297923,0.00048111705109477043,0.0001662159338593483
1746575986469725700,1.7567255859375,0.001511912327259779,0.001217287965118885,-0.00018858816474676132
1746575986479690800,1.766690673828125,-0.0002689436078071594,-0.00009511783719062805,0.00003511738032102585
1746575986489654800,1.77665478515625,0.0006140980403870344,-0.0001372452825307846,0.00047774333506822586
1746575986499618800,1.786618896484375,0.00199334928765893,0.0003293408080935478,-0.00006394321098923683
1746575986509583600,1.79658349609375,-0.0005325884558260441,-0.0004974626936018467,0.0007408587262034416
1746575986519547600,1.806547607421875,0.001463450724259019,-0.00021197181195020676,0.000698781106621027
1746575986529511700,1.81651171875,0.0006325449794530869,-0.0007252027280628681,-0.0006245607510209084
1746575986539476700,1.826476806640625,0.00008899369277060032,0.0002883961424231529,-0.0013883556239306927
1746575986549440500,1.8364404296875,-0.00030526239424943924,0.0011654705740511417,-0.0003002118319272995
1746575986559405800,1.84640576171875,-0.000875445082783699,0.000567857176065445,0.00006304355338215828
1746575986569369900,1.856369873046875,-0.0012987670488655567,0.00011897692456841469,0.0000879666768014431
1746575986579334000,1.866333984375,-0.0016068946570158005,-0.000760665163397789,-0.0010715737007558346
1746575986589298700,1.876298583984375,0.00043430295772850513,-0.0009184502996504307,0.0002860124222934246
1746575986599262700,1.8862626953125,-0.002471738262102008,-0.0004726368933916092,-0.00007005222141742706
1746575986609226800,1.896226806640625,0.0017148463521152735,-0.0024771762546151876,-0.00010110484436154366
1746575986619191600,1.906191650390625,-0.0005552324000746012,0.0002706735394895077,-0.0000015022233128547668
1746575986629155600,1.916155517578125,0.000925691332668066,-0.0007492140866816044,-0.000984462909400463
1746575986639119600,1.92611962890625,-0.0003579522017389536,0.00049554742872715,-0.00007632514461874962
1746575986649085000,1.9360849609375,0.0002765483222901821,-0.00016481894999742508,-0.00027417996898293495
1746575986659048700,1.946048583984375,0.0007567161228507757,0.0005116239190101624,0.0005910811014473438
1746575986669012700,1.9560126953125,0.00014425255358219147,0.0013146554119884968,0.0006416072137653828
1746575986678977800,1.965977783203125,-0.00042140274308621883,0.0013492763973772526,-0.0008684052154421806
1746575986688941800,1.97594189453125,-0.0006386588793247938,-0.0005620038136839867,-0.00024143746122717857
1746575986698906600,1.98590673828125,-0.0005694169085472822,0.00018448056653141975,-0.000637715682387352
1746575986708870700,1.99587060546875,0.00006361724808812141,-0.00022598030045628548,-0.0006034323014318943
1746575986718834700,2.005834716796875,0.0018676426261663437,0.00015485147014260292,0.0003600991331040859
1746575986728799700,2.0157998046875,-0.0004360480234026909,0.00042633432894945145,-0.0007435115985572338
1746575986738763800,2.025763671875,0.001450269017368555,0.00019543804228305817,0.000387000385671854
1746575986748727800,2.035727783203125,-0.0002803902607411146,0.0006175190210342407,0.000774770975112915
1746575986758692900,2.04569287109375,-0.0016830770764499903,-0.0005659898743033409,-0.00042844517156481743
1746575986768656600,2.05565673828125,0.0019211091566830873,0.0002721981145441532,-0.001089892815798521
1746575986778620700,2.06562060546875,0.0007804771885275841,-0.00010250834748148918,-0.0003663119859993458
1746575986788585700,2.075585693359375,-0.000064037274569273,-0.00046187592670321465,0.0004173549823462963
1746575986798549800,2.0855498046875,-0.00022808811627328396,-0.0006914404220879078,-0.0001214025542140007
1746575986808513500,2.095513427734375,-0.0008707623928785324,-0.00108784856274724,0.0006127078086137772
1746575986818478800,2.105478759765625,-0.0003666263073682785,-0.00018663471564650536,0.00013706739991903305
1746575986828443000,2.11544287109375,0.000424371799454093,0.0004269266501069069,0.0013349899090826511
1746575986838407700,2.12540771484375,-0.0016920422203838825,-0.0003059753216803074,0.0007504262030124664
1746575986848371700,2.135371826171875,-0.0015079195145517588,-0.00003782426938414574,0.0005533425137400627
1746575986858335700,2.145335693359375,-0.000378206605091691,0.0006575267761945724,0.0001559988595545292
1746575986868300800,2.15530078125,-0.000047302572056651115,0.00003178883343935013,0.00004028482362627983
1746575986878264600,2.1652646484375,0.0013868098612874746,0.00016334885731339455,-0.0008899574168026447
1746575986888228600,2.175228515625,0.00015463773161172867,-0.00024735648185014725,0.0008851503953337669
1746575986898194000,2.18519384765625,0.00011948402971029282,-0.001096372026950121,-0.001244313083589077
1746575986908158000,2.195157958984375,-0.00037309667095541954,-0.0005646431818604469,-0.00007567461580038071
1746575986918121700,2.205121826171875,-0.00025059119798243046,0.00011899042874574661,0.0008772043511271477
1746575986928086800,2.215086669921875,0.0005283807404339314,0.0018532178364694118,-0.0005112253129482269
1746575986938050800,2.22505078125,-0.0005882829427719116,0.000033746007829904556,0.0008464539423584938
1746575986948014800,2.235014892578125,-0.00038249511271715164,0.00013905763626098633,0.00021582981571555138
1746575986957979600,2.244979736328125,-0.00010845577344298363,-0.00044310931116342545,-0.0006305226124823093
1746575986967943700,2.254943603515625,-0.000332418829202652,-0.0006454475224018097,0.0007010642439126968
1746575986977908700,2.26490869140625,0.001175995683297515,-0.0002046939916908741,0.0013841651380062103
1746575986987872800,2.274872802734375,-9.548384696245193e-7,0.0005703778006136417,0.0005380762740969658
1746575986997836800,2.2848369140625,0.0008685672655701637,0.0015019513666629791,0.0009745685383677483
1746575987007801900,2.2948017578125,0.0012017968110740185,0.00021175481379032135,-0.0007693399675190449
1746575987017766000,2.304765869140625,0.000512570608407259,-0.00014697294682264328,0.0006589130498468876
1746575987027729700,2.314729736328125,-0.0008908037561923265,0.00043834373354911804,0.0003270893357694149
1746575987037694700,2.32469482421875,-0.00033446960151195526,0.00011903094127774239,0.0012717125937342644
1746575987047658800,2.33465869140625,0.00019831256940960884,0.0009290408343076706,-0.0007152962498366833
1746575987057622800,2.344622802734375,0.001231352798640728,0.0007612616755068302,-0.0011328798718750477
1746575987067587600,2.354587646484375,-0.0005840016528964043,-0.000230488833039999,0.00023040268570184708
1746575987077551900,2.3645517578125,-0.00032008253037929535,-0.00021344423294067383,0.002530575031414628
1746575987087516700,2.3745166015625,-0.00017335987649857998,-0.0009139333851635456,-0.0006639375351369381
1746575987097480700,2.384480712890625,-0.00011716713197529316,-0.00032803788781166077,0.0010061305947601795
1746575987107444700,2.39444482421875,0.0007409860845655203,0.000434256624430418,0.0005792179144918919
1746575987117409800,2.404409912109375,0.001487736590206623,0.0013455906882882118,-0.001054098829627037
1746575987127373600,2.41437353515625,-0.0017179828137159348,-0.0006128307431936264,0.00048428215086460114
1746575987137337600,2.424337646484375,-0.0015166481025516987,-0.001217634417116642,-0.0006166687235236168
1746575987147302700,2.434302734375,-0.0015221636276692152,0.0005269781686365604,-0.0005257194861769676
1746575987157266700,2.4442666015625,-0.0017863495741039515,-0.0011066049337387085,-0.0013022972270846367
1746575987167230700,2.454230712890625,0.001401769695803523,-0.0007140962406992912,0.0006078970618546009
1746575987177195800,2.46419580078125,-0.0009639165364205837,-0.0007468531839549541,-0.001226754393428564
1746575987187159800,2.474159912109375,-0.000889086164534092,-0.0018052025698125362,-0.00011543557047843933
1746575987197123800,2.484123779296875,-0.0003798899706453085,0.001298711635172367,0.0011745993979275227
1746575987207088600,2.494088623046875,-0.0013329158537089825,0.000330562237650156,-0.0003765649162232876
1746575987217052700,2.504052734375,0.00021571223624050617,0.0007207151502370834,0.00011265790089964867
1746575987227017700,2.514017822265625,-0.00007687555626034737,0.0010663149878382683,0.0009353766217827797
1746575987236981500,2.5239814453125,-0.00059752375818789,0.0009427443146705627,-0.0003751646727323532
1746575987246945500,2.533945556640625,0.000038419151678681374,-0.0014312854036688805,0.00030687684193253517
1746575987256910800,2.543910888671875,0.0011966279707849026,0.0007770080119371414,0.0002184598706662655
1746575987266875000,2.553875,-0.0007081802468746901,-0.0007499530911445618,0.002162601798772812
1746575987276838700,2.563838623046875,-0.00005863513797521591,0.0005350220017135143,0.0006842808797955513
1746575987286803700,2.5738037109375,0.0005357458721846342,-0.00010964227840304375,-0.00034665828570723534
1746575987296768800,2.583768798828125,-0.000208607641980052,0.00040248362347483635,-0.00047795241698622704
1746575987306732500,2.593732666015625,-0.002728712046518922,0.00009404914453625679,0.00027028191834688187
1746575987316697600,2.603697509765625,-0.0011265540961176157,-0.000030320603400468826,0.0013635093346238136
1746575987326661600,2.61366162109375,-0.002277475083246827,-0.000422903336584568,0.0008931043557822704
1746575987336626400,2.62362646484375,0.00016783946193754673,-0.00011424301192164421,-0.00020971056073904037
1746575987346590500,2.633590576171875,0.0006214282475411892,0.0009110448881983757,0.0001368182711303234
1746575987356554500,2.643554443359375,0.0005117061082273722,0.00044206203892827034,0.00009047938510775566
1746575987366519800,2.653519775390625,0.00012252386659383774,-0.00019012019038200378,0.0007284483872354031
1746575987376483600,2.663483642578125,0.0018059080466628075,-0.0006854678504168987,0.0014674756675958633
1746575987386447600,2.673447509765625,0.000023197848349809647,0.00015231361612677574,0.000425881240516901
1746575987396412700,2.68341259765625,0.0009595653973519802,-0.0010184119455516338,0.0017326942179352045
1746575987406376700,2.693376708984375,0.0008206299971789122,-0.000350187998265028,0.0010256413370370865
1746575987416340500,2.703340576171875,0.0014387497212737799,-0.0010436750017106533,0.0012725163251161575
1746575987426305500,2.713305419921875,-0.0015271068550646305,-0.0004994915798306465,-0.0003427150659263134
1746575987436269600,2.72326953125,-0.00042668869718909264,-0.0007935045287013054,-0.0005568331107497215
1746575987446234600,2.733234619140625,0.001229424262419343,-0.00011493591591715813,-0.001156867016106844
1746575987456198700,2.74319873046875,0.00048400554805994034,0.0006339452229440212,0.0003781793639063835
1746575987466162700,2.75316259765625,-0.0006664595566689968,0.000037838704884052277,0.001086960081011057
1746575987476127700,2.763127685546875,0.00035539548844099045,0.0004506288096308708,0.00001823343336582184
1746575987486091500,2.773091552734375,0.000788387143984437,-0.00000825338065624237,0.000039593782275915146
1746575987496055600,2.7830556640625,0.00173194520175457,-0.0007797712460160255,-0.00024962518364191055
1746575987506020600,2.7930205078125,-0.0009519525337964296,0.00008300784975290298,0.0008135894313454628
1746575987515984600,2.802984619140625,-0.0012060182634741068,-0.0006397743709385395,-0.0010141381062567234
1746575987525948400,2.812948486328125,0.00020341365598142147,0.000049856025725603104,-0.0008831461891531944
1746575987535913700,2.822913818359375,0.00018157577142119408,0.0007691760547459126,-0.0004144296981394291
1746575987545877800,2.832877685546875,-0.0014855568297207355,0.0014220871962606907,-0.0007411814294755459
1746575987555842600,2.842842529296875,-0.00006955396384000778,0.00014270469546318054,-0.0011534388177096844
1746575987565806600,2.852806640625,0.0007039615884423256,-0.0002846471033990383,-0.00035004178062081337
1746575987575770600,2.8627705078125,-0.0012004647869616747,0.00043280841782689095,-0.00014204904437065125
1746575987585735700,2.872735595703125,-0.00005981535650789738,-0.0004905289970338345,0.00028545083478093147
1746575987595699500,2.882699462890625,-0.0005277327727526426,0.001208567526191473,0.0004721381701529026
1746575987605663500,2.89266357421875,-0.0004020791966468096,0.0002184477634727955,0.0002962476573884487
1746575987615628500,2.902628662109375,0.001027771970257163,-0.0007589324377477169,-0.00004756636917591095
1746575987625592800,2.9125927734375,-0.0022072354331612587,-0.000066341832280159,-0.0004132636822760105
1746575987635556600,2.922556640625,0.0022202699910849333,-0.0005427813157439232,0.0009638569317758083
1746575987645521700,2.932521728515625,-0.00025385315530002117,0.00020008021965622902,-0.0001891469582915306
1746575987655485700,2.942485595703125,-0.00036623841151595116,0.0004669288173317909,0.0008465563878417015
1746575987665450500,2.952450439453125,0.0020876999478787184,-0.00022497586905956268,0.0007496410980820656
1746575987675414500,2.96241455078125,0.001396876061335206,-0.0012657390907406807,-0.00019551441073417664
1746575987685378600,2.972378662109375,-0.0009768065065145493,0.0011208225041627884,-0.0006926222704350948
1746575987695343600,2.982343505859375,-0.0008130217902362347,-0.00033033406361937523,0.00028262753039598465
1746575987705307400,2.992307373046875,0.0007662929128855467,-0.000764183234423399,0.001536935567855835
1746575987715271700,3.002271728515625,-0.000633730785921216,-0.000983893871307373,0.0009068315848708153
1746575987725236700,3.01223681640625,0.0001739205326884985,0.0010934770107269287,0.00032816966995596886
1746575987735200800,3.02220068359375,0.00014569098129868507,0.000468965619802475,-0.00016584713011980057
1746575987745164500,3.03216455078125,0.0004176017828285694,-0.00008336082100868225,0.0005981908179819584
1746575987755129600,3.042129638671875,-0.000002378597855567932,0.0013036136515438557,-0.0004689376801252365
1746575987765093600,3.05209375,0.0009543283376842737,-0.00015605101361870766,-0.0006608800031244755
1746575987775058400,3.062058349609375,-0.0010867184028029442,0.00047431932762265205,0.0005354117602109909
1746575987785022500,3.0720224609375,-0.0012653656303882599,-0.0007372060790657997,-0.000026067253202199936
1746575987794986500,3.081986572265625,0.001010039122775197,0.001719560008496046,-0.0010234210640192032
1746575987804951600,3.09195166015625,0.001283868681639433,-0.0010262955911457539,-0.00044956430792808533
1746575987814915600,3.10191552734375,0.0007863901555538177,-0.0002356031909584999,-0.0001835147850215435
1746575987824879600,3.111879638671875,-0.0008262353949248791,0.0003075273707509041,-0.0002199532464146614
1746575987834844700,3.1218447265625,-0.0008230395615100861,0.0007418887689709663,-0.0009520561434328556
1746575987844808700,3.13180859375,0.000218686880543828,-0.0009352490305900574,0.0011128098703920841
1746575987854772500,3.1417724609375,0.001542277866974473,-0.00028943223878741264,0.00046432996168732643
1746575987864737500,3.151737548828125,-0.0002592459786683321,-0.0007943948730826378,0.001324765384197235
1746575987874701600,3.16170166015625,-0.002105082618072629,-0.0006942600011825562,-0.0008883215487003326
1746575987884666600,3.17166650390625,-0.00017430144362151623,0.00018494483083486557,-0.0014999276027083397
1746575987894630700,3.181630615234375,-0.001200151164084673,-0.00014715176075696945,-0.0015894095413386822
1746575987904594700,3.1915947265625,0.0007119567599147558,0.0007947920821607113,-0.0003466010093688965
1746575987914559500,3.2015595703125,-0.0005943237338215113,0.0017743026837706566,-0.00029413681477308273
1746575987924523500,3.2115234375,0.0001631018240004778,0.0006998288445174694,-0.00040340889245271683
1746575987934487600,3.221487548828125,-0.0010366523638367653,0.0002936967648565769,-0.00029049115255475044
1746575987944452600,3.23145263671875,0.000051053473725914955,-0.002108305459842086,0.001606963574886322
1746575987954416600,3.241416748046875,0.0005400099325925112,0.0008462052792310715,-0.00037229806184768677
1746575987964380400,3.25138037109375,0.0006467762868851423,0.00046142470091581345,-0.00025823432952165604
1746575987974345700,3.261345703125,0.0009133587591350079,-0.001259509939700365,0.0004200730472803116
1746575987984309800,3.271309814453125,0.00011325348168611526,-0.0003936649300158024,-0.0003267400898039341
1746575987994274600,3.281274658203125,-0.0003679795190691948,-0.00001895800232887268,0.0002650143578648567
1746575988004238600,3.291238525390625,0.0008435980416834354,0.00012117531150579453,-0.0006103059276938438
1746575988014202600,3.30120263671875,0.0007434631697833538,0.0007219845429062843,0.0013543078675866127
1746575988024167400,3.31116748046875,0.00041099521331489086,0.0009351312182843685,-0.0017146952450275421
1746575988034131500,3.32113134765625,0.001304752193391323,-0.00021695205941796303,0.0024291835725307465
1746575988044095500,3.331095458984375,-0.0006233605090528727,-0.0003086463548243046,0.0004199347458779812
1746575988054060800,3.341060791015625,-0.0012859550770372152,-0.0005185035988688469,-0.00018034176900982857
1746575988064024600,3.351024658203125,0.0006179690826684237,-0.0015524867922067642,-0.000014163553714752197
1746575988073989600,3.36098974609375,0.00036976253613829613,0.0005029407329857349,0.0003363080322742462
1746575988083953700,3.37095361328125,-0.00106281996704638,-0.0014016148634254932,-0.0007637478411197662
1746575988093917700,3.380917724609375,-0.0002854431513696909,0.0006269151344895363,-0.00044816313311457634
1746575988103882500,3.390882568359375,-0.000934296753257513,0.001416914165019989,-0.00005693640559911728
1746575988113846500,3.400846435546875,0.0011163372546434402,0.0013050613924860954,0.0006687748245894909
1746575988123810600,3.410810546875,-0.000011087395250797272,0.00014089839532971382,-0.0006662029772996902
1746575988133775600,3.420775634765625,0.0006730786990374327,-0.0006745615974068642,0.000604923814535141
1746575988143739600,3.43073974609375,0.0005602019373327494,-0.0002669799141585827,-0.0006317533552646637
1746575988153703700,3.44070361328125,-0.00045472895726561546,-0.00030133454129099846,-0.0000961916521191597
1746575988163668700,3.450668701171875,0.00005484279245138168,0.0005237404257059097,0.000566484872251749
1746575988173632500,3.460632568359375,-0.00030175456777215004,0.000486989039927721,-0.0006551072001457214
1746575988183596500,3.470596435546875,0.0007525230757892132,0.0004873904399573803,-0.0009323935955762863
1746575988193561600,3.4805615234375,0.0011812921147793531,-0.001262838952243328,-0.0001249229535460472
1746575988203525600,3.490525634765625,-0.0009251460433006287,-0.0006480556912720203,-0.0005068592727184296
1746575988213490400,3.500490478515625,0.000005628680810332298,-0.0006986558437347412,-0.00040272949263453484
1746575988223454700,3.510454833984375,0.000899765407666564,-0.0010611354373395443,-0.0005143764428794384
1746575988233418800,3.520418701171875,0.00021266983821988106,0.00029334845021367073,0.0002693920396268368
1746575988243383600,3.530383544921875,0.0003166964743286371,-0.0008084927685558796,-0.0004925178363919258
1746575988253347600,3.54034765625,0.0012053933460265398,0.0002594348043203354,-0.0005971803329885006
1746575988263311600,3.5503115234375,-0.0008055591024458408,-0.0006478209979832172,0.0007952740415930748
1746575988273276700,3.560276611328125,-0.0003725294955074787,0.00005045998841524124,0.0004115127958357334
1746575988283240400,3.570240478515625,0.0015995607245713472,-0.0007467507384717464,0.0008220188319683075
1746575988293204500,3.58020458984375,0.002395845949649811,0.0007563373073935509,-0.0003883880563080311
1746575988303169300,3.590169189453125,0.0005691917613148689,-0.00009415345266461372,0.00037892162799835205
1746575988313133300,3.60013330078125,0.0007329762447625399,-0.0005908329039812088,0.00005481485277414322
1746575988323098000,3.61009814453125,0.00009429408237338066,-0.0005298801697790623,0.0003085988573729992
1746575988333062100,3.620062255859375,-0.0010841547045856714,-0.0005621043965220451,0.0000835619866847992
1746575988343026200,3.630026123046875,-0.00024409429170191288,0.00017608609050512314,-0.00044568581506609917
1746575988352991200,3.6399912109375,-0.0006643410306423903,-0.0010521640069782734,0.0006155837327241898
1746575988362955300,3.649955322265625,-0.0007350656669586897,0.0003707343712449074,0.0005360515788197517
1746575988372919300,3.659919189453125,-0.0010559766087681055,0.0004208018071949482,0.0006180768832564354
1746575988382884400,3.66988427734375,-0.000004210043698549271,0.0002005421556532383,-0.0000463537871837616
1746575988392848100,3.67984814453125,-0.0011594891548156738,-0.0008351611904799938,-0.000722263939678669
1746575988402812200,3.689812255859375,-0.0012010219506919384,0.00004943413659930229,-0.0008290470577776432
1746575988412777200,3.699777099609375,-0.0007456215098500252,0.0009085698984563351,-0.0002772402949631214
1746575988422741200,3.7097412109375,-0.0002737396862357855,0.0011332575231790543,0.00014832708984613419
1746575988432706000,3.7197060546875,-0.00007320381700992584,0.00029702531173825264,-0.0015020337887108326
1746575988442670000,3.729670166015625,-0.00016816752031445503,0.000679215881973505,-0.00006858864799141884
1746575988452634400,3.73963427734375,0.00004994543269276619,0.00028426898643374443,0.0006022616289556026
1746575988462599200,3.74959912109375,-0.0014794319868087769,-0.00047896383330225945,-0.00001111254096031189
1746575988472563200,3.759563232421875,-0.0009734313935041428,-0.00017562974244356155,-0.00023268768563866615
1746575988482527200,3.76952734375,0.0003630230203270912,-0.00035623833537101746,-0.0018682177178561687
1746575988492492300,3.7794921875,-0.0008620310109108686,-0.00029631704092025757,-0.0003076051361858845
1746575988502456000,3.7894560546875,-0.00046844687312841415,0.00036086607724428177,0.001394582912325859
1746575988512421000,3.799421142578125,0.00019175070337951183,-0.0005624517798423767,-0.0003452599048614502
1746575988522385200,3.80938525390625,-0.0006756829097867012,0.00015249429270625114,-0.0010425373911857605
1746575988532349200,3.81934912109375,0.0000380445271730423,0.0005479734390974045,-0.001136014237999916
1746575988542314200,3.829314208984375,0.0005728395190089941,-0.0001833522692322731,-0.0007202383130788803
1746575988552278300,3.8392783203125,0.001700155669823289,0.0013777930289506912,0.00018337229266762733
1746575988562242300,3.8492421875,0.0005393936298787594,0.00032446207478642464,0.000949653796851635
1746575988572207000,3.85920703125,0.0009753531776368618,0.00043951068073511124,-0.00039364490658044815
1746575988582171100,3.869171142578125,-0.0007256439421325922,0.00048675667494535446,-0.0003506396897137165
1746575988592135200,3.87913525390625,0.00038462807424366474,0.00031045544892549515,0.000038714613765478134
1746575988602100200,3.889100341796875,-0.0005813371390104294,0.0006052916869521141,0.0008880072273313999
1746575988612064000,3.89906396484375,0.00016248365864157677,0.0005645453929901123,-0.0012518428266048431
1746575988622028000,3.909028076171875,-0.00023395894095301628,0.00001032557338476181,0.0004035262390971184
1746575988631993300,3.918993408203125,-0.00045260461047291756,-0.00022856006398797035,-0.00035760505124926567
1746575988641957400,3.928957275390625,0.0007104291580617428,0.000011132098734378815,-0.0013177837245166302
1746575988651922200,3.938922119140625,0.0002105538733303547,-0.00034892745316028595,0.00036639953032135963
1746575988661886200,3.94888623046875,0.00008104625158011913,0.00019798055291175842,0.0002368544228374958
1746575988671850200,3.958850341796875,-0.0020659940782934427,0.00020117638632655144,-0.000856372993439436
1746575988681815000,3.96881494140625,-0.0008738131728023291,0.0003723534755408764,0.000668384600430727
1746575988691779000,3.978779052734375,0.0006702875252813101,-0.0001610773615539074,0.0009653270244598389
1746575988701743000,3.9887431640625,-0.00036498531699180603,0.0010115373879671097,0.00004027504473924637
1746575988711708400,3.99870849609375,0.0006624620873481035,0.0006272434256970882,0.0006384211592376232
1746575988721672200,4.008672119140625,0.0010620448738336563,-0.0014481220860034227,0.0015281825326383114
1746575988731636200,4.01863623046875,-0.0002745955716818571,0.0004347325302660465,-0.0006577400490641594
1746575988741601300,4.028601318359375,-0.000023514963686466217,0.0012127915397286415,-0.0006477423012256622
1746575988751565300,4.0385654296875,-0.00046879565343260765,-0.0006905696354806423,-0.0007947487756609917
1746575988761530000,4.048530029296875,0.0003156245220452547,-0.0002134363166987896,-0.00016585877165198326
1746575988771494100,4.058494140625,0.00023945816792547703,-0.0008038589730858803,-0.0004971562884747982
1746575988781458200,4.068458251953125,-0.0007218986283987761,-0.0002510431222617626,-0.0004436671733856201
1746575988791423200,4.07842333984375,-0.000047320034354925156,0.0001798560842871666,0.00019815471023321152
1746575988801387300,4.08838720703125,-0.00015085050836205482,-0.00007061148062348366,-0.001041538082063198
1746575988811351300,4.098351318359375,0.0005644746124744415,0.000811960082501173,-0.0007171649485826492
1746575988821316400,4.10831640625,0.0005596524570137262,0.001123609021306038,-0.0006033093668520451
1746575988831280000,4.118280029296875,-0.0009431694634258747,-0.0013845560606569052,0.0007650223560631275
1746575988841244200,4.128244140625,0.0000692929606884718,0.00024163536727428436,-0.00042546819895505905
1746575988851209200,4.138209228515625,-0.0005205972120165825,-0.0011820909567177296,0.000944462139159441
1746575988861173200,4.14817333984375,0.0008578808046877384,-0.0002886545844376087,0.0012684930115938187
1746575988871138300,4.15813818359375,-0.0007666477467864752,0.0009880647994577885,0.0004205424338579178
1746575988881102300,4.168102294921875,-0.0014736882876604795,-0.00024354690685868263,0.0005182116292417049
1746575988891066400,4.17806640625,0.000011290423572063446,0.0010640653781592846,-0.0014738328754901886
1746575988901031200,4.18803125,0.0007342400494962931,-0.0002088220790028572,0.0011654985137283802
1746575988910995200,4.1979951171875,-0.00006657233461737633,0.001365372445434332,0.0005891905166208744
1746575988920959200,4.207959228515625,0.000541528919711709,0.0009245402179658413,-0.0021772379986941814
1746575988930924300,4.21792431640625,0.0006075752899050713,0.000413745641708374,-0.0016078543849289417
1746575988940888000,4.22788818359375,-0.00011489680036902428,-0.0006312290206551552,-0.000020894687622785568
1746575988950852000,4.23785205078125,-0.001408127835020423,0.0002838331274688244,0.0003780471161007881
1746575988960817400,4.2478173828125,0.0005306750535964966,-0.0000015976838767528534,0.00007910933345556259
1746575988970781400,4.257781494140625,-0.0004371178802102804,0.0006394251249730587,-0.0011257044970989227
1746575988980746200,4.267746337890625,-0.0006889905780553818,0.0006508100777864456,0.00018081814050674438
1746575988990710300,4.277710205078125,-0.001178213395178318,0.0007296395488083363,-0.0003169267438352108
1746575989000674300,4.28767431640625,-0.0011324582155793905,-0.000037048012018203735,-0.0004363749176263809
1746575989010639000,4.29763916015625,0.000670767854899168,-0.0002993694506585598,0.00022621965035796165
1746575989020603100,4.30760302734375,0.0003414326347410679,0.0008686017245054245,0.0002747494727373123
1746575989030567200,4.317567138671875,0.00041893054731190205,0.000465399120002985,0.001109384000301361
1746575989040532200,4.3275322265625,-0.00004267226904630661,0.0002537565305829048,0.000020437873899936676
1746575989050496300,4.337496337890625,-0.0006799665279686451,-0.0009459978900849819,0.001519797369837761
1746575989060460300,4.347460205078125,-0.0008207533974200487,0.00010180752724409103,0.0005424078553915024
1746575989070425300,4.35742529296875,0.0004021700005978346,-0.0006308280862867832,-0.000992372166365385
1746575989080389400,4.367389404296875,-0.000055753160268068314,0.0004355506971478462,-0.0006369720213115215
1746575989090353200,4.377353271484375,0.0012318852823227644,0.0007639187388122082,0.00007595587521791458
1746575989100318200,4.387318115234375,0.0002597067505121231,-0.000005883164703845978,0.002224941737949848
1746575989110282200,4.3972822265625,0.0011452077887952328,0.0009880084544420242,-0.000049664173275232315
1746575989120247000,4.4072470703125,-0.0004347932990640402,0.001580461859703064,0.0009929649531841278
1746575989130211000,4.417211181640625,0.0007772112730890512,0.0012411749921739101,-0.0002523288130760193
1746575989140175400,4.42717529296875,0.0005626683123409748,0.0006711208261549473,0.00003626290708780289
1746575989150140200,4.43714013671875,-0.000863188412040472,0.00014008628204464912,-0.001057763583958149
1746575989160104200,4.447104248046875,-0.000604267930611968,0.0017209104262292385,0.00020240340381860733
1746575989170068200,4.457068115234375,-0.0008266416843980551,-0.0007643513381481171,0.0000636526383459568
1746575989180033300,4.467033203125,0.000178999500349164,0.0010054302401840687,0.00021628430113196373
1746575989189997300,4.476997314453125,0.0012029849458485842,-0.0009261602535843849,-0.000047102104872465134
1746575989199961000,4.486961181640625,-0.0001183247659355402,-0.0006315931677818298,-0.0011363709345459938
1746575989209926100,4.496926025390625,0.0005613139364868402,0.00076656648889184,-0.00002157175913453102
1746575989219890200,4.50689013671875,-0.0008261245675384998,0.0006038937717676163,-0.0003077997826039791
1746575989229855200,4.516855224609375,-0.00006126472726464272,0.00021453946828842163,0.0005369549617171288
1746575989239819300,4.5268193359375,0.0007646712474524975,0.0020673824474215508,-0.00019070785492658615
1746575989249783300,4.536783203125,0.0017545680748298764,-0.00016754213720560074,0.0001112944446504116
1746575989259748000,4.546748046875,0.00035540759563446045,0.0008600829169154167,0.00021858373656868935
1746575989269712100,4.556712158203125,-0.0005617851857095957,0.0006861784495413303,0.00038769422098994255
1746575989279676200,4.56667626953125,-0.00025805761106312275,0.0007343818433582783,-0.000752015970647335
1746575989289641200,4.57664111328125,-0.0009771108161658049,0.001270742155611515,0.0008836975321173668
1746575989299605500,4.58660546875,0.0005024105776101351,0.00012583890929818153,0.00002072518691420555
1746575989309569800,4.59656982421875,-0.0012283779215067625,-0.0000669737346470356,-0.0008578519336879253
1746575989319534800,4.606534912109375,-0.00040431786328554153,0.00008411100134253502,0.0003862534649670124
1746575989329499000,4.616498779296875,-0.0003784853033721447,-0.0005401340313255787,0.0005569620989263058
1746575989339463700,4.626463623046875,0.000992306973785162,-0.0004017213359475136,0.0010500247590243816
1746575989349427700,4.636427734375,-0.0007770971860736609,-0.0002768188714981079,-0.0005529318004846573
1746575989359391700,4.646391845703125,0.0004950463771820068,0.0008705002255737782,0.0006588869728147984
1746575989369356500,4.6563564453125,-0.003011804074048996,0.0010257624089717865,0.00004422944039106369
1746575989379320600,4.666320556640625,0.0011570313945412636,-0.0004845033399760723,0.0013886387459933758
1746575989389284600,4.67628466796875,-0.0004113044124096632,0.0002739648334681988,0.0012416322715580463
1746575989399250000,4.68625,-0.0007521600928157568,-0.00020493613556027412,0.00038507720455527306
1746575989409213700,4.696213623046875,-0.0006530906539410353,-0.001359416637569666,-0.0010287947952747345
1746575989419177700,4.706177734375,-0.000056665390729904175,0.0013454975560307503,0.0012136525474488735
1746575989429142800,4.716142822265625,0.0009979463648051023,-0.0008300389163196087,-0.00005427887663245201
1746575989439106800,4.72610693359375,0.0014908884186297655,0.0019819787703454494,0.00016847997903823853
1746575989449071600,4.736071533203125,-0.0008047563023865223,0.000011505559086799622,-0.0005468446761369705
1746575989459035600,4.74603564453125,-0.0012105745263397694,-0.0006739511154592037,-0.00019029201939702034
1746575989468999700,4.755999755859375,0.00002672988921403885,0.0002648131921887398,-0.0015796632505953312
1746575989478964700,4.76596484375,-0.0005790665745735168,0.0011043907143175602,0.0007209610193967819
1746575989488928800,4.7759287109375,-0.0004648170433938503,-0.0008146832697093487,-0.0006670784205198288
1746575989498892800,4.785892822265625,0.000076621538028121,0.0012322491966187954,0.001505591906607151
1746575989508857600,4.795857666015625,-0.0020669568330049515,0.0004586009308695793,0.0010374081321060658
1746575989518821600,4.805821533203125,0.0001292116940021515,0.0006225910037755966,0.0008530234917998314
1746575989528785700,4.81578564453125,-0.000557351391762495,-0.0016264484729617834,0.00010680593550205231
1746575989538750700,4.825750732421875,-0.0006469534710049629,0.0010696640238165855,0.0005779103375971317
1746575989548714800,4.83571484375,0.0007591957692056894,-0.0006443466991186142,-0.0004711085930466652
1746575989558678500,4.845678466796875,-0.00016026850789785385,0.0013317656703293324,-0.0007947534322738647
1746575989568643800,4.855643798828125,0.001226173248142004,-0.0005942322313785553,-0.0010948916897177696
1746575989578607900,4.86560791015625,0.0003527030348777771,-0.0004866011440753937,0.001692525576800108
1746575989588572700,4.87557275390625,-0.0009634310845285654,0.0009088953956961632,-0.0002470542676746845
1746575989598536700,4.88553662109375,-0.000590113690122962,0.0005890731699764729,-0.0004966910928487778
1746575989608500700,4.895500732421875,0.0006168307736515999,0.00018853368237614632,-0.0005488889291882515
1746575989618465500,4.905465576171875,-0.0007898183539509773,0.001060738693922758,0.0009234510362148285
1746575989628429600,4.9154296875,-0.0020561516284942627,0.00008602160960435867,0.0006057359278202057
1746575989638393600,4.9253935546875,0.000615724828094244,0.0006228373385965824,-0.00025337468832731247
1746575989648359000,4.93535888671875,0.00048736040480434895,-0.00014575105160474777,0.0005527641624212265
1746575989658322700,4.94532275390625,0.0008232288528233767,-0.000050941482186317444,0.0000431528314948082
1746575989668286700,4.95528662109375,0.0009185699746012688,0.00004360079765319824,-0.0009017367847263813
1746575989678251800,4.965251708984375,-0.000011743279173970222,-0.0017409240826964378,-0.0008345902897417545
1746575989688215800,4.9752158203125,0.00020956527441740036,0.0011904174461960793,-0.0013019749894738197
1746575989698180600,4.9851806640625,-0.000904864864423871,0.0009291796013712883,-0.0002794777974486351
1746575989708144600,4.99514453125,-0.0007426782976835966,0.00037257885560393333,0.0016973866149783134
1746575989718108700,5.005108642578125,-0.0010719273705035448,-0.0009047165513038635,-0.0003547016531229019
1746575989728073700,5.01507373046875,-0.0011832474265247583,0.0009666867554187775,-0.00008971709758043289
1746575989738037800,5.025037841796875,-0.0009945954661816359,0.0008626854978501797,-0.0001064864918589592
1746575989748001800,5.035001708984375,-0.00011894828639924526,-0.0017940837424248457,0.00015876442193984985
1746575989757966800,5.044966796875,-0.0001371160615235567,-0.000028585083782672882,0.0009455378167331219
1746575989767930600,5.0549306640625,0.0022520055063068867,0.00005237525328993797,-0.00020947493612766266
1746575989777894700,5.064894775390625,0.0000732580665498972,-0.00005839252844452858,-0.00040052318945527077
1746575989787859700,5.074859619140625,-0.00041250279173254967,-0.00033589405938982964,0.00048231473192572594
1746575989797823700,5.08482373046875,0.001220375532284379,-0.0016904545482248068,0.0012727701105177402
1746575989807788500,5.09478857421875,-0.0008656787686049938,0.0012419521808624268,-0.0012551024556159973
1746575989817752800,5.1047529296875,0.00044921552762389183,-0.000034213997423648834,-0.001354762353003025
1746575989827716900,5.114716796875,0.0001077982597053051,0.0005255825817584991,-0.0010397103615105152
1746575989837681700,5.124681640625,0.0008552903309464455,-0.0003655729815363884,0.000047042034566402435
1746575989847645700,5.134645751953125,0.0002390348818153143,0.0014541647396981716,-0.0011814744211733341
1746575989857609700,5.144609619140625,0.000049568479880690575,-0.0002349400892853737,0.0007371986284852028
1746575989867574800,5.15457470703125,-0.0010993191972374916,-0.0006679701618850231,0.0007707546465098858
1746575989877538600,5.16453857421875,-0.0001977055799216032,-0.0008347323164343834,-0.0007644216530025005
1746575989887502600,5.174502685546875,-0.0001039623748511076,-0.0005037016235291958,0.0002752766013145447
1746575989897467600,5.184467529296875,0.0002457548398524523,-0.0006190333515405655,-0.0005932780914008617
1746575989907432000,5.194431884765625,-0.000046926550567150116,0.0003479602746665478,0.00043603358790278435
1746575989917396700,5.204396728515625,-0.0009702066890895367,0.00034775445237755775,-0.0004515550099313259
1746575989927360800,5.21436083984375,0.0009206375107169151,0.0006894380785524845,-0.00003157462924718857
1746575989937324800,5.22432470703125,0.00016015558503568172,0.0003077518194913864,-0.0004717959091067314
1746575989947289600,5.23428955078125,0.0004363255575299263,-0.00011782115325331688,0.00023340899497270584
1746575989957253600,5.244253662109375,0.0008976454846560955,-0.000559758860617876,-0.00030211126431822777
1746575989967217700,5.2542177734375,0.0010678214021027088,0.00024132011458277702,-0.001333820167928934
1746575989977182700,5.2641826171875,0.0004902561195194721,-0.00024334387853741646,0.0005661854520440102
1746575989987146500,5.274146484375,-0.0018448038026690483,0.00042564235627651215,0.000382161233574152
1746575989997110800,5.28411083984375,-0.0010315084364265203,-0.00014965282753109932,-0.0012806612066924572
1746575990007075800,5.294075927734375,0.00007450254634022713,0.0007230653427541256,0.00036943331360816956
1746575990017040000,5.304039794921875,0.0004617036320269108,-0.0007506590336561203,-0.00045700231567025185
1746575990027004700,5.314004638671875,0.0005469247698783875,0.00025282008573412895,-0.0007531456649303436
1746575990036968700,5.32396875,-0.002423604717478156,-0.0003938213922083378,-0.00006962055340409279
1746575990046932700,5.3339326171875,-0.0004936119075864553,0.0005776993930339813,0.000829462893307209
1746575990056897500,5.3438974609375,-0.00032188952900469303,-0.001153633464127779,-0.001857477705925703
1746575990066861600,5.353861572265625,0.0005265935324132442,0.000050914473831653595,0.0009148730896413326
1746575990076825600,5.36382568359375,-0.0009093757253140211,-0.00020005367696285248,-0.00024011777713894844
1746575990086791000,5.373791015625,-0.00010669883340597153,0.000011401250958442688,-0.00033492641523480415
1746575990096754700,5.383754638671875,0.001094714505597949,0.00014655012637376785,-0.001384473405778408
1746575990106718700,5.39371875,-0.0007844120264053345,0.0022808071225881577,-0.0002536950632929802
1746575990116683800,5.403683837890625,0.0018043911550194025,-0.00005316268652677536,-0.0002783751115202904
1746575990126647800,5.413647705078125,0.0007151581812649965,0.001173489261418581,0.0010867612436413765
1746575990136612600,5.423612548828125,-0.00006820051930844784,-0.00040182890370488167,-0.0005295933224260807
1746575990146576600,5.43357666015625,-0.000802700174972415,0.00020137708634138107,-0.0009437152184545994
1746575990156540700,5.443540771484375,0.0009340157266706228,-0.00005752593278884888,-0.00015266984701156616
1746575990166505700,5.453505615234375,-0.0011280698236078024,0.0007621953263878822,-0.00022484129294753075
1746575990176469800,5.4634697265625,0.00016850046813488007,0.0005639954470098019,-0.0007384703494608402
1746575990186433800,5.473433837890625,0.0005123144946992397,0.0010188636370003223,-0.0023054741322994232
1746575990196398800,5.48339892578125,-0.00014856806956231594,-0.0018303915858268738,0.00003883941099047661
1746575990206362600,5.493362548828125,0.00004317960701882839,-0.0005307691171765327,-0.0009651724249124527
1746575990216326700,5.50332666015625,0.0000848646741360426,0.0009112237021327019,-0.00025975611060857773
1746575990226291700,5.513291748046875,0.001002057222649455,0.00017805537208914757,0.00017993198707699776
1746575990236255700,5.523255859375,0.0014603668823838234,-0.0012562228366732597,0.0012335674837231636
1746575990246220800,5.533220703125,-0.0007524536922574043,-0.00010147644206881523,0.00016484083607792854
1746575990256184800,5.543184814453125,0.000296279089525342,-0.00013042567297816277,-0.0008240658789873123
1746575990266148900,5.55314892578125,-0.0011868355795741081,0.00007836613804101944,-0.0004687998443841934
1746575990276113700,5.56311376953125,-0.0005247483495622873,0.0012672734446823597,0.00007084570825099945
1746575990286077700,5.57307763671875,-0.0002200829330831766,-0.0005852212198078632,0.0003523421473801136
1746575990296041700,5.583041748046875,0.00025678123347461224,0.0006927088834345341,0.0010186899453401566
1746575990306006000,5.593006103515625,0.000984889455139637,-0.0010929405689239502,-0.00006681447848677635
1746575990315970000,5.602969970703125,0.000794864259660244,-0.0006464403122663498,-0.0016064117662608624
1746575990325933800,5.612933837890625,-0.0005540268030017614,-0.000590247567743063,0.0007622032426297665
1746575990335899000,5.62289892578125,0.0009383801370859146,-0.00015110662207007408,-0.0000360710546374321
1746575990345863000,5.63286279296875,0.0007066852413117886,0.0008694170974195004,0.00020201550796627998
1746575990355827700,5.64282763671875,0.000012429431080818176,0.0007513407617807388,0.0008172527886927128
1746575990365791700,5.652791748046875,-0.0003899738658219576,0.0005763708613812923,-0.00040913280099630356
1746575990375755800,5.662755859375,0.001244441606104374,0.0006487579084932804,0.00011606840416789055
1746575990385721000,5.67272119140625,0.0007640072144567966,-0.00023940671235322952,0.0002766568213701248
1746575990395684900,5.682684814453125,-0.001348922261968255,-0.0014017003122717142,0.0005497708916664124
1746575990405649000,5.69264892578125,-0.0012597062159329653,0.00009739305824041367,0.00037267105653882027
1746575990415614000,5.702614013671875,0.0003108873497694731,0.0003148149698972702,0.0016818181611597538
1746575990425578000,5.712577880859375,-0.0010033827275037766,0.0012370678596198559,-0.0005453834310173988
1746575990435541800,5.722541748046875,0.00015390804037451744,0.00022149179130792618,0.00026336265727877617
1746575990445506800,5.7325068359375,0.0002247481606900692,0.0008276272565126419,0.0001752120442688465
1746575990455470800,5.742470947265625,0.0009270226582884789,0.0006612585857510567,-0.00046899402514100075
1746575990465436000,5.752435791015625,-0.0004373148549348116,0.0005981419235467911,-0.00028390437364578247
1746575990475400000,5.76239990234375,-0.001495086820796132,0.00027577392756938934,0.0004494111053645611
1746575990485364000,5.772364013671875,0.0004871038254350424,0.00018895510584115982,-0.00011624442413449287
1746575990495329000,5.7823291015625,0.00009906687773764133,0.00032756244763731956,-0.0014866017736494541
1746575990505292800,5.792292724609375,-0.0005739140324294567,-0.0009411671198904514,0.0002588341012597084
1746575990515256800,5.8022568359375,-0.00019165105186402798,0.0006276322528719902,-0.00040756864473223686
1746575990525222000,5.812221923828125,0.0013471234124153852,-0.0002562711015343666,-0.0006565740332007408
1746575990535186000,5.82218603515625,-0.0001283430028706789,0.0009453464299440384,0.00021439092233777046
1746575990545149700,5.832149658203125,-0.00032062316313385963,0.0008547990582883358,0.0003992142155766487
1746575990555115000,5.842114990234375,0.0006726370193064213,0.00006328662857413292,-0.0007387939840555191
1746575990565079000,5.8520791015625,0.0009733079932630062,0.00012533832341432571,0.0011384682729840279
1746575990575043800,5.8620439453125,-0.0010584746487438679,-0.0006578285247087479,0.0006796461530029774
1746575990585007900,5.8720078125,-0.0012198621407151222,0.0007328740321099758,-0.00031318049877882004
1746575990594972000,5.881971923828125,0.0005208093207329512,-0.0010813348926603794,-0.0005072834901511669
1746575990604937000,5.89193701171875,-0.0016725698951631784,0.00014292029663920403,-0.00007105758413672447
1746575990614900700,5.901900634765625,-0.00025184499099850655,-0.0023273536935448647,-0.0009594312869012356
1746575990624864800,5.91186474609375,-0.0005184272304177284,-0.0011009681038558483,9.047798812389374e-7
1746575990634830000,5.921830078125,-0.0016412511467933655,0.0009796414524316788,0.00043726665899157524
1746575990644794000,5.931794189453125,0.00020165625028312206,0.0010853689163923264,0.00021835509687662125
1746575990654758000,5.9417578125,-0.000565241789445281,-0.0003225710242986679,0.0011654645204544067
1746575990664723000,5.951722900390625,0.0010164096020162106,0.00043057091534137726,0.000022436026483774185
1746575990674687000,5.96168701171875,-0.0031370408833026886,0.0002571074292063713,0.000950915738940239
1746575990684651800,5.97165185546875,-0.000967896543443203,0.0018648579716682434,0.00007739895954728127
1746575990694615800,5.98161572265625,-0.0002233560662716627,-0.0006703482940793037,-0.000007845927029848099
1746575990704579800,5.991579833984375,-0.0011916812509298325,0.0002697473391890526,-0.0009311642497777939
1746575990714545000,6.001544921875,-0.00043432717211544514,0.0003906805068254471,0.00028021447360515594
1746575990724509000,6.011509033203125,0.0018317565554752946,-0.0013235961087048054,-0.00005347933620214462
1746575990734473000,6.021472900390625,-0.0009255746845155954,0.0006493683904409409,-0.0007884446531534195
1746575990744438000,6.03143798828125,-0.0004568586591631174,0.0003231312148272991,-0.000668868888169527
1746575990754402000,6.041402099609375,0.00012318999506533146,-0.0007773954421281815,-0.00005601206794381142
1746575990764365800,6.05136572265625,-0.00048188003711402416,0.0003485889174044132,0.000887545756995678
1746575990774331000,6.061330810546875,-0.00011323834769427776,0.0011362433433532715,0.0015857173129916191
1746575990784295000,6.071294921875,0.0006620078347623348,-0.0007293010130524635,-0.0000031245872378349304
1746575990794259700,6.081259765625,-0.0010949349962174892,0.0006446857005357742,0.0014618178829550743
1746575990804223700,6.0912236328125,-0.0005990546196699142,-0.0005761072970926762,-0.0004442068748176098
1746575990814188000,6.10118798828125,0.0013257423415780067,0.0004970962181687355,0.000624094158411026
1746575990824152800,6.11115283203125,0.0006029603537172079,0.0010331906378269196,-0.00035168789327144623
1746575990834116900,6.121116943359375,0.0007599578239023685,-0.00042145606130361557,0.0005426458083093166
1746575990844081000,6.131080810546875,-0.0005002499092370272,0.0009119887836277485,0.0007887217216193676
1746575990854046000,6.1410458984375,0.00027829338796436787,-0.00034913700073957443,0.00030025700107216835
1746575990864010000,6.151010009765625,-0.0002972157672047615,-0.0009491471573710442,-0.000655018724501133
1746575990873973800,6.160973876953125,0.0008648552466183901,-0.00002553081139922142,0.0006630895659327507
1746575990883938800,6.170938720703125,0.0004541957750916481,0.001153450459241867,0.0007075639441609383
1746575990893902800,6.18090283203125,-0.001374948536977172,-0.0006232690066099167,0.0006603104993700981
1746575990903868000,6.190867919921875,0.0006277486681938171,-0.0000440315343439579,0.00146964518353343
1746575990913832000,6.20083203125,0.0018938411958515644,0.001019944902509451,0.0007539377547800541
1746575990923796000,6.2107958984375,0.0023130227345973253,-0.0008836826309561729,0.0002612532116472721
1746575990933760800,6.2207607421875,-0.00034088781103491783,-0.00016876403242349625,-0.00039075734093785286
1746575990943724800,6.230724853515625,-0.0008365018293261528,0.00028210924938321114,-0.000033360905945301056
1746575990953688800,6.240688720703125,0.00032434286549687386,0.0002434900961816311,0.00035741832107305527
1746575990963654000,6.25065380859375,-0.0003454419784247875,-0.0007016654126346111,-0.0004702918231487274
1746575990973618000,6.260617919921875,-0.00043900287710130215,0.000507105141878128,0.00014166347682476044
1746575990983581700,6.270581787109375,-0.0006286196876317263,0.000004566740244626999,0.0006513921543955803
1746575990993547000,6.280547119140625,-0.0012822614517062902,-0.0011391877196729183,-0.0007095728069543839
1746575991003511000,6.290510986328125,0.0003372065257281065,-0.0004198681563138962,-0.0002525746822357178
1746575991013475800,6.300475830078125,-0.001730459276586771,0.0009387931786477566,0.0009366367012262344
1746575991023440000,6.31043994140625,-0.0010542823001742363,-0.00016295630484819412,-0.00007429905235767365
1746575991033404000,6.32040380859375,-0.0008300046902149916,-0.00046415533870458603,0.00013846484944224358
1746575991043368700,6.33036865234375,-0.000401768134906888,-0.0006614956073462963,-0.0008016307838261127
1746575991053332700,6.340332763671875,0.0009017696138471365,-0.0007412894628942013,-0.0013338597491383553
1746575991063296800,6.350296875,0.0002743287477642298,-0.0005237092263996601,0.0005860133096575737
1746575991073262000,6.360261962890625,-0.0007174706552177668,-0.0005962732248008251,-0.001428972464054823
1746575991083225900,6.370225830078125,-0.0010197393130511045,0.0004988186992704868,0.0001271124929189682
1746575991093190000,6.38018994140625,-0.000499386340379715,0.0009056674316525459,0.000777202658355236
1746575991103155000,6.390155029296875,-0.000716167502105236,-0.0005726534873247147,0.0003492329269647598
1746575991113119000,6.400118896484375,0.0016793974209576845,-0.00022616703063249588,0.0009412243962287903
1746575991123083800,6.410083740234375,0.001662353053689003,-0.0005244407802820206,0.0011465540155768394
1746575991133047800,6.4200478515625,0.000964081147685647,0.0013790852390229702,-0.00016648275777697563
1746575991143011800,6.43001171875,0.0004309164360165596,-0.0006113615818321705,-0.0006280089728534222
1746575991152977000,6.439976806640625,-0.000788157107308507,0.0007965029217302799,-0.00025162938982248306
1746575991162941000,6.44994091796875,-0.0011255794670432806,0.0005096802487969398,0.0007507847622036934
1746575991172905000,6.459905029296875,0.00029286276549100876,-0.0005231713876128197,0.0001368238590657711
1746575991182870000,6.4698701171875,0.0008875466883182526,0.000013189390301704407,0.0008865040726959705
1746575991192833800,6.479833740234375,-0.0005361400544643402,-0.00027167145162820816,-0.0014638225547969341
1746575991202797800,6.4897978515625,-0.0005278843455016613,-0.00003731343895196915,0.00010930700227618217
1746575991212763000,6.499762939453125,-0.0008922615088522434,-0.00072070537135005,-0.0010524909012019634
1746575991222727000,6.509726806640625,0.0007873943541198969,-0.0005159084685146809,0.0010447483509778976
1746575991232692000,6.51969189453125,0.0021365396678447723,0.00008657015860080719,-0.0008014985360205173
1746575991242656000,6.529656005859375,-0.00017748097889125347,0.0011084247380495071,0.00007308367639780045
1746575991252620000,6.5396201171875,-0.001619500806555152,0.0006406358443200588,-0.0006420505233108997
1746575991262584800,6.549584716796875,-0.00077980593778193,0.0007231938652694225,0.0009843423031270504
1746575991272548900,6.559548828125,0.0000620759092271328,0.0008410150185227394,-0.000329003669321537
1746575991282513000,6.569512939453125,0.0004908449482172728,0.0002748267725110054,0.0005929823964834213
1746575991292478000,6.57947802734375,0.0001354338601231575,-0.00005601905286312103,-0.0000036619603633880615
1746575991302442000,6.58944189453125,0.0004736552946269512,0.0001447834074497223,-0.002131260931491852
1746575991312406000,6.599406005859375,0.00019080773927271366,-0.0008378899656236172,-0.0008335118182003498
1746575991322371000,6.60937109375,-0.0006020152941346169,0.0009408355690538883,-0.000037492718547582626
1746575991332335000,6.619335205078125,-0.000976629089564085,-0.00022066477686166763,-0.00037838704884052277
1746575991342300000,6.6292998046875,-0.000967307947576046,0.0011162422597408295,0.0012232381850481033
1746575991352264000,6.639263916015625,-0.00105673773214221,-0.00019074510782957077,-0.00027857907116413116
1746575991362228000,6.64922802734375,0.0013827176298946142,-0.00039207981899380684,0.000206648837774992
1746575991372192800,6.65919287109375,0.0008263862691819668,0.0006795483641326427,0.0006164726801216602
1746575991382157000,6.669156982421875,0.000637035584077239,0.0007890043780207634,0.00029076822102069855
1746575991392121000,6.67912109375,-0.000029738061130046844,-0.0007357588037848473,0.0002556433901190758
1746575991402086100,6.689086181640625,0.0007263333536684513,0.000026437919586896896,0.00014778552576899529
1746575991412050000,6.6990498046875,-0.0013774577528238297,-0.00021824054419994354,-0.00035450514405965805
1746575991422014000,6.709013916015625,-0.00012390804477036,0.0006579393520951271,-0.00022960267961025238
1746575991431979000,6.71897900390625,-0.0015798553358763456,0.0005037821829319,-0.00003639422357082367
1746575991441943000,6.728943115234375,0.0012225888203829527,0.00007820874452590942,-0.0014803600497543812
1746575991451907800,6.738907958984375,0.0006556999869644642,-0.0004596416838467121,0.0028505586087703705
1746575991461871900,6.748871826171875,-0.001062305411323905,0.0004293215461075306,-0.0007404475472867489
1746575991471836200,6.758836181640625,0.002519767265766859,0.0006768819876015186,0.00040452834218740463
1746575991481801000,6.768801025390625,0.0012393193319439888,-0.000046432483941316605,0.0005265013314783573
1746575991491765000,6.778764892578125,0.0002085419837385416,-0.00004754913970828056,-0.0007976638153195381
1746575991501729000,6.78872900390625,-0.0018250476568937302,0.00008267909288406372,-0.002237102948129177
1746575991511694000,6.798694091796875,-0.0009396029636263847,-0.0010530119761824608,0.0008260132744908333
1746575991521657900,6.808657958984375,-0.0013087168335914612,0.0014085476286709309,-0.0004222104325890541
1746575991531622000,6.818621826171875,0.0006034383550286293,0.0011895676143467426,0.0012074648402631283
1746575991541587000,6.8285869140625,-0.0002146849874407053,-0.00032044481486082077,0.00037842290475964546
1746575991551551000,6.838551025390625,0.001499462639912963,-0.00026088301092386246,0.000005209352821111679
1746575991561516000,6.84851611328125,0.0005750793498009443,0.00012900400906801224,0.00004329252988100052
1746575991571480000,6.85847998046875,0.0003927953075617552,0.0014886478893458843,-0.0004755081608891487
1746575991581444000,6.868444091796875,0.0007070484571158886,0.00023136939853429794,0.00004407437518239021
1746575991591409000,6.878408935546875,-0.0002179676666855812,-0.000445700716227293,-0.001309470273554325
1746575991601373000,6.888373046875,-0.0018574097193777561,0.00010823644697666168,-0.00014700042083859444
1746575991611337000,6.8983369140625,-0.0005010273307561874,-0.001342227216809988,-0.0004945923574268818
1746575991621302000,6.908302001953125,-0.0014744126237928867,0.0007129339501261711,-0.0013800933957099915
1746575991631265800,6.918265869140625,0.0017424928955733776,0.0003647175617516041,0.00012638606131076813
1746575991641229800,6.928229736328125,0.00024366588331758976,0.0010273121297359467,-0.00008560158312320709
1746575991651195100,6.938195068359375,-0.00008988147601485252,-0.0010054847225546837,0.0010320749133825302
1746575991661159000,6.948158935546875,-0.0019154783803969622,-0.0005958904512226582,-0.000516020692884922
1746575991671124000,6.9581240234375,-0.0004706145264208317,-0.0009845467284321785,0.0010796543210744858
1746575991681088000,6.968087890625,0.0007347320206463337,-0.00011236174032092094,-0.0010002744384109974
1746575991691052000,6.978052001953125,0.0007609778549522161,0.0005262079648673534,-0.0009439759887754917
1746575991701016800,6.988016845703125,-0.0002318485639989376,-0.0009758146479725838,0.0006288872100412846
1746575991710980900,6.99798095703125,-0.00008020596578717232,-0.001196032389998436,-0.0005463645793497562
1746575991720945000,7.00794482421875,0.001577079063281417,-0.0008844421245157719,0.0007966673001646996
1746575991730910000,7.017909912109375,0.00015316135250031948,-0.0003889743238687515,-0.0003497060388326645
1746575991740874000,7.0278740234375,0.0007686179596930742,0.00012395065277814865,-0.0009292098693549633
1746575991750838000,7.037838134765625,0.0003290139138698578,0.000659172423183918,-0.0007591457106173038
1746575991760803000,7.047802978515625,0.0003822771832346916,0.0011518574319779873,0.0007460732012987137
1746575991770766800,7.057766845703125,0.00002771196886897087,-0.00041404692456126213,-0.0001557162031531334
1746575991780732000,7.06773193359375,0.0008764616213738918,0.00018862634897232056,0.0007819831371307373
1746575991790696000,7.077696044921875,-0.00120239844545722,0.00024903519079089165,-0.00009723613038659096
1746575991800660000,7.087659912109375,-0.00037708505988121033,0.0010671583004295826,0.0008860025554895401
1746575991810625000,7.097625,0.0002283796202391386,0.0006435601972043514,0.0005681486800312996
1746575991820589000,7.107589111328125,0.0007623434066772461,-0.0008411519229412079,-0.0003011072985827923
1746575991830553000,7.117552978515625,-0.0004332759417593479,-0.00025404710322618484,0.00013953214511275291
1746575991840518000,7.127517822265625,0.0004956347402185202,0.00032412493601441383,-0.00027352431789040565
1746575991850482000,7.13748193359375,-0.00009696069173514843,0.00010345596820116043,0.0012194090522825718
1746575991860447000,7.147447021484375,-0.0017103035934269428,0.0014238511212170124,0.00007451605051755905
1746575991870411000,7.157410888671875,-0.0007591471076011658,0.0009016315452754498,-0.00016274582594633102
1746575991880374800,7.167374755859375,-0.00044516054913401604,0.00022518867626786232,0.0007640342228114605
1746575991890340000,7.177340087890625,0.0012226433027535677,0.000705003272742033,-0.0006783865392208099
1746575991900304100,7.18730419921875,-0.0007299862336367369,-0.00025373464450240135,-0.00011619320139288902
1746575991910268200,7.19726806640625,0.001335970126092434,0.0006234091706573963,0.0012695672921836376
1746575991920233000,7.20723291015625,-0.0005223839543759823,0.0007477789185941219,-0.0010878629982471466
1746575991930197000,7.217197021484375,-0.0006519227754324675,0.00014942046254873276,-0.000038545578718185425
1746575991940161000,7.2271611328125,0.000049819936975836754,-0.0007350151427090168,-0.000014044344425201416
1746575991950125800,7.237125732421875,-0.00004386715590953827,-0.00038536544889211655,0.0004031308926641941
1746575991960089900,7.24708984375,-0.0009794356301426888,-0.0010274536907672882,-0.0010184645652770996
1746575991970055000,7.257054931640625,-0.001005721976980567,-0.00019646016880869865,0.00009468011558055878
1746575991980019200,7.267019287109375,-0.0016254393849521875,-0.0009155133739113808,-0.0010909591801464558
1746575991989983000,7.27698291015625,0.0009454726241528988,0.0007567275315523148,-0.0007712249644100666
1746575991999948000,7.286947998046875,-0.00019862130284309387,-0.00022917473688721657,-0.0005571069195866585
1746575992009912000,7.296912109375,0.00030790665186941624,-0.000764146912842989,0.001217713113874197
1746575992019876000,7.3068759765625,0.0007603776175528765,0.001384757924824953,-0.000075517687946558
1746575992029841000,7.3168408203125,0.0011002321261912584,-0.0005025030113756657,0.0005516852252185345
1746575992039805000,7.326804931640625,-0.00022841920144855976,0.00010309973731637001,0.0011732671409845352
1746575992049769000,7.33676904296875,-0.00005317362956702709,0.0017646332271397114,0.0005115927197039127
1746575992059733800,7.346733642578125,-0.0004403970669955015,0.0005558240227401257,-0.0005946843884885311
1746575992069697800,7.35669775390625,0.001543168444186449,0.0007338477298617363,0.0010262918658554554
1746575992079663000,7.3666630859375,0.0008398275822401047,0.00013943063095211983,-0.0006155469454824924
1746575992089627100,7.376627197265625,-0.00004694284871220589,-0.0012207189574837685,0.0003120056353509426
1746575992099591000,7.3865908203125,-0.0018038302659988403,0.001008879393339157,-0.0004600444808602333
1746575992109556000,7.396555908203125,-0.0003283591940999031,-0.0004877825267612934,-0.0014701480977237225
1746575992119520000,7.40652001953125,0.0010184014681726694,0.000249380711466074,0.00042096246033906937
1746575992129484000,7.416484130859375,-0.000021802261471748352,0.00009487057104706764,0.0008771112188696861
1746575992139448800,7.42644873046875,0.0007513135205954313,-0.0006159269250929356,0.0004624570719897747
1746575992149412900,7.436412841796875,0.00027611968107521534,-0.00010591559112071991,-0.0005204789340496063
1746575992159377000,7.446376953125,0.00025268387980759144,-0.0004947371780872345,0.00008539017289876938
1746575992169342000,7.456342041015625,-0.0007579764351248741,0.00020736316218972206,-0.0006458084098994732
1746575992179306000,7.466305908203125,-0.00023280084133148193,0.0008635660633444786,0.0005384995602071285
1746575992189271000,7.47627099609375,0.001242334023118019,-0.00023864302784204483,-0.0001382431946694851
1746575992199235000,7.486235107421875,-0.0015712953172624111,0.00037521542981266975,0.0001610959880053997
1746575992209198800,7.49619873046875,0.002015170408412814,0.0007282211445271969,-0.0012275720946490765
1746575992219164000,7.506163818359375,0.00031261146068573,0.0008722981438040733,-0.0005545914173126221
1746575992229128000,7.5161279296875,0.0002110474742949009,0.0011230874806642532,-0.0003449725918471813
1746575992239092000,7.526092041015625,-0.0003724507987499237,-0.001011969055980444,0.0002457164227962494
1746575992249057000,7.53605712890625,-0.0007119220681488514,0.00011858157813549042,-0.0016001067124307156
1746575992259021000,7.54602099609375,0.000056133605539798737,0.0006514801643788815,-0.0014078263193368912
1746575992268985000,7.555985107421875,-0.0005006720311939716,0.0007325545884668827,-0.0005142693407833576
1746575992278950000,7.565949951171875,0.0008191908709704876,0.00043081818148493767,0.0009744376875460148
1746575992288914000,7.575913818359375,0.000844720983877778,-0.0006664595566689968,0.0004522218368947506
1746575992298879700,7.585879638671875,0.00009956862777471542,0.0010603340342640877,-0.001215449534356594
1746575992308843500,7.595843505859375,0.0022945301607251167,0.0008879140950739384,-0.0002666688524186611
1746575992318807600,7.6058076171875,-0.0008557229302823544,-0.00039732735604047775,0.00033174315467476845
1746575992328772600,7.615772705078125,0.0008072613272815943,0.0006240908987820148,0.0003740093670785427
1746575992338736600,7.625736572265625,-7.417984306812286e-7,0.0002954569645226002,-0.0006374591030180454
1746575992348700400,7.635700439453125,-0.00040164776146411896,-0.0005775140598416328,-0.00038934359326958656
1746575992358665500,7.64566552734375,-0.0007425323128700256,0.0006693778559565544,-0.00034353742375969887
1746575992368629500,7.65562939453125,-0.0016417494043707848,0.0017087645828723907,0.0013173539191484451
1746575992378594300,7.66559423828125,-0.00017248326912522316,-0.00026277313008904457,0.000256882980465889
1746575992388558600,7.67555859375,-0.0020046839490532875,-0.00009439047425985336,-0.00016743317246437073
1746575992398522600,7.685522705078125,0.0016683479771018028,-0.001424906076863408,-0.0006257630884647369
1746575992408487700,7.69548779296875,-0.0006171879358589649,0.0003077280707657337,0.00028425781056284904
1746575992418451500,7.705451416015625,0.001968475291505456,0.00102172140032053,-0.00032773660495877266
1746575992428415500,7.71541552734375,0.00015973253175616264,0.000763479620218277,0.0003316751681268215
1746575992438380500,7.725380615234375,-0.0008251043036580086,0.0005032885819673538,-0.0010755392722785473
1746575992448344600,7.735344482421875,-0.00056478101760149,0.0002108067274093628,0.0010905992239713669
1746575992458308400,7.745308349609375,0.0010331158991903067,0.0005713985301554203,-0.00009823543950915337
1746575992468273400,7.7552734375,0.0005738511681556702,-0.00017112260684370995,0.0004967018030583858
1746575992478237700,7.76523779296875,-0.0003678426146507263,-0.00004116026684641838,-0.00030570896342396736
1746575992488202500,7.775202392578125,0.000855813967064023,0.00035495124757289886,0.0002633403055369854
1746575992498166500,7.78516650390625,-0.0006616553291678429,0.0004028882831335068,0.00018344586715102196
1746575992508130600,7.795130615234375,0.000893573509529233,-0.00025652768090367317,0.0007628938183188438
1746575992518095600,7.805095703125,0.0008512292988598347,0.0003253733739256859,-0.00110984081402421
1746575992528059400,7.815059326171875,0.00005724094808101654,0.0008984878659248352,0.0012807855382561684
1746575992538023400,7.8250234375,-0.00032865116372704506,0.001000487245619297,0.00017797062173485756
1746575992547988500,7.834988525390625,-0.00015650689601898193,0.0006188941188156605,0.0011327890679240227
1746575992557952500,7.844952392578125,0.0003990286495536566,0.0003097010776400566,-0.0004459330812096596
1746575992567917600,7.85491748046875,0.0002743916120380163,-0.0007056291215121746,0.00007813982665538788
1746575992577881600,7.864881591796875,0.000029646791517734528,-0.0008033672347664833,-0.001029469072818756
1746575992587845600,7.874845703125,0.00004141777753829956,-0.000052924733608961105,-0.0017448468133807182
1746575992597810400,7.884810546875,-0.0013037449680268764,0.0009353742934763432,0.000010975170880556107
1746575992607774500,7.8947744140625,-0.000004008878022432327,-0.000009568408131599426,0.00008462183177471161
1746575992617738500,7.904738525390625,0.0010055953171104193,0.0014780731871724129,0.0006782403215765953
1746575992627703600,7.91470361328125,0.0022123639937490225,-0.00002231355756521225,-0.00038481224328279495
1746575992637667300,7.924667236328125,-0.00012136390432715416,0.0006637168116867542,0.0003294474445283413
1746575992647631400,7.93463134765625,0.00026445905677974224,-0.0002632727846503258,0.0007312675006687641
1746575992657596700,7.9445966796875,-0.000072430819272995,-0.0008062915876507759,0.001347256824374199
1746575992667560700,7.954560791015625,0.000006061512976884842,-0.0003791786730289459,0.00037067849189043045
1746575992677525500,7.964525390625,-0.000060251448303461075,0.0003225640393793583,0.0005898564122617245
1746575992687489500,7.974489501953125,-0.0017317659221589565,0.0003514806739985943,0.0008187913335859776
1746575992697453600,7.98445361328125,-0.0001450548879802227,-0.001196614932268858,0.0006486154161393642
1746575992707418400,7.99441845703125,0.00009131478145718575,0.0010703927837312222,0.0016745259054005146
1746575992717382400,8.00438232421875,0.0016966683324426413,0.001346562523394823,-0.0008879676461219788
1746575992727346400,8.014346435546875,0.0015588190872222185,0.0002899062819778919,0.00026231491938233376
1746575992737311500,8.0243115234375,0.0005433557089418173,0.0013085650280117989,0.0020162726286798716
1746575992747275500,8.034275634765624,0.000950222834944725,0.0007265307940542698,0.0003038095310330391
1746575992757239600,8.044239501953125,-0.0014282464981079102,-0.0009355479851365089,0.00006039673462510109
1746575992767204600,8.05420458984375,0.0002823986578732729,0.0011987979523837566,-0.00034806644544005394
1746575992777168600,8.064168701171875,0.00001901201903820038,0.0006821444258093834,-0.00045086443424224854
1746575992787133400,8.074133544921875,0.00013926858082413673,-0.00005760416388511658,0.001052836887538433
1746575992797097500,8.084097412109376,-0.00021493202075362206,-0.001326866913586855,0.0003178040497004986
1746575992807061500,8.0940615234375,-0.0003060363233089447,0.00025746366009116173,-0.002095948439091444
1746575992817026600,8.104026611328125,-0.00043599866330623627,0.0002542678266763687,-0.0001590317115187645
1746575992826990600,8.113990478515625,-0.00040493952110409737,-0.0008832104504108429,-0.0015574228018522263
1746575992836954600,8.12395458984375,0.0014187933411449194,-0.00001315586268901825,-0.0008950945921242237
1746575992846919400,8.13391943359375,-0.0004816516302525997,-0.0002113734371960163,-0.00001920713111758232
1746575992856883500,8.143883544921875,-0.00003637094050645828,0.0012152818962931633,0.001008773222565651
1746575992866847500,8.153847412109375,0.00021411338821053505,-0.0005981903523206711,0.0015170443803071976
1746575992876812500,8.1638125,0.0003762997221201658,0.0011451146565377712,0.0001937197521328926
1746575992886776300,8.1737763671875,-0.0004683053120970726,-0.0008218293078243732,0.0013436977751553059
1746575992896741600,8.18374169921875,-0.0002461974509060383,0.00014116987586021423,-0.0007098657079041004
1746575992906705700,8.19370556640625,0.0002886001020669937,-0.000428974162787199,0.0005454844795167446
1746575992916669700,8.203669677734375,0.0013717077672481537,0.0009265746921300888,-0.0008356305770576
1746575992926634500,8.213634521484375,0.0002913882490247488,0.000014322344213724136,0.00008508935570716858
1746575992936598500,8.2235986328125,-0.0001123468391597271,0.00087692029774189,-0.0007958845235407352
1746575992946562600,8.2335625,-0.0004574982449412346,-0.00004322873428463936,0.0008380673825740814
1746575992956527400,8.24352734375,0.000953976996243,-0.00021447008475661278,-0.00012786127626895905
1746575992966491400,8.253491455078125,0.001534308074042201,-0.00015712948516011238,-0.0005730157718062401
1746575992976456400,8.26345654296875,-0.0001690494827926159,-0.0003651222214102745,0.0006248741410672665
1746575992986420700,8.273420654296874,0.00040248315781354904,-0.00063350610435009,0.00008497340604662895
1746575992996384500,8.283384521484376,-0.0001906026154756546,0.00027969200164079666,-0.00046070804819464684
1746575993006349600,8.293349609375,0.0026886477135121822,-0.0005092029459774494,0.0012648236006498337
1746575993016313600,8.303313720703125,-0.00026692822575569153,-0.0004487489350140095,-0.0003916625864803791
1746575993026277600,8.313277587890624,0.00036461465060710907,-0.0005554328672587872,-0.0016329940408468246
1746575993036242400,8.323242431640624,-0.000396782997995615,0.0006730831228196621,-0.00014828192070126534
1746575993046206500,8.33320654296875,-0.00023059966042637825,-0.001080010086297989,-0.0011901850812137127
1746575993056170500,8.34317041015625,-0.00026948191225528717,0.0012473263777792454,0.00028680404648184776
1746575993066135300,8.35313525390625,-0.0013626422733068466,-0.0009352429769933224,0.0012162155471742153
1746575993076099600,8.363099609375,0.0002637500874698162,-0.00008516199886798859,0.0000950247049331665
1746575993086064600,8.373064697265624,-0.000010781921446323395,-0.0011599366553127766,0.0006514959968626499
1746575993096028700,8.383028564453125,0.0005285083316266537,-0.00041345274075865746,0.00007066084071993828
1746575993105992400,8.392992431640625,-0.0003897617571055889,0.00020342087373137474,-0.0008842563256621361
1746575993115957500,8.40295751953125,-0.0006393003277480602,0.0005677412264049053,-0.0014911908656358719
1746575993125921500,8.412921630859374,-0.001247921958565712,-0.0012611937709152699,-0.0003810003399848938
1746575993135885600,8.422885498046876,0.0011009862646460533,-0.0006798258982598782,0.0003186119720339775
1746575993145850400,8.432850341796875,-0.000010500196367502213,-0.00019791396334767342,-0.0012423493899405003
1746575993155814400,8.442814453125,0.00024143466725945473,0.00023538246750831604,-0.00019546085968613625
1746575993165779700,8.45277978515625,0.0007388382218778133,-0.0010389024391770363,0.0011138557456433773
1746575993175743500,8.462743408203124,0.002121551427990198,0.0008032061159610748,0.0000935988500714302
1746575993185707500,8.47270751953125,-0.0007625953294336796,0.0002721371129155159,0.0008836654014885426
1746575993195672600,8.482672607421875,-0.00042304210364818573,-0.0007446575909852982,-0.0008934619836509228
1746575993205636600,8.49263671875,0.0028517753817141056,-0.0001119743101298809,-0.0000357823446393013
1746575993215600400,8.502600341796875,0.0006900876760482788,-0.0004725665785372257,0.0007242835126817226
1746575993225565400,8.5125654296875,-0.0005629789084196091,0.0006577880121767521,-0.001984303817152977
1746575993235529500,8.522529541015626,-0.0011760387569665909,-0.000043954700231552124,0.00031214021146297455
1746575993245493500,8.532493408203125,-0.0015300456434488297,0.0004698806442320347,-0.0008370787836611271
1746575993255458600,8.54245849609375,0.0008119381964206696,0.00047786999493837357,0.00009902240708470345
1746575993265422600,8.552422607421875,0.0002362246159464121,0.0006389296613633633,-0.00043648621067404747
1746575993275387600,8.5623876953125,-0.000677772331982851,-0.00025216396898031235,0.00037950649857521057
1746575993285351400,8.572351318359376,-0.0018156575970351696,-0.00147208571434021,0.0009645326063036919
1746575993295315500,8.5823154296875,0.0012698809150606394,-0.0005487678572535515,0.0008659958839416504
1746575993305281000,8.592281005859375,-0.00045993924140930176,0.00007575610652565956,0.000400676392018795
1746575993315244800,8.602244873046875,-0.0002831052988767624,-0.0006243889220058918,-0.00011491170153021812
1746575993325208800,8.612208740234376,0.0002030965406447649,-0.0006489292718470097,-0.0014836094342172146
1746575993335174000,8.622173828125,0.001009501749649644,0.00024296343326568604,-0.0002862522378563881
1746575993345138000,8.632137939453125,0.001047089695930481,-0.00009262748062610626,-0.000562526285648346
1746575993355102700,8.642102783203125,0.000518186017870903,0.00040032388642430305,-0.0007319031283259392
1746575993365066800,8.652066650390625,-0.0007449893746525049,-0.00029902858659625053,0.0013877395540475845
1746575993375030800,8.66203076171875,0.000055290525779128075,-0.0013709510676562786,0.0003384542651474476
1746575993384995800,8.671995849609376,0.0007702906150370836,0.0009468505159020424,-0.0009259865619242191
1746575993394960000,8.6819599609375,0.00034072273410856724,0.00007173558697104454,0.0009379596449434757
1746575993404924000,8.691923828125,-0.0015332878101617098,-0.0009136227890849113,-0.0000029616057872772217
1746575993414889000,8.701888916015625,0.0002523616421967745,0.000334068201482296,-0.0007917899638414383
1746575993424852700,8.711852783203126,0.0013121094089001417,-0.0009523434564471245,-0.00009185215458273888
1746575993434816800,8.721816650390625,0.001249791355803609,-0.0008072014898061752,0.0006042979657649994
1746575993444781800,8.73178173828125,-0.0008238700684159994,0.0004761503078043461,0.0009590461850166321
1746575993454745900,8.741745849609375,0.0009282235987484455,-0.00035102758556604385,-0.0004537608474493027
1746575993464711000,8.7517109375,0.0011331501882523298,-0.0009362832643091679,-0.0002711396664381027
1746575993474675000,8.761675048828126,-0.000088441651314497,0.0005649407394230366,0.00022447435185313225
1746575993484639000,8.771638916015625,-0.0003174294251948595,-0.0009128027595579624,0.00037671253085136414
1746575993494603800,8.781603759765625,0.0002628734800964594,0.000776972621679306,-0.00018015457317233086
1746575993504567800,8.79156787109375,-0.0006623913068324327,0.00041111884638667107,0.000020578037947416306
1746575993514531800,8.80153173828125,0.0005173890385776758,-0.0007369699887931347,-0.00020179571583867073
1746575993524497000,8.811496826171876,0.0006748898886144161,0.00023795012384653091,0.0005665631033480167
1746575993534460700,8.821460693359375,0.0003710230812430382,0.000024897512048482895,-0.00018711155280470848
1746575993544424700,8.8314248046875,0.00040252995677292347,-0.00014899997040629387,-0.0004564998671412468
1746575993554390000,8.84139013671875,0.001187363639473915,-0.0001860181801021099,0.0007661576382815838
1746575993564354000,8.85135400390625,-0.0003955836873501539,-0.0004605427384376526,-0.0012091463431715965
1746575993574318800,8.86131884765625,-0.00033965730108320713,-0.0004687984474003315,0.00021298136562108994
1746575993584283000,8.871282958984375,0.0004252686630934477,0.00030110450461506844,-0.00010163569822907448
1746575993594247000,8.881246826171875,-0.00011721695773303509,-0.0003335266374051571,-0.001551993191242218
1746575993604211700,8.891211669921875,-0.0009724979754537344,0.0007177763618528843,-0.0008050682954490185
1746575993614175700,8.90117578125,0.0002192663960158825,-0.00011259736493229866,0.00031612254679203033
1746575993624139800,8.911139892578126,-0.0004875517915934324,0.0008901637047529221,0.0013093817979097366
1746575993634105000,8.92110498046875,0.000979050761088729,-0.0010659280233085155,0.0007900651544332504
1746575993644068900,8.93106884765625,-0.0012200702913105488,-0.00018768897280097008,-0.000820827204734087
1746575993654034000,8.941033935546875,0.0015480194706469774,0.0004842267371714115,0.001067886594682932
1746575993663998000,8.950998046875,0.00011791405268013477,0.0006554583087563515,-0.0006504366174340248
1746575993673962000,8.9609619140625,0.00004494353197515011,0.00010445062071084976,0.00014211982488632202
1746575993683926800,8.9709267578125,-0.0007051883731037378,-0.0011946451850235462,-0.00027539394795894623
1746575993693890800,8.980890869140625,-0.0010774980764836073,0.0014464114792644978,0.00012461282312870026
1746575993703854800,8.990854736328124,0.0004046324174851179,0.0009622359648346901,-0.0007061758078634739
1746575993713819600,9.000819580078126,0.00023578805848956108,-0.0007376600988209248,-0.0010646372102200985
1746575993723783700,9.01078369140625,-0.0005079854745417833,-0.0006188494153320789,-0.0009219753555953503
1746575993733748000,9.020748046875,0.0005650022067129612,0.000006993301212787628,-0.00042156782001256943
1746575993743713000,9.030713134765625,-0.0006153073627501726,0.0011253808625042439,-0.0014281985349953175
1746575993753676800,9.0406767578125,0.0002076092641800642,0.0006694477051496506,0.00047622760757803917
1746575993763641900,9.050641845703124,-0.0002692257985472679,0.0009246752597391605,-0.00024154921993613243
1746575993773606000,9.06060595703125,0.000533450860530138,0.0013222848065197468,-0.0004964135587215424
1746575993783570000,9.07056982421875,-0.0006839756388217211,-0.0001958310604095459,-0.000296873040497303
1746575993793534700,9.08053466796875,-0.0018491086084395647,0.0008089793846011162,-0.00031444989144802094
1746575993803498800,9.090498779296874,-0.0019117658957839012,0.0011051599867641926,-0.0006550867110490799
1746575993813462800,9.100462890625,0.0003796177916228771,-0.00203284271992743,-0.00025428086519241333
1746575993823427800,9.110427734375,-0.00009011337533593178,-0.0006643007509410381,-0.00045548100024461746
1746575993833391900,9.120391845703125,0.00074771698564291,-0.0002698865719139576,0.0006406758911907673
1746575993843357000,9.13035693359375,0.0010830380488187075,-0.00010342709720134735,-0.0006967969238758087
1746575993853321000,9.140321044921874,-0.0003902225289493799,0.0003602290526032448,0.0006315875798463821
1746575993863284700,9.15028466796875,0.000453948974609375,0.00010583456605672836,0.0010170619934797287
1746575993873249800,9.160249755859375,-0.0010147846769541502,0.00012234598398208618,0.002151568653061986
1746575993883213800,9.1702138671875,0.0009187459945678711,0.0009212424047291279,0.0006577842868864536
1746575993893177900,9.180177734375,-0.000015224562957882881,-0.0007746582850813866,-0.001100434921681881
1746575993903143000,9.190142822265624,-0.00012369826436042786,-0.0006477469578385353,-0.000882316380739212
1746575993913107000,9.20010693359375,0.0007468892727047205,0.0020897160284221172,-0.00001599034294486046
1746575993923071000,9.210071044921875,-0.0012442313600331545,-0.000910123810172081,-0.001248032320290804
1746575993933035800,9.220035888671875,-0.0011342426296323538,-0.0005356832407414913,0.000049726106226444244
1746575993942999800,9.229999755859374,0.0016587544232606888,-0.0015594572760164738,-0.00023743277415633202
1746575993952964900,9.23996484375,-0.0003106531221419573,0.00020462041720747948,-0.0006646034307777882
1746575993962929000,9.249928955078126,-0.0004684245213866234,0.0003446885384619236,-0.0014896215870976448
1746575993972892700,9.259892578125,0.002338547259569168,-0.0004404112696647644,0.00030721351504325867
1746575993982858000,9.26985791015625,0.0009982306510210037,0.00022130832076072693,0.0005495180375874043
1746575993992822000,9.279822021484375,-0.001204469706863165,0.0002625873312354088,-0.0010635587386786938
1746575994002786000,9.2897861328125,0.00019317143596708775,-0.0004308260977268219,-0.00024019461125135422
1746575994012750800,9.299750732421876,0.0000735956709831953,0.001202490646392107,-0.00008360063657164574
1746575994022715000,9.30971484375,0.000671513844281435,-0.0007294104434549809,0.00001783762127161026
1746575994032679700,9.3196796875,-0.00015166914090514183,-0.0004348647780716419,-0.0006548771634697914
1746575994042643700,9.329643798828124,-0.0005489601753652096,-0.001373213715851307,-0.0001759040169417858
1746575994052607700,9.339607666015626,0.0002981913276016712,0.0010617147199809551,-0.0003761737607419491
1746575994062573000,9.349572998046876,-0.00002157827839255333,0.00020610261708498,0.0006887158378958702
1746575994072536800,9.359536865234375,0.0006181129720062017,0.0008684308268129826,-0.0007624407298862934
1746575994082500900,9.3695009765625,0.0009896063711494207,0.00011133309453725815,-0.00037931883707642555
1746575994092466000,9.3794658203125,-0.00019203824922442436,-0.00013687368482351303,-0.0012006377801299095
1746575994102430000,9.389429931640626,-0.0005803699605166912,-0.0002022264525294304,8.111819624900818e-7
1746575994112394800,9.399394775390626,-0.0016269925981760025,-0.0006746714934706688,0.0009315861389040947
1746575994122358800,9.40935888671875,0.0008573199156671762,0.0005666567012667656,0.0005427352152764797
1746575994132322800,9.41932275390625,-0.001447912072762847,-0.00003788108006119728,-0.0004357104189693928
1746575994142287600,9.42928759765625,0.0009042916353791952,0.001314651221036911,-0.0004778355360031128
1746575994152252000,9.439251953125,0.00009096227586269379,-0.0004113432951271534,-0.000023766420781612396
1746575994162216000,9.4492158203125,-0.00022972607985138893,0.0002654646523296833,-0.00041118497028946877
1746575994172181000,9.459180908203125,-0.0019322847947478294,0.00048703979700803757,-0.000052457209676504135
1746575994182144800,9.469144775390625,0.00011247140355408192,-0.00017635105177760124,0.0004947083070874214
1746575994192109800,9.47910986328125,0.0012576307635754347,0.0006457665003836155,0.0004875175654888153
1746575994202073900,9.489073974609376,0.002203984884545207,0.00017737038433551788,0.0014658309519290924
1746575994212038000,9.499037841796875,0.000050552887842059135,0.0005203858017921448,-0.00017680693417787552
1746575994222002700,9.509002685546875,-0.00018401537090539932,-0.000045116525143384933,0.001048840582370758
1746575994231966700,9.518966796875,-0.0008551320061087608,-0.0009188996627926826,0.0013726809993386269
1746575994241931000,9.528930908203124,0.00015172874554991722,-0.0008355504833161831,0.0005721142515540123
1746575994251895800,9.538895751953126,0.0017203306779265404,-0.0009535285644233227,0.0004650549963116646
1746575994261859800,9.54885986328125,0.0006814864464104176,0.0005046720616519451,0.0027521385345607996
1746575994271824000,9.558823974609375,0.000569633673876524,0.0010463590733706951,-0.0002756090834736824
1746575994281789000,9.568788818359375,0.0004371493123471737,-0.00144876167178154,-0.0004449235275387764
1746575994291752700,9.578752685546876,-0.00042251916602253914,-0.0008026785217225552,0.0006136829033493996
1746575994301717000,9.588717041015625,0.00028812792152166367,-0.00005571870133280754,-0.0014243349432945251
1746575994311681000,9.598680908203125,-0.0003829889465123415,0.0005030124448239803,0.0005618506111204624
1746575994321645000,9.60864501953125,-0.0007054489105939865,-0.00008711731061339378,0.00011520460247993469
1746575994331609900,9.61860986328125,0.0009105571079999208,0.000015147961676120758,-0.0005282154306769371
1746575994341574000,9.628573974609376,0.0011327152606099844,-0.0006052064709365368,0.00027278950437903404
1746575994351538000,9.638537841796875,-0.00007396284490823746,0.002111750654876232,-0.0011717090383172035
1746575994361503000,9.6485029296875,0.00046015973202884197,-0.0009186780080199242,0.0019267199095338583
1746575994371466800,9.658466796875,0.0005552344955503941,-0.00019030366092920303,-0.0005670641548931599
1746575994381430800,9.6684306640625,-0.0003377434331923723,0.0010247784666717052,0.0021823700517416
1746575994391396000,9.67839599609375,0.001135783502832055,0.001338765025138855,-0.0008086259476840496
1746575994401360100,9.688360107421875,0.0031945935916155577,-0.0007950356230139732,0.0006725308485329151
1746575994411325000,9.698324951171875,-0.00035353563725948334,-0.0010530962608754635,-0.00043907249346375465
1746575994421289000,9.7082890625,-0.00021539302542805672,-0.0005610878579318523,-0.00011095777153968811
1746575994431253000,9.7182529296875,-0.0006372379139065742,0.0007209577597677708,0.0002706735394895077
1746575994441217800,9.7282177734375,-0.00021741585806012154,-0.0004920815117657185,-0.0002918546088039875
1746575994451181800,9.738181884765625,-0.0005345982499420643,0.0006450880318880081,-0.0009030499495565891
1746575994461145900,9.748145751953125,-0.0006050434894859791,0.0005487357266247272,0.00014753034338355064
1746575994471111200,9.758111083984375,0.001130272401496768,-0.0018920511938631535,0.000057782046496868134
1746575994481075000,9.768074951171876,-0.0003626409452408552,-0.0014727730304002762,0.00013063102960586548
1746575994491040000,9.7780400390625,-0.00013733725063502789,0.00010275281965732574,0.0003569996915757656
1746575994501004000,9.788004150390625,0.000488651217892766,0.0007872744463384151,0.00007957359775900841
1746575994510968000,9.797968017578125,-0.0001339958980679512,-0.0003751954063773155,0.0008087470196187496
1746575994520932900,9.807932861328124,-0.00012478255666792393,-0.001178316306322813,0.0010188110172748566
1746575994530897000,9.81789697265625,0.000733288237825036,0.0002241041511297226,-0.0001465883105993271
1746575994540861000,9.82786083984375,-0.0008841045200824738,0.00025980593636631966,-0.0006509697996079922
1746575994550826000,9.837825927734375,0.00033482443541288376,0.0007402403280138969,0.0004888628609478474
1746575994560790000,9.8477900390625,0.00010975333862006664,-0.0006846138276159763,-0.0014553223736584187
1746575994570754000,9.857754150390624,0.0003563622012734413,-0.0004920675419270992,0.00018598372116684914
1746575994580719000,9.867718994140626,-0.0019650463946163654,0.00015411432832479477,-0.0005250810645520687
1746575994590683000,9.877682861328125,-0.0005437172949314117,-0.00011965865269303322,0.000601169653236866
1746575994600648000,9.88764794921875,-0.00043778284452855587,-0.0006515979766845703,0.0007139677181839943
1746575994610612000,9.897612060546875,0.00035983393900096416,0.0010930388234555721,-0.0007544993422925472
1746575994620576000,9.907575927734374,-0.000020320294424891472,0.0003478489816188812,0.0006616096943616867
1746575994630541000,9.917541015625,0.001483300467953086,-0.000664418563246727,0.0009297900833189487
1746575994640505000,9.927505126953125,0.00045979092828929424,-0.0003810427151620388,-0.0014567882753908634
1746575994650469000,9.93746923828125,-0.001730925403535366,0.00021550524979829788,-0.0002397238276898861
1746575994660434000,9.947433837890625,0.0019116924377158284,0.0002515232190489769,-0.0013696826063096523
1746575994670398000,9.95739794921875,-0.0005293611902743578,0.0016755154356360435,-0.0004703332670032978
1746575994680363000,9.967363037109376,0.0020096171647310257,-0.0011871675960719585,0.0005752746947109699
1746575994690327000,9.9773271484375,0.0008468811865895987,0.0004466818645596504,0.0011712899431586266
1746575994700290800,9.987290771484375,-0.00014031981118023396,-0.00032278383150696754,0.0002942308783531189
1746575994710255900,9.997255859375,-0.00023885699920356274,0.00011796923354268074,-0.0011175107210874557
1746575994720220200,10.00722021484375,-0.0016874326393008232,-0.00085826450958848,-0.0006149862892925739
1746575994730184200,10.01718408203125,0.0007184669375419617,0.0002434849739074707,0.0005919584073126316
1746575994740149000,10.02714892578125,0.000011689960956573486,-0.00014434149488806725,-0.0013263593427836895
1746575994750113000,10.037113037109375,0.0014511286281049252,0.002161689568310976,0.00019031064584851265
1746575994760078000,10.047078125,-0.000930440379306674,-0.0004661199636757374,-0.00034079188480973244
1746575994770041900,10.057041748046874,0.0012687982525676489,0.0014684004709124565,-0.0004859338514506817
1746575994780006000,10.067005859375,0.0019140051444992423,-0.0001997174695134163,0.0012284344993531704
1746575994789971000,10.076970947265625,0.0009675177279859781,0.00046980148181319237,0.0005799545906484127
1746575994799935000,10.08693505859375,0.0006398234982043505,0.0009626639075577259,0.0006210561841726303
1746575994809899000,10.09689892578125,0.00018016202375292778,0.0010449555702507496,0.00036991992965340614
1746575994819864000,10.106864013671874,0.000349460169672966,0.0006270282901823521,0.00005113985389471054
1746575994829828000,10.116828125,0.000489542493596673,0.0004169046878814697,-0.0006593912839889526
1746575994839793000,10.12679296875,-0.00015439721755683422,0.0003874916583299637,0.0004953141324222088
1746575994849757000,10.1367568359375,-0.0012540167663246393,-0.0006870939396321774,0.00036961259320378304
1746575994859721000,10.146720947265624,-0.0012957798317074776,0.002046024426817894,-0.001014907844364643
1746575994869686000,10.15668603515625,-0.0008401130326092243,-0.0003015520051121712,0.0003518261946737766
1746575994879649800,10.16664990234375,-0.0000020882580429315567,0.00029321108013391495,0.00015038670971989632
1746575994889613800,10.17661376953125,-0.0005104858428239822,0.000512921717017889,-0.0005867760628461838
1746575994899579100,10.1865791015625,0.001235604751855135,0.0008217468857765198,-0.00038466136902570724
1746575994909543000,10.19654296875,-0.000361492857336998,-0.0007471209391951561,0.00042866775766015053
1746575994919507000,10.2065068359375,0.00008958950638771057,0.00014047138392925262,-0.0007969718426465988
1746575994929472000,10.216471923828125,-0.00010056048631668091,-0.0005189273506402969,-0.0013650241307914257
1746575994939436000,10.22643603515625,0.0005424590781331062,-0.00016701733693480492,0.0010233488865196705
1746575994949400800,10.23640087890625,0.0003158240579068661,0.0007238099351525307,0.0010361322201788425
1746575994959364900,10.24636474609375,-0.0005554079543799162,0.00035860389471054077,0.000580525491386652
1746575994969329000,10.256328857421876,0.00037669832818210125,0.0005266494117677212,0.0006468384526669979
1746575994979294000,10.2662939453125,-0.00036113010719418526,0.0001510060392320156,0.00016961153596639633
1746575994989258000,10.276258056640625,-0.000668724998831749,0.0010769874788820744,0.00008652079850435257
1746575994999222000,10.286221923828125,-0.0015692994929850101,-0.00021998444572091103,-0.0008115316741168499
1746575995009187000,10.29618701171875,-0.0004305317997932434,-0.00027218228206038475,-0.00042910175397992134
1746575995019150800,10.30615087890625,0.00015165354125201702,0.0011870437301695347,0.001634297426789999
1746575995029116000,10.316115966796875,-0.000265397597104311,-0.0007203123532235622,-0.0015074335969984531
1746575995039080000,10.326079833984375,-0.0007096577901393175,0.0008472097106277943,-0.0005224659107625484
1746575995049044000,10.3360439453125,-0.0012124625500291586,-0.0006188605912029743,-0.0005666743963956833
1746575995059009000,10.346009033203124,0.002312758471816778,0.0006797323003411293,-0.0013240901753306389
1746575995068973000,10.35597314453125,-0.00012403400614857674,-0.00020496966317296028,0.00015343166887760162
1746575995078937000,10.36593701171875,-0.00022157281637191772,0.0014369725249707699,0.0006164973601698875
1746575995088902000,10.37590185546875,0.00024794251658022404,-0.0007207202725112438,0.0006897342391312122
1746575995098866000,10.385865966796874,-0.0005931402556598186,0.00003517651930451393,0.0012907078489661217
1746575995108831000,10.3958310546875,0.000994636444374919,0.0005835210904479027,-0.0013444898650050163
1746575995118795000,10.405794921875,0.002271596807986498,-0.00028469832614064217,0.0013385624624788761
1746575995128758800,10.4157587890625,0.0016713202930986881,-0.0006974884308874607,0.0009606601670384407
1746575995138724000,10.42572412109375,-0.000814550556242466,0.00044620456174016,-0.00003341911360621452
1746575995148688100,10.435688232421874,0.001491747098043561,-0.0014779295306652784,0.001082711387425661
1746575995158652200,10.445652099609376,0.0003744924906641245,-0.00031392183154821396,0.0001829727552831173
1746575995168617000,10.455616943359376,0.0007601182442158461,0.0006144559010863304,-0.0000018510036170482635
1746575995178581000,10.4655810546875,0.0007641252595931292,-0.0007142107933759689,0.0007973606698215008
1746575995188545000,10.475544921875,0.00043229549191892147,-0.0003786524757742882,0.0005632690154016018
1746575995198509800,10.485509765625,-0.0000574400182813406,-0.0005542775616049767,0.001882409444078803
1746575995208473900,10.495473876953126,-0.0007250944618135691,0.001097681000828743,0.00093831866979599
1746575995218439000,10.50543896484375,-0.000475497217848897,0.000003293156623840332,-0.0006997180171310902
1746575995228403200,10.5154033203125,0.0015655492898076773,0.0000477680005133152,-0.0003140922635793686
1746575995238367000,10.525366943359375,-0.00012654950842261314,0.0002043209969997406,-0.00005922699347138405
1746575995248332000,10.53533203125,0.0001549464650452137,-0.0010486962273716927,0.0012273462489247322
1746575995258296000,10.545296142578126,0.0011179875582456589,-0.0008450248278677464,0.000720140989869833
1746575995268260000,10.555260009765625,-0.0008562139701098204,-0.0005323700606822968,0.0013308040797710419
1746575995278225000,10.565224853515625,0.0006488861981779337,-0.000002575572580099106,0.0003552674315869808
1746575995288189000,10.57518896484375,-0.000016903970390558243,-0.0007069818675518036,-0.0007251766510307789
1746575995298154000,10.585154052734374,0.0000040763989090919495,0.0007701003924012184,0.000403581652790308
1746575995308118300,10.5951181640625,0.0020637651905417442,0.0008292226120829582,-0.0002896394580602646
1746575995318082300,10.605082275390625,0.0005794530734419823,-0.001296522095799446,0.0009279279038310051
1746575995328047400,10.61504736328125,-0.000511910067871213,-0.001074148342013359,0.0001529483124613762
1746575995338011400,10.625011474609375,0.0006770652253180742,0.0004018903709948063,-0.0007287748157978058
1746575995347975200,10.63497509765625,0.0006672115996479988,0.0009513003751635551,0.00039587821811437607
1746575995357940200,10.644940185546876,0.0013834894634783268,0.0017160694114863873,0.0014899489469826221
1746575995367904300,10.654904296875,0.0005001190584152937,-0.00017770426347851753,-0.0002983640879392624
1746575995377869000,10.664869140625,-0.0003849240019917488,0.00046819867566227913,-0.0007170978933572769
1746575995387833000,10.6748330078125,0.0002276028972119093,0.001056490931659937,0.0004528290592133999
1746575995397797000,10.684797119140624,-0.0012113440316170454,0.0005748136900365353,0.0013249432668089867
1746575995407762200,10.69476220703125,-0.0005333030130714178,-0.0009149583056569099,-0.0007959981448948383
1746575995417726200,10.704726318359375,0.0016170479357242584,-0.00013693375512957573,-0.00045053940266370773
1746575995427690200,10.714690185546875,0.0008939998224377632,-0.00014652125537395477,-0.00006358232349157333
1746575995437655300,10.7246552734375,0.0015641115605831146,-0.00004229974001646042,-0.0008959248661994934
1746575995447619000,10.734619140625,-0.0005419161170721054,-0.000403424259275198,0.000611158087849617
1746575995457583000,10.7445830078125,-0.0006917989812791348,0.00024764565750956535,-0.0006492030806839466
1746575995467548200,10.754548095703125,0.0016515166498720646,0.0008364706300199032,-0.002373599912971258
1746575995477512200,10.76451220703125,-0.00004887441173195839,0.0003108386881649494,0.00042891642078757286
1746575995487477200,10.774477294921875,0.0001801573671400547,-0.00005907472223043442,-0.0006760293617844582
1746575995497441300,10.784441162109376,0.0006364744622260332,0.00039973482489585876,0.0014966153539717197
1746575995507405300,10.7944052734375,-0.000981928315013647,-0.00037204939872026443,-0.00020780786871910095
1746575995517370000,10.8043701171875,-0.0010207996238023043,-0.0006608148105442524,-0.0005136849358677864
1746575995527334100,10.814334228515625,0.00023860926739871502,-0.000009938143193721771,0.00046023307368159294
1746575995537298200,10.824298095703124,0.0004200018011033535,-0.0004082801751792431,-0.0002434179186820984
1746575995547263200,10.83426318359375,-0.0005680311005562544,-0.0011789989657700062,-0.0002109273336827755
1746575995557227000,10.84422705078125,0.000317796366289258,-0.0012629837729036808,-0.0008988077752292156
1746575995567192300,10.8541923828125,-0.000044659944251179695,0.0007618176750838757,0.00004315236583352089
1746575995577156400,10.86415625,0.0004563888069242239,0.0004449412226676941,0.0015503834001719952
1746575995587120400,10.874120361328124,0.0018753211479634047,-0.001166804227977991,-0.0009314166381955147
1746575995597085200,10.884085205078126,-0.0001797683071345091,0.0012028277851641178,-0.00003149034455418587
1746575995607049200,10.89404931640625,0.0015805810689926147,0.0009375768713653088,-0.00048529310151934624
1746575995617013200,10.90401318359375,0.0021619456820189953,-0.00045144930481910706,-0.000868460163474083
1746575995626978000,10.91397802734375,0.0003027929924428463,0.0005483012646436691,-0.0004862966015934944
1746575995636942000,10.923942138671874,0.0003182420041412115,0.0002466440200805664,-0.0001347125507891178
1746575995646907400,10.933907470703126,0.0009960164315998554,-0.000728339422494173,-0.000635653268545866
1746575995656871400,10.943871337890625,0.0003457358106970787,-0.0005185785703361034,0.00010240264236927032
1746575995666835200,10.953835205078125,0.0007188445888459682,-0.0003337548114359379,-0.0007599289529025555
1746575995676800300,10.96380029296875,0.0001391370315104723,-0.0004566204734146595,0.0004686973989009857
1746575995686764300,10.973764404296874,-0.0005958953406661749,-0.0004917741753160954,0.0007155723869800568
1746575995696728300,10.983728271484376,0.0006975552532821894,-0.0010696244426071644,0.0004367758519947529
1746575995706693000,10.993693115234375,0.00018835882656276226,0.0013373405672609806,-0.0002146330662071705
1746575995716657200,11.0036572265625,0.001257685711607337,0.0016288608312606812,0.0002895724028348923
1746575995726622500,11.01362255859375,0.0017016346100717783,0.0014935722574591637,0.001752979587763548
1746575995736586200,11.023586181640624,0.00043908110819756985,-0.0008554006926715374,0.00020075449720025063
1746575995746550300,11.03355029296875,-0.0013958369381725788,-0.00020186090841889381,-0.0003001862205564976
1746575995756515300,11.043515380859375,0.00032431655563414097,0.001446714624762535,0.0013930285349488258
1746575995766479400,11.053479248046875,0.00043670181185007095,-0.00003400305286049843,0.0002500000409781933
1746575995776443100,11.063443115234374,0.0007754582911729813,0.0009409538470208645,-0.00031725503504276276
1746575995786408200,11.073408203125,-0.000702862162142992,0.000781696755439043,-0.0006315079517662525
1746575995796372200,11.083372314453126,0.00030306424014270306,0.0013876105658710003,0.0011939015239477158
1746575995806337000,11.0933369140625,-0.0004910903517156839,-0.0010156258940696716,0.0003520762547850609
1746575995816301000,11.103301025390625,-0.000913162250071764,0.0010846331715583801,0.0005350001156330109
1746575995826265300,11.113265380859374,-0.00019277725368738174,0.0009173867292702198,0.0008665639907121658
1746575995836230400,11.12323046875,-0.00041528698056936264,0.00018593622371554375,0.0005640187300741673
1746575995846194200,11.133194091796875,-0.0012097079306840897,0.0006831483915448189,-0.0005585039034485817
1746575995856158200,11.143158203125,0.0008096848614513874,0.0004959884099662304,-0.0003143525682389736
1746575995866123300,11.153123291015625,0.00022618635557591915,0.000587068498134613,-0.00014337757602334023
1746575995876087300,11.16308740234375,-0.00003827409818768501,-0.0004909024573862553,-0.0005998886190354824
1746575995886052000,11.173052001953126,0.0008994247764348984,0.00008114473894238472,0.00003287848085165024
1746575995896016100,11.18301611328125,0.0007355476263910532,0.00021576182916760445,0.00046898331493139267
1746575995905980200,11.192980224609375,-0.0000037457793951034546,0.0003497190773487091,-0.0001925458200275898
1746575995915945200,11.2029453125,0.00036192662082612514,0.00005766889080405235,-0.0002974695526063442
1746575995925909200,11.2129091796875,-0.0012839066330343485,-0.0006038602441549301,0.00026046251878142357
1746575995935873300,11.222873291015626,0.0009208798874169588,0.0009838491678237915,0.000007080845534801483
1746575995945838300,11.23283837890625,0.0015094385016709566,0.0008120755665004253,-0.0005705589428544044
1746575995955802000,11.242802001953125,-0.00021096528507769108,-0.00015740236267447472,0.0012664119713008404
1746575995965766100,11.25276611328125,0.0007371201645582914,-0.0011765938252210617,0.0007902388460934162
1746575995975731200,11.262731201171874,-0.000942987622693181,-0.000014608260244131088,-0.0003176671452820301
1746575995985695200,11.2726953125,0.001948672579601407,0.0005036424845457077,-0.00030887871980667114
1746575995995660300,11.282660400390625,0.0015253364108502865,0.0013561765663325787,0.0005431864410638809
1746575996005624300,11.292624267578125,-0.0005769629497081041,0.0004320596344769001,-0.0017266259528696537
1746575996015588400,11.30258837890625,0.00014489074237644672,0.000894464086741209,-0.0017246529459953308
1746575996025553200,11.31255322265625,0.0003121374174952507,-0.00033831316977739334,0.000763006042689085
1746575996035517200,11.32251708984375,0.000682878540828824,0.0008694236166775227,0.001148243434727192
1746575996045481200,11.332481201171875,0.00038726767525076866,0.0009924615733325481,-0.000057369470596313477
1746575996055446300,11.3424462890625,-0.0004430508706718683,0.0006489437073469162,0.0005619153380393982
1746575996065410000,11.35241015625,0.000006224494427442551,-0.00002590147778391838,-0.0005837767384946346
1746575996075375400,11.362375244140624,0.00030373665504157543,-0.0010327347554266453,0.0007581524550914764
