time,seconds_elapsed,z,y,x
1746575958221476000,0.02647607421875,-0.00618327222764492,0.0031653116457164288,-0.007165312767028809
1746575958231555000,0.03655517578125,-0.0065885502845048904,0.002016387414187193,-0.010157963261008263
1746575958241633000,0.046633056640625,-0.0018467921763658524,0.0021820352412760258,-0.011512713506817818
1746575958251711200,0.056711181640625,-0.0017227702774107456,0.009652946144342422,-0.006607944145798683
1746575958261789200,0.0667890625,-0.0016593867912888527,0.0032730777747929096,0.0027868887409567833
1746575958271867100,0.0768671875,-0.002022168133407831,0.00018935883417725563,0.006564125884324312
1746575958281945000,0.086945068359375,0.0034479647874832153,-0.009140493348240852,0.010441155172884464
1746575958292023000,0.09702294921875,0.004238591529428959,0.0020678280852735043,0.013919069431722164
1746575958302101200,0.107101318359375,-0.0007439167238771915,0.007589093875139952,0.014167808927595615
1746575958312179200,0.11717919921875,-0.003029072191566229,0.005372390151023865,0.020075669512152672
1746575958322257200,0.127257080078125,0.0008540828712284565,-0.0034922074992209673,0.017756322398781776
1746575958332335000,0.137335205078125,0.004192948341369629,-0.007405414711683989,0.012138310819864273
1746575958342413000,0.1474130859375,0.00262035196647048,-0.008264283649623394,0.009125476703047752
1746575958352492000,0.157491943359375,-0.0018548239022493362,-0.010564455762505531,0.009394988417625427
1746575958362570000,0.167570068359375,-0.002700111363083124,-0.0026008058339357376,0.011542028747498989
1746575958372648000,0.17764794921875,-0.0024823732674121857,0.003568215761333704,0.012567992322146893
1746575958382726000,0.187725830078125,-0.0037740059196949005,0.0005963942967355251,0.006865630857646465
1746575958392803800,0.197803955078125,-0.0007151677273213863,-0.004160132259130478,-0.00449479091912508
1746575958402882000,0.207882080078125,0.002977837808430195,0.0001073167659342289,-0.01841513253748417
1746575958412960000,0.2179599609375,0.0034257271327078342,-0.006978517398238182,-0.02568417601287365
1746575958423038000,0.228037841796875,0.0054545230232179165,0.0006104260683059692,-0.018141837790608406
1746575958433116000,0.238115966796875,-0.00013151951134204865,-0.00004634913057088852,-0.007177797146141529
1746575958443193900,0.24819384765625,-0.0013158274814486504,-0.004604082554578781,-0.0016213778872042894
1746575958453272000,0.25827197265625,0.001181391067802906,0.007145336363464594,0.0053238701075315475
1746575958463350000,0.26835009765625,0.0013153478503227234,-0.0036678966134786606,0.0023786805104464293
1746575958473429000,0.278428955078125,0.004062174819409847,-0.0063283247873187065,-0.007069705054163933
1746575958483507000,0.2885068359375,0.007306171115487814,-0.005831378512084484,-0.01105539221316576
1746575958493585200,0.298585205078125,0.002967287553474307,-0.010107124224305153,-0.0028495872393250465
1746575958503663000,0.3086630859375,-0.001110544428229332,-0.011696765199303627,0.005110601428896189
1746575958513741000,0.318740966796875,-0.0009492523968219757,-0.004140879027545452,0.007236949168145657
1746575958523819000,0.328819091796875,0.0008744802325963974,0.007016167975962162,0.004728517960757017
1746575958533897000,0.33889697265625,-0.0012607881799340248,0.0030754515901207924,-0.0007981304079294205
1746575958543975200,0.34897509765625,0.0018228860571980476,-0.0012255539186298847,-0.00624163169413805
1746575958554053000,0.35905322265625,0.005797592923045158,-0.003950541839003563,-0.001055851229466498
1746575958564131000,0.369131103515625,0.0025080563500523567,0.0005637826398015022,0.0021218324545770884
1746575958574209000,0.379208984375,-0.003788236528635025,0.0029279873706400394,0.0028483830392360687
1746575958584287000,0.389286865234375,-0.005318222567439079,0.005507790949195623,0.00020253242109902203
1746575958594366000,0.399365966796875,-0.0022283075377345085,0.007360556628555059,0.0002572632220108062
1746575958604444000,0.40944384765625,-0.0022709183394908905,0.005011915694922209,-0.0011307763634249568
1746575958614521900,0.41952197265625,0.0004318561404943466,0.0018889713101089,-0.002380241407081485
1746575958624599800,0.429599853515625,0.003951489459723234,-0.0034282957203686237,-0.0019128563581034541
1746575958634678000,0.439677978515625,-0.0008939201943576336,-0.004370750393718481,-0.0076489825733006
1746575958644756000,0.449755859375,0.00252158404327929,-0.005257583223283291,-0.00326435430906713
1746575958654834000,0.459833984375,-0.0026257196441292763,-0.00031958799809217453,0.008642315864562988
1746575958664912000,0.469911865234375,-0.0038118911907076836,0.002593378070741892,0.01580781862139702
1746575958674989800,0.47998974609375,-0.001971278339624405,0.0020874906331300735,0.02129622921347618
1746575958685068000,0.490068115234375,-0.0003091995604336262,0.0017508668825030327,0.016149139031767845
1746575958695146000,0.50014599609375,-0.002125851809978485,-0.00028717517852783203,0.003159682499244809
1746575958705225000,0.510224853515625,-0.0009788279421627522,-0.0014336658641695976,-0.010389681905508041
1746575958715303000,0.520302978515625,0.003957810811698437,-0.0102399792522192,-0.01688319630920887
1746575958725381000,0.530381103515625,0.004179385956376791,-0.009854620322585106,-0.010975771583616734
1746575958735459000,0.540458984375,-0.005248134024441242,-0.004152142908424139,-0.004414896015077829
1746575958745537000,0.550537109375,-0.008389065973460674,0.0014455555938184261,-0.004247915931046009
1746575958755615000,0.560614990234375,-0.0035640052519738674,0.008698180317878723,-0.005881709046661854
1746575958765693000,0.57069287109375,0.0015319534577429295,-0.0008346051909029484,-0.00437169661745429
1746575958775771000,0.58077099609375,0.0030179619789123535,-0.0035819141194224358,-0.0026552830822765827
1746575958785849000,0.59084912109375,0.00298919971100986,-0.012462491169571877,-0.0005311459535732865
1746575958795927000,0.600927001953125,0.004030827898532152,-0.016459107398986816,0.003525897627696395
1746575958806005000,0.6110048828125,0.003655588487163186,-0.014261466450989246,0.012183567509055138
1746575958816084000,0.621083984375,0.0004669623449444771,-0.005496123805642128,0.01651519164443016
1746575958826162200,0.631162109375,0.0007503223605453968,0.0028664679266512394,0.015660850331187248
1746575958836240100,0.641240234375,0.0011991052888333797,0.0032798629254102707,0.013344409875571728
1746575958846318000,0.651318115234375,0.004581585992127657,-0.008226058445870876,0.0016398164443671703
1746575958856396000,0.66139599609375,0.0032942688558250666,-0.010788056999444962,-0.011647815816104412
1746575958866474000,0.671473876953125,0.004682308528572321,-0.004904335364699364,-0.01397781539708376
1746575958876552200,0.68155224609375,-0.00018238602206110954,0.008073362521827221,-0.012225019745528698
1746575958886630100,0.691630126953125,-0.0062525286339223385,0.017937446013092995,-0.010884650982916355
1746575958896708000,0.7017080078125,-0.011046307161450386,0.019898639991879463,-0.00894660409539938
1746575958906786000,0.7117861328125,-0.008645467460155487,0.009404454380273819,-0.01084996573626995
1746575958916864000,0.721864013671875,-0.002228211611509323,-0.0012600626796483994,-0.015300470404326916
1746575958926943000,0.73194287109375,0.004381221253424883,-0.00848362036049366,-0.016766007989645004
1746575958937017600,0.742017578125,0.00556877302005887,-0.005578227341175079,-0.00832728948444128
1746575958947095600,0.752095458984375,0.0026502145919948816,-0.005987555254250765,0.004244960844516754
1746575958957173500,0.762173583984375,-0.0022070095874369144,0.0016242945566773415,0.013876153156161308
1746575958967251500,0.77225146484375,-0.0029596188105642796,0.004219278693199158,0.0171292033046484
1746575958977329400,0.782329345703125,-0.001738839317113161,0.008645029738545418,0.015459435060620308
1746575958987407600,0.79240771484375,-0.003087996505200863,0.007314780261367559,0.010077719576656818
1746575958997485600,0.802485595703125,-0.00007328484207391739,0.0003600921481847763,0.00463684881106019
1746575959007563500,0.8125634765625,0.0037464872002601624,-0.006897021550685167,-0.000183739117346704
1746575959017641500,0.822641357421875,-0.0014128298498690128,-0.0012701102532446384,0.0010676875244826078
1746575959027719400,0.832719482421875,-0.0025955396704375744,-0.0018331022001802921,0.0011766108218580484
1746575959037797600,0.842797607421875,-0.004884032532572746,-0.0004432741552591324,0.0018594707362353802
1746575959047876600,0.852876708984375,-0.004193740896880627,-0.004488615319132805,0.0018405623268336058
1746575959057954600,0.86295458984375,-0.0026648608036339283,-0.009615539573132992,-0.006262081675231457
1746575959068032500,0.873032470703125,0.0014079115353524685,-0.008892757818102837,-0.010355892591178417
1746575959078110700,0.88311083984375,0.0033748128917068243,-0.0065416437573730946,-0.006507778074592352
1746575959088188700,0.893188720703125,0.002513546496629715,-0.004367172718048096,-0.00395593699067831
1746575959098266600,0.9032666015625,-0.0026615154929459095,0.002913032192736864,0.0008795809117145836
1746575959108344600,0.913344482421875,-0.002707055304199457,0.008445482701063156,0.0025637641083449125
1746575959118422500,0.923422607421875,-0.0009175608865916729,0.007162908092141151,-0.0023264617193490267
1746575959128500700,0.933500732421875,-0.00013698823750019073,-0.00224843667820096,-0.006742515601217747
1746575959138578700,0.94357861328125,0.004085132852196693,-0.004956301301717758,-0.010497516952455044
1746575959148656600,0.95365673828125,0.003518678480759263,-0.0077590118162333965,-0.00987300556153059
1746575959158735600,0.963735595703125,0.004310091957449913,-0.005481671076267958,-0.010083290748298168
1746575959168813800,0.973813720703125,0.0028813062235713005,-0.011624252423644066,-0.009853193536400795
1746575959178891800,0.983891845703125,0.0019729859195649624,-0.008692370727658272,-0.0015684865647926927
1746575959188969700,0.9939697265625,0.00013354048132896423,-0.003680301597341895,0.0019122649682685733
1746575959199047700,1.004047607421875,-0.0002492782659828663,-0.007248487323522568,-0.0027057763654738665
1746575959209125600,1.014125732421875,0.00285783177241683,-0.0062332903034985065,-0.01108008623123169
1746575959219203600,1.02420361328125,0.005322320852428675,-0.005872698035091162,-0.003937222063541412
1746575959229281500,1.034281494140625,0.0033417281229048967,-0.007080175448209047,0.004192343447357416
1746575959239359700,1.04435986328125,-0.002285649534314871,-0.00257011316716671,0.007299315184354782
1746575959249437700,1.054437744140625,-0.005073712673038244,0.0037434427067637444,0.004830565303564072
1746575959259515600,1.064515625,-0.001965302973985672,-0.0016995216719806194,-0.0022933820728212595
1746575959269593600,1.074593505859375,-0.00019323546439409256,-0.005643130280077457,-0.00642394507303834
1746575959279672600,1.084672607421875,0.002503105206415057,-0.007856142707169056,-0.008396169170737267
1746575959289750500,1.09475048828125,0.0027683561202138662,-0.005932541098445654,-0.0019326769979670644
1746575959299828500,1.104828369140625,-0.004667189903557301,-0.00028690602630376816,0.008539404720067978
1746575959309906700,1.11490673828125,-0.009000418707728386,-0.0008493657223880291,0.01576695777475834
1746575959319984600,1.124984619140625,-0.00759971234947443,0.0015871580690145493,0.016319958493113518
1746575959330062600,1.1350625,-0.0005623097531497478,0.0030822567641735077,0.011596577242016792
1746575959340140500,1.145140625,-0.00318924430757761,0.005973727907985449,0.0008903868729248643
1746575959350218500,1.155218505859375,-0.0011279573664069176,-0.000002937857061624527,-0.010712207295000553
1746575959360296400,1.16529638671875,0.00441250205039978,-0.0012179003097116947,-0.015486505813896656
1746575959370374700,1.175374755859375,0.0021376297809183598,0.005278881173580885,-0.015295557677745819
1746575959380452600,1.18545263671875,-0.00536871375516057,0.006817991845309734,-0.01638747751712799
1746575959390531600,1.195531494140625,-0.005737295839935541,0.004581469111144543,-0.005596347618848085
1746575959400609500,1.205609619140625,-0.0023544332943856716,0.005484551191329956,0.0008694104617461562
1746575959410687700,1.215687744140625,-0.004694019909948111,0.001309247687458992,0.005557905416935682
1746575959420765700,1.225765625,-0.0022082249633967876,-0.0015230244025588036,0.008861557580530643
1746575959430843600,1.23584375,0.00041658617556095123,-0.004872482270002365,0.009292456321418285
1746575959440921600,1.245921630859375,-0.0022661248221993446,0.00007388181984424591,0.015241006389260292
1746575959450999600,1.25599951171875,-0.001566778402775526,0.0004685623571276665,0.023934096097946167
1746575959461077800,1.266077880859375,-0.004984850063920021,0.012860815972089767,0.026861896738409996
1746575959471155700,1.27615576171875,-0.006066359579563141,0.011347873136401176,0.021020520478487015
1746575959481233700,1.286233642578125,-0.00231412285938859,0.003578559495508671,0.007818850688636303
1746575959491311600,1.2963115234375,-0.002608667593449354,-0.005012265406548977,-0.010238713584840298
1746575959501389600,1.3063896484375,0.0031031337566673756,-0.02062256447970867,-0.02219565585255623
1746575959511468500,1.316468505859375,0.011484900489449501,-0.019553305581212044,-0.027365384623408318
1746575959521546500,1.32654638671875,0.009954261593520641,-0.01782047189772129,-0.02478782832622528
1746575959531624400,1.33662451171875,0.005736880004405975,-0.01222170889377594,-0.023027213290333748
1746575959541702400,1.346702392578125,0.0034737184178084135,-0.005457358434796333,-0.006131037138402462
1746575959551780600,1.356780517578125,0.0015117675065994263,0.0033925925381481647,0.007171452511101961
1746575959561858600,1.366858642578125,-0.0037635662592947483,0.006232138257473707,0.02014622651040554
1746575959571936500,1.3769365234375,-0.006888785865157843,0.011357126757502556,0.02917088009417057
1746575959582014500,1.387014404296875,-0.00472284946590662,0.0181400366127491,0.023558301851153374
1746575959592092400,1.397092529296875,-0.005661614239215851,0.013350875116884708,0.018069259822368622
1746575959602170600,1.407170654296875,-0.005416759289801121,0.01037604920566082,0.004174370784312487
1746575959612248600,1.41724853515625,-0.001646256074309349,0.0026025488041341305,-0.00878750067204237
1746575959622326500,1.427326416015625,0.002355149481445551,-0.007561060134321451,-0.0197573434561491
1746575959632405500,1.437405517578125,0.001750611700117588,-0.011317981407046318,-0.024648772552609444
1746575959642483700,1.447483642578125,0.00552355358377099,-0.011169838719069958,-0.026877326890826225
1746575959652561700,1.457561767578125,0.001035328023135662,-0.007256589829921722,-0.02227378822863102
1746575959662639600,1.4676396484375,-0.0033015618100762367,0.00006935466080904007,-0.015349925495684147
1746575959672717600,1.477717529296875,-0.0030536213889718056,-0.0007676770910620689,-0.004350804258137941
1746575959682795500,1.48779541015625,-0.0010440610349178314,-0.0008801044896245003,0.010740604251623154
1746575959692873700,1.497873779296875,-0.004095511045306921,0.003978033550083637,0.018701858818531036
1746575959702951700,1.50795166015625,-0.002728933934122324,0.0035419994965195656,0.018389888107776642
1746575959713029600,1.518029541015625,-0.0025470401160418987,0.0030011115595698357,0.015023652464151382
1746575959723107600,1.528107666015625,-0.0011562895961105824,-0.002345034386962652,0.011521822772920132
1746575959733185500,1.538185546875,-0.0022415276616811752,-0.008512116968631744,0.004900138825178146
1746575959743263700,1.548263671875,-0.002489407081156969,-0.00927879847586155,-0.005493985954672098
1746575959753342700,1.5583427734375,0.0013426155783236027,-0.007521378807723522,-0.013355371542274952
1746575959763420700,1.568420654296875,0.0006328769959509373,-0.006463916972279549,-0.01815490424633026
1746575959773498600,1.57849853515625,0.0011724336072802544,-0.00457333866506815,-0.018781011924147606
1746575959783576600,1.58857666015625,0.0012890980578958988,-0.0023232600651681423,-0.01641644351184368
1746575959793654800,1.59865478515625,0.0018164035864174366,-0.0027490993961691856,-0.011845127679407597
1746575959803732700,1.608732666015625,0.0028249372262507677,-0.002779007889330387,-0.007314540445804596
1746575959813810700,1.618810791015625,0.0021761911921203136,-0.005352686624974012,-0.002042812993749976
1746575959823888600,1.628888671875,0.0010330528020858765,-0.007068486884236336,0.00570310465991497
1746575959833966600,1.638966552734375,0.0030948722269386053,-0.002172531560063362,0.014533082023262978
1746575959844044800,1.649044921875,0.0017147138714790344,-0.0022845761850476265,0.02127871662378311
1746575959854122800,1.659122802734375,-0.0007154205814003944,0.003485961351543665,0.016856003552675247
1746575959864200700,1.66920068359375,-0.001029075589030981,0.0008423659019172192,0.011633718386292458
1746575959874279400,1.679279541015625,0.0019070596899837255,0.0011267918162047863,-0.004256297834217548
1746575959884357600,1.689357666015625,0.0009651975706219673,0.0011380063369870186,-0.015830207616090775
1746575959894435600,1.699435546875,0.0037340859416872263,0.002284763380885124,-0.02248997427523136
1746575959904513500,1.709513427734375,0.0042314352467656136,-0.00421857088804245,-0.02266691066324711
1746575959914591500,1.719591552734375,0.005131583660840988,-0.004892084747552872,-0.017635401338338852
1746575959924669400,1.72966943359375,0.0019013469573110342,-0.0026776213198900223,-0.008006146177649498
1746575959934747600,1.73974755859375,0.0018954877741634846,-0.00020114798098802567,0.001048335456289351
1746575959944826400,1.749826416015625,-0.0020544035360217094,0.0022885664366185665,0.004108726512640715
1746575959954904300,1.759904296875,0.002978438511490822,0.0024401010014116764,0.00309619284234941
1746575959964982500,1.769982421875,-0.0003115828149020672,0.002732398919761181,0.010853941552340984
1746575959975060500,1.780060546875,-0.000315843615680933,0.006790523417294025,0.010382561944425106
1746575959985138400,1.790138427734375,-0.005349170416593552,0.0029850159771740437,0.013807347044348717
1746575959995217400,1.800217529296875,-0.001471607480198145,0.0016829962842166424,0.015860911458730698
1746575960005295400,1.81029541015625,-0.0028694337233901024,-0.0045811692252755165,0.011539308354258537
1746575960015373600,1.82037353515625,0.00014979206025600433,-0.003290867432951927,0.004333859775215387
1746575960025451500,1.830451416015625,0.0005318517796695232,0.003623652271926403,-0.0009383041760884225
1746575960035529500,1.840529541015625,0.002842676592990756,-0.0012161098420619965,-0.0022994456812739372
1746575960045607400,1.850607421875,0.002726011909544468,-0.002927429974079132,-0.002338009886443615
1746575960055685400,1.860685302734375,0.003472229465842247,0.003157094120979309,0.002669265493750572
1746575960065763600,1.870763671875,-0.0020930259488523006,0.0002785995602607727,0.010296599008142948
1746575960075841500,1.880841552734375,-0.004289867822080851,-0.00017227372154593468,0.009274477139115334
1746575960085919500,1.89091943359375,-0.0003961622714996338,0.0028367196209728718,0.005458264146000147
1746575960095997400,1.90099755859375,0.001591355074197054,-0.0007449653930962086,0.004611112643033266
1746575960106075400,1.911075439453125,0.0007012779824435711,0.0012517236173152924,0.00009336531365988776
1746575960116154400,1.921154296875,-0.0007088659331202507,0.0030986256897449493,0.0037802455481141806
1746575960126232300,1.931232421875,-0.0015718592330813408,0.0012901774607598782,0.004622234031558037
1746575960136310300,1.941310302734375,0.001159212552011013,-0.0062074195593595505,0.0033543030731379986
1746575960146388200,1.95138818359375,0.002493190113455057,-0.006520341150462627,0.003314089495688677
1746575960156466400,1.961466552734375,0.0024463185109198093,-0.007716367021203041,0.00368586671538651
1746575960166544400,1.97154443359375,0.007237195037305355,-0.004329888615757227,-0.0025045140646398067
1746575960176622300,1.981622314453125,0.00811017956584692,0.00043237628415226936,-0.005322671495378017
1746575960186700300,1.9917001953125,0.005880327429622412,-0.001688673160970211,0.004916616249829531
1746575960196778200,2.0017783203125,0.005077650770545006,0.0007696906104683876,0.011515663005411625
1746575960206856400,2.0118564453125,0.00007083360105752945,0.010579246096313,0.008364184759557247
1746575960216934400,2.021934326171875,-0.0015949737280607224,0.018444623798131943,0.0015685970429331064
1746575960227012400,2.032012451171875,0.0006880653090775013,0.012604625895619392,-0.0025230201426893473
1746575960237091300,2.04209130859375,0.00005742860957980156,0.0029658456332981586,-0.0021310029551386833
1746575960247169500,2.05216943359375,-0.0016603777185082436,0.0014527835883200169,-0.0017527439631521702
1746575960257247500,2.06224755859375,-0.0038170055486261845,0.005524225067347288,-0.004279817454516888
1746575960267325400,2.072325439453125,-0.0015831943601369858,0.004757083486765623,-0.005243042949587107
1746575960277403400,2.0824033203125,0.0006155115552246571,-0.002721605356782675,-0.0029804210644215345
1746575960287481300,2.0924814453125,0.001084132120013237,-0.008671939373016357,-0.0009986836230382323
1746575960297559600,2.1025595703125,0.0005256673321127892,-0.0030404184944927692,0.0014226625207811594
1746575960307637500,2.112637451171875,0.0008768700063228607,0.0055995541624724865,-0.0012364134890958667
1746575960317715500,2.122715576171875,-0.00011622253805398941,0.007488001603633165,0.0025093224830925465
1746575960327793400,2.13279345703125,0.0015788441523909569,0.005740178283303976,0.008372810669243336
1746575960337871400,2.142871337890625,-0.0018076314590871334,0.0058626835234463215,0.013369432650506496
1746575960347949600,2.152949462890625,-0.004208477679640055,0.0011493409983813763,0.016381219029426575
1746575960358028300,2.1630283203125,0.00019718986004590988,-0.0026038517244160175,0.014583584852516651
1746575960368106200,2.173106201171875,-0.0007028980180621147,-0.0023707826621830463,0.007094968110322952
1746575960378184200,2.18318408203125,0.00010989885777235031,-0.006473648361861706,-0.00032140244729816914
1746575960388262400,2.193262451171875,0.001165604218840599,-0.002917350735515356,-0.00896068662405014
1746575960398340400,2.20334033203125,0.002650849288329482,-0.0051482804119586945,-0.009788396768271923
1746575960408418300,2.213418212890625,0.0021455103997141123,-0.004076995886862278,-0.008196256123483181
1746575960418496300,2.223496337890625,0.00017956504598259926,-0.00040476303547620773,-0.008058303967118263
1746575960428574200,2.23357421875,0.0013368590734899044,0.005052848719060421,-0.01045315433293581
1746575960438652200,2.243652099609375,-0.0011539952829480171,0.01061486080288887,-0.006474125664681196
1746575960448730400,2.25373046875,-0.00020569795742630959,0.004340756684541702,-0.0003128458047285676
1746575960458808300,2.263808349609375,0.000725076999515295,0.002490125596523285,0.007849476300179958
1746575960468886300,2.27388623046875,0.00020214682444930077,-0.0015083393082022667,0.0164050180464983
1746575960478965200,2.28396533203125,-0.002137439791113138,-0.0019863764755427837,0.017027931287884712
1746575960489043500,2.29404345703125,-0.0012436285614967346,-0.002973115537315607,0.017931217327713966
1746575960499121400,2.304121337890625,0.0013633398339152336,-0.001976560801267624,0.014244338497519493
1746575960509199400,2.314199462890625,0.0031095196027308702,-0.006275664083659649,0.009172671474516392
1746575960519277300,2.32427734375,0.002025613095611334,0.0027196952141821384,0.004396824166178703
1746575960529355300,2.334355224609375,0.0012913667596876621,0.0040425946936011314,-0.006346333771944046
1746575960539433500,2.34443359375,0.0037332193460315466,0.003534996882081032,-0.0177390705794096
1746575960549511400,2.354511474609375,0.006012024823576212,0.0030515925027430058,-0.02370714209973812
1746575960559589400,2.36458935546875,0.0027118355501443148,-0.00007655657827854156,-0.02188687026500702
1746575960569667300,2.374667236328125,0.0014477972872555256,-0.001982693560421467,-0.01606510393321514
1746575960579745300,2.384745361328125,0.001396931242197752,-0.003370467107743025,-0.011991533450782299
1746575960589823500,2.394823486328125,0.00013301940634846687,-0.0018204553052783012,0.0026427346747368574
1746575960599902500,2.40490234375,-0.0023636939004063606,-0.0006049885414540768,0.007599410135298967
1746575960609980400,2.41498046875,-0.0011422913521528244,0.004165592137724161,0.013290290720760822
1746575960620058400,2.425058349609375,-0.0027559008449316025,0.005132319871336222,0.01624799706041813
1746575960630136600,2.435136474609375,-0.004377875477075577,0.005705508403480053,0.014475244097411633
1746575960640214500,2.445214599609375,-0.0026596039533615112,0.0002542836591601372,0.008420281112194061
1746575960650292500,2.45529248046875,0.001447632908821106,-0.004243338480591774,0.00048581231385469437
1746575960660370400,2.465370361328125,0.0008614710532128811,-0.0043906113132834435,-0.0075036706402897835
1746575960670448400,2.475448486328125,0.0005839294753968716,-0.001488903071731329,-0.010407557711005211
1746575960680526600,2.485526611328125,0.00016048690304160118,-0.0005152514204382896,-0.01055509690195322
1746575960690604500,2.4956044921875,0.000742653850466013,-0.00028329016640782356,-0.006994184572249651
1746575960700682500,2.5056826171875,0.0007999120280146599,-0.003632215317338705,-0.010776405222713947
1746575960710761200,2.51576123046875,0.0016431226395070553,-0.0041329264640808105,-0.008089865557849407
1746575960720839400,2.52583935546875,-0.001171572133898735,0.0003118892200291157,-0.0028447695076465607
1746575960730917400,2.53591748046875,-0.0024961684830486774,0.001278925221413374,0.0056008389219641685
1746575960740995300,2.545995361328125,-0.0015973513945937157,-0.0017999554984271526,0.012873666360974312
1746575960751073300,2.5560732421875,-0.005112312734127045,-0.0019094948656857014,0.015197686851024628
1746575960761151200,2.566151123046875,-0.004393791779875755,0.0033499817363917828,0.012255426496267319
1746575960771229400,2.5762294921875,-0.0014901948161423206,0.0004403283819556236,0.009879394434392452
1746575960781307400,2.586307373046875,0.0016291658394038677,-0.001804450061172247,-0.0026502455584704876
1746575960791385300,2.59638525390625,0.0050126020796597,-0.010099323466420174,-0.008677665144205093
1746575960801463300,2.60646337890625,0.004667189903557301,-0.010868177749216557,-0.002385147847235203
1746575960811541200,2.616541259765625,0.006798033136874437,-0.006269547156989574,-0.005751424003392458
1746575960821619500,2.626619384765625,0.004597463179379702,-0.007152118254452944,-0.008083021268248558
1746575960831698400,2.636698486328125,0.0038862070068717003,-0.008153267204761505,-0.009581422433257103
1746575960841776400,2.6467763671875,0.0043533253483474255,-0.007051517255604267,-0.010544688440859318
1746575960851854300,2.656854248046875,0.001154535450041294,-0.0007338221184909344,-0.005343976896256208
1746575960861932300,2.666932373046875,-0.004349153488874435,0.007667119149118662,-0.00620977021753788
1746575960872010500,2.677010498046875,-0.008397369645535946,0.007765885908156633,0.0012289147125557065
1746575960882088400,2.68708837890625,-0.0077512869611382484,0.004424683284014463,0.0009010796202346683
1746575960892166400,2.69716650390625,-0.003498484380543232,0.0019956142641603947,-0.004713929258286953
1746575960902244400,2.707244384765625,-0.0012300042435526848,0.005394607316702604,-0.008793892338871956
1746575960912322300,2.717322265625,0.002888682996854186,0.00028419215232133865,-0.0026881759986281395
1746575960922400500,2.727400390625,0.0015355311334133148,-0.004286590963602066,0.0016080356435850263
1746575960932478500,2.737478515625,-0.0022931057028472424,-0.0010640956461429596,0.0016414299607276917
1746575960942556200,2.74755615234375,-0.0038289506919682026,0.0039796652272343636,-0.0009980290196835995
1746575960952635400,2.757635498046875,-0.0009978311136364937,0.0025573126040399075,-0.005365814547985792
1746575960962713300,2.76771337890625,0.005113057792186737,-0.00515813147649169,-0.005176729988306761
1746575960972791300,2.777791259765625,0.0037158068735152483,-0.009548960253596306,-0.005590432323515415
1746575960982869200,2.787869140625,0.0020441405940800905,-0.001273720059543848,-0.0021120773162692785
1746575960992947500,2.797947509765625,0.0018994766287505627,0.0013990667648613453,0.0053016869351267815
1746575961003025400,2.808025390625,-0.0011325324885547161,0.00005843117833137512,0.014185992069542408
1746575961013103400,2.818103271484375,-0.0008080028928816319,-0.0028592534363269806,0.021169979125261307
1746575961023181300,2.828181396484375,-0.0015150723047554493,-0.002709583379328251,0.025785237550735474
1746575961033259300,2.83825927734375,-0.003742806613445282,-0.0018334034830331802,0.022001417353749275
1746575961043337500,2.84833740234375,-0.0013803164474666119,0.001562126912176609,0.009221706539392471
1746575961053415400,2.85841552734375,0.0005652992986142635,-0.00140059320256114,0.0007545145926997066
1746575961063493400,2.868493408203125,0.0014177775010466576,-0.008607905358076096,-0.00384716154076159
1746575961073572000,2.878572021484375,-0.0009605893865227699,-0.004116639494895935,-0.009206335991621017
1746575961083650000,2.888650146484375,0.0027899404522031546,0.0019979788921773434,-0.014435186050832272
1746575961093728300,2.898728271484375,0.0045963977463543415,0.0006773085333406925,-0.015651192516088486
1746575961103806200,2.90880615234375,0.0026597471442073584,0.004386825952678919,-0.009406878612935543
1746575961113884200,2.91888427734375,-0.00039366958662867546,-0.0003385334275662899,-0.003286837600171566
1746575961123962000,2.928962158203125,-0.004291472490876913,-0.005670714657753706,-0.004132924135774374
1746575961134040000,2.9390400390625,0.0005162237212061882,0.0029846341349184513,-0.012962521985173225
1746575961144118300,2.9491181640625,0.0057341549545526505,-0.00457608001306653,-0.016102921217679977
1746575961154196200,2.9591962890625,0.0022332726512104273,-0.010550424456596375,-0.00971624068915844
1746575961164274200,2.969274169921875,0.001082786824554205,-0.003395576262846589,-0.003278581891208887
1746575961174352100,2.97935205078125,-0.0016855145804584026,0.005228500813245773,-0.00044902993249706924
1746575961184430000,2.98943017578125,0.0010061422362923622,0.0070895180106163025,0.002762742340564728
1746575961194509300,2.99950927734375,0.0018919713329523802,0.00010169018059968948,0.002346949651837349
1746575961204587300,3.009587158203125,0.0030429894104599953,0.00025801779702305794,0.004468689672648907
1746575961214665200,3.019665283203125,0.0029271419625729322,-0.00020084483548998833,0.004456439055502415
1746575961224743200,3.0297431640625,-0.000623118132352829,-0.0038531040772795677,0.001639081398025155
1746575961234821400,3.0398212890625,0.0017494377680122852,-0.0016375822015106678,0.004857568070292473
1746575961244899300,3.0498994140625,-0.0001733647659420967,-0.0014397092163562775,0.007663208059966564
1746575961254977300,3.059977294921875,0.002673008479177952,-0.0015205605886876583,0.007877625524997711
1746575961265055200,3.07005517578125,-0.0003158571198582649,0.0030797841027379036,0.005558811593800783
1746575961275133200,3.08013330078125,-0.0010968460701406002,0.0034739351831376553,0.005275854375213385
1746575961285211400,3.09021142578125,0.0007636384107172489,0.0020584645681083202,0.005044425837695599
1746575961295289300,3.100289306640625,-0.001000870019197464,-0.0003294786438345909,0.007017464842647314
1746575961305368000,3.1103681640625,-0.003422216046601534,-0.00006209732964634895,0.0058736372739076614
1746575961315446000,3.120446044921875,-0.002487603574991226,0.0009287889115512371,0.00734278978779912
1746575961325524200,3.130524169921875,-0.0006348425522446632,-0.0018699266947805882,0.008877569809556007
1746575961335602200,3.140602294921875,0.00015621865168213844,-0.001025858335196972,0.007224183063954115
1746575961345680100,3.15068017578125,0.0006542298942804337,-0.0005329069681465626,0.0034978878684341908
1746575961355758000,3.160758056640625,0.0005689463578164577,0.0009922459721565247,0.002414319897070527
1746575961365836000,3.1708359375,-0.000028400681912899017,0.00007292255759239197,0.0013535830657929182
1746575961375914200,3.180914306640625,0.0019854737911373377,0.0008491571061313152,0.00012987600348424166
1746575961385992200,3.1909921875,-0.0009898096323013306,-0.002293372992426157,-0.003641426330432296
1746575961396070100,3.201070068359375,0.0009534051641821861,-0.0018649068661034107,-0.004056797828525305
1746575961406148000,3.211148193359375,0.000505195464938879,-0.00318503612652421,0.0014956265222281218
1746575961416226000,3.22122607421875,-0.0013102814555168152,0.00010130461305379868,0.00041784523637034
1746575961426305300,3.23130517578125,0.0008125239983201027,0.001650199294090271,0.0015603413339704275
1746575961436383200,3.24138330078125,0.0006157085299491882,-0.0014141108840703964,-0.00006017638952471316
1746575961446461200,3.251461181640625,0.0005328841507434845,-0.004101506434381008,0.0009723311522975564
1746575961456539100,3.2615390625,0.000803366769105196,-0.007833696901798248,-0.0018023353768512607
1746575961466617300,3.271617431640625,0.004208484664559364,-0.0048621417954564095,-0.0038580296095460653
1746575961476695300,3.2816953125,0.004619888495653868,-0.006209929473698139,0.0009610170964151621
1746575961486773200,3.291773193359375,0.002020909683778882,-0.00040343916043639183,0.0035120591055601835
1746575961496851200,3.301851318359375,0.00524975685402751,0.0019768914207816124,0.005619409028440714
1746575961506929200,3.31192919921875,0.0018648789264261723,-0.002376045100390911,0.007914520800113678
1746575961517007000,3.322007080078125,-0.0004759295843541622,0.004005345981568098,0.008408691734075546
1746575961527085300,3.332085205078125,-0.004057880956679583,0.013139454647898674,0.002746277954429388
1746575961537164300,3.342164306640625,-0.002968905959278345,0.014005325734615326,-0.003738800762221217
1746575961547242200,3.3522421875,-0.0008639437146484852,0.012316614389419556,-0.005292489193379879
1746575961557320200,3.3623203125,-0.0015620682388544083,0.003607621416449547,-0.0056111570447683334
1746575961567398400,3.3723984375,-0.005041487980633974,-0.0029727830551564693,0.001957014435902238
1746575961577476400,3.382476318359375,-0.006466287653893232,-0.0026769819669425488,-0.0033415958750993013
1746575961587554300,3.39255419921875,-0.0032824785448610783,-0.004944397136569023,-0.010411223396658897
1746575961597632300,3.40263232421875,0.0008252444677054882,-0.005655690096318722,-0.011686415411531925
1746575961607710200,3.412710205078125,0.002267346018925309,-0.0025637601502239704,-0.00786344800144434
1746575961617788400,3.422788330078125,0.00046783965080976486,-0.0006620730273425579,-0.0027003628201782703
1746575961627866400,3.432866455078125,-0.003017439041286707,0.0012133247219026089,0.0063791521824896336
1746575961637944300,3.4429443359375,-0.002318883780390024,0.00739752734079957,0.006747984793037176
1746575961648023000,3.45302294921875,-0.0035234312526881695,-0.00007077492773532867,0.006563960108906031
1746575961658101200,3.463101318359375,0.000979119911789894,-0.004057222045958042,0.004398866556584835
1746575961668179200,3.47317919921875,0.0027519864961504936,-0.010360391810536385,0.006513150408864021
1746575961678257200,3.483257080078125,0.0024774144403636456,-0.01336576882749796,0.008728899993002415
1746575961688335000,3.493335205078125,0.0017921831458806992,-0.010759333148598671,0.006832995917648077
1746575961698413000,3.5034130859375,0.0008971495553851128,-0.004751547239720821,0.004442752338945866
1746575961708491300,3.5134912109375,0.003841008059680462,0.0028645615093410015,0.00040992788854055107
1746575961718569200,3.5235693359375,0.006936721503734589,0.00013158796355128288,-0.0004513947351370007
1746575961728647200,3.533647216796875,0.0007528611458837986,-0.0002042367123067379,-0.0018721912056207657
1746575961738725000,3.54372509765625,-0.00001965230330824852,0.008790174499154091,-0.0022818739525973797
1746575961748803000,3.553802978515625,-0.008354014717042446,0.006135003175586462,-0.004426783882081509
1746575961758882300,3.56388232421875,-0.002949473913758993,0.005108693148940802,-0.008591064251959324
1746575961768960300,3.573960205078125,-0.0011782050132751465,-0.0036922551225870848,-0.010419058613479137
1746575961779038200,3.5840380859375,-0.0013171760365366936,-0.002503267489373684,-0.012525927275419235
1746575961789116200,3.5941162109375,-0.001735825091600418,-0.014766857959330082,-0.007097339257597923
1746575961799194400,3.6041943359375,0.002512513194233179,-0.006916354410350323,-0.000961487356107682
1746575961809272300,3.614272216796875,0.0043029566295444965,0.0003487491048872471,-0.005863834638148546
1746575961819350300,3.624350341796875,0.009366195648908615,0.0051545011810958385,-0.009269777685403824
1746575961829428200,3.63442822265625,0.00978564377874136,0.002611714880913496,-0.00670621870085597
1746575961839506200,3.644506103515625,0.008272876031696796,-0.0033396906219422817,0.004780610557645559
1746575961849584400,3.65458447265625,0.0015659709461033344,-0.0008365856483578682,0.009752199053764343
1746575961859662300,3.664662353515625,-0.0016095740720629692,0.007646724581718445,0.006873839534819126
1746575961869741300,3.6747412109375,-0.0001922394149005413,0.0010644551366567612,0.004395768046379089
1746575961879819300,3.6848193359375,-0.0027866619639098644,-0.0054989042691886425,0.007765454240143299
1746575961889897500,3.6948974609375,-0.0029089017771184444,-0.0006173299625515938,0.0037249065935611725
1746575961899975400,3.704975341796875,-0.005028971005231142,0.007958960719406605,-0.0014568916521966457
1746575961910053400,3.715053466796875,-0.0065126181580126286,0.009563781321048737,-0.006291594356298447
1746575961920131300,3.72513134765625,-0.004363080020993948,0.0006753290072083473,-0.011690185405313969
1746575961930209300,3.735209228515625,0.0007850769907236099,-0.006403353065252304,-0.015187980607151985
1746575961940287200,3.745287353515625,0.0026701258029788733,-0.007424104027450085,-0.015373941510915756
1746575961950365200,3.755365234375,0.003270668676123023,-0.006549255456775427,-0.015968624502420425
1746575961960443100,3.765443115234375,0.003058810718357563,0.002782044466584921,-0.010938289575278759
1746575961970522000,3.775522216796875,0.0007599703967571259,0.003451296593993902,-0.0011016384232789278
1746575961980600000,3.78560009765625,-0.0026008659042418003,0.004399760160595179,0.0031960858032107353
1746575961990678000,3.795677978515625,-0.006713851820677519,0.003377904649823904,0.003853087779134512
1746575962000756000,3.805755859375,-0.0026180115528404713,-0.0031133978627622128,-0.00026139867259189487
1746575962010834200,3.815834228515625,-0.003717896994203329,-0.006339018698781729,0.0030901895370334387
1746575962020912000,3.825912109375,-0.0020878948271274567,-0.005032737739384174,-0.0007478307816199958
1746575962030990000,3.835989990234375,-0.000020483043044805527,-0.003519263584166765,0.0033728783018887043
1746575962041068000,3.846068115234375,-0.0012612873688340187,-0.0016548605635762215,0.0034717079252004623
1746575962051146000,3.85614599609375,-0.0019571715965867043,-0.005251459777355194,0.00517053809016943
1746575962061224200,3.86622412109375,-0.0010588322766125202,0.0006985371001064777,0.0020652359817177057
1746575962071302100,3.87630224609375,-0.001369356643408537,0.003249579109251499,-0.004364966414868832
1746575962081381000,3.886381103515625,0.00073294248431921,0.00016404082998633385,-0.004565768875181675
1746575962091459000,3.896458984375,-0.0010793386027216911,-0.0029377429746091366,-0.007462488953024149
1746575962101537000,3.906537109375,-0.0013284622691571712,-0.008000412955880165,-0.011452042497694492
1746575962111615200,3.916615234375,0.001452676486223936,-0.01212058961391449,-0.012558319605886936
1746575962121693200,3.926693115234375,0.002533936407417059,-0.00951559841632843,-0.011492020450532436
1746575962131771100,3.936771240234375,0.0018162145279347897,-0.007055636495351791,-0.012823867611587048
1746575962141849000,3.94684912109375,0.005052534863352776,-0.0012934696860611439,-0.01573927141726017
1746575962151927000,3.956927001953125,0.0042969961650669575,-0.0033334509935230017,-0.015839405357837677
1746575962162005200,3.967005126953125,0.0009765499271452427,-0.003201776649802923,-0.006087412592023611
1746575962172083200,3.977083251953125,0.0006804065778851509,0.007067372091114521,0.0027553474064916372
1746575962182161200,3.9871611328125,-0.00016369717195630074,0.01322326809167862,0.006394695956259966
1746575962192239900,3.997239990234375,-0.002319260034710169,0.011737756431102753,0.006296957843005657
1746575962202318000,4.007318115234375,-0.0009739408269524574,0.005475144367665052,0.010426302440464497
1746575962212396000,4.01739599609375,0.0025430298410356045,-0.0022637355141341686,0.013746731914579868
1746575962222474000,4.027473876953125,0.0016874740831553936,0.0015198178589344025,0.013502657413482666
1746575962232552000,4.037552001953125,0.0007135560736060143,0.0026577869430184364,0.00708896666765213
1746575962242630000,4.0476298828125,0.0012457654811441898,-0.0016219890676438808,0.00012894872634205967
1746575962252708000,4.0577080078125,0.005431988276541233,-0.0033168247900903225,-0.0051603554747998714
1746575962262786000,4.0677861328125,0.004062417894601822,-0.0004059523344039917,-0.008761829696595669
1746575962272864000,4.077864013671875,0.0018863491714000702,0.003974148537963629,-0.011170659214258194
1746575962282942000,4.08794189453125,0.0017625954933464527,0.004386371001601219,-0.009813048876821995
1746575962293020000,4.09802001953125,-0.0020499862730503082,0.0017871260643005371,-0.007019126322120428
1746575962303099100,4.10809912109375,0.002905164612457156,-0.0002610008232295513,0.00040408410131931305
1746575962313177000,4.118177001953125,-0.00003922637552022934,-0.0066137053072452545,0.00971129909157753
1746575962323255000,4.128255126953125,-0.0023216484114527702,-0.0067197359167039394,0.018087290227413177
1746575962333333000,4.1383330078125,-0.0014715678989887238,-0.00392501475289464,0.0234085526317358
1746575962343411200,4.1484111328125,-0.005153544247150421,-0.0018558148294687271,0.025652417913079262
1746575962353489200,4.1584892578125,-0.0033404640853405,-0.0013562054373323917,0.02142198756337166
1746575962363567000,4.168567138671875,0.0007065688259899616,0.0002957903780043125,0.01563405804336071
1746575962373645000,4.17864501953125,-0.0007781432941555977,-0.0037277131341397762,0.004218683578073978
1746575962383723000,4.188722900390625,0.0017061545513570309,-0.002890834119170904,-0.009094290435314178
1746575962393801200,4.19880126953125,0.003530686255544424,0.000606962013989687,-0.0226385947316885
1746575962403879200,4.208879150390625,0.004376120865345001,-0.0046858033165335655,-0.026611903682351112
1746575962413958100,4.218958251953125,0.00558439688757062,-0.0018069259822368622,-0.02154710330069065
1746575962424036000,4.2290361328125,-0.0010709897615015507,0.004756965674459934,-0.01443206425756216
1746575962434114300,4.2391142578125,-0.0006283721886575222,0.001651453785598278,-0.0010789739899337292
1746575962444192300,4.249192138671875,-0.00018701516091823578,0.00349820451810956,0.008823370561003685
1746575962454270200,4.259270263671875,-0.001488235779106617,0.00680691609159112,0.013206667266786098
1746575962464348200,4.26934814453125,-0.0007631117478013039,0.0037184851244091988,0.014128711074590683
1746575962474426000,4.279426025390625,0.00190670695155859,-0.000293034128844738,0.01656896434724331
1746575962484504000,4.289504150390625,0.0007070079445838928,-0.0034835387486964464,0.016642412170767784
1746575962494582300,4.299582275390625,-0.0035543162375688553,-0.0017120037227869034,0.012994146905839443
1746575962504660200,4.30966015625,-0.0003560790792107582,-0.0010226261802017689,0.006325550843030214
1746575962514738200,4.31973828125,0.0008993353694677353,0.000644246581941843,-0.004503927193582058
1746575962524817000,4.32981689453125,0.0030561822932213545,-0.005008198320865631,-0.009423543699085712
1746575962534895000,4.33989501953125,0.004612001124769449,-0.005239094607532024,-0.012019060552120209
1746575962544973000,4.34997314453125,0.004702265840023756,0.0011219787411391735,-0.011690662242472172
1746575962555051000,4.360051025390625,0.0010172496549785137,0.005387563724070787,-0.005703343078494072
1746575962565129000,4.37012890625,-0.0009303838014602661,0.00046147825196385384,0.005950187798589468
1746575962575207000,4.38020703125,0.001200411468744278,-0.007325604557991028,0.015753816813230515
1746575962585285000,4.39028515625,-0.0022012353874742985,0.00017126882448792458,0.022523291409015656
1746575962595363000,4.400363037109375,-0.004309926647692919,0.005316762253642082,0.02237149141728878
1746575962605441000,4.41044091796875,-0.006350275594741106,0.006934518460184336,0.018792832270264626
1746575962615519000,4.42051904296875,-0.0016215667128562927,0.006650358904153109,0.015156019479036331
1746575962625597000,4.430596923828125,-0.0004882989451289177,0.0029193093068897724,0.012879200279712677
1746575962635676200,4.44067626953125,0.00016577355563640594,0.0012766714207828045,0.009243719279766083
1746575962645754000,4.450754150390625,-0.004866620060056448,0.0021156053990125656,0.002507587196305394
1746575962655832000,4.46083203125,-0.0042261299677193165,-0.0008429004810750484,-0.00506218196824193
1746575962665910000,4.470909912109375,0.0006514415144920349,-0.005634536501020193,-0.010304332710802555
1746575962675988200,4.48098828125,0.0024797015357762575,-0.006252656225115061,-0.010791158303618431
1746575962686066200,4.491066162109375,-0.005272642709314823,-0.0080689312890172,-0.013095453381538391
1746575962696144100,4.50114404296875,-0.00828920491039753,-0.005986339878290892,-0.009654649533331394
1746575962706222000,4.51122216796875,-0.008116060867905617,-0.007139679975807667,-0.0063467626459896564
1746575962716300000,4.521300048828125,-0.005244907457381487,-0.005074664950370789,-0.003137121209874749
1746575962726378200,4.531378173828125,-0.005028696730732918,-0.01158350519835949,-0.0017434634501114488
1746575962736457200,4.541457275390625,-0.0028491662815213203,-0.008537914603948593,-0.006988558918237686
1746575962746535200,4.55153515625,0.00231069209985435,-0.009272034280002117,-0.011594998650252819
1746575962756613000,4.561613037109375,0.008297745138406754,-0.007702633272856474,-0.00705377571284771
1746575962766691300,4.57169140625,0.008725503459572792,-0.010177813470363617,-0.0047613829374313354
1746575962776769300,4.581769287109375,0.002806627657264471,-0.013818621635437012,-0.011760969646275043
1746575962786847200,4.59184716796875,0.00809507817029953,-0.01948658749461174,-0.010486857034265995
1746575962796925200,4.60192529296875,0.008082827553153038,-0.01605244353413582,-0.008478567004203796
1746575962807003100,4.612003173828125,0.00785672478377819,-0.0030871089547872543,-0.006290779914706945
1746575962817081000,4.6220810546875,-0.00022650137543678284,0.012507030740380287,-0.004223634488880634
1746575962827159000,4.632158935546875,-0.0010365531779825687,0.01834251545369625,0.0015641434583812952
1746575962837237000,4.642237060546875,-0.002549228724092245,0.014258557930588722,0.0070324125699698925
1746575962847315200,4.652315185546875,-0.002554848324507475,0.012981833890080452,0.008247093297541142
1746575962857394200,4.662394287109375,-0.0027146381326019764,0.008138874545693398,0.010129415430128574
1746575962867472100,4.67247216796875,-0.0012380629777908325,0.0039795516058802605,0.00609965855255723
1746575962877550000,4.682550048828125,-0.0005778651684522629,-0.0002649943344295025,0.0068251038901507854
1746575962887628000,4.6926279296875,0.0016845446079969406,-0.001316981390118599,0.01292634941637516
1746575962897706000,4.7027060546875,-0.0014103148132562637,0.00039463257417082787,0.017522700130939484
1746575962907784000,4.712783935546875,-0.005832917056977749,0.0038433498702943325,0.016513781622052193
1746575962917862100,4.722862060546875,-0.00852004624903202,0.0020395913161337376,0.009410863742232323
1746575962927940000,4.732940185546875,-0.003956305328756571,-0.0007186457514762878,0.005056191235780716
1746575962938018000,4.74301806640625,-0.0027443007566034794,-0.002779932226985693,-0.002342602703720331
1746575962948096300,4.75309619140625,0.0034365663304924965,0.00012127775698900223,-0.004203815013170242
1746575962958175200,4.76317529296875,-0.00007001776248216629,0.0005330024287104607,0.0012886885087937117
1746575962968253400,4.77325341796875,-0.0005272827111184597,0.008035926148295403,0.00531751848757267
1746575962978331400,4.783331298828125,-0.0031718015670776367,0.00819811224937439,0.006355086341500282
1746575962988409300,4.793409423828125,-0.0071949283592402935,0.0078028226271271706,0.016262199729681015
1746575962998487300,4.8034873046875,-0.005586113315075636,0.008821481838822365,0.01942124217748642
1746575963008565200,4.813565185546875,-0.005153074394911528,0.002603343687951565,0.012719380669295788
1746575963018643500,4.8236435546875,-0.0055205910466611385,0.011587250977754593,-0.004131504334509373
1746575963028721400,4.833721435546875,0.0008606375195086002,0.00844738632440567,-0.011558540165424347
1746575963038799400,4.84379931640625,0.0050710951909422874,-0.003431110642850399,-0.011293555609881878
1746575963048877300,4.853877197265625,0.0063432506285607815,-0.0006788121536374092,-0.009639439173042774
1746575963058955300,4.863955322265625,0.001677392516285181,0.01168624497950077,-0.009512406773865223
1746575963069034200,4.8740341796875,-0.0018772934563457966,0.024715077131986618,-0.005865571089088917
1746575963079112200,4.8841123046875,-0.011461477726697922,0.02490416169166565,0.000028536858735606074
1746575963089190100,4.894190185546875,-0.015666857361793518,0.007322921883314848,0.010248919948935509
1746575963099268000,4.90426806640625,-0.01808500848710537,0.004994520451873541,0.004790771286934614
1746575963109346000,4.914345947265625,-0.012141358107328415,0.002239290624856949,-0.0010511544533073902
1746575963119424300,4.92442431640625,-0.007287213578820229,0.0027785804122686386,-0.009241973049938679
1746575963129502200,4.934502197265625,-0.00160590885207057,0.01125313900411129,-0.011636922135949135
1746575963139580200,4.944580078125,-0.003735905047506094,0.007428839337080717,-0.009179356507956982
1746575963149658000,4.954658203125,-0.005479531828314066,0.009524516761302948,-0.0027038247790187597
1746575963159736000,4.964736083984375,-0.006861179601401091,0.013294754549860954,0.001011018524877727
1746575963169814300,4.974814208984375,-0.006700535770505667,0.005152369383722544,0.007006536703556776
1746575963179893200,4.984893310546875,-0.006256587337702513,0.004041831474751234,0.006282689515501261
1746575963189971200,4.99497119140625,-0.005208092276006937,-0.002797889057546854,0.0014160138089209795
1746575963200049200,5.005049072265625,-0.0010431744158267975,-0.004316423553973436,-0.007190790493041277
1746575963210127400,5.01512744140625,0.0024285053368657827,-0.006999444216489792,-0.010774043388664722
1746575963220205300,5.025205322265625,0.002754476387053728,-0.018863560631871223,-0.013345591723918915
1746575963230283300,5.035283203125,0.0038421195931732655,-0.021516792476177216,-0.013860395178198814
1746575963240361200,5.045361328125,0.0029797882307320833,-0.01715666428208351,-0.01665804721415043
1746575963250439200,5.055439208984375,0.0005279257893562317,-0.014156157150864601,-0.015144151635468006
1746575963260517400,5.065517333984375,0.0019963926170021296,-0.008660191670060158,-0.008716878481209278
1746575963270595300,5.07559521484375,-0.0005711144767701626,-0.011414281092584133,0.0010656695812940598
1746575963280673300,5.08567333984375,-0.003346394281834364,0.0011869985610246658,0.00792650505900383
1746575963290752300,5.095752197265625,-0.00157272070646286,0.003123193047940731,0.009412267245352268
1746575963300830500,5.10583056640625,-0.005072114523500204,-0.001985016744583845,0.018047567456960678
1746575963310908400,5.115908447265625,-0.009730083867907524,-0.0019435849972069263,0.022199533879756927
1746575963320986400,5.125986328125,-0.01873982511460781,-0.015144341625273228,0.011364728212356567
1746575963331064300,5.136064208984375,-0.019159987568855286,-0.01356885302811861,0.0033717150799930096
1746575963341142300,5.146142333984375,-0.016938909888267517,-0.006309076212346554,-0.004512839484959841
1746575963351220500,5.156220458984375,-0.01193867065012455,0.001320424024015665,-0.008864332921802998
1746575963361298400,5.16629833984375,-0.0068831914104521275,-0.009155918844044209,-0.00938737764954567
1746575963371376400,5.17637646484375,0.008574784733355045,-0.03003924898803234,-0.024446168914437294
1746575963381454300,5.186454345703125,0.00899290107190609,-0.033620934933423996,-0.0318196639418602
1746575963391532300,5.1965322265625,0.006416863761842251,-0.030312415212392807,-0.043420419096946716
1746575963401611300,5.206611328125,-0.003856546711176634,-0.036497339606285095,-0.04621380940079689
1746575963411689200,5.216689208984375,-0.003106012474745512,-0.03363394737243652,-0.038261134177446365
1746575963421767200,5.22676708984375,0.012531536631286144,-0.027509475126862526,-0.006798014976084232
1746575963431845000,5.23684521484375,0.021615007892251015,-0.016554903239011765,0.00913756713271141
1746575963441923300,5.24692333984375,0.01851855032145977,0.005153588019311428,0.006017141509801149
1746575963452001300,5.257001220703125,0.005895784590393305,0.01701526716351509,0.0008883591508492827
1746575963462079200,5.267079345703125,-0.0022164699621498585,0.025576796382665634,0.0008987454930320382
1746575963472157200,5.2771572265625,-0.004340857267379761,0.013647054322063923,0.008826146833598614
1746575963482235100,5.287235107421875,-0.00927223265171051,0.00923206564038992,0.001641470706090331
1746575963492313300,5.297313232421875,-0.010707465931773186,0.0074147628620266914,-0.007852109149098396
1746575963502391300,5.307391357421875,-0.004072199109941721,0.01135038211941719,-0.02135113999247551
1746575963512470300,5.31747021484375,0.00043256673961877823,0.008186547085642815,-0.03598788380622864
1746575963522548200,5.32754833984375,-0.005209340248256922,0.010934397578239441,-0.05211731791496277
1746575963532626200,5.337626220703125,-0.00833822414278984,0.00803797971457243,-0.051266513764858246
1746575963542704400,5.347704345703125,-0.0016920389607548714,-0.009084281511604786,-0.05194775015115738
1746575963552782300,5.3577822265625,0.0002139001153409481,-0.0017994311638176441,-0.044717997312545776
1746575963562860300,5.3678603515625,0.00021842727437615395,0.0036762948147952557,-0.0349215567111969
1746575963572938200,5.377938232421875,0.003896033391356468,0.007388626225292683,-0.015203289687633514
1746575963583016200,5.38801611328125,0.008279596455395222,0.0028242338448762894,0.0050809429958462715
1746575963593094400,5.398094482421875,0.010779028758406639,0.010150818154215813,0.020054243505001068
1746575963603172400,5.40817236328125,0.003856140887364745,0.01758636347949505,0.02698512002825737
1746575963613250300,5.418250244140625,-0.0011178795248270035,0.007015976123511791,0.033235352486371994
1746575963623329300,5.428329345703125,0.003791657742112875,-0.008292672224342823,0.02683151513338089
1746575963633407200,5.4384072265625,0.008453043177723885,-0.008754502981901169,0.013146806508302689
1746575963643485200,5.448485107421875,0.0126035800203681,-0.009911913424730301,-0.006458586547523737
1746575963653563100,5.458563232421875,0.011039476841688156,-0.0020774281583726406,-0.026951864361763
1746575963663641000,5.46864111328125,0.01331994216889143,-0.0016105761751532555,-0.03872356936335564
1746575963673719000,5.478718994140625,0.0096675343811512,-0.006234887987375259,-0.03967497870326042
1746575963683797200,5.48879736328125,0.0016892366111278534,-0.013330081477761269,-0.03943848982453346
1746575963693875200,5.498875244140625,-0.0008679386228322983,-0.01060947310179472,-0.04139110445976257
1746575963703953200,5.508953125,-0.0037159225903451443,-0.006254672072827816,-0.04197753220796585
1746575963714031000,5.519031005859375,-0.005054436158388853,-0.008218563161790371,-0.03747783973813057
1746575963724109000,5.529109130859375,-0.00980604812502861,-0.005679772235453129,-0.028409244492650032
1746575963734188300,5.539188232421875,-0.015997860580682755,0.00026155123487114906,-0.026686206459999084
1746575963744266200,5.549266357421875,-0.020763320848345757,-0.01271177176386118,-0.03315955027937889
1746575963754344200,5.55934423828125,-0.028905827552080154,-0.06894529610872269,-0.052411921322345734
1746575963764422100,5.569422119140625,-0.049784209579229355,-0.09797348082065582,-0.056200798600912094
1746575963774500400,5.579500244140625,-0.05282780900597572,-0.07387499511241913,-0.042428139597177505
1746575963784578300,5.589578369140625,-0.045260969549417496,-0.049537163227796555,-0.023236336186528206
1746575963794656300,5.59965625,-0.041165828704833984,-0.03282582759857178,-0.016049262136220932
1746575963804734200,5.609734130859375,-0.019611798226833344,-0.01220923475921154,-0.012979703955352306
1746575963814812200,5.619812255859375,0.029315805062651634,-0.02230839803814888,0.002074065152555704
1746575963824890400,5.629890380859375,0.03747812658548355,-0.032136525958776474,0.015139533206820488
1746575963834969300,5.63996923828125,0.037189729511737823,-0.036237869411706924,0.013535249046981335
1746575963845047300,5.65004736328125,0.023398280143737793,-0.014832979068160057,-0.00729652913287282
1746575963855125200,5.660125244140625,0.016661347821354866,0.012857274152338505,-0.03357534483075142
1746575963865203500,5.670203369140625,0.016836317256093025,0.012995227240025997,-0.05019400268793106
1746575963875281400,5.680281494140625,0.014746855944395065,0.0013294769451022148,-0.054623957723379135
1746575963885359400,5.690359375,0.016058728098869324,0.004501834511756897,-0.05520426109433174
1746575963895437300,5.700437255859375,0.023281291127204895,0.03135673329234123,-0.04735148325562477
1746575963905515300,5.710515380859375,0.03023427352309227,0.031790561974048615,-0.03189795836806297
1746575963915593500,5.720593505859375,0.030205126851797104,0.02574997767806053,-0.01450952049344778
1746575963925671400,5.73067138671875,0.028409890830516815,0.02068651095032692,0.004452186170965433
1746575963935749400,5.740749267578125,0.022642329335212708,0.014729171991348267,0.017300833016633987
1746575963945828000,5.750828125,0.01730082742869854,-0.02604196034371853,0.014793199487030506
1746575963955906000,5.760906005859375,-0.00424985820427537,-0.017638087272644043,0.0030285457614809275
1746575963965984300,5.770984375,-0.012442806735634804,0.004168142098933458,-0.00040613283636048436
1746575963976062200,5.781062255859375,-0.00893207173794508,0.024416232481598854,-0.0006267967983148992
1746575963986140200,5.79114013671875,-0.011681519448757172,0.028286339715123177,0.004970368929207325
1746575963996218000,5.801218017578125,-0.016618240624666214,0.011651244014501572,0.01826033741235733
1746575964006296000,5.811296142578125,-0.016311177983880043,-0.0028517991304397583,0.02035464718937874
1746575964016374000,5.8213740234375,-0.01619715616106987,-0.005947116296738386,0.025454575195908546
1746575964026452200,5.8314521484375,-0.016847234219312668,-0.009648909792304039,0.026484685018658638
1746575964036530200,5.8415302734375,-0.024723589420318604,-0.03423038125038147,0.03104487434029579
1746575964046609200,5.851609130859375,-0.027808062732219696,-0.037149738520383835,0.032567933201789856
1746575964056687000,5.86168701171875,-0.03079206496477127,-0.025663675740361214,0.01788877137005329
1746575964066765300,5.871765380859375,-0.026368286460638046,-0.019290730357170105,-0.004003478214144707
1746575964076843300,5.88184326171875,-0.013778859749436378,-0.01800963655114174,-0.014423470944166183
1746575964086921200,5.891921142578125,0.002633669413626194,-0.009942121803760529,-0.01830236427485943
1746575964096999200,5.901999267578125,0.012246404774487019,-0.006320527754724026,-0.021628443151712418
1746575964107077000,5.9120771484375,0.011123882606625557,-0.012266300618648529,-0.03435195982456207
1746575964117155300,5.9221552734375,0.01571635529398918,-0.01528898999094963,-0.042690712958574295
1746575964127233300,5.9322333984375,0.015266282483935356,-0.019818494096398354,-0.04471631348133087
1746575964137311200,5.942311279296875,0.01555499155074358,-0.01867336966097355,-0.04099113121628761
1746575964147389200,5.95238916015625,0.004948153626173735,-0.014663981273770332,-0.028727538883686066
1746575964157467100,5.962467041015625,-0.00553570780903101,-0.010784594342112541,-0.015123240649700165
1746575964167546400,5.97254638671875,-0.012802942655980587,-0.00712354714050889,0.005194281227886677
1746575964177624300,5.982624267578125,-0.01333222258836031,-0.008104046806693077,0.019628195092082024
1746575964187702300,5.992702392578125,-0.008197913877665997,0.00021699955686926842,0.028067752718925476
1746575964197780200,6.0027802734375,-0.0035133836790919304,0.011702947318553925,0.020749639719724655
1746575964207858400,6.0128583984375,-0.002535470761358738,0.014127222821116447,0.008604560978710651
1746575964217936400,6.022936279296875,-0.002291508484631777,0.007078785449266434,-0.00002224680793005973
1746575964228014300,6.033014404296875,-0.0046771676279604435,-0.0002718050964176655,-0.0071637798100709915
1746575964238092300,6.04309228515625,-0.006592294201254845,-0.0035484437830746174,-0.01691650040447712
1746575964248170200,6.053170166015625,-0.010187028907239437,-0.003820618847385049,-0.024754183366894722
1746575964258248400,6.06324853515625,-0.006006157491356134,-0.0007547494024038315,-0.025253480300307274
1746575964268327200,6.0733271484375,0.004675514996051788,0.001598420087248087,-0.02174876071512699
1746575964278405000,6.083405029296875,0.005280116572976112,0.0009582331404089928,-0.008270841091871262
1746575964288483000,6.093483154296875,0.006999719887971878,-0.001614114735275507,-0.0011878972873091698
1746575964298561300,6.103561279296875,0.006293293088674545,-0.002386773470789194,0.003972131293267012
1746575964308639200,6.11363916015625,0.0034759349655359983,-0.0027542896568775177,0.009547192603349686
1746575964318717200,6.12371728515625,0.00420879852026701,-0.008530495688319206,0.010012472048401833
1746575964328795100,6.133795166015625,0.0013099475763738155,-0.010130522772669792,0.0022600102238357067
1746575964338873000,6.143873046875,0.006898426450788975,-0.013936597853899002,-0.007137583568692207
1746575964348951300,6.153951416015625,0.01057465374469757,-0.014974432066082954,-0.01744827814400196
1746575964359029200,6.164029296875,0.012742670252919197,-0.010844972915947437,-0.022225119173526764
1746575964369107200,6.174107177734375,0.013667585328221321,-0.005787630099803209,-0.02941378951072693
1746575964379186200,6.184186279296875,0.01642843894660473,-0.0011901017278432846,-0.03082229383289814
1746575964389264400,6.194264404296875,0.015185009688138962,0.0005516055971384048,-0.025627799332141876
1746575964399342300,6.20434228515625,0.019839799031615257,0.0033268877305090427,-0.022828146815299988
1746575964409420300,6.214420166015625,0.015128133818507195,-0.0019395132549107075,-0.012341681867837906
1746575964419498200,6.224498291015625,0.009990740567445755,0.005090357270091772,0.0012618978507816792
1746575964429576200,6.234576171875,0.006089741829782724,0.010935729369521141,0.008916354738175869
1746575964439654100,6.244654052734375,0.005551712587475777,0.015562588348984718,0.017685700207948685
1746575964449732400,6.254732421875,0.008624201640486717,0.020293693989515305,0.02409246750175953
1746575964459810300,6.264810302734375,0.006088715977966785,0.015307914465665817,0.022811640053987503
1746575964469888300,6.27488818359375,0.00434194877743721,0.012511596083641052,0.019743144512176514
1746575964479966200,6.28496630859375,0.004830051213502884,0.012339327484369278,0.009624521248042583
1746575964490045200,6.295045166015625,0.003082484705373645,0.014609139412641525,0.0009482090827077627
1746575964500123100,6.305123046875,0.004078608471900225,0.010354854166507721,-0.008485869504511356
1746575964510201000,6.315201171875,0.0038554356433451176,0.011864067986607552,-0.015415148809552193
1746575964520279300,6.325279296875,0.005133063532412052,0.012169988825917244,-0.019752752035856247
1746575964530357200,6.335357177734375,0.008373597636818886,0.007313448470085859,-0.027133703231811523
1746575964540435200,6.345435302734375,0.00876971147954464,0.0039308140985667706,-0.031116824597120285
1746575964550513200,6.35551318359375,0.012194802984595299,-0.009633197449147701,-0.026583058759570122
1746575964560591000,6.365591064453125,0.018951555714011192,-0.0013697883114218712,-0.015443097800016403
1746575964570669000,6.3756689453125,0.01894223503768444,0.005155755206942558,-0.007102343253791332
1746575964580747000,6.3857470703125,0.009741389192640781,0.019808925688266754,-0.0039719101041555405
1746575964590826200,6.395826171875,0.010416766628623009,0.005607351660728455,0.005654085893183947
1746575964600904200,6.405904296875,0.009868578985333443,-0.0029469123110175133,0.008783944882452488
1746575964610982100,6.415982177734375,0.014591960236430168,-0.007305441424250603,0.0060989465564489365
1746575964621060000,6.42606005859375,0.011686429381370544,-0.0026014214381575584,-0.00009663715900387615
1746575964631138300,6.43613818359375,0.012035835534334183,0.003896957729011774,-0.009395862929522991
1746575964641216300,6.44621630859375,0.009726686403155327,0.0002443157136440277,-0.006335675250738859
1746575964651294200,6.456294189453125,0.010153325274586678,-0.005909716710448265,0.007632604334503412
1746575964661372200,6.4663720703125,0.009658179245889187,0.009312874637544155,0.00991367269307375
1746575964671450000,6.4764501953125,0.0031645933631807566,0.018196117132902145,0.010242306627333164
1746575964681528300,6.4865283203125,-0.000125199556350708,0.015927176922559738,0.017098866403102875
1746575964691606300,6.496606201171875,-0.003135903272777796,0.014127678237855434,0.017041608691215515
1746575964701685200,6.506685302734375,-0.005483278073370457,0.01224212534725666,0.014727125875651836
1746575964711763200,6.51676318359375,-0.0060529280453920364,0.014379044994711876,0.007724343799054623
1746575964721841400,6.52684130859375,-0.004206650424748659,0.015247994102537632,0.0008585317409597337
1746575964731919400,6.53691943359375,-0.006441042292863131,0.003736213780939579,0.003123816568404436
1746575964741997300,6.546997314453125,-0.00019629765301942825,0.0023640398867428303,0.006408923305571079
1746575964752075300,6.5570751953125,0.0005674967542290688,0.0006574857980012894,0.005533542484045029
1746575964762153200,6.5671533203125,-0.0022886511869728565,-0.00018137041479349136,0.0076655857264995575
1746575964772231400,6.5772314453125,0.00012150965631008148,-0.0009030872024595737,0.006266361102461815
1746575964782309400,6.587309326171875,0.003099646884948015,-0.006093207746744156,0.004073566757142544
1746575964792387300,6.59738720703125,0.0038165696896612644,-0.008544914424419403,0.0020130786579102278
1746575964802465300,6.60746533203125,0.004117004107683897,-0.00467587448656559,-0.002890610136091709
1746575964812544300,6.617544189453125,0.002197930123656988,0.0023916224017739296,-0.005687994416803122
1746575964822622200,6.627622314453125,-0.0015364005230367184,-0.0004019197076559067,-0.006820595357567072
1746575964832700200,6.6377001953125,0.00021888921037316322,0.011265123263001442,-0.012794598005712032
1746575964842778000,6.647778076171875,-0.003189323004335165,0.0025007734075188637,-0.01530658919364214
1746575964852856000,6.65785595703125,-0.0026076887734234333,0.001679188571870327,-0.014444524422287941
1746575964862934000,6.66793408203125,-0.00018542539328336716,-0.0009432267397642136,-0.01186910830438137
1746575964873012200,6.67801220703125,-0.0009225881658494473,-0.005324126686900854,0.0008315063314512372
1746575964883090200,6.688090087890625,-0.0026680794544517994,0.00048826122656464577,0.011655714362859726
1746575964893168000,6.698168212890625,-0.00501725310459733,0.0015612486749887466,0.02059008739888668
1746575964903246000,6.70824609375,0.001333688385784626,0.006359047722071409,0.02395489253103733
1746575964913325300,6.7183251953125,0.003952374681830406,0.009221944957971573,0.0256436038762331
1746575964923403300,6.7284033203125,0.003957489505410194,0.0033104890026152134,0.02814212627708912
1746575964933481200,6.738481201171875,0.006154597271233797,0.0008241613395512104,0.02440890669822693
1746575964943559200,6.74855908203125,0.004395230207592249,-0.004520988091826439,0.0167715921998024
1746575964953637000,6.75863720703125,0.00806133821606636,-0.004747090861201286,0.005706158000975847
1746575964963715000,6.768715087890625,0.011009898968040943,-0.002749495208263397,-0.001550072804093361
1746575964973793000,6.77879296875,0.006022597197443247,-0.0034693474881350994,-0.006982388440519571
1746575964983871200,6.788871337890625,0.002035091631114483,0.003968748729676008,-0.011897027492523193
1746575964993949200,6.79894921875,0.00098074646666646,-0.0021629133261740208,-0.00940723903477192
1746575965004027100,6.809027099609375,-0.0017633019015192986,-0.007048637140542269,0.006222502328455448
1746575965014105000,6.81910498046875,-0.0054728188551962376,-0.007027331739664078,0.00969286821782589
1746575965024184000,6.82918408203125,-0.007183476816862822,-0.005070897750556469,0.005847641732543707
1746575965034262300,6.83926220703125,-0.007180547807365656,-0.0007254178635776043,0.0009993568528443575
1746575965044340200,6.84934033203125,0.0015936358831822872,-0.005528006702661514,0.001718783169053495
1746575965054418200,6.859418212890625,0.0037361488211899996,-0.009992264211177826,-0.00195451476611197
1746575965064496000,6.86949609375,0.004704028367996216,-0.011821896769106388,0.0021160615142434835
1746575965074574000,6.879573974609375,0.0037311757914721966,-0.012734029442071915,-0.00320759741589427
1746575965084652300,6.88965234375,0.00726790027692914,-0.014410870149731636,-0.010268744081258774
1746575965094730200,6.899730224609375,0.012691959738731384,-0.015372270718216896,-0.019529620185494423
1746575965104808200,6.90980810546875,0.014358684420585632,-0.014922462403774261,-0.01534379180520773
1746575965114886100,6.91988623046875,0.012440409511327744,-0.0023635276593267918,-0.004896743223071098
1746575965124965000,6.929965087890625,0.006038520950824022,-0.00010467180982232094,0.011932236142456532
1746575965135043000,6.94004296875,-0.003326485399156809,0.0059950328432023525,0.0223060492426157
1746575965145121000,6.95012109375,-0.001972415018826723,0.010674471035599709,0.025073742493987083
1746575965155199000,6.960198974609375,-0.001697842963039875,0.012033747509121895,0.018057910725474358
1746575965165277000,6.97027685546875,-0.003304417710751295,0.01091780886054039,0.012192187830805779
1746575965175355100,6.980355224609375,-0.004492720123380423,0.0035938494838774204,0.009594806469976902
1746575965185433000,6.99043310546875,-0.0033649997785687447,0.00016415677964687347,0.006107006222009659
1746575965195511000,7.000510986328125,-0.0010536424815654755,-0.003948829136788845,0.0031205371487885714
1746575965205589000,7.010589111328125,0.0003658570349216461,-0.0012843003496527672,-0.00030594549025408924
1746575965215667000,7.0206669921875,0.0037861547898501158,-0.0004789605736732483,-0.0045733945444226265
1746575965225745200,7.0307451171875,0.0028202563989907503,0.0018494408577680588,-0.0059633092023432255
1746575965235824000,7.04082421875,0.004985140170902014,0.0011706016957759857,-0.0051108309999108315
1746575965245902000,7.050902099609375,0.0025695881340652704,0.0038699456490576267,-0.00010801300231833011
1746575965255980000,7.06097998046875,0.000922156497836113,-0.0005269334651529789,0.003994586877524853
1746575965266058200,7.071058349609375,-0.00305958092212677,-0.0004746229387819767,0.0010837935842573643
1746575965276136200,7.08113623046875,-0.0011064186692237854,-0.002262935508042574,-0.004883285146206617
1746575965286214100,7.091214111328125,-0.000897563062608242,-0.0012564905919134617,-0.00036583576002158225
1746575965296292000,7.1012919921875,-0.0038573998026549816,0.0012173200957477093,0.005930676124989986
1746575965306370000,7.1113701171875,-0.004457448609173298,0.004880422726273537,0.012910847552120686
1746575965316448300,7.1214482421875,-0.0041445279493927956,0.004243128001689911,0.009926509112119675
1746575965326526200,7.131526123046875,-0.001455017365515232,0.003930852748453617,0.01168688852339983
1746575965336605200,7.141605224609375,-0.0027597001753747463,-0.0022167880088090897,0.014946597628295422
1746575965346683100,7.15168310546875,-0.0028010341338813305,-0.007031212095171213,0.014603905379772186
1746575965356761300,7.16176123046875,-0.0011876909993588924,-0.00808209553360939,0.01047227717936039
1746575965366839300,7.17183935546875,0.0022150203585624695,-0.008877390064299107,0.010020885616540909
1746575965376917200,7.181917236328125,0.000737764872610569,-0.005603833124041557,0.005889257416129112
1746575965386995200,7.1919951171875,-0.0013831211254000664,-0.004097587428987026,0.001964234746992588
1746575965397073200,7.2020732421875,0.003910710569471121,-0.004256844520568848,0.003810604102909565
1746575965407151000,7.212151123046875,0.007185342255979776,-0.005207784008234739,-0.0038385416846722364
1746575965417229000,7.22222900390625,0.007647667080163956,-0.0003387266770005226,-0.010143043473362923
1746575965427307000,7.23230712890625,0.004562035668641329,0.0017584757879376411,-0.018561212345957756
1746575965437386000,7.242385986328125,0.001922842813655734,-0.0026940638199448586,-0.018131112679839134
1746575965447464000,7.2524638671875,0.002689237240701914,-0.0025337799452245235,-0.014503282494843006
1746575965457542100,7.262542236328125,0.0016439463943243027,-0.01131289079785347,-0.008329009637236595
1746575965467620000,7.2726201171875,-0.0035484465770423412,-0.002667427994310856,0.0026051730383187532
1746575965477698000,7.282697998046875,-0.008996741846203804,0.012116311118006706,0.01388579048216343
1746575965487776000,7.29277587890625,-0.0077917431481182575,0.01897105574607849,0.02157999947667122
1746575965497854000,7.30285400390625,-0.008711332455277443,0.019230714067816734,0.019267844036221504
1746575965507932200,7.31293212890625,-0.0025120098143815994,0.013790294528007507,0.014719399623572826
1746575965518010000,7.323010009765625,-0.0024899058043956757,0.008943874388933182,0.012490333989262581
1746575965528088000,7.333088134765625,-0.0023662899620831013,0.0033133546821773052,-0.0024910259526222944
1746575965538166000,7.343166015625,-0.0036488682962954044,0.00033620651811361313,-0.009241873398423195
1746575965548245200,7.353245361328125,0.00007543666288256645,-0.0033270965795964003,-0.009856149554252625
1746575965558323200,7.3633232421875,-0.0016819830052554607,-0.0034581238869577646,-0.004817715380340815
1746575965568401200,7.373401123046875,-0.0009910399094223976,-0.002002442255616188,-0.0008699721656739712
1746575965578479000,7.38347900390625,-0.000005670357495546341,0.0024231993593275547,0.011450610123574734
1746575965588557000,7.39355712890625,0.0017142812721431255,0.008246166631579399,0.011183957569301128
1746575965598635300,7.40363525390625,0.0026692908722907305,0.013401247560977936,0.010600725188851357
1746575965608713200,7.413713134765625,0.004986250773072243,0.006380962673574686,0.010064883157610893
1746575965618791200,7.423791259765625,0.002093525370582938,-0.001860189251601696,0.007919174619019032
1746575965628869000,7.433869140625,-0.0034976713359355927,-0.0049942731857299805,0.005208231043070555
1746575965638947000,7.443947021484375,-0.004003938287496567,0.00012725172564387321,-0.00258337939158082
1746575965649026000,7.454026123046875,-0.0014630160294473171,-0.01172754354774952,-0.0037706163711845875
1746575965659104000,7.46410400390625,0.00009173760190606117,-0.009848949499428272,0.002446266822516918
1746575965669182000,7.474181884765625,0.004831098951399326,-0.002182774245738983,-0.002604152075946331
1746575965679260000,7.484260009765625,0.0012289071455597878,0.005401907954365015,-0.0021410281769931316
1746575965689338000,7.494338134765625,0.001567780040204525,0.010385479778051376,-0.0019810993690043688
1746575965699416000,7.504416015625,0.003255158895626664,0.009114885702729225,0.0033239175099879503
1746575965709494000,7.514493896484375,0.0027168153319507837,0.003066582139581442,0.006914518307894468
1746575965719572000,7.524572021484375,0.0007383530028164387,0.00305539695546031,0.011311663314700127
1746575965729650000,7.53464990234375,-0.0028489897958934307,0.0066149416379630566,0.01165767852216959
1746575965739728100,7.54472802734375,-0.0020247413776814938,0.004339004401117563,0.007649088278412819
1746575965749806000,7.55480615234375,0.002070410642772913,0.0010045352391898632,0.0014833238674327731
1746575965759885000,7.564885009765625,0.005334381014108658,-0.006363366264849901,-0.005720793269574642
1746575965769963000,7.574962890625,0.008575685322284698,-0.008122118189930916,-0.009612725116312504
1746575965780041200,7.585041259765625,0.007930668070912361,-0.007837959565222263,-0.010237769223749638
1746575965790119200,7.595119140625,0.003277537878602743,-0.006400347221642733,-0.013432973995804787
1746575965800197000,7.605197021484375,0.001174439676105976,-0.0013853483833372593,-0.014491047710180283
1746575965810275000,7.615275146484375,0.004048146773129702,0.0039668818935751915,-0.010412037372589111
1746575965820353000,7.62535302734375,0.0018132221885025501,0.002575913444161415,-0.006452715955674648
1746575965830431000,7.635430908203125,0.0028066644445061684,0.002026466652750969,0.003026205115020275
1746575965840509200,7.64550927734375,0.0009717466309666634,-0.0003107232041656971,0.009279041551053524
1746575965850587100,7.655587158203125,-0.0007909997366368771,0.00438176654279232,0.012399733997881413
1746575965860666000,7.665666015625,0.00022100144997239113,0.0019263317808508873,0.015295920893549919
1746575965870744000,7.675744140625,0.0013163862749934196,-0.0005219518207013607,0.01759205386042595
1746575965880822300,7.685822265625,-0.0020644967444241047,-0.0012319507077336311,0.01868901029229164
1746575965890900200,7.695900146484375,-0.004393723793327808,0.0016336506232619286,0.017683710902929306
1746575965900978200,7.705978271484375,-0.0015707733109593391,0.0023617586120963097,0.011521156877279282
1746575965911056100,7.71605615234375,0.0003918665461242199,0.003111249767243862,0.0030891678761690855
1746575965921134000,7.726134033203125,0.001092810183763504,-0.0042159054428339005,-0.00002966003376059234
1746575965931212300,7.73621240234375,0.004392337054014206,-0.0072152744978666306,-0.006695975083857775
1746575965941290200,7.746290283203125,0.001221577636897564,-0.0045862020924687386,-0.009244353510439396
1746575965951368200,7.7563681640625,0.0020762146450579166,-0.000250041950494051,-0.00797936413437128
1746575965961447000,7.766447021484375,0.0010077543556690216,0.0059497966431081295,-0.006198508199304342
1746575965971525000,7.776525146484375,0.0003254702314734459,0.0012052603997290134,0.00024577981093898416
1746575965981603000,7.78660302734375,0.0005345284007489681,-0.0004051532596349716,0.006472250446677208
1746575965991681000,7.796680908203125,-0.0010103434324264526,0.0007237633690237999,0.00955031905323267
1746575966001759000,7.806759033203125,-0.003163508605211973,0.0004276200197637081,0.007973994128406048
1746575966011837000,7.8168369140625,-0.005218017380684614,0.0005812821909785271,0.008044175803661346
1746575966021915100,7.8269150390625,-0.002628359477967024,-0.0020856070332229137,0.01194224413484335
1746575966031993000,7.8369931640625,-0.0012998566962778568,-0.001951651182025671,0.012799122370779514
1746575966042071000,7.847071044921875,-0.001241267193108797,0.004744600970298052,0.009470436722040176
1746575966052149000,7.85714892578125,-0.0029499605298042297,0.0031929677352309227,0.001968327211216092
1746575966062228200,7.867228271484375,0.0021332153119146824,-0.006562724243849516,-0.0046227299608290195
1746575966072306200,7.87730615234375,0.004689812194555998,-0.01034582033753395,-0.002458885544911027
1746575966082384100,7.887384033203125,0.0064024911262094975,-0.007426196709275246,-0.005295951385051012
1746575966092462000,7.897462158203125,0.0036722016520798206,-0.0016736546531319618,-0.0069955503568053246
1746575966102540000,7.9075400390625,0.005171827506273985,0.0000688512809574604,-0.00032779411412775517
1746575966112618200,7.9176181640625,0.00706371758133173,-0.003909526392817497,-0.0007810360984876752
1746575966122696200,7.9276962890625,0.006043194327503443,-0.0000966787338256836,0.0036651112604886293
1746575966132774100,7.937774169921875,0.00010751420632004738,0.0028306622989475727,0.01335823256522417
1746575966142852000,7.94785205078125,-0.0006996900774538517,0.003300976473838091,0.01832103170454502
1746575966152930000,7.957929931640625,-0.002632401417940855,0.008877940475940704,0.027029626071453094
1746575966163009300,7.96800927734375,-0.0074836150743067265,0.007292827591300011,0.021731266751885414
1746575966173087200,7.978087158203125,-0.006785592529922724,0.006310996599495411,0.016933834180235863
1746575966183165200,7.988165283203125,-0.0019961632788181305,0.007326459512114525,0.0053552077151834965
1746575966193243100,7.9982431640625,0.0005110376514494419,0.0033675185404717922,-0.004369422327727079
1746575966203321300,8.0083212890625,0.0010101143270730972,0.0013421843759715557,-0.013142673298716545
1746575966213399300,8.0183994140625,0.002303950721397996,-0.005054037552326918,-0.011365869082510471
1746575966223477200,8.028477294921874,0.0005619772709906101,-0.00517574418336153,-0.011552023701369762
1746575966233555200,8.03855517578125,0.0035381896886974573,-0.001999853178858757,-0.012923690490424633
1746575966243633200,8.048633056640625,0.00027368683367967606,-0.005766095593571663,-0.009979299269616604
1746575966253711000,8.058711181640625,-0.002390751149505377,-0.005257204174995422,-0.0040919058956205845
1746575966263790000,8.0687900390625,0.002076169243082404,-0.012950544245541096,0.012430344708263874
1746575966273868000,8.078867919921874,0.00005732709541916847,-0.010709645226597786,0.014822565019130707
1746575966283946000,8.088946044921874,0.001799567136913538,-0.010362369008362293,0.02470582351088524
1746575966294024000,8.09902392578125,-0.0014303792268037796,-0.00326401530764997,0.03048894554376602
1746575966304102100,8.10910205078125,-0.0015422319993376732,-0.0067524900659918785,0.028395434841513634
1746575966314180000,8.11918017578125,-0.0031333877705037594,-0.010192574933171272,0.023152371868491173
1746575966324258000,8.129258056640625,0.0004770592786371708,-0.009420524351298809,0.014424659311771393
1746575966334336000,8.1393359375,-0.0011034985072910786,-0.006643110420554876,0.005006377585232258
1746575966344414000,8.1494140625,-0.0006883116438984871,-0.011157700791954994,-0.0044518387876451015
1746575966354492200,8.1594921875,0.00404610950499773,-0.008832232095301151,-0.00925684068351984
1746575966364570000,8.169570068359375,0.006867728661745787,-0.0027839266695082188,-0.008796646259725094
1746575966374649000,8.179649169921875,0.002281443914398551,0.001462522428482771,-0.006529973819851875
1746575966384727000,8.18972705078125,0.0031491017434746027,0.0036966479383409023,0.004320809617638588
1746575966394805200,8.19980517578125,-0.0030682049691677094,-0.000039577484130859375,0.01340793538838625
1746575966404883200,8.20988330078125,-0.005857866257429123,0.0048103053122758865,0.013943497091531754
1746575966414961200,8.219961181640626,-0.0029507684521377087,0.007917340844869614,0.006174804642796516
1746575966425039000,8.2300390625,-0.0039230878464877605,-0.0018953429535031319,0.006653907243162394
1746575966435117000,8.240116943359375,-0.0009813513606786728,-0.005250850692391396,0.007181198801845312
1746575966445195300,8.2501953125,-0.00035870447754859924,-0.0077451677061617374,0.004423229023814201
1746575966455273200,8.260273193359374,-0.004725719336420298,-0.0004826486110687256,-0.003197167767211795
1746575966465351200,8.27035107421875,-0.003511850256472826,0.007163819391280413,-0.013453001156449318
1746575966475430000,8.280429931640626,0.004892360419034958,0.0007667513564229012,-0.01943853870034218
1746575966485508000,8.290508056640626,0.006516089662909508,-0.009216373786330223,-0.018710697069764137
1746575966495586000,8.3005859375,0.006643875036388636,-0.009414665400981903,-0.01363067701458931
1746575966505664000,8.3106640625,0.001911704195663333,-0.006389314774423838,-0.012146230787038803
1746575966515742000,8.320741943359375,-0.0002788472920656204,0.00474711274728179,-0.00830638874322176
1746575966525820000,8.33081982421875,-0.00016779359430074692,0.0009012413211166859,-0.005833909846842289
1746575966535898000,8.340898193359376,-0.0016430001705884933,0.0002946518361568451,0.0024693943560123444
1746575966545976000,8.35097607421875,-0.00348777137696743,-0.0030201850458979607,0.010206676088273525
1746575966556054000,8.361053955078125,-0.008735677227377892,-0.00045582931488752365,0.014294767752289772
1746575966566132000,8.371132080078125,-0.008838742040097713,0.0027809767052531242,0.015229271724820137
1746575966576211200,8.381211181640625,-0.006102170329540968,0.0007513430900871754,0.010882542468607426
1746575966586289200,8.3912890625,-0.003280284348875284,-0.004349942319095135,0.003126884810626507
1746575966596367000,8.4013671875,-0.0008180998265743256,-0.004236453212797642,-0.0027382774278521538
1746575966606445000,8.411445068359376,0.0011941846460103989,-0.0058559211902320385,-0.00984305888414383
1746575966616523000,8.42152294921875,0.00236672000028193,-0.004682760685682297,-0.00971224159002304
1746575966626601200,8.431601318359375,-0.0020863511599600315,-0.004035346210002899,-0.011262733489274979
1746575966636679200,8.44167919921875,-0.001092469785362482,0.0019265981391072273,-0.01840345188975334
1746575966646757000,8.451757080078124,0.001784809399396181,0.008005529642105103,-0.016750695183873177
1746575966656835000,8.4618349609375,-0.0019332501105964184,0.0023280116729438305,-0.012928796000778675
1746575966666913000,8.4719130859375,-0.004410788416862488,-0.0018917671404778957,-0.004286838695406914
1746575966676992300,8.4819921875,-0.004786374978721142,-0.00204269215464592,0.0013069664128124714
1746575966687070200,8.4920703125,-0.0022494476288557053,-0.004210771527141333,0.006684421561658382
1746575966697148200,8.502148193359375,-0.0016337246634066105,-0.004614773206412792,0.005214622709900141
1746575966707226000,8.51222607421875,-0.0034816917032003403,-0.0037859973963350058,0.011230437085032463
1746575966717304000,8.522303955078126,-0.0024043326266109943,-0.001084829680621624,0.012738739140331745
1746575966727382300,8.53238232421875,-0.000401902012526989,-0.0009466116316616535,0.013294008560478687
1746575966737460200,8.542460205078125,-0.0005841637030243874,0.0014431942254304886,0.010969964787364006
1746575966747538200,8.5525380859375,0.002494716551154852,0.0009449170902371407,0.002074741292744875
1746575966757616000,8.5626162109375,0.004495604429394007,-0.005741520319133997,0.003885634709149599
1746575966767694000,8.572694091796874,0.003908643499016762,-0.008535442873835564,0.0027673733420670033
1746575966777773000,8.58277294921875,0.003141056979075074,-0.006764743011444807,0.0019000524189323187
1746575966787851000,8.59285107421875,0.003681412199512124,-0.0033178136218339205,-0.002048616297543049
1746575966797929000,8.602928955078125,0.003905309597030282,-0.0019410685636103153,0.00023858975328039378
1746575966808007000,8.6130068359375,0.000843739602714777,0.0017921505495905876,0.00645840261131525
1746575966818085000,8.623085205078125,-0.003923741169273853,0.005824099760502577,0.01194813009351492
1746575966828163000,8.6331630859375,-0.004950922913849354,0.00983375497162342,0.011874893680214882
1746575966838241000,8.643240966796874,-0.006659219507128,0.0114500243216753,0.0021334574557840824
1746575966848319000,8.653319091796876,-0.0014223800972104073,0.009591137990355492,-0.004987035878002644
1746575966858397000,8.66339697265625,0.0008573313243687153,0.0054069324396550655,-0.010533910244703293
1746575966868475100,8.67347509765625,0.0037426003254950047,0.003302768338471651,-0.011194374412298203
1746575966878553000,8.683552978515625,-0.0006620385684072971,0.0024081338196992874,-0.013253502547740936
1746575966888632000,8.693632080078125,0.0028235067147761583,-0.005136335268616676,-0.013112355023622513
1746575966898710000,8.7037099609375,0.005408379714936018,-0.004662749357521534,-0.008751443587243557
1746575966908788200,8.713788330078126,0.00029644183814525604,-0.004923738539218903,-0.005836347583681345
1746575966918866200,8.7238662109375,-0.0019680066034197807,-0.003997414372861385,-0.005220651626586914
1746575966928944000,8.733944091796875,0.00021472014486789703,0.0020221290178596973,0.0015589576214551926
1746575966939022000,8.74402197265625,0.00046282634139060974,0.008829054422676563,0.00964174885302782
1746575966949100000,8.75410009765625,0.0010886690579354763,0.010121486149728298,0.016421625390648842
1746575966959178000,8.764177978515624,-0.0027042250148952007,0.010561557486653328,0.012752615846693516
1746575966969256000,8.774255859375,-0.004246195312589407,0.004673575051128864,0.011250060051679611
1746575966979334000,8.784333984375,-0.0008400571532547474,-0.0019570509903132915,0.01483791321516037
1746575966989413000,8.7944130859375,-0.006454266607761383,-0.005337134934961796,0.010318528860807419
1746575966999491000,8.804490966796875,-0.008116788230836391,0.004312605131417513,0.007369525730609894
1746575967009569000,8.814569091796875,-0.005298364907503128,0.0035197813995182514,0.004351099021732807
1746575967019647000,8.82464697265625,-0.0018304968252778053,-0.004017079249024391,-0.0009711298625916243
1746575967029725200,8.83472509765625,0.002745346399024129,-0.007300757337361574,-0.004798358306288719
1746575967039803100,8.84480322265625,0.002402431797236204,-0.0037202879320830107,-0.008823825977742672
1746575967049881000,8.854881103515625,0.001108135562390089,-0.004189536906778812,-0.008686406537890434
1746575967059959000,8.864958984375,-0.0013576564379036427,-0.001710711047053337,-0.009267549030482769
1746575967070037000,8.875037109375,-0.0018876250833272934,-0.001926693134009838,-0.00498918117955327
1746575967080116000,8.885115966796874,-0.0005006799474358559,-0.00043581146746873856,-0.006278109271079302
1746575967090194000,8.89519384765625,0.0011579366400837898,-0.0025202673859894276,-0.010026242583990097
1746575967100271900,8.90527197265625,0.0016217143274843693,-0.006522735580801964,-0.010856741108000278
1746575967110349800,8.915349853515625,0.0024401035625487566,-0.00782022811472416,-0.008179731667041779
1746575967120428000,8.925427978515625,0.0033581682946532965,-0.009047301486134529,-0.0029762662015855312
1746575967130506000,8.935506103515625,0.0016273800283670425,-0.006301316432654858,0.0008509625913575292
1746575967140584000,8.945583984375,-0.0012797550298273563,-0.004964898340404034,0.0005551277427002788
1746575967150662000,8.955661865234376,-0.0033407751470804214,-0.00608608964830637,-0.0011018910445272923
1746575967160739800,8.96573974609375,-0.0019163507968187332,-0.0038922936655580997,-0.00440890621393919
1746575967170818000,8.975818115234375,0.0006384197622537613,-0.001183326356112957,-0.005800674203783274
1746575967180897000,8.98589697265625,0.0007552769966423512,-0.00014279037714004517,-0.007558038458228111
1746575967190975000,8.99597509765625,-0.00015792110934853554,-0.00009378837421536446,-0.006296232342720032
1746575967201053000,9.006052978515624,-0.0031627658754587173,0.00265592522919178,-0.003367021447047591
1746575967211131100,9.016131103515624,-0.0035790177062153816,0.006722572259604931,0.0011598197743296623
1746575967221209000,9.026208984375,-0.004708374384790659,0.007869373075664043,0.006554766092449427
1746575967231287000,9.036287109375,-0.003942715469747782,0.007516237907111645,0.0019474972505122423
1746575967241365000,9.046364990234375,-0.0027831639163196087,0.0033649755641818047,-0.001889331848360598
1746575967251443000,9.05644287109375,0.00045231031253933907,0.0028118370100855827,-0.0030683132354170084
1746575967261521000,9.06652099609375,0.0019325600005686283,-0.0005493038333952427,-0.0018145665526390076
1746575967271599000,9.07659912109375,0.0001128222793340683,0.0018288991414010525,-0.0023645092733204365
1746575967281678000,9.086677978515626,0.0019470143597573042,0.0020159645937383175,-0.0025009482633322477
1746575967291756000,9.096756103515625,-0.00006420491263270378,-0.0041982559487223625,0.0017571800854057074
1746575967301834000,9.106833984375,0.0023158537223935127,-0.009498288854956627,0.0030299192294478416
1746575967311912000,9.116911865234375,0.003388042328879237,-0.006336583755910397,-0.0027246391400694847
1746575967321990000,9.126989990234375,0.0012786337174475193,0.0002800077199935913,-0.005937014240771532
1746575967332067800,9.13706787109375,0.0038105009589344263,0.00015537161380052567,-0.01006305031478405
1746575967342145800,9.147145751953126,0.003279054304584861,0.0008680303581058979,-0.004791181534528732
1746575967352224000,9.15722412109375,0.0006798091344535351,-0.002075029071420431,-0.001501112594269216
1746575967362302000,9.167302001953125,-0.00018470780923962593,-0.0003002597950398922,-0.003920538350939751
1746575967372380000,9.1773798828125,-0.0009607532992959023,-0.00048321904614567757,-0.006589292082935572
1746575967382459000,9.187458984375,0.0023654340766370296,-0.006061858497560024,-0.0045393588952720165
1746575967392536800,9.197536865234374,0.0035678513813763857,-0.006425646133720875,-0.004156396258622408
1746575967402615000,9.207614990234376,0.0031275851652026176,0.0019005732610821724,-0.00012832332868129015
1746575967412693000,9.21769287109375,0.0010103723034262657,0.0032875481992959976,0.00259103043936193
1746575967422771000,9.22777099609375,-0.0006041377782821655,-0.000518756452947855,0.0032068509608507156
1746575967432849000,9.237848876953125,-0.0012550139799714088,-0.006152939982712269,0.0005705879302695394
1746575967442926800,9.2479267578125,0.0007076063193380833,-0.0049303555861115456,-0.008049657568335533
1746575967453005000,9.258005126953124,0.002429872751235962,-0.0008922042325139046,-0.015300380066037178
1746575967463083000,9.2680830078125,0.005959405563771725,-0.0007599568925797939,-0.018443485721945763
1746575967473161000,9.278160888671875,0.002271992852911353,-0.002312579657882452,-0.01674066111445427
1746575967483240000,9.288239990234375,0.0009756311774253845,-0.007022610865533352,-0.003833985421806574
1746575967493318100,9.298318115234375,-0.0011058952659368515,-0.0031674187630414963,0.012290122918784618
1746575967503396000,9.30839599609375,-0.004234155640006065,0.00849224254488945,0.02266644313931465
1746575967513474000,9.31847412109375,-0.003802723251283169,0.010392142459750175,0.020358813926577568
1746575967523552000,9.328552001953126,-0.0007608607411384583,-0.0006690314039587975,0.01692946068942547
1746575967533630000,9.3386298828125,0.004527378361672163,-0.003427799791097641,0.01574728451669216
1746575967543708200,9.348708251953125,-0.00008068932220339775,-0.013546213507652283,0.013741658069193363
1746575967553786000,9.3587861328125,-0.002354496158659458,-0.0022107353433966637,-0.001813066890463233
1746575967563864000,9.368864013671875,0.004871238023042679,0.0020733801648020744,-0.014523046091198921
1746575967573942000,9.37894189453125,0.005710133817046881,-0.0019953972660005093,-0.018654407933354378
1746575967584021000,9.38902099609375,0.0022019061725586653,0.0012428518384695053,-0.013069449923932552
1746575967594099000,9.399098876953126,-0.0012498167343437672,-0.002344159409403801,-0.012853467836976051
1746575967604177000,9.409177001953125,-0.003931831102818251,0.011074138805270195,-0.014731585048139095
1746575967614254800,9.4192548828125,0.004480828531086445,0.0117013119161129,-0.017694085836410522
1746575967624332800,9.429332763671875,-0.0008472930639982224,-0.007510161958634853,-0.012484479695558548
1746575967634411000,9.439410888671874,0.0050635929219424725,0.0007477677427232265,-0.00975846778601408
1746575967644489000,9.449489013671876,0.0020125554874539375,-0.01262662373483181,0.0031918117310851812
1746575967654567000,9.45956689453125,-0.003709246404469013,-0.0016591944731771946,0.012829791754484177
1746575967664644900,9.469644775390625,-0.005411960184574127,0.001736791804432869,0.013461114838719368
1746575967674723800,9.479723876953125,-0.000723998062312603,0.0008030878379940987,0.008229867555201054
1746575967684802000,9.489802001953125,0.004010413307696581,0.005878197029232979,0.0094335051253438
1746575967694880000,9.4998798828125,0.0014774808660149574,-0.0032766859512776136,0.009188493713736534
1746575967704958000,9.5099580078125,0.002331802621483803,-0.0035348928067833185,0.013533733785152435
1746575967715036000,9.520035888671876,-0.0016003544442355633,-0.0015654852613806725,0.011499878019094467
1746575967725113900,9.53011376953125,-0.0014323987998068333,-0.0020590112544596195,0.003067596349865198
1746575967735192000,9.540192138671875,0.000356180127710104,0.0027208300307393074,-0.00566277839243412
1746575967745270000,9.55027001953125,0.0009832894429564476,0.0004794783890247345,-0.007396426517516375
1746575967755348000,9.560347900390624,0.0013164505362510681,-0.003913672175258398,-0.008093110285699368
1746575967765426000,9.570426025390624,0.004902341403067112,-0.006747769191861153,-0.006441627629101276
1746575967775505200,9.580505126953126,0.0012032105587422848,-0.007381069008260965,-0.006781446747481823
1746575967785583000,9.5905830078125,0.0011688661761581898,-0.007469412870705128,-0.0061691999435424805
1746575967795661000,9.6006611328125,0.0008982890285551548,-0.0030187382362782955,-0.008173760958015919
1746575967805739000,9.610739013671875,0.003134720725938678,0.0004718266427516937,-0.006562198046594858
1746575967815817000,9.62081689453125,0.00020444439724087715,0.0004838104359805584,0.00010875414591282606
1746575967825895200,9.630895263671874,0.001256805844604969,0.0019445563666522503,0.0058650365099310875
1746575967835973000,9.64097314453125,-0.003071896266192198,0.004886816721409559,0.011091490276157856
1746575967846051000,9.651051025390625,0.0010718158446252346,0.00280354218557477,0.014805436134338379
1746575967856129000,9.66112890625,0.001835610717535019,-0.0023792353458702564,0.01642650179564953
1746575967866207000,9.67120703125,0.0018139733001589775,-0.0062829311937093735,0.014487257227301598
1746575967876286000,9.681285888671875,-0.0005708872340619564,-0.0025313361547887325,0.0042138476856052876
1746575967886364000,9.691364013671874,0.0030473042279481888,-0.002152488101273775,0.004968827124685049
1746575967896441900,9.70144189453125,-0.00006300164386630058,-0.004131483379751444,0.0043368590995669365
1746575967906519800,9.711519775390625,-0.0019933260045945644,-0.003374381922185421,0.007789716590195894
1746575967916598000,9.721597900390625,-0.0022244881838560104,0.003750372678041458,0.006611001677811146
1746575967926676000,9.731676025390625,0.001821046695113182,0.005557436030358076,-0.00010996224591508508
1746575967936754000,9.74175390625,0.0024237202014774084,0.003432233352214098,-0.004094583913683891
1746575967946833000,9.7518330078125,0.0039663612842559814,0.00466493796557188,-0.0066119288094341755
1746575967956910800,9.761910888671874,0.00326594989746809,0.003842819482088089,-0.005520299077033997
1746575967966988800,9.77198876953125,-0.0008745775558054447,-0.002403814345598221,-0.0028498354367911816
1746575967977068000,9.782068115234376,-0.003002976067364216,-0.00326454802416265,0.0025023191701620817
1746575967987146000,9.79214599609375,-0.004354961682111025,-0.0032239514403045177,0.012584681622684002
1746575967997224000,9.802223876953125,-0.00194932846352458,0.0014637447893619537,0.0153413200750947
1746575968007302000,9.812302001953125,-0.005096296314150095,0.006476656999439001,0.012748380191624165
1746575968017380000,9.822380126953124,-0.005859824363142252,0.006311807315796614,0.007397823967039585
1746575968027458000,9.8324580078125,-0.00183936208486557,0.0008249739184975624,-0.0003763645945582539
1746575968037536000,9.842535888671875,0.00462732557207346,-0.001652564387768507,0.0031667049042880535
1746575968047614000,9.852614013671875,0.0006510266102850437,-0.005111178383231163,0.003657989902421832
1746575968057692000,9.86269189453125,0.0018172250129282475,-0.0020983447320759296,-0.002583394292742014
1746575968067771000,9.87277099609375,0.002028130693361163,0.0012921933084726334,-0.003031071275472641
1746575968077848800,9.882848876953124,0.004513659048825502,-0.004470354877412319,-0.00023182251607067883
1746575968087926800,9.8929267578125,0.004157067276537418,-0.0036015049554407597,0.003310459665954113
1746575968098004700,9.903004638671876,-0.0011551403440535069,0.0014965841546654701,0.0032313638366758823
1746575968108083000,9.9130830078125,-0.005130409263074398,0.01656736433506012,0.005051062908023596
1746575968118161000,9.923160888671875,-0.005497925914824009,0.015013409778475761,0.0035501050297170877
1746575968128238800,9.93323876953125,-0.006005988456308842,0.01060577854514122,0.001610464882105589
1746575968138316800,9.94331689453125,-0.0007688817568123341,0.005774004850536585,-0.0021922627929598093
1746575968148394800,9.953394775390626,-0.003687785007059574,0.0032054134644567966,-0.008969401940703392
1746575968158472700,9.96347265625,0.0014425278641283512,-0.0019059916958212852,-0.0063046421855688095
1746575968168552000,9.973552001953125,0.003089290112257004,-0.001120287925004959,-0.004549493081867695
1746575968178630000,9.9836298828125,0.002128954278305173,-0.0021115164272487164,0.0016780426958575845
1746575968188707800,9.993707763671875,0.003928543999791145,-0.0018837754614651203,0.007077784277498722
1746575968198785800,10.003785888671874,0.0021583412308245897,0.0017226776108145714,0.009138005785644054
1746575968208864000,10.013864013671874,0.0016866852529346943,-0.0012484188191592693,0.0127218347042799
1746575968218942000,10.02394189453125,0.0010009217076003551,-0.0009283064864575863,0.013184958137571812
1746575968229020000,10.03402001953125,-0.0013596946373581886,0.0020720837637782097,0.010377706959843636
1746575968239097900,10.044097900390625,-0.0020933952182531357,0.005847647786140442,0.002210058504715562
1746575968249175800,10.05417578125,-0.0006156996823847294,0.0014576520770788193,-0.0005789863644167781
1746575968259254000,10.06425390625,-0.0021438216790556908,-0.0025839614681899548,-0.0020591712091118097
1746575968269333000,10.0743330078125,-0.0006584394723176956,-0.007387842517346144,-0.00001372344559058547
1746575968279411000,10.084410888671876,-0.0037224069237709045,-0.005386743228882551,-0.004462799988687038
1746575968289489000,10.094489013671875,-0.0010940320789813995,-0.00266993697732687,-0.007711689453572035
1746575968299567000,10.104567138671875,0.0047430843114852905,-0.0028712721541523933,-0.0037877876311540604
1746575968309645000,10.11464501953125,-0.00011869380250573158,0.0013730525970458984,0.003296134527772665
1746575968319723000,10.124722900390625,-0.004662313032895327,0.0072040436789393425,0.007592345587909222
1746575968329801000,10.134801025390624,-0.006203764583915472,0.010382590815424919,0.006825358606874943
1746575968339879000,10.14487890625,-0.0024697459302842617,0.0001360783353447914,0.003637022338807583
1746575968349956900,10.154956787109375,0.0040135993622243404,-0.005729264579713345,0.0016722677974030375
1746575968360034800,10.165034912109375,0.0023115728981792927,-0.00858976598829031,0.0006557393353432417
1746575968370113800,10.17511376953125,0.0033545896876603365,-0.007182955276221037,-0.004087201319634914
1746575968380191700,10.185191650390625,0.0023931884206831455,-0.00342630036175251,-0.00944867730140686
1746575968390270000,10.19527001953125,0.003323805285617709,-0.006064902525395155,-0.00606232276186347
1746575968400348000,10.205347900390626,0.00468787644058466,-0.0043447669595479965,-0.00021428728359751403
1746575968410425900,10.21542578125,0.0035253765527158976,0.001492129173129797,0.0010478256735950708
1746575968420503800,10.22550390625,-0.0014581969007849693,0.0072722542099654675,0.006492658518254757
1746575968430581800,10.235581787109375,-0.003847519401460886,0.005844566971063614,0.010266820900142193
1746575968440660000,10.245659912109375,-0.0016458844766020775,0.00585388857871294,0.013743577525019646
1746575968450738000,10.255738037109374,-0.001621860545128584,0.005649584345519543,0.007497876416891813
1746575968460817000,10.26581689453125,-0.0022674109786748886,0.005651981569826603,0.004901560954749584
1746575968470894800,10.275894775390626,0.0006173928268253803,-0.0015311948955059052,-0.0008477321243844926
1746575968480973000,10.28597314453125,0.002644590800628066,-0.008208006620407104,-0.004561776760965586
1746575968491051000,10.296051025390625,0.0019096019677817822,-0.005136293824762106,-0.010837300680577755
1746575968501129000,10.30612890625,0.002158873714506626,-0.0018177288584411144,-0.012426141649484634
1746575968511207000,10.31620703125,0.004721623845398426,0.0034291576594114304,-0.012991784140467644
1746575968521284900,10.326284912109376,0.0008555129170417786,0.006776751019060612,-0.0023308838717639446
1746575968531363000,10.336363037109376,-0.001502038910984993,0.009499040432274342,0.00775330001488328
1746575968541441000,10.34644091796875,-0.005100235342979431,0.004288032650947571,0.016741201281547546
1746575968551519000,10.35651904296875,-0.004147079773247242,0.005329666193574667,0.012782666832208633
1746575968561598000,10.366597900390625,0.00014673452824354172,0.0006576827727258205,0.006470442749559879
1746575968571676000,10.376676025390625,0.0015122261829674244,-0.005392175167798996,0.0044500818476080894
1746575968581753900,10.38675390625,-0.0032652183435857296,-0.002236329484730959,0.00513051962479949
1746575968591831800,10.396831787109376,-0.002682441845536232,-0.002982441335916519,0.015393728390336037
1746575968601909800,10.40690966796875,-0.004590064287185669,0.0010146968998014927,0.013046951033174992
1746575968611987700,10.41698779296875,-0.006934168748557568,0.006168253254145384,0.008770433254539967
1746575968622065700,10.427065673828125,-0.003843303769826889,0.0028933645226061344,0.004419893492013216
1746575968632144000,10.437143798828124,-0.0007064309902489185,-0.0034702939447015524,-0.0003087457735091448
1746575968642221800,10.447221923828126,0.001968447817489505,-0.005867937579751015,-0.008922208100557327
1746575968652299800,10.4572998046875,0.0026104997377842665,-0.0020956508815288544,-0.017273584380745888
1746575968662378800,10.467378662109375,0.006893395446240902,-0.004213662818074226,-0.027372291311621666
1746575968672457000,10.47745703125,0.007809191942214966,-0.004041658714413643,-0.025823861360549927
1746575968682535000,10.487534912109375,0.006952985655516386,-0.002882650587707758,-0.021350549533963203
1746575968692612900,10.49761279296875,0.002842441899701953,0.0033319899812340736,-0.013257778249680996
1746575968702690800,10.50769091796875,-0.0028260964900255203,0.011987796053290367,-0.00308077409863472
1746575968712768800,10.517768798828126,-0.004110483918339014,0.01374118309468031,0.01118758786469698
1746575968722847000,10.527846923828125,-0.005148317199200392,0.01031289529055357,0.018374128267169
1746575968732925000,10.537925048828125,-0.003186156041920185,0.006054806523025036,0.02488880790770054
1746575968743003000,10.5480029296875,-0.005917759612202644,0.0031596841290593147,0.02351381815969944
1746575968753081900,10.558081787109375,-0.005924861412495375,0.004730727523565292,0.012817678973078728
1746575968763160000,10.56816015625,-0.003245455678552389,-0.0012659127824008465,-0.0011940107215195894
1746575968773238000,10.578238037109376,0.0028203376568853855,-0.004505959339439869,-0.009047054685652256
1746575968783316000,10.58831591796875,0.003971089608967304,-0.007980052381753922,-0.01957532949745655
1746575968793394000,10.598393798828125,0.00005294615402817726,-0.0070616439916193485,-0.024784373119473457
1746575968803472000,10.608471923828125,0.00016719568520784378,-0.0009171986021101475,-0.02679026685655117
1746575968813550000,10.618550048828125,0.0020591504871845245,-0.002397229429334402,-0.014249750413000584
1746575968823628000,10.6286279296875,-0.00023676082491874695,-0.005458533298224211,-0.0001586980069987476
1746575968833706000,10.6387060546875,-0.0020979996770620346,-0.0006993087008595467,0.012580489739775658
1746575968843784000,10.648783935546875,-0.0010159569792449474,0.002737233880907297,0.016337145119905472
1746575968853863000,10.65886279296875,-0.0014066873118281364,0.0040742517448961735,0.012628469616174698
1746575968863940900,10.66894091796875,0.0007480760104954243,0.0020819413475692272,0.020856039598584175
1746575968874018800,10.679018798828125,0.0007220110855996609,-0.0018573221750557423,0.024441689252853394
1746575968884096800,10.6890966796875,-0.0037752692587673664,0.00020955735817551613,0.028295816853642464
1746575968894174700,10.6991748046875,-0.0075033288449049,-0.0011133840307593346,0.020528074353933334
1746575968904253000,10.7092529296875,-0.0016995021142065525,-0.0032558972015976906,0.009075417183339596
1746575968914331000,10.719330810546875,0.001655947882682085,-0.002398294862359762,-0.006359069608151913
1746575968924408800,10.729408935546875,0.0005344906821846962,-0.004228685051202774,-0.014424453489482403
1746575968934486800,10.73948681640625,0.0026349155232310295,-0.00632493058219552,-0.023687979206442833
1746575968944564700,10.749564697265624,0.005074104759842157,-0.008602732792496681,-0.028334662318229675
1746575968954643200,10.759643310546876,0.006024908274412155,-0.000617549754679203,-0.022445937618613243
1746575968964721200,10.76972119140625,0.0053860158659517765,-0.002961131278425455,-0.012302489019930363
1746575968974799000,10.779799072265625,0.002415215130895376,-0.0027847192250192165,-0.005512717179954052
1746575968984877000,10.789876953125,0.0001240978017449379,-0.0029311934486031532,0.0026671821251511574
1746575968994955300,10.799955322265625,0.0017889956943690777,-0.0001246761530637741,0.01369784027338028
1746575969005033200,10.810033203125,0.001947453711181879,-0.0035226030740886927,0.020540300756692886
1746575969015111200,10.820111083984376,-0.0034671411849558353,-0.0016770260408520699,0.013905957341194153
1746575969025189000,10.830189208984375,-0.004065286833792925,0.0004638894461095333,0.011136269196867943
1746575969035267000,10.84026708984375,0.0007327301427721977,0.001994173973798752,0.003026077523827553
1746575969045346300,10.85034619140625,0.0027394217904657125,0.002397642470896244,-0.007294470444321632
1746575969055424300,10.86042431640625,-0.0008427305147051811,0.00009643891826272011,-0.014756450429558754
1746575969065502200,10.870502197265624,0.0016342755407094955,-0.003327320795506239,-0.018136002123355865
1746575969075580200,10.880580078125,0.005207106936722994,-0.00616974662989378,-0.014307373203337193
1746575969085658400,10.890658447265626,0.004982602316886187,-0.009531188756227493,-0.010610905475914478
1746575969095736300,10.900736328125,0.0007872032001614571,-0.0030639609321951866,-0.002084138337522745
1746575969105814300,10.910814208984375,-0.0019824844785034657,0.003483687061816454,0.008500594645738602
1746575969115892200,10.920892333984375,-0.00349073251709342,0.011883977800607681,0.017374880611896515
1746575969125970200,10.93097021484375,-0.003021483775228262,0.009690864011645317,0.019230837002396584
1746575969136048400,10.94104833984375,-0.0017851227894425392,0.008154481649398804,0.018163850530982018
1746575969146127000,10.951127197265626,-0.0018700775690376759,0.005460959393531084,0.014390949159860611
1746575969156205000,10.961205078125,-0.002651449292898178,-0.000022755004465579987,0.0027097929269075394
1746575969166283000,10.971282958984375,-0.002332402393221855,-0.0028686090372502804,-0.006857879459857941
1746575969176361200,10.981361328125,-0.001413978636264801,-0.001971771940588951,-0.011411520652472973
1746575969186439200,10.991439208984374,-0.0020006727427244186,-0.0034096124581992626,-0.010828288272023201
1746575969196517000,11.00151708984375,0.0017958194948732853,-0.001039855182170868,-0.010432963259518147
1746575969206595000,11.011594970703126,-0.0014423178508877754,0.004183669574558735,-0.0034171314910054207
1746575969216673000,11.021673095703125,-0.002004411071538925,0.007750290911644697,0.005706226918846369
1746575969226751200,11.031751220703125,-0.0024286522530019283,0.0040223984979093075,0.011634423397481441
1746575969236830200,11.041830322265625,-0.0051589603535830975,0.0037681194953620434,0.014106938615441322
1746575969246908200,11.051908203125,0.00013460544869303703,0.00023330608382821083,0.018885182216763496
1746575969256986000,11.061986083984374,0.001891647931188345,-0.004017690196633339,0.017286324873566628
1746575969267064300,11.072064208984376,0.0010112067684531212,0.0013698851689696312,0.013713427819311619
1746575969277142300,11.082142333984375,0.0027751412708312273,-0.0003980589099228382,0.0023871539160609245
1746575969287220200,11.09222021484375,0.004720580298453569,-0.00042096246033906937,-0.005427093245089054
1746575969297298200,11.102298095703125,0.005418240092694759,-0.0025520697236061096,-0.005034190136939287
1746575969307376000,11.112376220703124,0.005162576679140329,-0.0008063679561018944,-0.008656621910631657
1746575969317454300,11.122454345703124,-0.0022176853381097317,0.004705654922872782,-0.0029434969183057547
1746575969327532300,11.1325322265625,-0.005253422539681196,0.010122524574398994,-0.00011308943794574589
1746575969337611300,11.142611328125,-0.005542808678001165,0.009083475917577744,-0.0010378380538895726
1746575969347689200,11.152689208984375,-0.006648020353168249,0.012747453525662422,-0.006946327164769173
1746575969357767400,11.162767333984375,-0.000022887252271175385,0.005694266874343157,-0.007431010715663433
1746575969367845400,11.172845458984375,-0.0003824140876531601,-0.0015780269168317318,-0.0027265367098152637
1746575969377923300,11.18292333984375,-0.0014786380343139172,-0.0015872502699494362,-0.0010239164112135768
1746575969388001300,11.193001220703126,-0.002272526267915964,-0.00006738398224115372,-0.004118243232369423
1746575969398079200,11.203079345703125,0.001948297256603837,0.0009197047911584377,-0.01068184431642294
1746575969408157200,11.2131572265625,0.003949396312236786,-0.0006065526977181435,-0.012511169537901878
1746575969418235400,11.2232353515625,0.0046729655005037785,-0.0027957423590123653,-0.002646808745339513
1746575969428314000,11.233314208984375,0.0020369687117636204,-0.004408285953104496,0.008873759768903255
1746575969438392000,11.24339208984375,-0.0010367296636104584,-0.000879072118550539,0.012612714432179928
1746575969448470000,11.253469970703126,-0.003266061656177044,0.002600348088890314,0.01380234770476818
1746575969458548200,11.26354833984375,0.0009382818825542927,0.00018147053197026253,0.012563965283334255
1746575969468626200,11.273626220703125,0.0022584106773138046,-0.00181909603998065,0.016188526526093483
1746575969478704000,11.2837041015625,0.0008062333799898624,0.0002620536834001541,0.01088772900402546
1746575969488782000,11.293781982421875,0.0008288701064884663,0.003643468953669071,0.007427217438817024
1746575969498860000,11.303860107421874,-0.0002954402007162571,-0.000542245339602232,0.005406868178397417
1746575969508938200,11.313938232421876,-0.00021847477182745934,-0.005193190183490515,0.007331534754484892
1746575969519017200,11.324017333984376,-0.0031030322425067425,-0.005374598316848278,0.0021230122074484825
1746575969529095200,11.33409521484375,-0.0003336109220981598,-0.0009156679734587669,-0.006621477659791708
1746575969539173000,11.344173095703125,0.0015128911472856998,-0.002840799745172262,-0.007091928739100695
1746575969549251300,11.354251220703125,0.003547545988112688,-0.004573185928165913,-0.002794918604195118
1746575969559329300,11.364329345703124,0.005789218470454216,-0.010269378311932087,-0.0007499627536162734
1746575969569407200,11.3744072265625,0.0026213882956653833,-0.00580245815217495,-0.002004311652854085
1746575969579485200,11.384485107421876,0.003351205727085471,-0.00909899640828371,0.003484884509816766
1746575969589563100,11.394563232421875,0.005388257559388876,-0.005235548131167889,0.007881763391196728
1746575969599641300,11.404641357421875,0.0018428359180688858,-0.0022422662004828453,0.00805935263633728
1746575969609719300,11.41471923828125,-0.0008584083989262581,0.00037695281207561493,0.00035962165566161275
1746575969619798300,11.42479833984375,0.0007675620727241039,0.0018658475019037724,-0.0008314554579555988
1746575969629876200,11.434876220703124,0.0015119155868887901,-0.0068541401997208595,0.0011589911300688982
1746575969639954400,11.444954345703126,0.0047136228531599045,-0.006888267584145069,0.0018558844458311796
1746575969650032400,11.455032470703125,0.0017958637326955795,-0.005366004537791014,0.004513985943049192
1746575969660110300,11.4651103515625,-0.00008539296686649323,0.0035686343908309937,0.000004454923328012228
1746575969670188300,11.475188232421875,0.0003039608709514141,0.003806455060839653,-0.0019271357450634241
1746575969680266200,11.485266357421875,0.0008059781976044178,-0.002608761191368103,0.002786113880574703
1746575969690344400,11.495344482421874,0.001237143762409687,-0.0021853186190128326,0.0051139830611646175
1746575969700422400,11.50542236328125,0.0008538691326975822,-0.0003986223600804806,0.00705520948395133
1746575969710501000,11.515501220703126,-0.004013856407254934,-0.0002918299287557602,0.002402933780103922
1746575969720579000,11.5255791015625,0.0009088655933737755,0.0006560520268976688,-0.0019799652509391308
1746575969730657300,11.5356572265625,0.003292927285656333,-0.0014896569773554802,-0.0007117680506780744
1746575969740735200,11.5457353515625,0.0017207404598593712,0.0027626194059848785,-0.0018799733370542526
1746575969750813200,11.555813232421874,-0.0037640403024852276,0.006148562766611576,0.0007895792368799448
1746575969760891100,11.56589111328125,-0.001858570147305727,0.005272901616990566,-0.00422380305826664
1746575969770969000,11.575968994140625,0.0007491973228752613,-0.0033373639453202486,-0.0004240047128405422
1746575969781047300,11.58604736328125,0.0020751631818711758,-0.005849400535225868,0.002765422221273184
1746575969791125200,11.596125244140625,-0.000003966502845287323,-0.008677943609654903,0.004369444213807583
1746575969801204200,11.606204345703125,-0.001623646356165409,0.0006388192996382713,0.003849539440125227
1746575969811282200,11.6162822265625,-0.0007184376008808613,0.0002681072801351547,0.0013136774068698287
1746575969821360000,11.626360107421876,0.0004201512783765793,-0.00005808286368846893,0.0035884620156139135
1746575969831438300,11.636438232421876,0.0007951240986585617,0.00021835323423147202,0.006599964573979378
1746575969841516300,11.646516357421875,-0.00020462647080421448,0.006441628094762564,0.005757073871791363
1746575969851594200,11.65659423828125,-0.002962063532322645,0.010988175868988037,0.002693107118830085
1746575969861672200,11.666672119140625,-0.0022788941860198975,0.002353441435843706,-0.0013054300798103213
1746575969871750100,11.676750244140624,0.000016750767827033997,-0.010389251634478569,-0.002029543509706855
1746575969881828400,11.686828369140626,0.004359511658549309,-0.019358474761247635,-0.0034521485213190317
1746575969891906300,11.69690625,0.004783753305673599,-0.011343689635396004,-0.0007642201380804181
1746575969901985300,11.7069853515625,0.003726211842149496,-0.0029030675068497658,-0.0008438486838713288
1746575969912063200,11.717063232421875,0.0035728137008845806,-0.0005336529575288296,0.0038307979702949524
1746575969922141400,11.727141357421875,0.004846514668315649,-0.004009656608104706,0.010325535200536251
1746575969932219400,11.737219482421875,0.002002525143325329,0.002149435691535473,0.006086848676204681
1746575969942297300,11.74729736328125,-0.0010853540152311325,0.00850316695868969,0.004681709222495556
1746575969952374800,11.757374755859376,-0.0017548729665577412,0.009196387603878975,0.0007860369514673948
1746575969962452700,11.76745263671875,-0.0003079012967646122,0.006663696840405464,0.004239283036440611
1746575969972531000,11.777531005859375,-0.003580926451832056,0.0016958359628915787,0.004410790745168924
1746575969982609000,11.78760888671875,-0.0030755908228456974,0.00703846663236618,0.00022736151004210114
