time,seconds_elapsed,z,y,x
1746734092890376200,0.045376220703125,-0.00031735002994537354,-0.0010994854383170605,-0.0003567831590771675
1746734092900343300,0.05534326171875,-0.0008648959919810295,0.0008728513494133949,0.0004181968979537487
1746734092910310100,0.06531005859375,0.0010031459387391806,0.0013788854703307152,-0.00048008328303694725
1746734092920277000,0.075277099609375,-0.00006957538425922394,0.00003931531682610512,-0.0003157663159072399
1746734092930243000,0.0852431640625,-0.0006429813802242279,0.00023227417841553688,-0.001235132571309805
1746734092940210200,0.095210205078125,0.0002630259841680527,-0.0013568340800702572,-0.0011211489327251911
1746734092950177300,0.10517724609375,0.0005608212668448687,-0.000321781262755394,0.0006835479289293289
1746734092960144100,0.11514404296875,-0.0004972526803612709,-0.0008102050051093102,-0.0005393759347498417
1746734092970110200,0.125110107421875,0.0010861114133149385,0.00011862674728035927,-0.00043275998905301094
1746734092980077000,0.1350771484375,0.00036386214196681976,0.0009234338067471981,-0.000701206736266613
1746734092990044200,0.145044189453125,0.00007583433762192726,-0.0002224976196885109,0.00028907181695103645
1746734093000010000,0.155010009765625,-0.0011489535681903362,-0.0002552545629441738,-0.0007852474227547646
1746734093009977000,0.16497705078125,-0.00025264080613851547,0.0005633221007883549,-0.00038771284744143486
1746734093019944200,0.174944091796875,0.00040729064494371414,-0.0002244408242404461,-0.0004124799743294716
1746734093029911000,0.1849111328125,0.0010725059546530247,0.0007492806762456894,0.0009270696900784969
1746734093039877000,0.194877197265625,0.00020751124247908592,-0.0006653908640146255,-0.0013856193982064724
1746734093049844000,0.204843994140625,0.0004956137854605913,-0.00004759756848216057,0.0015720450319349766
1746734093059811000,0.21481103515625,0.0009624660015106201,0.00047278404235839844,-0.0010911161080002785
1746734093069778200,0.224778076171875,0.00002782256342470646,0.0013315044343471527,0.000573313795030117
1746734093079744000,0.234743896484375,0.0005167790222913027,-0.0007683984003961086,0.000250271987169981
1746734093089711000,0.244711181640625,0.0003075606655329466,-0.0005244645290076733,-0.0009222426451742649
1746734093099678000,0.254677978515625,0.000706768361851573,0.0003152303397655487,0.0001315702684223652
1746734093109645000,0.26464501953125,-0.0005244635976850986,-0.00033063581213355064,-0.00029703928157687187
1746734093119611100,0.274611083984375,0.0008987295441329479,0.0014566113241016865,0.00018898770213127136
1746734093129578200,0.284578125,-0.0015227883122861385,-0.0010994873009622097,0.00007450208067893982
1746734093139545000,0.294545166015625,0.0005009477026760578,-0.001044093631207943,0.0003647864796221256
1746734093149512000,0.304511962890625,0.00006128102540969849,0.00027433549985289574,0.0006420123390853405
1746734093159478300,0.314478271484375,0.0004889846313744783,0.0008727475069463253,0.0010172519832849503
1746734093169445000,0.324445068359375,-0.0008240770548582077,0.0002117212861776352,-0.0009319684468209743
1746734093179412200,0.334412109375,-0.0009159562177956104,-0.0004753740504384041,0.0008190600201487541
1746734093189379300,0.34437939453125,-0.00009222328662872314,0.0011105844751000404,0.0007143896073102951
1746734093199345200,0.35434521484375,0.0009520018938928843,-0.00011100759729743004,0.0006443480961024761
1746734093209312300,0.364312255859375,-0.0019908598624169827,-0.0001412453129887581,-0.00035547418519854546
1746734093219279000,0.374279052734375,-0.00238234456628561,-0.00041368696838617325,-0.0005120681598782539
1746734093229246200,0.38424609375,-0.0017259307205677032,0.0005484600551426411,0.0005111903883516788
1746734093239212000,0.3942119140625,-0.0009911642409861088,-0.0004981621168553829,0.0012294449843466282
1746734093249179100,0.40417919921875,0.0006726067513227463,0.0004802183248102665,0.00014298362657427788
1746734093259146200,0.414146240234375,-0.0020227786153554916,-0.001057491172105074,0.00047135166823863983
1746734093269113000,0.424113037109375,-0.0004204893484711647,-0.0007659136317670345,0.0005931658670306206
1746734093279079200,0.4340791015625,0.0010572988539934158,-0.0007211728952825069,0.0006762566044926643
1746734093289046000,0.4440458984375,-0.00044446438550949097,0.00005607912316918373,0.00015428848564624786
1746734093299013000,0.45401318359375,0.0011933795176446438,0.0008936435915529728,0.00004749605432152748
1746734093308980200,0.463980224609375,0.00004349579103291035,-0.0015061497688293457,-0.0005160155706107616
1746734093318946000,0.473946044921875,0.0006056891288608313,0.0004398217424750328,-0.0014981897547841072
1746734093328913200,0.4839130859375,-0.0008787792176008224,0.00016886042430996895,0.0005584266036748886
1746734093338880000,0.4938798828125,-0.0003253743052482605,-0.00120985833927989,-0.00026502273976802826
1746734093348847000,0.50384716796875,0.0002370821312069893,0.0009256061166524887,-0.00008034799247980118
1746734093358813000,0.51381298828125,0.00016091554425656796,0.0009210784919559956,-0.0007810257375240326
1746734093368780000,0.523780029296875,0.0007629948668181896,-0.00010148901492357254,0.000845522154122591
1746734093378747100,0.5337470703125,-0.000362456776201725,0.001364847645163536,0.0010191602632403374
1746734093388713200,0.543713134765625,0.00114039471372962,-0.001007305458188057,0.0008209710940718651
1746734093398680300,0.553680419921875,0.0005174812395125628,-0.0003186119720339775,0.0007096510380506516
1746734093408647200,0.563647216796875,0.00043346849270164967,0.00014056451618671417,0.0016079922206699848
1746734093418614300,0.5736142578125,0.0018388184253126383,-0.0005587814375758171,-0.0009835297241806984
1746734093428580000,0.583580078125,0.0005152176599949598,0.0001551322638988495,0.0004943958483636379
1746734093438547200,0.593547119140625,0.0013951261062175035,-0.00010319426655769348,-0.0005311877466738224
1746734093448514300,0.603514404296875,-0.0007450240664184093,-0.0005501247942447662,-0.00003480957821011543
1746734093458481200,0.613481201171875,0.0007639229297637939,0.0004296521656215191,0.0015740056987851858
1746734093468447200,0.623447265625,0.00001149158924818039,0.0005946210585534573,0.0007829787209630013
1746734093478414000,0.6334140625,-0.0015387344174087048,0.00033895764499902725,0.0004801773466169834
1746734093488381200,0.643381103515625,0.00024739187210798264,-0.0000673946924507618,0.0012648017145693302
1746734093498348000,0.65334814453125,0.0003062477335333824,0.0009302254766225815,-0.0009386977180838585
1746734093508314000,0.663314208984375,-0.00024286936968564987,0.0007550804875791073,-0.0008406997658312321
1746734093518281200,0.67328125,-0.0003163726069033146,-0.0002345503307878971,-0.0011863778345286846
1746734093528248000,0.683248046875,0.00019434140995144844,-0.0002761255018413067,0.00048616062849760056
1746734093538215200,0.693215087890625,-0.0002786358818411827,-0.0005203373730182648,0.0015431693755090237
1746734093548181000,0.703180908203125,-0.0002881721593439579,0.00023463740944862366,-0.00011949241161346436
1746734093558148000,0.713148193359375,0.00004419032484292984,-0.0008237031288444996,0.0024270222056657076
1746734093568115000,0.723114990234375,0.0002482363488525152,-0.00026632193475961685,-0.0007143947295844555
1746734093578082000,0.73308203125,-0.0007669609040021896,0.0010127942077815533,0.0008038734085857868
1746734093588048100,0.743048095703125,0.0009624420199543238,-0.0002750549465417862,0.0010148696601390839
1746734093598015000,0.753014892578125,0.0005778814665973186,0.0005931355990469456,0.0010295170359313488
1746734093607982000,0.762982177734375,-0.0022929240949451923,-0.0018220765050500631,-0.0005208691582083702
1746734093617949000,0.772948974609375,-0.0011544227600097656,-0.00008755968883633614,0.000055705197155475616
1746734093627915300,0.782915283203125,-0.000809971708804369,-0.0005871132016181946,-0.001097006257623434
1746734093637882000,0.792882080078125,-0.0011274204589426517,-0.0003154706209897995,-0.000588076189160347
1746734093647849000,0.802848876953125,0.0007964211981743574,-0.0013748970814049244,-0.0002554459497332573
1746734093657815800,0.81281591796875,0.0003234436735510826,0.0006451103836297989,-0.00029486091807484627
1746734093667782100,0.8227822265625,0.0007367313373833895,-0.0004146783612668514,-0.0010846187360584736
1746734093677749000,0.8327490234375,0.0004328647628426552,0.0006556459702551365,0.0004336494021117687
1746734093687716000,0.842716064453125,0.00024304469116032124,0.00019985949620604515,0.0004185209982097149
1746734093697682000,0.852681884765625,0.0018806224688887596,0.0008171801455318928,-0.0010582022368907928
1746734093707649000,0.86264892578125,0.0015675085596740246,-0.0018889633938670158,-0.0005337726324796677
1746734093717616000,0.8726162109375,-0.0018597133457660675,-0.0007179714739322662,0.0007139183580875397
1746734093727583000,0.8825830078125,0.00007514492608606815,-0.000869465060532093,-0.00008194893598556519
1746734093737549000,0.892549072265625,-0.00007239403203129768,-0.0001988811418414116,0.0002671913243830204
1746734093747516000,0.902515869140625,0.001341912429779768,-0.000587201677262783,-0.0008885343559086323
1746734093757483000,0.91248291015625,-0.0004970002919435501,-0.00000476837158203125,-0.0002898555248975754
1746734093767450000,0.9224501953125,0.00029441947117447853,0.00001609697937965393,0.0003442256711423397
1746734093777416000,0.932416015625,0.00012637395411729813,0.0004208972677588463,0.0009013591334223747
1746734093787383000,0.942383056640625,-0.0004498646594583988,0.0006486815400421619,-0.0011921976692974567
1746734093797350000,0.952349853515625,-0.00023627933114767075,-0.0006120591424405575,-0.0018212362192571163
1746734093807317000,0.96231689453125,-0.001175764948129654,0.00009059114381670952,-0.0007273401133716106
1746734093817282800,0.97228271484375,-0.0008244938217103481,0.0017569311894476414,0.0010071764700114727
1746734093827250000,0.98225,-0.00044744275510311127,-0.0006473176181316376,-0.0008588279597461224
1746734093837217000,0.992217041015625,-0.0005345279350876808,0.0008839997462928295,-0.00025775283575057983
1746734093847184000,1.002183837890625,-0.0014513409696519375,-0.0015645704697817564,-0.000960745383054018
1746734093857150000,1.01214990234375,0.0008304552175104618,0.00008419249206781387,-0.0005202586762607098
1746734093867117000,1.022116943359375,-0.0014874539338052273,0.0008744122460484505,0.0013402965851128101
1746734093877084000,1.032083984375,0.0007863529026508331,-0.00047820713371038437,0.0001607825979590416
1746734093887050800,1.04205078125,-0.00022535957396030426,0.00046431878581643105,-0.0013307314366102219
1746734093897017000,1.05201708984375,-0.0002799546346068382,-0.00018948735669255257,0.0014514729846268892
1746734093906984200,1.061984130859375,-0.00043950555846095085,0.0003274139016866684,-0.0013554724864661694
1746734093916951000,1.071950927734375,0.00028487411327660084,0.0003140978515148163,-0.00014400063082575798
1746734093926918100,1.081918212890625,-0.0016928133554756641,-0.0007021576166152954,-0.0014205253683030605
1746734093936884000,1.091884033203125,-0.000039789360016584396,0.00008454034104943275,0.0012274556793272495
1746734093946851000,1.10185107421875,-0.0002793031744658947,0.0013622865080833435,-0.0003110235556960106
1746734093956818000,1.11181787109375,0.00016970583237707615,0.0008477638475596905,-0.00029318034648895264
1746734093966785000,1.121784912109375,0.0008236868306994438,0.0009076450951397419,0.00036057084798812866
1746734093976751000,1.131751220703125,0.0008031805045902729,-0.0005094227381050587,-0.0006801928393542767
1746734093986718000,1.141718017578125,-0.0004965267144143581,0.0014184718020260334,0.0004583457484841347
1746734093996685000,1.15168505859375,0.0008406464476138353,-0.0010912911966443062,-0.0014186501502990723
1746734094006651000,1.16165087890625,-0.0005600200966000557,0.006809253711253405,0.002493186853826046
1746734094016618000,1.171617919921875,-0.00023458153009414673,0.00106534780934453,0.0012068799696862698
1746734094026585000,1.181585205078125,0.000761684961616993,0.0006031459197402,0.0008738478645682335
1746734094036552000,1.191552001953125,-0.001637822948396206,0.00006678514182567596,-0.0006963517516851425
1746734094046518000,1.20151806640625,-0.0006981464102864265,-0.0008892277255654335,-0.0007061944343149662
1746734094056484900,1.21148486328125,-0.0005769724957644939,-0.000029559247195720673,0.00029115937650203705
1746734094066452000,1.221451904296875,0.00028600171208381653,0.00020067859441041946,-0.00028125569224357605
1746734094076418800,1.231418701171875,-0.0005915099754929543,-0.0025090877898037434,0.0005754833109676838
1746734094086385000,1.241385009765625,-0.0006655864417552948,-0.0011615706607699394,0.00015775393694639206
1746734094096352000,1.25135205078125,-0.0004322938621044159,0.0008528442122042179,-0.0009511862881481647
1746734094106318800,1.26131884765625,0.0011973523069173098,-0.0006014276295900345,0.0016979454085230827
1746734094116286000,1.271285888671875,-0.0005616657435894012,-0.00027332594618201256,0.0002651647664606571
1746734094126252000,1.281251953125,-0.000040523242205381393,-0.0003328472375869751,-0.00046563055366277695
1746734094136219100,1.29121923828125,0.0007760021835565567,-0.000658019445836544,-0.0005260840989649296
1746734094146186000,1.30118603515625,-0.00102335587143898,-0.0006053713150322437,0.0005887206643819809
1746734094156153000,1.311153076171875,0.0002291286364197731,0.001294527668505907,0.0014116375241428614
1746734094166119200,1.321119140625,0.0005912464112043381,-0.0003427104093134403,-0.0005487566813826561
1746734094176086000,1.3310859375,-0.0009304839186370373,0.0005137622356414795,0.0011660531163215637
1746734094186053000,1.34105322265625,-0.000316631980240345,0.0007854891009628773,0.0007656929083168507
1746734094196019000,1.35101904296875,-0.0004447302781045437,0.0002145073376595974,0.0016583844553679228
1746734094205986000,1.360986083984375,-0.00004775635898113251,0.0007932488806545734,0.0004302430897951126
1746734094215953000,1.370952880859375,-0.0005178041756153107,0.0010803374461829662,0.001115740742534399
1746734094225920000,1.380919921875,-0.0017374022863805294,0.0006551812402904034,-0.00033549824729561806
1746734094235886000,1.390885986328125,0.00021575996652245522,0.0011436049826443195,0.0005758353509008884
1746734094245853000,1.40085302734375,0.0007504837121814489,0.00002838810905814171,0.000050238799303770065
1746734094255820000,1.410820068359375,-0.0009105298668146133,0.000536253210157156,0.0006166934035718441
1746734094265787000,1.420786865234375,-0.0015900800935924053,-0.00022713327780365944,0.0005675540305674076
1746734094275753000,1.4307529296875,0.0010456505697220564,0.0005454500205814838,0.000057558994740247726
1746734094285719800,1.4407197265625,-0.00021221861243247986,-0.00014894921332597733,-0.002204837277531624
1746734094295687000,1.45068701171875,-0.00101010175421834,-0.0002943580038845539,0.0003930763341486454
1746734094305654000,1.460654052734375,0.0008317518513649702,0.001116991974413395,-0.0004285825416445732
1746734094315619800,1.470619873046875,0.00022188806906342506,-0.002464693272486329,0.0002028527669608593
1746734094325587000,1.4805869140625,0.0006082109175622463,0.000556927639991045,0.0004949797876179218
1746734094335553800,1.4905537109375,-0.0007129833102226257,-0.00006971415132284164,0.001764508429914713
1746734094345521000,1.50052099609375,0.00023406348191201687,-0.0006581037305295467,-0.0005459808744490147
1746734094355487000,1.510487060546875,0.00025403709150850773,0.00005935179069638252,0.0014900057576596737
1746734094365454000,1.5204541015625,0.0007496147882193327,-0.0007680305279791355,0.0004818616434931755
1746734094375421000,1.5304208984375,0.0013371079694479704,0.0007169479504227638,0.00008052308112382889
1746734094385387800,1.5403876953125,0.000492387916892767,0.0010426286607980728,-0.0005789287388324738
1746734094395354000,1.55035400390625,-0.0003989720717072487,-0.000007988419383764267,-0.00006547104567289352
1746734094405321000,1.560321044921875,-0.0012729554437100887,-0.0013733860105276108,0.0005905958823859692
1746734094415288000,1.5702880859375,0.0002487748861312866,-0.000535822007805109,-0.0012981179170310497
1746734094425254000,1.58025390625,-0.0015869592316448689,-0.0026008947752416134,0.0002184794284403324
1746734094435221000,1.590220947265625,-0.0010628490708768368,0.0011155465617775917,-0.001020156778395176
1746734094445188000,1.60018798828125,-0.0003489181399345398,0.0003085690550506115,0.0005933260545134544
1746734094455155000,1.610155029296875,-0.0005348068661987782,-0.0010184841230511665,-0.002731630578637123
1746734094465121000,1.62012109375,0.0010532112792134285,-0.000264560803771019,-0.0005281539633870125
1746734094475088000,1.630087890625,0.0000864837784320116,0.0000885743647813797,-0.00004425784572958946
1746734094485055000,1.640054931640625,-0.001321378629654646,0.0007368051446974277,-0.0003654523752629757
1746734094495022000,1.65002197265625,0.0007843829225748777,-0.00007758941501379013,-0.0005646571516990662
1746734094504988000,1.65998779296875,0.0008309888653457165,-0.0004893029108643532,0.00028173066675662994
1746734094514955000,1.669955078125,-0.00003587035462260246,0.0009304280392825603,0.0006543071940541267
1746734094524921900,1.679921875,0.0005358271300792694,0.0010974886827170849,-0.0008313325233757496
1746734094534889000,1.689888916015625,-0.00023462530225515366,-0.0004580640234053135,-0.0009977803565561771
1746734094544854800,1.699854736328125,0.001910913735628128,-0.00035476498305797577,-0.0002419441007077694
1746734094554822000,1.70982177734375,-0.0011160350404679775,0.0003871917724609375,0.000434232410043478
1746734094564789000,1.7197890625,0.0024138763546943665,-0.00023300759494304657,-0.0007272986695170403
1746734094574755800,1.729755859375,-0.0009659412316977978,-0.0002737543545663357,0.0006250548176467419
1746734094584722000,1.739721923828125,-0.00014877831563353539,-0.0002094651572406292,-0.0016861539334058762
1746734094594688800,1.749688720703125,0.0003652116283774376,-0.00004168599843978882,-0.00043340306729078293
1746734094604655900,1.75965576171875,0.0004670277703553438,0.0005490761250257492,0.0002069626934826374
1746734094614622000,1.7696220703125,-0.00005255499854683876,0.0006425529718399048,-0.0010431250557303429
1746734094624589000,1.779589111328125,0.0009456146508455276,0.001064486801624298,-0.00010504154488444328
1746734094634556200,1.78955615234375,0.0003123150672763586,0.0004319860599935055,0.0009527658112347126
1746734094644523000,1.79952294921875,-0.00038314657285809517,-0.0003187665715813637,0.0004100319929420948
1746734094654489300,1.8094892578125,-0.00004678918048739433,-0.00006629852578043938,-0.0005497708916664124
1746734094664456200,1.819456298828125,-0.00027165981009602547,-0.000539102591574192,-0.0007972563616931438
1746734094674423300,1.82942333984375,0.0014045338612049818,-0.00045574549585580826,-0.0006715552881360054
1746734094684390400,1.839390380859375,-0.0006255442276597023,-0.0003675287589430809,-0.0012700418010354042
1746734094694356200,1.849356201171875,0.0010069734416902065,-0.0004644677974283695,-0.0017153220251202583
1746734094704323300,1.8593232421875,-0.0004460671916604042,0.0003041299059987068,-0.00004657171666622162
1746734094714290200,1.869290283203125,-0.001371782273054123,-0.0006447546184062958,-0.0015967977233231068
1746734094724257300,1.87925732421875,0.0012575117871165276,-0.0003172820433974266,-0.0006310343742370605
1746734094734223000,1.88922314453125,-0.0002511688508093357,0.0010688933543860912,-0.0012478227727115154
1746734094744190200,1.899190185546875,0.001015074783936143,-0.0009406493045389652,-0.0006265980191528797
1746734094754157300,1.9091572265625,0.00008030515164136887,-0.00016273977234959602,0.00007594376802444458
1746734094764124200,1.919124267578125,0.0003360991831868887,0.0009658318012952805,-0.0004053986631333828
1746734094774090200,1.92909033203125,-0.000452463049441576,-0.0014366060495376587,-0.000294344499707222
1746734094784057000,1.93905712890625,0.0007425539661198854,-0.00040852325037121773,0.00039453664794564247
1746734094794024200,1.949024169921875,0.0006538706365972757,-0.0007709790952503681,-0.0002874988131225109
1746734094803990000,1.958989990234375,0.0004002985078841448,-0.00013230927288532257,0.00021663447842001915
1746734094813957000,1.96895703125,0.001948926830664277,-0.0002659996971487999,-0.0008592824451625347
1746734094823924200,1.97892431640625,0.001661896239966154,0.00021511083468794823,-0.00135139562189579
1746734094833891000,1.98889111328125,-0.001252134796231985,-0.00032551074400544167,-0.0002576354891061783
1746734094843857400,1.998857421875,-0.00023946678265929222,0.00034903688356280327,0.0007906709797680378
1746734094853824300,2.00882421875,-0.000295126810669899,0.00003558304160833359,-0.0007180096581578255
1746734094863791000,2.018791015625,-0.0008548563346266747,-0.0006822869181632996,-0.00023055123165249825
1746734094873758200,2.02875830078125,-0.0001099701039493084,0.0004831124097108841,0.00004748255014419556
1746734094883724300,2.038724365234375,0.00036488473415374756,-0.0013669119216501713,0.0003560427576303482
1746734094893691400,2.04869140625,-0.0011794823221862316,0.0001713298261165619,0.001394675811752677
1746734094903658200,2.058658203125,-0.00003041652962565422,-0.0010708123445510864,-0.0003878348506987095
1746734094913625300,2.068625244140625,-0.0009220428764820099,0.0008487938903272152,0.0008345562964677811
1746734094923591200,2.078591064453125,-0.00029350630939006805,0.00027496926486492157,0.00021654274314641953
1746734094933558300,2.088558349609375,0.0010202308185398579,-0.00017297454178333282,-0.0005294084548950195
1746734094943525400,2.098525390625,-0.0012693763710558414,-0.00044532306492328644,0.0009132977575063705
1746734094953492200,2.1084921875,0.0008659462910145521,0.0005839886143803596,0.00009490828961133957
1746734094963458300,2.118458251953125,0.0011812185402959585,0.0004466730169951916,-0.0005084429867565632
1746734094973425200,2.128425048828125,0.0007199591491371393,0.0005167140625417233,0.0004345821216702461
1746734094983392300,2.138392333984375,-0.0005929404869675636,-0.00044083409011363983,0.0015564432833343744
1746734094993359400,2.148359375,-0.001073641236871481,0.0002582455053925514,-0.0005202898755669594
1746734095003325200,2.1583251953125,-0.0008199438452720642,-0.00019276048988103867,0.0003803451545536518
1746734095013292300,2.168292236328125,0.00043520377948880196,-0.0009195371530950069,0.0006759562529623508
1746734095023259100,2.178259033203125,0.000373246381059289,-0.000052516814321279526,-0.0002456558868288994
1746734095033225200,2.18822509765625,0.0006542098708450794,-0.0006719678640365601,0.0007932432927191257
1746734095043192000,2.198192138671875,0.001273874193429947,-0.000004796776920557022,0.00015872623771429062
1746734095053159200,2.2081591796875,-0.000900863204151392,-0.0009984220378100872,-0.00000798795372247696
1746734095063126300,2.218126220703125,-0.0008502155542373657,-0.00028857868164777756,0.0010575889609754086
1746734095073092000,2.228092041015625,0.000032356008887290955,0.00034871604293584824,-0.00009822286665439606
1746734095083059200,2.23805908203125,-0.0005785482935607433,-0.0004186313599348068,-0.000010449439287185669
1746734095093026000,2.248026123046875,-0.0013122493401169777,-0.00027135852724313736,0.0007866346277296543
1746734095102993200,2.2579931640625,-0.0007233754731714725,0.000557358842343092,0.0004291404038667679
1746734095112959200,2.267959228515625,-0.000587287824600935,0.0009331312030553818,-0.0005556964315474033
1746734095122926300,2.27792626953125,0.0010828562080860138,-0.0008767335675656796,-0.0012756469659507275
1746734095132893400,2.2878935546875,-0.00033794017508625984,0.000339265912771225,0.00044848350808024406
1746734095142860300,2.2978603515625,0.00014589005149900913,-0.0014920306857675314,0.00014985119923949242
1746734095152826400,2.307826416015625,-0.0005806200206279755,-0.00015725428238511086,-0.0009138155728578568
1746734095162793200,2.317793212890625,0.0007667168974876404,-0.0014315517619252205,0.00034349411725997925
1746734095172760300,2.32776025390625,-0.00030760234221816063,0.001338401809334755,0.0002739857882261276
1746734095182727400,2.3377275390625,-0.00006545614451169968,0.00038845231756567955,0.00006276275962591171
1746734095192693200,2.347693359375,-0.000531509518623352,0.0012664967216551304,0.0008920710533857346
1746734095202660400,2.357660400390625,-0.0008997498080134392,-0.00047809071838855743,0.0011647464707493782
1746734095212627200,2.367627197265625,-0.002028397284448147,0.0010891794227063656,-0.0009942781180143356
1746734095222593300,2.37759326171875,-0.000052554067224264145,0.0003108512610197067,-0.00022408319637179375
1746734095232560000,2.38756005859375,-0.00006294064223766327,-0.0001831650733947754,-0.0005971919745206833
1746734095242527200,2.39752734375,0.0005171443335711956,-0.000389881432056427,0.0008028219453990459
1746734095252494300,2.407494384765625,0.0012511115055531263,0.00043942686170339584,0.0009852484799921513
1746734095262460200,2.417460205078125,0.001320138806477189,0.00053808419033885,-0.00005206232890486717
1746734095272427300,2.42742724609375,-0.0008780346252024174,-0.0008606081828474998,-0.0008552717044949532
1746734095282394000,2.43739404296875,0.0005555280949920416,-0.0003716005012392998,-0.0011341795325279236
1746734095292361200,2.447361328125,-0.0008349083364009857,0.0003487844951450825,0.0005002026446163654
1746734095302327000,2.4573271484375,0.0004864633083343506,-0.0006020357832312584,0.0005736327730119228
1746734095312294100,2.467294189453125,-0.0014102398417890072,0.00028852513059973717,0.0007565920241177082
1746734095322261200,2.47726123046875,0.0005082357674837112,0.0001285979524254799,-0.00039956439286470413
1746734095332228000,2.48722802734375,0.00023419642820954323,-0.00027007702738046646,-0.00019290298223495483
1746734095342194400,2.4971943359375,0.00016722967848181725,0.0006475206464529037,0.0009073121473193169
1746734095352161300,2.507161376953125,-0.0006370451301336288,0.00029731495305895805,0.0001541702076792717
1746734095362128400,2.51712841796875,-0.0009238668717443943,-0.000029020942747592926,-0.0012415661476552486
1746734095372095200,2.52709521484375,0.001451672986149788,0.00003569386899471283,0.0008934899233281612
1746734095382061300,2.537061279296875,-0.00027672993019223213,-0.0007854318246245384,-0.000333431176841259
1746734095392028400,2.5470283203125,-0.0003251992166042328,-0.0003654514439404011,0.0009131943807005882
1746734095401995300,2.556995361328125,-0.00013156281784176826,0.0013901055790483952,-0.00023391377180814743
1746734095411962400,2.56696240234375,-0.0011201282031834126,-0.0011694584973156452,-0.0008608214557170868
1746734095421928200,2.57692822265625,0.000569106312468648,-0.0005003800615668297,-0.00016013020649552345
1746734095431895300,2.586895263671875,-0.0015949783846735954,-0.0006575062870979309,-0.001561485230922699
1746734095441862400,2.5968623046875,-0.0009121010079979897,0.000061023980379104614,0.0011088214814662933
1746734095451828200,2.606828125,0.0011523815337568521,0.0007622344419360161,-0.00037882057949900627
1746734095461795300,2.61679541015625,-0.0004288880154490471,-0.0005387170240283012,-0.0011800858192145824
1746734095471762200,2.62676220703125,-0.0016829702071845531,-0.0001616133376955986,-0.0008730231784284115
1746734095481729300,2.636729248046875,-0.000797453336417675,0.0007047378458082676,0.001017316710203886
1746734095491695000,2.646695068359375,0.000149034196510911,0.00033242814242839813,0.0011893571354448795
1746734095501662200,2.656662109375,-0.0003487379290163517,0.00007029762491583824,0.0010919515043497086
1746734095511629300,2.66662939453125,-0.00018921447917819023,-0.0024581076577305794,-0.0013855872675776482
1746734095521596200,2.67659619140625,-0.00035339687019586563,0.00016906345263123512,-0.001255528535693884
1746734095531562200,2.686562255859375,0.0002468796446919441,0.00006573274731636047,-0.0013245041482150555
1746734095541529000,2.696529052734375,0.0006424852181226015,-0.00010399147868156433,-0.0003266031853854656
1746734095551496200,2.70649609375,-0.0003071976825594902,-0.0010821707546710968,-0.000552705954760313
1746734095561462300,2.716462158203125,0.0021639754995703697,-0.0017020627856254578,0.002407446736469865
1746734095571429400,2.726429443359375,-0.00005257362499833107,-0.0012922021560370922,-0.00003467220813035965
1746734095581396200,2.736396240234375,-0.0009953728877007961,0.0004431726410984993,0.0003685704432427883
1746734095591363000,2.746363037109375,0.0016187862493097782,0.0008905837312340736,-0.0005480893887579441
1746734095601329400,2.756329345703125,0.0011432801838964224,0.0006490699015557766,0.00012179138138890266
1746734095611296300,2.766296142578125,0.0014506091829389334,-0.0014012977480888367,-0.0005631735548377037
1746734095621263400,2.776263427734375,-0.00005324464291334152,0.0008857343345880508,-0.0011897720396518707
1746734095631230200,2.786230224609375,-0.0010322225280106068,-0.0007853992283344269,-0.00013382872566580772
1746734095641196300,2.7961962890625,0.0012436381075531244,0.0008859708905220032,-0.0006314720958471298
1746734095651164400,2.806164306640625,0.0005874352063983679,-0.0014171311631798744,-0.00031934957951307297
1746734095661131300,2.81613134765625,0.0013880862388759851,-0.0009287078864872456,0.00006815977394580841
1746734095671098000,2.82609814453125,0.0012317588552832603,0.0009019486606121063,-0.00037232693284749985
1746734095681064200,2.836064208984375,-0.0023775799199938774,-0.000004511326551437378,0.0011855000630021095
1746734095691031300,2.84603125,0.0008200774900615215,0.0009046918712556362,0.0003218371421098709
1746734095700998400,2.855998291015625,-0.0021976418793201447,-0.0003129681572318077,-0.000028911978006362915
1746734095710965200,2.86596533203125,0.00004394073039293289,-0.0010645124129951,-0.00021160487085580826
1746734095720931300,2.875931396484375,0.0006868995260447264,0.0005836393684148788,-0.0007318477146327496
1746734095730898200,2.885898193359375,0.0020437801722437143,0.001555160153657198,0.0008556623943150043
1746734095740865300,2.895865234375,0.00047770608216524124,0.00029161712154746056,0.0006422647275030613
1746734095750832400,2.905832275390625,-0.000519381370395422,0.00021411897614598274,-0.0010754740796983242
1746734095760798200,2.915798095703125,0.0008447440341114998,0.00040339305996894836,-0.0005330932326614857
1746734095770765300,2.925765380859375,0.0004444709047675133,-0.00003736000508069992,-0.0004824930801987648
1746734095780732200,2.935732177734375,-0.0016564135439693928,0.0013704015873372555,-0.00035101454704999924
1746734095790698200,2.9456982421875,-0.001032168511301279,-0.0005444111302495003,0.0009824302978813648
1746734095800665000,2.9556650390625,0.0005005868151783943,-0.0006735357455909252,-0.0003772522322833538
1746734095810632200,2.965632080078125,-0.00033591175451874733,-0.000036774203181266785,0.0003394046798348427
1746734095820599300,2.975599365234375,-0.00038739992305636406,0.0000701388344168663,0.0001778285950422287
1746734095830565000,2.985565185546875,-0.0005304114893078804,0.00003498513251543045,-0.0004544057883322239
1746734095840532200,2.9955322265625,0.0006822787690907717,0.0016386457718908787,-0.00009412271901965141
1746734095850499000,3.0054990234375,-0.00041307928040623665,-0.0001736353151500225,0.0002542184665799141
1746734095860466200,3.015466064453125,-0.0002975952811539173,0.0005435715429484844,-0.00015100790187716484
1746734095870432300,3.025432373046875,0.0004430299159139395,0.00008577434346079826,0.0009779063984751701
1746734095880399000,3.035399169921875,-0.001526155974715948,0.0009731673635542393,0.0007405313663184643
1746734095890366200,3.0453662109375,0.0005199506413191557,-0.00037705525755882263,0.0008209589868783951
1746734095900332300,3.055332275390625,0.0014814448077231646,-0.0010747960768640041,-0.0010964823886752129
1746734095910299400,3.06529931640625,-0.00018915627151727676,0.0016437587328255177,-0.0003212359733879566
1746734095920266200,3.075266357421875,0.0006710044108331203,-0.0008110846392810345,0.00036415038630366325
1746734095930233300,3.0852333984375,-0.0023966911248862743,-0.00028324639424681664,-0.00039751362055540085
1746734095940199200,3.09519921875,-0.0010761716403067112,-0.000554252415895462,-0.0004560369998216629
1746734095950166300,3.105166259765625,0.0006642038933932781,0.0000886349007487297,-0.0003114272840321064
1746734095960133400,3.11513330078125,-0.0018127565272152424,0.0002944055013358593,0.0007695583626627922
1746734095970100200,3.125100341796875,0.0010309666395187378,0.0005085235461592674,-0.000510356854647398
1746734095980066300,3.13506640625,0.0009559819009155035,-0.0005089794285595417,-0.000647054985165596
1746734095990033200,3.145033203125,-0.001717299222946167,-0.00016569765284657478,-0.002031099982559681
1746734096000000300,3.155000244140625,0.002021252876147628,-0.0010998714715242386,0.0005106828175485134
1746734096009967400,3.16496728515625,-0.0005723997019231319,-0.00003780284896492958,-0.0005971924401819706
1746734096019933200,3.17493310546875,-0.001203790307044983,0.00017846329137682915,-0.00023083994165062904
1746734096029900300,3.184900390625,0.00006653741002082825,0.0004711444489657879,0.001543091842904687
1746734096039867100,3.1948671875,0.0003901934251189232,0.0006338255479931831,0.0010588672012090683
1746734096049833200,3.204833251953125,-0.0008638892322778702,0.0008585960604250431,-0.00024182070046663284
1746734096059800000,3.214800048828125,-0.00004794308915734291,0.000531831756234169,-0.000685530249029398
1746734096069767200,3.22476708984375,-0.0013038897886872292,0.0009904280304908752,0.0002479078248143196
1746734096079734300,3.234734375,0.000784979434683919,-0.00047452840954065323,-0.0006474237889051437
1746734096089700000,3.2447001953125,-0.000665910542011261,0.0006136391311883926,-0.0020101629197597504
1746734096099667200,3.254667236328125,-0.0006355494260787964,0.0002570180222392082,0.00032941345125436783
1746734096109634000,3.264634033203125,-0.0007814904674887657,0.00015262234956026077,-0.0011497060768306255
1746734096119601200,3.27460107421875,0.0014819386415183544,0.0001719687134027481,0.0004950352013111115
1746734096129567200,3.284567138671875,-0.00041689537465572357,0.001068389043211937,0.00014775898307561874
1746734096139534300,3.294534423828125,-0.00023627327755093575,-0.0008298424072563648,-0.0009192992001771927
1746734096149501400,3.30450146484375,-0.0002155005931854248,0.00135048758238554,-0.00002394476905465126
1746734096159468300,3.31446826171875,0.0014779914636164904,0.00046754349023103714,-0.0001859702169895172
1746734096169434400,3.324434326171875,-0.00022802967578172684,-0.0006786813028156757,-0.001358560286462307
1746734096179401200,3.334401123046875,-0.0006817616522312164,-0.00027150288224220276,-0.0005724574439227581
1746734096189368300,3.344368408203125,-0.00028867926448583603,0.0007484876550734043,-0.0013056257739663124
1746734096199334100,3.354334228515625,0.0011116943787783384,-0.0004027155227959156,0.0009058094583451748
1746734096209301200,3.36430126953125,0.0014278115704655647,-0.0003710240125656128,0.00006318558007478714
1746734096219268400,3.374268310546875,-0.0013408190570771694,-0.00097664725035429,-0.0005701403133571148
1746734096229235200,3.384235107421875,-0.0016244454309344292,-0.0009635980241000652,0.0005941935814917088
1746734096239201300,3.394201171875,0.00008133542723953724,0.000594019889831543,0.0003074328415095806
1746734096249168100,3.404168212890625,-0.0008110897615551949,-0.000750876497477293,-0.00013571744784712791
1746734096259135200,3.41413525390625,-0.0017403028905391693,-0.0011951564811170101,0.0006205704994499683
1746734096269102300,3.424102294921875,0.00027863960713148117,-0.0010864995419979095,-0.0009554880671203136
1746734096279068200,3.434068115234375,-0.0003859815187752247,-0.0007430259138345718,-0.0014465665444731712
1746734096289035300,3.44403515625,0.0018603946082293987,-0.0013997610658407211,0.00018754927441477776
1746734096299002000,3.454002197265625,0.0002905742730945349,0.00021268054842948914,-0.0015301238745450974
1746734096308969200,3.46396923828125,0.0006463725585490465,-0.0004658927209675312,0.0007990766316652298
1746734096318935000,3.47393505859375,0.002127618994563818,0.00009179487824440002,0.0013221325352787971
1746734096328902100,3.483902099609375,-0.0016807015053927898,0.0008691716939210892,0.002450780011713505
1746734096338869200,3.493869140625,-0.24658654630184174,0.0022970098070800304,-0.003789672162383795
1746734096348835300,3.50383544921875,-0.5354470610618591,0.0031119375489652157,-0.0017965622246265411
1746734096358802400,3.513802490234375,-0.46892261505126953,0.0020399698987603188,-0.0035234661772847176
1746734096368769300,3.523769287109375,-0.4010263979434967,0.004549732897430658,-0.003050754778087139
1746734096378736400,3.533736328125,-0.44157639145851135,0.00463168416172266,-0.002345386426895857
1746734096388702200,3.5437021484375,-0.4366926848888397,-0.005906177684664726,-0.004163526929914951
1746734096398669300,3.55366943359375,-0.4117279648780823,-0.05774587020277977,-0.03238798677921295
1746734096408636400,3.563636474609375,-0.33255642652511597,-0.09420295059680939,-0.04729263111948967
1746734096418603300,3.573603271484375,-0.22353148460388184,-0.05165952816605568,-0.03261374682188034
1746734096428569300,3.5835693359375,-0.15065860748291016,-0.041585322469472885,-0.028321264311671257
1746734096438536200,3.5935361328125,-0.021507984027266502,-0.05940672755241394,-0.03969461843371391
1746734096448503300,3.60350341796875,0.09123320877552032,-0.06510722637176514,-0.03523249179124832
1746734096458469000,3.61346923828125,0.1387811154127121,-0.05009285360574722,-0.032489631325006485
1746734096468436200,3.623436279296875,0.18260902166366577,-0.05194801092147827,-0.029178522527217865
1746734096478403300,3.6334033203125,0.23240315914154053,-0.029382672160863876,-0.02436242625117302
1746734096488370200,3.6433701171875,0.250815749168396,-0.06385702639818192,-0.034690164029598236
1746734096498336300,3.653336181640625,0.2632948160171509,-0.11811769008636475,-0.04988427460193634
1746734096508303000,3.66330322265625,0.2848038375377655,-0.15283545851707458,-0.05716003477573395
1746734096518270200,3.673270263671875,0.33772778511047363,-0.11779287457466125,-0.05542069673538208
1746734096528237300,3.6832373046875,0.4542781114578247,-0.018396511673927307,-0.005148736760020256
1746734096538203100,3.693203125,0.49053141474723816,0.22028854489326477,0.07478856295347214
1746734096548170200,3.703170166015625,0.538322389125824,0.5613819360733032,0.19733577966690063
1746734096558137000,3.71313720703125,0.5048528909683228,-0.03837989643216133,-0.0303262397646904
1746734096568103400,3.723103515625,0.46786800026893616,-0.1863909363746643,-0.07495948672294617
1746734096578070300,3.7330703125,0.4448709189891815,0.11203610152006149,0.04385214298963547
1746734096588037400,3.743037353515625,0.3878651559352875,0.15742969512939453,0.035791557282209396
1746734096598004200,3.753004150390625,0.2807933986186981,-0.1959841251373291,-0.05853485316038132
1746734096607970300,3.76297021484375,0.14475303888320923,-0.01690784841775894,-0.00845517311245203
1746734096617937400,3.7729375,0.06779295951128006,0.15732690691947937,0.04582807421684265
1746734096627904300,3.782904296875,-0.00427830358967185,-0.06400121748447418,-0.016247546300292015
1746734096637871400,3.792871337890625,-0.05172168090939522,-0.041608136147260666,-0.014035295695066452
1746734096647835400,3.80283544921875,-0.09937867522239685,0.07641784101724625,0.02341008186340332
1746734096657802500,3.812802490234375,-0.11658132076263428,-0.04714550822973251,-0.012567190453410149
1746734096667769600,3.82276953125,-0.13468070328235626,-0.0031210624147206545,-0.0022793998941779137
1746734096677735700,3.832735595703125,-0.1404113620519638,0.02014533244073391,0.006662503816187382
1746734096687702500,3.84270263671875,-0.15059901773929596,-0.02564399316906929,-0.007492197211831808
1746734096697669600,3.852669677734375,-0.18108320236206055,0.01778321899473667,0.005171436816453934
1746734096707636500,3.862636474609375,-0.2215307652950287,-0.012636737897992134,-0.0011940505355596542
1746734096717602600,3.8726025390625,-0.2170262336730957,-0.013180999085307121,-0.004120817873626947
1746734096727569700,3.882569580078125,-0.19138984382152557,-0.009467486292123795,-0.0028992253355681896
1746734096737536800,3.892536865234375,-0.17766977846622467,-0.010508716106414795,-0.0032955878414213657
1746734096747503600,3.902503662109375,-0.1197766661643982,-0.0022047138772904873,0.0013739988207817078
1746734096757469700,3.9124697265625,-0.08336968719959259,-0.005162044428288937,-0.0003037559799849987
1746734096767436500,3.9224365234375,-0.0821281224489212,0.005621627438813448,0.0013082553632557392
1746734096777403600,3.932403564453125,-0.042949751019477844,-0.010061150416731834,-0.0032463562674820423
1746734096787369500,3.942369384765625,-0.00496934587135911,0.018293526023626328,0.0048139663413167
1746734096797336600,3.952336669921875,-0.016515269875526428,-0.004503244534134865,-0.0009393682703375816
1746734096807303700,3.9623037109375,0.005718396510928869,0.00012186728417873383,0.00032110605388879776
1746734096817270500,3.9722705078125,0.03296710178256035,0.007703510113060474,0.0014108340255916119
1746734096827236600,3.982236572265625,0.05083557963371277,-0.003729706397280097,-0.0006613717414438725
1746734096837203500,3.992203369140625,0.07704081386327744,-0.0023661679588258266,-0.0005625681951642036
1746734096847170600,4.002170654296875,0.10208172351121902,0.018106883391737938,0.00752385426312685
1746734096857137700,4.0121376953125,0.07119014859199524,-0.015215720050036907,-0.0056893350556492805
1746734096867103500,4.022103515625,0.0741899311542511,-0.007842225953936577,-0.0029891561716794968
1746734096877070600,4.032070556640625,0.0849146768450737,-0.013206453993916512,-0.0025665597058832645
1746734096887037400,4.042037353515625,0.07456803321838379,-0.0203035119920969,-0.006865700241178274
1746734096897003800,4.052003662109375,0.08187831938266754,0.010552646592259407,0.005318131297826767
1746734096906970600,4.061970703125,0.10232607275247574,-0.005000481382012367,-0.00028009992092847824
1746734096916937500,4.0719375,0.12204570323228836,-0.012286335229873657,-0.005017535295337439
1746734096926904600,4.081904541015625,0.11652204394340515,0.02675001509487629,0.008088412694633007
1746734096936870700,4.09187060546875,0.13446389138698578,0.0096907839179039,0.0020018506329506636
1746734096946837800,4.101837646484375,0.13074426352977753,-0.037627995014190674,-0.012114767916500568
1746734096956804600,4.1118046875,0.12740947306156158,0.010294965468347073,0.0019645895808935165
1746734096966771700,4.121771728515625,0.0879020169377327,0.03918254002928734,0.013864925131201744
1746734096976737500,4.131737548828125,0.03913245350122452,-0.008032201789319515,-0.002800720278173685
1746734096986704600,4.14170458984375,0.00004097446799278259,-0.015777738764882088,-0.004134431015700102
1746734096996671700,4.151671630859375,-0.02369396574795246,0.01311262883245945,0.002750471932813525
1746734097006637600,4.161637451171875,-0.024143505841493607,-0.004278611391782761,-0.0014714375138282776
1746734097016604700,4.171604736328125,-0.031089451164007187,-0.003909271210432053,-0.0022813579998910427
1746734097026571500,4.181571533203125,-0.018308408558368683,0.0074331313371658325,0.001963454531505704
1746734097036538600,4.19153857421875,-0.001140010543167591,0.0070888749323785305,0.0024873449001461267
1746734097046504400,4.20150439453125,0.011697491630911827,0.00805906392633915,0.0023280878085643053
1746734097056471600,4.211471435546875,0.025048088282346725,0.011185080744326115,0.002959985751658678
1746734097066438700,4.221438720703125,0.027827896177768707,0.011792547069489956,0.0041725230403244495
1746734097076405500,4.231405517578125,0.015596147626638412,-0.0009353836067020893,-0.0010066144168376923
1746734097086371600,4.24137158203125,0.00042545050382614136,0.00431077741086483,0.0013859695754945278
1746734097096338400,4.25133837890625,0.0007236378733068705,-0.00311893317848444,0.0002329554408788681
1746734097106305500,4.261305419921875,-0.0008244575001299381,0.00511183263733983,0.002374136820435524
1746734097116271600,4.271271728515625,0.000026971101760864258,-0.0015378582756966352,-0.0004920782521367073
1746734097126238500,4.281238525390625,0.0014725346118211746,0.009267916902899742,0.0031045207288116217
1746734097136205600,4.29120556640625,-0.0001406376250088215,0.0030366498976945877,0.0012088124640285969
1746734097146172400,4.30117236328125,0.0007477931212633848,0.0010259635746479034,-0.0002716388553380966
1746734097156138800,4.311138671875,0.000273039098829031,0.0014627468772232533,0.0013013547286391258
1746734097166105600,4.321105712890625,-0.0016393768601119518,-0.0004043956287205219,-0.0009836372919380665
1746734097176072700,4.33107275390625,0.0002345019020140171,0.0019634668715298176,-0.00014295149594545364
1746734097186038500,4.34103857421875,0.0000664563849568367,0.0016859658062458038,0.0007630558684468269
1746734097196005600,4.351005615234375,-0.0010801763273775578,0.0008282912895083427,0.0006022285670042038
1746734097205972700,4.36097265625,-0.0007195845246315002,0.001558530144393444,0.00006799865514039993
1746734097215939600,4.370939697265625,0.00021021999418735504,0.0000373348593711853,0.000629995483905077
1746734097225905700,4.38090576171875,-0.001893410924822092,0.0021564122289419174,-0.0006408649496734142
1746734097235872500,4.39087255859375,0.0003462363965809345,0.001235689502209425,0.0015080540906637907
1746734097245839600,4.400839599609375,0.001689268508926034,0.00033847056329250336,0.001005515456199646
1746734097255806700,4.410806640625,0.001476044300943613,0.0010572592727839947,0.001010645180940628
1746734097265772500,4.4207724609375,-0.00038124434649944305,0.0018101353198289871,0.00047108903527259827
1746734097275739600,4.43073974609375,-0.00036535225808620453,-0.0001877918839454651,0.0014110533520579338
1746734097285706500,4.44070654296875,0.00020190095528960228,0.0012772129848599434,-0.0008923145942389965
1746734097295672600,4.450672607421875,0.0006714242044836283,0.003022626508027315,-0.00024229753762483597
1746734097305639400,4.460639404296875,-0.00038611702620983124,0.0006947573274374008,0.0001411978155374527
1746734097315606500,4.4706064453125,-0.000149628147482872,0.0014582853764295578,0.0007995311170816422
1746734097325573600,4.48057373046875,-0.0005850549787282944,-0.00017636269330978394,-0.0013488410040736198
1746734097335539500,4.49053955078125,-0.00008409097790718079,0.0006166603416204453,-0.00046085892245173454
1746734097345506600,4.500506591796875,-0.00042071426287293434,0.000025704968720674515,0.0007383627817034721
1746734097355473400,4.510473388671875,0.0005994332022964954,0.00021221674978733063,0.0005531255155801773
1746734097365439700,4.520439697265625,-0.0009617116302251816,-0.000453840009868145,0.0009382185526192188
1746734097375406600,4.530406494140625,-0.0005694827996194363,0.00032076286152005196,-0.00024566473439335823
1746734097385373700,4.540373779296875,0.0015538556035608053,0.00008214358240365982,0.002067290712147951
1746734097395340800,4.5503408203125,-0.0006140442565083504,-0.0003895256668329239,-0.0008639167062938213
1746734097405306600,4.560306640625,-0.0011219088919460773,-0.0002744770608842373,-0.0005430057644844055
1746734097415273700,4.570273681640625,0.000979261938482523,0.0008796467445790768,-0.0006181532517075539
1746734097425240600,4.580240478515625,-0.0008455361239612103,0.00043836096301674843,0.00046628573909401894
1746734097435207700,4.590207763671875,-0.0013830862008035183,-0.000303459819406271,0.0011203307658433914
1746734097445173500,4.600173583984375,-0.00034818192943930626,-0.0001844167709350586,0.00045454036444425583
1746734097455140600,4.610140625,0.0007088659331202507,-0.00015629827976226807,0.0014800876379013062
1746734097465107700,4.620107666015625,0.00018821796402335167,-0.00023246463388204575,0.00046595605090260506
1746734097475074600,4.630074462890625,0.00007727299816906452,-0.00003281841054558754,0.00023813685402274132
1746734097485040600,4.64004052734375,-0.001276412047445774,0.000008726958185434341,0.00031084101647138596
1746734097495007500,4.650007568359375,0.0002370942384004593,0.0001860060729086399,0.0006371019408106804
1746734097504974600,4.659974609375,0.000038156285881996155,0.0003713620826601982,0.0005572070367634296
1746734097514940400,4.6699404296875,0.0006227907724678516,-0.0006935684941709042,0.0002892795018851757
1746734097524907500,4.679907470703125,-0.001270450185984373,0.0002915346994996071,-0.0007626689039170742
1746734097534874600,4.68987451171875,-0.0010270215570926666,0.0004323716275393963,0.000638830941170454
1746734097544841500,4.699841552734375,0.0004403800703585148,-0.0008954806253314018,0.000952551607042551
1746734097554807600,4.7098076171875,-0.0004632617346942425,0.00019250856712460518,0.0016561353113502264
1746734097564774400,4.7197744140625,0.00010878522880375385,-0.00010603154078125954,-0.0001782500185072422
1746734097574741500,4.729741455078125,0.00037190574221313,0.0007624253630638123,0.0014841859228909016
1746734097584708600,4.73970849609375,0.0003793626092374325,0.000024995766580104828,0.0014772615395486355
1746734097594674700,4.7496748046875,-0.00007019471377134323,-0.0002689729444682598,0.0015406154561787844
1746734097604641800,4.759641845703125,0.00169335026293993,-0.0004183761775493622,0.00015310849994421005
1746734097614608600,4.769608642578125,-0.00006091361865401268,0.0013159853406250477,-0.00009076343849301338
1746734097624574700,4.77957470703125,0.0004429565742611885,-0.0008366480469703674,-0.0005935681983828545
1746734097634541600,4.78954150390625,-0.0003640986979007721,0.0016327467747032642,-0.000767798162996769
1746734097644508700,4.7995087890625,0.0026585892774164677,-0.0003401231952011585,-0.00012970482930541039
1746734097654476300,4.809476318359375,-0.0029678712598979473,0.000842586625367403,0.001466577872633934
1746734097664442600,4.819442626953125,0.00007452419959008694,0.00014430610463023186,-0.0004245326854288578
1746734097674409500,4.829409423828125,-0.0005978895351290703,-0.00006599491462111473,-0.0007422212511301041
1746734097684376600,4.83937646484375,0.000911323819309473,0.0004914049059152603,-0.0016287877224385738
1746734097694343700,4.84934375,0.0018619755282998085,-0.0008239303715527058,-0.0011744312942028046
1746734097704309500,4.8593095703125,0.0013623666018247604,-0.0003956942819058895,0.0002599470317363739
1746734097714276600,4.869276611328125,0.0005020746029913425,0.000011902768164873123,-0.0007413560524582863
1746734097724243500,4.879243408203125,-0.0002547958865761757,-0.00078970892354846,0.0006224485114216805
1746734097734209500,4.88920947265625,-0.0004789615049958229,-0.0009678229689598083,-0.0007078303024172783
1746734097744176400,4.89917626953125,-0.0006009344942867756,-0.0000692722387611866,-0.0008505755104124546
1746734097754143500,4.9091435546875,0.0010312902741134167,-0.0006845761090517044,0.0007985713891685009
1746734097764110600,4.919110595703125,0.00023340736515820026,-0.0011362484656274319,-0.0021056057885289192
1746734097774076400,4.929076416015625,-0.0009690425358712673,0.0008598784916102886,-0.00026254216209053993
1746734097784043500,4.93904345703125,-0.00033521000295877457,-0.0006828904151916504,0.0018022065050899982
1746734097794010400,4.94901025390625,0.00004714680835604668,0.0003414810635149479,0.0005123424343764782
1746734097803977500,4.9589775390625,0.0005105365999042988,-0.00025773001834750175,0.0016809373628348112
1746734097813943300,4.968943359375,0.0006754552014172077,0.0015132497064769268,-0.0010875794105231762
1746734097823910400,4.978910400390625,-0.000009509734809398651,0.00117129972204566,0.0007076575420796871
1746734097833877500,4.98887744140625,0.000004827510565519333,-0.00021673645824193954,0.0006968635134398937
1746734097843844400,4.99884423828125,0.001455451361835003,-0.00024043861776590347,0.0001285448670387268
1746734097853810400,5.008810546875,0.0016449715476483107,0.0008607362397015095,0.0012633088044822216
1746734097863777300,5.01877734375,-0.001269591972231865,0.00009134877473115921,0.0005794093012809753
1746734097873744400,5.028744384765625,-0.0014319499023258686,0.0001786774955689907,0.00013012299314141273
1746734097883710500,5.03871044921875,0.0008535748347640038,-0.0018525153864175081,0.00034930091351270676
1746734097893677600,5.048677490234375,0.0011236988939344883,-0.00022119702771306038,0.0008560125716030598
1746734097903644700,5.058644775390625,0.002006803173571825,-0.000007611699402332306,0.00006745057180523872
1746734097913611500,5.068611572265625,0.0006375377997756004,-0.00005496153607964516,0.001689214026555419
1746734097923577600,5.07857763671875,-0.001393122598528862,0.000974616501480341,0.0005445871502161026
1746734097933544400,5.08854443359375,0.0008663912303745747,0.00036576250568032265,0.00025607505813241005
1746734097943511600,5.098511474609375,0.00005332799628376961,-0.00036554131656885147,0.001055289525538683
1746734097953478700,5.108478759765625,0.0005081037525087595,-0.0004478674381971359,0.0015628861729055643
1746734097963444500,5.118444580078125,0.0017901496030390263,-0.000029485207051038742,0.0001082676462829113
1746734097973411600,5.12841162109375,0.0009488260839134455,0.0007019322365522385,0.0005768728442490101
1746734097983378400,5.13837841796875,-0.0006693108007311821,-0.00030207959935069084,-0.0005986467003822327
1746734097993345500,5.148345458984375,0.00047681410796940327,0.0001414446160197258,-0.00030899234116077423
1746734098003311400,5.158311279296875,-0.0002504950389266014,0.0005214773118495941,-0.0013132700696587563
1746734098013278500,5.168278564453125,-0.0010016304440796375,-0.00006132805719971657,0.00039955228567123413
1746734098023245600,5.17824560546875,0.0008575224783271551,-0.0009921030141413212,0.0012941081076860428
1746734098033211400,5.18821142578125,-0.00011625280603766441,0.00042005814611911774,0.0004797130823135376
1746734098043178500,5.198178466796875,0.0012163931969553232,0.0004890342243015766,-0.00017142947763204575
1746734098053145300,5.208145263671875,0.00018347124569118023,0.0013208212330937386,0.0008264300413429737
1746734098063112400,5.218112548828125,-0.0007427763193845749,0.0004201405681669712,0.0030613550916314125
1746734098073078300,5.228078369140625,0.0003611398860812187,0.0001516980119049549,0.0005786940455436707
1746734098083045400,5.23804541015625,-0.00015551317483186722,0.00004517147317528725,0.00003674067556858063
1746734098093012500,5.248012451171875,0.0013621121179312468,-0.0011881846003234386,-0.0000037052668631076813
1746734098102979300,5.257979248046875,-0.0007891892455518246,-0.0006845807656645775,-0.000989607535302639
1746734098112945700,5.267945556640625,0.0007713092491030693,-0.0008678259328007698,-0.000053499359637498856
1746734098122912500,5.27791259765625,-0.0001482800580561161,-0.0011234893463551998,-0.00017999950796365738
1746734098132879600,5.287879638671875,0.0009702211245894432,-0.00015394017100334167,-0.000017142388969659805
1746734098142846500,5.297846435546875,-0.0008934591896831989,-0.00006499048322439194,-0.0009732171893119812
1746734098152812500,5.3078125,0.00047413562424480915,0.00016123196110129356,-0.0009360536932945251
1746734098162779600,5.317779541015625,0.00007759104482829571,-0.0005522286519408226,0.00002082018181681633
1746734098172746500,5.32774658203125,-0.00029865605756640434,0.001004164107143879,0.000606293324381113
1746734098182712600,5.337712646484375,0.0016113631427288055,0.000012935604900121689,-0.00019585061818361282
1746734098192679400,5.347679443359375,0.00045918626710772514,-0.0008649155497550964,0.00010621314868330956
1746734098202646500,5.357646484375,0.0014384305104613304,0.0025468599051237106,0.0006835865788161755
1746734098212613600,5.367613525390625,-0.0007294868119060993,-0.00010557752102613449,0.000588785856962204
1746734098222579500,5.377579345703125,0.0004689358174800873,0.0002749883569777012,0.0024330250453203917
1746734098232546600,5.387546630859375,0.0009077005088329315,-0.0004740688018500805,0.0000616125762462616
1746734098242513400,5.397513427734375,-0.0006920602172613144,-0.001199247781187296,0.0008570989593863487
1746734098252480500,5.40748046875,0.0007269273046404123,-0.0004418729804456234,-0.0003219917416572571
1746734098262446300,5.4174462890625,-0.0011181107256561518,0.0009237960912287235,0.0008484674617648125
1746734098272413400,5.427413330078125,-0.0016737338155508041,0.00020870333537459373,0.0014681876637041569
1746734098282380500,5.437380615234375,0.0006597279570996761,0.0003051101230084896,-0.00034968601539731026
1746734098292347400,5.447347412109375,-0.0000988964457064867,-0.0005865735001862049,0.0001701032742857933
1746734098302313500,5.4573134765625,0.0007975234184414148,-0.001086182426661253,-0.000538563821464777
1746734098312280300,5.4672802734375,0.00012766639702022076,0.00020734034478664398,-0.0010227449238300323
1746734098322247400,5.477247314453125,-0.0017256273422390223,-0.00020225392654538155,-0.00026614079251885414
1746734098332213500,5.487213623046875,-0.0018150776159018278,-0.00040764082223176956,-0.0006865495815873146
1746734098342180600,5.4971806640625,-0.0008480839896947145,0.0001082136295735836,-0.0004830840043723583
1746734098352147500,5.5071474609375,-0.0009514938574284315,-0.00020975247025489807,-0.0008140513673424721
1746734098362114300,5.5171142578125,0.00003201165236532688,0.0004520430229604244,0.00014708377420902252
1746734098372080600,5.52708056640625,0.001310758525505662,-0.0016576540656387806,-0.0011631040833890438
1746734098382047500,5.537047607421875,-0.00008393893949687481,-0.00039078807458281517,0.0008129612542688847
1746734098392014600,5.5470146484375,0.0006908299401402473,0.0011983877047896385,-0.000056994613260030746
1746734098401980400,5.55698046875,-0.00016005034558475018,-0.0004847301170229912,-0.00030972855165600777
1746734098411947500,5.566947509765625,-0.00009746686555445194,0.00017544161528348923,-0.0004118923097848892
1746734098421914600,5.57691455078125,0.0012058841530233622,-0.001649090088903904,-0.0004238765686750412
1746734098431881500,5.586881591796875,-0.0007965106051415205,-0.00029239431023597717,-0.00039863865822553635
1746734098441847600,5.59684765625,-0.0001296552363783121,0.000038370490074157715,0.0011619734577834606
1746734098451814400,5.606814453125,0.0005671079270541668,-0.00011907843872904778,0.0005698157474398613
1746734098461781500,5.616781494140625,0.0007029292173683643,-0.0008011138997972012,0.00007979432120919228
1746734098471748600,5.62674853515625,-0.0003636069595813751,0.000005681067705154419,0.0007030111737549305
1746734098481714400,5.63671435546875,0.0005613088142126799,-0.0005091079510748386,0.0007794438861310482
1746734098491681500,5.646681640625,0.00009050103835761547,0.000980965793132782,0.00010880269110202789
1746734098501648400,5.6566484375,-0.0002724879886955023,0.0013807062059640884,-0.0010414165444672108
1746734098511615500,5.666615478515625,-0.0008033192716538906,0.0006057657301425934,-0.00003099115565419197
1746734098521581300,5.676581298828125,0.0002920387778431177,0.00022040633484721184,0.00035836268216371536
1746734098531548400,5.68654833984375,-0.00032239174470305443,-0.0012109354138374329,0.00009127752855420113
1746734098541515500,5.696515625,-0.0002081422135233879,0.0016458379104733467,0.000409791711717844
1746734098551481600,5.706481689453125,0.0009166093077510595,0.0007210755720734596,0.000005518551915884018
1746734098561448400,5.716448486328125,0.0006846480537205935,-0.0008672336116433144,-0.0013945051468908787
1746734098571415600,5.72641552734375,-0.0005651784595102072,-0.00026069115847349167,-0.0003224187530577183
1746734098581382400,5.73638232421875,-0.0005047249142080545,-0.0008588372729718685,-0.0009296191856265068
1746734098591348500,5.746348388671875,0.0002811064478009939,0.0007348032668232918,0.0002487143501639366
1746734098601315600,5.756315673828125,-0.0004041248466819525,-0.00004630163311958313,-0.00011427421122789383
1746734098611282700,5.76628271484375,-0.0012871911749243736,0.0013747257180511951,-0.0004312945529818535
1746734098621249500,5.77624951171875,0.00008087442256510258,0.0007422249764204025,0.002845991402864456
1746734098631215600,5.786215576171875,0.0016985542606562376,-0.0005840999074280262,-0.0016918708570301533
1746734098641182500,5.796182373046875,0.0016948257107287645,0.0007810364477336407,0.0010477229952812195
1746734098651149000,5.806149169921875,0.00017732661217451096,0.00036919955164194107,0.00020251888781785965
1746734098661116000,5.816115966796875,-0.0022754445672035217,0.0009497683495283127,0.0006885458715260029
1746734098671082000,5.82608203125,0.00008657318539917469,-0.0009808149188756943,0.00006554508581757545
1746734098681048800,5.836048828125,0.0005907095037400723,0.0006591593846678734,0.00019417563453316689
1746734098691016000,5.846015869140625,0.0010195274371653795,-0.0007759858854115009,0.0006581726484000683
1746734098700982000,5.85598193359375,0.0004197836387902498,0.0007063294760882854,0.0001766732893884182
1746734098710948900,5.865948974609375,-0.0013530415017157793,-0.00031446292996406555,0.00025821197777986526
1746734098720916000,5.875916015625,0.0002680246252566576,0.0009345593862235546,0.0003868425264954567
1746734098730882800,5.8858828125,0.0016693654470145702,0.001445702277123928,-0.0010376684367656708
1746734098740849000,5.895848876953125,0.0009037067648023367,-0.00019294070079922676,0.000028128735721111298
1746734098750815700,5.905815673828125,-0.000441935146227479,-0.00007729418575763702,-0.0012512337416410446
1746734098760782800,5.915782958984375,-0.0006685701664537191,-0.0011028777807950974,-0.0005891718901693821
1746734098770749200,5.925749267578125,0.000799685949459672,0.0009446702897548676,-0.0002328944392502308
1746734098780716000,5.935716064453125,-0.001041623530909419,0.0002629011869430542,0.0008510123006999493
1746734098790683100,5.94568310546875,-0.0007864423096179962,0.0005748486146330833,0.0006117620505392551
1746734098800650000,5.95564990234375,-0.00032837875187397003,0.000668591819703579,0.0013502566143870354
1746734098810616000,5.965615966796875,0.0014557717368006706,0.000498694833368063,0.0004431856796145439
1746734098820583000,5.9755830078125,0.0005899779498577118,-0.0004429989494383335,0.00016967905685305595
1746734098830550000,5.985550048828125,0.00003300746902823448,0.0006484966725111008,-0.0005619898438453674
1746734098840517000,5.99551708984375,0.00041623623110353947,-0.00010517751798033714,-0.0008075335063040257
1746734098850483000,6.00548291015625,-0.0008849906735122204,-0.0006748838350176811,0.000014728400856256485
1746734098860450000,6.015449951171875,-0.0019835447892546654,0.0004542963579297066,-0.0010995380580425262
1746734098870417000,6.0254169921875,0.0005489492323249578,-0.0011608055792748928,0.00023462297394871712
1746734098880383000,6.035383056640625,0.0002235111314803362,-0.00005426211282610893,-0.00004314444959163666
1746734098890349800,6.045349853515625,0.000049284426495432854,0.00006927270442247391,0.0012757289223372936
1746734098900317000,6.05531689453125,0.00009535718709230423,0.0005443808622658253,-0.0013986174017190933
1746734098910284000,6.065283935546875,0.0003131302073597908,-0.0009271870367228985,0.00009372085332870483
1746734098920249900,6.075249755859375,-0.0011537389364093542,-0.00020680204033851624,0.0007760226726531982
1746734098930217000,6.085217041015625,0.0008854079060256481,-0.0022661080583930016,0.0014023964758962393
1746734098940183800,6.095183837890625,-0.0013109007850289345,-0.0007587587460875511,-0.00035608885809779167
1746734098950151000,6.10515087890625,0.0009675815235823393,0.0006181374192237854,-0.0006157015450298786
1746734098960117000,6.115116943359375,0.00012389221228659153,0.00030814530327916145,0.0007302598096430302
1746734098970083800,6.125083740234375,0.0002661212347447872,0.0005564326420426369,0.00011604791507124901
1746734098980051000,6.135051025390625,0.0004666573368012905,-0.0003493083640933037,0.0025997119955718517
1746734098990017000,6.14501708984375,0.0008192227687686682,-0.00023841019719839096,-0.00040479470044374466
1746734098999984000,6.154984130859375,0.000881274463608861,-0.0003313547931611538,0.0009353077039122581
1746734099009951000,6.164950927734375,0.0009656376205384731,0.00007894914597272873,-0.0008150083012878895
1746734099019918000,6.17491796875,0.000858312239870429,0.0006707035936415195,0.00024839164689183235
1746734099029884200,6.18488427734375,0.00021152268163859844,-0.0005312636494636536,-0.0000035618431866168976
1746734099039851000,6.19485107421875,0.001474127173423767,-0.0006353934295475483,0.00019724061712622643
1746734099049818000,6.204818115234375,-0.0007744196336716413,0.0007842835038900375,-0.0007979385554790497
1746734099059785000,6.214784912109375,0.0002498324029147625,0.00048494385555386543,0.0004625357687473297
1746734099069751000,6.2247509765625,0.00008695502765476704,0.0009394907392561436,-0.00039486074820160866
1746734099079718000,6.2347177734375,0.0006475504487752914,0.0012188563123345375,0.00005468074232339859
1746734099089685000,6.24468505859375,-0.0007645813748240471,-0.00033636903390288353,0.00028633978217840195
1746734099099651000,6.254651123046875,0.000913209980353713,-0.00046073878183960915,-0.000025782734155654907
1746734099109618000,6.264617919921875,0.00021681771613657475,-0.0008348207920789719,0.00010829372331500053
1746734099119585000,6.2745849609375,0.0004959169309586287,0.00033723609521985054,0.00010669557377696037
1746734099129552000,6.2845517578125,-0.0012247664853930473,0.0005163839086890221,-0.0005221711471676826
1746734099139518000,6.29451806640625,-0.0002793441526591778,-0.00009081652387976646,-0.00015758443623781204
1746734099149484800,6.30448486328125,0.000671792309731245,0.001927858218550682,0.0008371016010642052
1746734099159452000,6.314451904296875,-0.0008004030678421259,-0.00030227284878492355,-0.0009195194579660892
1746734099169418000,6.32441796875,-0.00008210050873458385,0.00038477592170238495,-0.0003933417610824108
1746734099179384800,6.334384765625,-0.00007091532461345196,-0.000463973730802536,0.0002817693166434765
1746734099189352000,6.34435205078125,0.0004091330338269472,-0.0020634133834391832,0.00026892777532339096
1746734099199318800,6.35431884765625,0.0003771751653403044,0.0000029332004487514496,0.0019099675118923187
1746734099209285000,6.36428515625,-0.000043749576434493065,0.0007869098335504532,-0.0003806203603744507
1746734099219252000,6.374251953125,-0.0016445752698928118,0.0004715914838016033,-0.0010256380774080753
1746734099229219000,6.384218994140625,0.00018893694505095482,-0.0015611655544489622,-0.0003643566742539406
1746734099239186200,6.394186279296875,-0.0003708594013005495,-0.0002703312784433365,0.00041621550917625427
1746734099249152000,6.404152099609375,0.000006404472514986992,-0.0002378583885729313,0.0006191213615238667
1746734099259119000,6.414119140625,-0.0007509985007345676,0.00004843110218644142,0.0001919502392411232
1746734099269086000,6.4240859375,-0.0006749490275979042,-0.000876003410667181,0.0010268371552228928
1746734099279052000,6.434052001953125,-0.0007628332823514938,-0.00031727226451039314,0.0010582623071968555
1746734099289019000,6.444018798828125,0.00010143290273845196,-0.0004874751903116703,-0.00015355180948972702
1746734099298986000,6.453986083984375,-0.0005044362042099237,0.0011258679442107677,-0.0003498266451060772
1746734099308953000,6.463953125,-0.0005794898606836796,0.0010567130520939827,-0.0005652694962918758
1746734099318919000,6.4739189453125,-0.0022586132399737835,-0.00021015247330069542,-0.00038630515336990356
1746734099328886000,6.483885986328125,-0.0016514405142515898,-0.00038516242057085037,-0.002287978772073984
1746734099338852900,6.493852783203125,0.0004671041388064623,-0.001051219180226326,-0.0010669194161891937
1746734099348820000,6.503820068359375,0.00019375351257622242,0.00098447035998106,-0.0009570326656103134
1746734099358785800,6.513785888671875,-0.00047629792243242264,0.0013671666383743286,0.000218220055103302
1746734099368753000,6.5237529296875,-0.0001147300936281681,0.0012209545820951462,-0.0011634761467576027
1746734099378720000,6.533719970703125,0.0009289628360420465,-0.0006041098386049271,0.00044081220403313637
1746734099388685800,6.543685791015625,0.0002839062362909317,0.0006761220283806324,-0.00012003118172287941
1746734099398653000,6.55365283203125,-0.0018149311654269695,0.0015813307836651802,-0.0002401396632194519
1746734099408619800,6.563619873046875,-0.001131522934883833,0.00010973121970891953,0.0010834988206624985
1746734099418587000,6.5735869140625,0.0007454731967300177,-0.0000910712406039238,0.0005351537838578224
1746734099428553000,6.583552978515625,-0.00018557324074208736,0.0003121555782854557,0.0009296038188040257
1746734099438520000,6.59352001953125,0.0006522571202367544,-0.00039118528366088867,-0.0015998664312064648
1746734099448487200,6.603487060546875,0.000561863649636507,-0.0011553294025361538,0.0006209583953022957
1746734099458453000,6.613452880859375,-0.0005052648484706879,0.0005323155783116817,-0.0006528315134346485
1746734099468420000,6.623420166015625,0.00043386477045714855,0.00031032413244247437,0.0005853762850165367
1746734099478387000,6.633386962890625,0.00011455174535512924,-0.00035253679379820824,-0.0009358213283121586
1746734099488354000,6.64335400390625,-0.00029206788167357445,-0.000009127892553806305,0.0008889734745025635
1746734099498320000,6.65331982421875,0.0005140707362443209,0.0007093930616974831,-0.00030359020456671715
1746734099508287000,6.663286865234375,0.0009634220041334629,-0.000273353885859251,0.00014559179544448853
1746734099518254000,6.673254150390625,-0.0010802876204252243,0.0024856808595359325,0.0008452041074633598
1746734099528221000,6.683220947265625,0.0007703627925366163,0.0008600596338510513,0.001504359534010291
1746734099538187000,6.69318701171875,0.0005461247637867928,-0.0014592872466892004,0.00023429794237017632
1746734099548153900,6.70315380859375,0.00024780980311334133,0.0010465881787240505,-0.0002629430964589119
1746734099558121000,6.713120849609375,-0.0003567277453839779,-0.0006256108172237873,0.0002300078049302101
1746734099568087000,6.723087158203125,-0.00024926173500716686,-0.0006511909887194633,0.0010528410784900188
1746734099578054000,6.733053955078125,-0.00037123425863683224,0.00014562718570232391,0.00003844313323497772
1746734099588021000,6.74302099609375,-0.0001103400718420744,0.0010391706600785255,0.0006584334187209606
1746734099597987800,6.75298779296875,-0.00036626984365284443,-0.00019200891256332397,-0.000020938925445079803
1746734099607954000,6.762953857421875,-0.00045677670277655125,0.0007378896698355675,-0.0008858167566359043
1746734099617920800,6.772920654296875,0.00005747959949076176,-0.0000978102907538414,-0.00008979765698313713
1746734099627887900,6.782887939453125,-0.0008894714992493391,-0.0002832012251019478,0.001464751549065113
1746734099637854200,6.792854248046875,-0.0000311343465000391,-0.00025204243138432503,0.0010695387609302998
1746734099647821000,6.802821044921875,-0.00014006253331899643,0.0011685886420309544,0.00008560623973608017
1746734099657787600,6.81278759765625,-0.0011256984435021877,-0.0006266478449106216,-0.0005650040693581104
1746734099667754500,6.82275439453125,0.0001713696401566267,-0.00047856150195002556,0.0011783423833549023
1746734099677720600,6.832720458984375,0.00035858992487192154,0.000989372842013836,0.0004193414933979511
1746734099687687400,6.8426875,-0.0013431038241833448,-0.00012761028483510017,0.0002955440431833267
1746734099697654500,6.852654541015625,-0.00012657162733376026,-0.0010128449648618698,0.002371744252741337
1746734099707621600,6.86262158203125,-0.0012518311850726604,0.0022521885111927986,-0.00007488252595067024
1746734099717587500,6.87258740234375,-0.00019402382895350456,-0.0005236240103840828,0.0009211394935846329
1746734099727554600,6.882554443359375,-0.0004706713370978832,-0.0007486664690077305,0.0003080572932958603
1746734099737521400,6.892521484375,0.0013221688568592072,0.0005541518330574036,-0.0009897011332213879
1746734099747487500,6.902487548828125,-0.0008687884546816349,-0.00024089450016617775,-0.0010599191300570965
1746734099757454300,6.912454345703125,-0.000580368097871542,0.00008933758363127708,-0.00037362240254879
1746734099767421400,6.92242138671875,-0.0008204490877687931,-0.001267311628907919,0.0004022154025733471
1746734099777388500,6.932388427734375,-0.0005067288875579834,-0.0005826130509376526,-0.00031497376039624214
1746734099787354400,6.942354248046875,-0.00017715897411108017,0.0008155349642038345,-0.00048313848674297333
1746734099797321500,6.952321533203125,0.00124443625099957,-0.0013618655502796173,-0.00003918912261724472
1746734099807288300,6.962288330078125,0.0008891725447028875,0.000852758064866066,-0.0009888610802590847
1746734099817254700,6.972254638671875,-0.0008072610944509506,-0.0005142423324286938,-0.00114146014675498
1746734099827221500,6.982221435546875,0.00010681571438908577,-0.000933248084038496,0.00016705971211194992
1746734099837188600,6.992188720703125,0.00028977496549487114,-0.00002004997804760933,-0.000027351081371307373
1746734099847155500,7.002155517578125,-0.0008103628642857075,-0.00024089496582746506,-0.00012819143012166023
1746734099857121500,7.01212158203125,0.0008029802702367306,0.0006613843142986298,0.0001703491434454918
1746734099867088600,7.022088623046875,-0.0003140196204185486,0.0006391797214746475,-0.000023519620299339294
1746734099877055500,7.032055419921875,-0.0014205630868673325,-0.0003376677632331848,0.0012864894233644009
1746734099887021600,7.042021484375,-0.001994180027395487,0.0007409569807350636,0.0002501518465578556
1746734099896988400,7.051988525390625,-0.0009110723622143269,-0.0007477500475943089,0.0004813140258193016
1746734099906955500,7.06195556640625,0.0005235825665295124,0.00039926497265696526,-0.00027688173577189445
1746734099916922600,7.071922607421875,-0.0002868175506591797,0.00018567964434623718,-0.0001530447043478489
1746734099926888400,7.081888427734375,-0.000890491995960474,-0.00020003411918878555,0.0001750672236084938
1746734099936855600,7.09185546875,0.0008943583816289902,-0.0005007050931453705,0.0008112965151667595
1746734099946822400,7.101822509765625,0.000564606161788106,0.0009407047182321548,-0.0010629966855049133
1746734099956788500,7.11178857421875,0.0007816539146006107,0.00010154303163290024,-0.0006382223218679428
1746734099966755300,7.12175537109375,0.0011031345929950476,0.00017224065959453583,-0.0020497022196650505
1746734099976722400,7.131722412109375,-0.00019169412553310394,0.00037410808727145195,-0.0000011990778148174286
1746734099986689500,7.141689453125,-0.00011356943286955357,0.00010388437658548355,-0.00019812211394309998
1746734099996655400,7.1516552734375,-0.0016701871063560247,-0.0011992002837359905,-0.00024233059957623482
1746734100006622500,7.16162255859375,-0.0004056536126881838,-0.000997631810605526,0.0012397309765219688
1746734100016589300,7.17158935546875,0.0000686554703861475,0.0002524559386074543,0.000334255862981081
1746734100026556400,7.181556396484375,-0.0008907760493457317,-0.000543797854334116,0.0008783545345067978
1746734100036522500,7.1915224609375,0.0013891563285142183,-0.0007632425986230373,0.00020457478240132332
1746734100046489600,7.201489501953125,0.0004278814885765314,-0.00048819649964571,-0.0004213014617562294
1746734100056456400,7.21145654296875,0.00021829060278832912,0.00045908987522125244,0.0000056033022701740265
1746734100066422500,7.221422607421875,0.0013458807952702045,0.0008219839073717594,-0.0006873644888401031
1746734100076389600,7.2313896484375,-0.0002533472143113613,0.0001998692750930786,0.00033981679007411003
1746734100086356500,7.2413564453125,0.00036295969039201736,-0.0009223208762705326,-0.0015197317115962505
1746734100096323600,7.251323486328125,-0.0002967054024338722,0.0003464091569185257,-0.0012803133577108383
1746734100106289400,7.261289306640625,0.0009834354277700186,0.001277972012758255,0.00029114773496985435
1746734100116256500,7.271256591796875,-0.00035000918433070183,-0.00040647760033607483,-0.00036691920831799507
1746734100126223600,7.2812236328125,-0.000801838468760252,0.0018917769193649292,-0.000839275773614645
1746734100136189400,7.291189453125,-0.00045429589226841927,-0.001830789726227522,-0.0013769683428108692
1746734100146156500,7.301156494140625,0.00017939158715307713,0.00012798607349395752,0.00036444561555981636
1746734100156123400,7.311123291015625,-0.0021346290595829487,0.00016793375834822655,0.00124355498701334
1746734100166090500,7.321090576171875,0.00016691512428224087,0.00183104258030653,-0.000028578098863363266
1746734100176056300,7.331056396484375,-0.0009888969361782074,0.00017109420150518417,-0.0001838402822613716
1746734100186023400,7.3410234375,0.00019694282673299313,-0.00013757729902863503,-0.0010536415502429008
1746734100195990500,7.350990478515625,0.0006241139490157366,0.0008858754299581051,0.001370367594063282
1746734100205956400,7.360956298828125,0.000019710976630449295,0.0000769137404859066,-0.0005599162541329861
1746734100215923500,7.37092333984375,-0.0006386223249137402,-0.0007918090559542179,-0.0009687114506959915
1746734100225890300,7.380890380859375,0.0006371040362864733,0.0008025765419006348,0.0001474367454648018
1746734100235857400,7.390857421875,0.0022858669981360435,0.00040443381294608116,-0.0008310084231197834
1746734100245823500,7.400823486328125,-0.00022670580074191093,0.0007809102535247803,-0.0006233449093997478
1746734100255790600,7.41079052734375,0.00170488515868783,0.000349478330463171,-0.00046968040987849236
1746734100265757400,7.42075732421875,0.0013688653707504272,0.0007718498818576336,-0.0007171728648245335
1746734100275723500,7.4307236328125,-0.00020506279543042183,-0.0010436270385980606,0.001605370081961155
1746734100285690600,7.440690673828125,0.00022660917602479458,-0.00038066040724515915,-0.0009170747362077236
1746734100295657500,7.450657470703125,-0.00016407668590545654,0.00040257489308714867,-0.0011170781217515469
1746734100305624600,7.46062451171875,0.000030467752367258072,-0.0007743914611637592,-0.0013683969154953957
1746734100315590400,7.47059033203125,-0.0012150928378105164,-0.00007690954953432083,0.0004018060863018036
1746734100325557500,7.4805576171875,-0.00007236888632178307,-0.001218053512275219,-0.00009726034477353096
1746734100335524600,7.490524658203125,0.00046692113392055035,0.00034096091985702515,0.001277463510632515
1746734100345490400,7.500490478515625,0.0008880384266376495,0.00048698438331484795,0.0004434669390320778
1746734100355457500,7.51045751953125,-0.0007439465261995792,-0.0006587076932191849,-0.0008761296048760414
1746734100365424400,7.52042431640625,-0.0005907341837882996,0.0009156004525721073,-0.001725971233099699
1746734100375391500,7.5303916015625,0.0008023653645068407,0.0010516881011426449,0.00040375860407948494
1746734100385357300,7.540357421875,0.0001868056133389473,-0.000013263896107673645,0.000266768503934145
1746734100395324400,7.550324462890625,0.0011577941477298737,-0.00050328578799963,0.0003993939608335495
1746734100405291500,7.56029150390625,0.0004639571998268366,0.0010105930268764496,-0.000022396910935640335
1746734100415257300,7.57025732421875,-0.0009461864829063416,-0.00040301261469721794,-0.00021121464669704437
1746734100425224400,7.580224365234375,0.0011694100685417652,-0.0015004612505435944,0.0005257241427898407
1746734100435191300,7.59019140625,0.0024969959631562233,0.0006945161148905754,-0.0008165091276168823
1746734100445158400,7.600158447265625,-0.0018010102212429047,0.000626878347247839,-0.0007836334407329559
1746734100455124500,7.61012451171875,0.0010395175777375698,0.00013179657980799675,-0.00020173285156488419
1746734100465091600,7.620091552734375,-0.000379316508769989,-0.0006265738047659397,0.0005301828496158123
1746734100475058400,7.630058349609375,-0.0006600138731300831,-0.00003721611574292183,-0.00033161602914333344
1746734100485024500,7.6400244140625,-0.0006517651490867138,-0.0004275655373930931,-0.0003942549228668213
1746734100494991600,7.64999169921875,-0.000799836590886116,-0.0013279803097248077,0.00007472746074199677
1746734100504958500,7.65995849609375,0.0004422978963702917,-0.0011298088356852531,0.0006851633079349995
1746734100514925600,7.669925537109375,-0.0004551876336336136,-0.00010715518146753311,0.00021671364083886147
1746734100524891400,7.679891357421875,-0.0006722384132444859,0.00007069902494549751,0.0012739994563162327
1746734100534858500,7.6898583984375,0.0011333846487104893,0.0003719027154147625,0.0003048749640583992
1746734100544825600,7.69982568359375,-0.0015427260659635067,0.0007017306052148342,-0.0017075412906706333
1746734100554791400,7.70979150390625,-0.00030302489176392555,-0.00041280221194028854,-0.0001269555650651455
1746734100564758500,7.719758544921875,0.0007498716004192829,-0.0004665544256567955,0.0006944434717297554
1746734100574725400,7.729725341796875,0.0008406855631619692,0.00019657239317893982,-0.00029252422973513603
1746734100584692500,7.7396923828125,0.00000997958704829216,0.0006363783031702042,0.00025219935923814774
1746734100594658300,7.749658203125,0.0012131959665566683,0.0015463801100850105,-0.00028922129422426224
1746734100604625400,7.75962548828125,-0.002317262813448906,0.000812239944934845,-0.0013907942920923233
1746734100614592500,7.769592529296875,-0.00032681599259376526,-0.0012181540951132774,-0.0003726677969098091
1746734100624558300,7.779558349609375,0.0003370742779225111,-0.0007826010696589947,-0.000022632069885730743
1746734100634525400,7.789525390625,-0.0010307254269719124,-0.0009059053845703602,-0.0001118476502597332
1746734100644492300,7.7994921875,-0.00015632109716534615,-0.0000925338827073574,0.001033781562000513
1746734100654459600,7.809459716796875,0.0001933518797159195,-0.0018888362683355808,0.000020449049770832062
1746734100664425700,7.81942578125,-0.00035903649404644966,0.0009942571632564068,0.0006059636361896992
1746734100674392600,7.829392578125,0.00035122851841151714,-0.0009916620329022408,-0.0002236110158264637
1746734100684359700,7.839359619140625,-0.0004789126105606556,0.0005482365377247334,-0.003011397086083889
1746734100694325800,7.84932568359375,-0.00017877435311675072,0.000014538876712322235,-0.0009069670923054218
1746734100704292900,7.85929296875,0.0003925515338778496,-0.0004261699505150318,-0.0010775304399430752
1746734100714259700,7.869259765625,0.0009193248115479946,0.00002363789826631546,0.0004772227257490158
1746734100724225800,7.879225830078125,-0.0005296757444739342,0.0005557048134505749,-0.0003329119645059109
1746734100734193000,7.88919287109375,-0.0007949266582727432,0.0004875278100371361,-0.0009371833875775337
1746734100744159700,7.89915966796875,-0.0017385543324053288,0.0011625518091022968,0.0009672725573182106
1746734100754126800,7.909126953125,-0.0005505182780325413,-0.0009000664576888084,0.0002751168794929981
1746734100764092700,7.9190927734375,-0.0016103792004287243,0.0006856052204966545,-0.0003220713697373867
1746734100774059800,7.929059814453125,-0.00007000705227255821,-0.0003671427257359028,0.00016928184777498245
1746734100784026600,7.939026611328125,-0.0005776602774858475,0.0005032275803387165,0.000544616486877203
1746734100793992700,7.94899267578125,0.0008226300124078989,-0.001201727893203497,0.0003371560014784336
1746734100803959800,7.958959716796875,-0.00010811025276780128,-0.0007547060959041119,0.00025081168860197067
1746734100813926700,7.9689267578125,-0.0013225115835666656,0.0011984561569988728,-0.0004109838046133518
1746734100823893800,7.978893798828125,-0.0004767156206071377,-0.00108285341411829,-0.00012689456343650818
1746734100833859600,7.988859619140625,0.0018311799503862858,0.00024206936359405518,0.00012717116624116898
1746734100843826700,7.99882666015625,-0.00014901813119649887,0.00003778887912631035,-0.001033661887049675
1746734100853793500,8.00879345703125,0.0007034600712358952,-0.000695912167429924,0.0012425417080521584
1746734100863760000,8.018759765625,-0.0007060794159770012,0.0010210168547928333,0.00033702515065670013
1746734100873726700,8.028726806640625,0.0008279010653495789,0.0007144869305193424,0.0006273095495998859
1746734100883693600,8.038693603515625,-0.00009388290345668793,-0.00024480512365698814,0.0005621607415378094
1746734100893660700,8.04866064453125,-0.0012659397907555103,0.0011136732064187527,-0.0008080359548330307
1746734100903626800,8.058626708984375,-0.00042169541120529175,0.0023410427384078503,-0.0003506694920361042
1746734100913593900,8.06859375,0.001996455015614629,0.0004627155140042305,-0.002029792405664921
1746734100923560700,8.078560791015626,0.0021395592484623194,-0.00022198865190148354,0.00036612246185541153
1746734100933526800,8.08852685546875,0.000016753561794757843,-0.00040121935307979584,-0.00004054233431816101
1746734100943494000,8.098493896484374,0.0017092858906835318,0.000822609756141901,0.00014796899631619453
1746734100953460700,8.108460693359374,-0.001730453222990036,0.001114225946366787,0.0009597004391252995
1746734100963427800,8.118427734375,0.00010971934534609318,-0.00009754672646522522,0.0005201078020036221
1746734100973393700,8.1283935546875,0.00017789634875953197,-0.0006778491660952568,-0.00034142471849918365
1746734100983360800,8.13836083984375,0.00043963920325040817,0.00019252067431807518,-0.0004818374291062355
1746734100993327600,8.14832763671875,-0.0007052537985146046,-0.0005968404002487659,-0.00038569746538996696
1746734101003293700,8.158293701171875,0.000603394815698266,-0.00040539586916565895,-0.0011152536608278751
1746734101013260800,8.1682607421875,0.0012108618393540382,0.0006705210544168949,-0.00029473379254341125
1746734101023227600,8.1782275390625,0.001665821298956871,-0.00007084617391228676,-0.00037603313103318214
1746734101033194800,8.18819482421875,0.0008988308254629374,-0.00019202008843421936,0.0013140090741217136
1746734101043160600,8.19816064453125,0.00007657799869775772,-0.00043448759242892265,0.0010066083632409573
1746734101053127700,8.208127685546875,0.00012611271813511848,-0.00010398915037512779,-0.000769986305385828
1746734101063094500,8.218094482421876,0.00026197335682809353,0.0009955624118447304,0.001070504542440176
1746734101073060900,8.228060791015626,-0.00022085756063461304,-0.001265727449208498,-0.0011777360923588276
1746734101083027700,8.23802783203125,-0.00011382577940821648,0.0017412174493074417,0.0007769591175019741
1746734101092994800,8.247994873046874,-0.0006272830069065094,-0.000739783514291048,-0.00007365457713603973
1746734101102961700,8.257961669921874,0.00031258724629879,-0.00028890417888760567,-0.00007536076009273529
1746734101112927700,8.267927734375,-0.00038702506572008133,0.0011705080978572369,0.00029588397592306137
1746734101122894800,8.277894775390624,-0.00019954610615968704,0.0001775338314473629,-0.00010633980855345726
1746734101132861700,8.28786181640625,-0.0003398945555090904,0.00016208738088607788,-0.0005044825375080109
1746734101142827800,8.297827880859375,-0.0007864832878112793,0.0004315543919801712,-0.0008098399266600609
1746734101152795000,8.307794921875,0.00022178958170115948,0.001031830906867981,-0.0010252897627651691
1746734101162761700,8.31776171875,0.0003437628038227558,-0.0006282036192715168,-0.001611483283340931
1746734101172727800,8.327727783203125,-0.00004425970837473869,0.0003481111489236355,-0.0003201165236532688
1746734101182694700,8.337694580078125,0.00010161846876144409,-0.0014994221273809671,0.0007914165034890175
1746734101192661800,8.347661865234375,0.00017272494733333588,0.00028569484129548073,-0.0000922204926609993
1746734101202628900,8.35762890625,0.00161902722902596,0.00011235009878873825,-0.0010457546450197697
1746734101212594700,8.3675947265625,0.0009929181542247534,-0.0006775436922907829,0.0007103336974978447
1746734101222561800,8.377561767578126,-0.00029017310589551926,0.0004702717997133732,-0.0011033620685338974
1746734101232528600,8.387528564453126,0.0010675066150724888,0.00008065160363912582,0.00047855544835329056
1746734101242494700,8.39749462890625,-0.0007934728637337685,-0.000932539813220501,0.0004431125707924366
1746734101252461600,8.407461669921876,0.0010773979593068361,0.0013838778249919415,0.0008993120864033699
1746734101262428700,8.4174287109375,0.0007446194067597389,-0.00026307860389351845,-0.0005157184787094593
1746734101272395800,8.427395751953124,-0.0010349047370254993,-0.00007292907685041428,-0.0001716380938887596
1746734101282361900,8.43736181640625,0.00046582426875829697,0.000478292815387249,0.00046357791870832443
1746734101292329000,8.447328857421875,-0.00021381443366408348,-0.0003451565280556679,0.0006752992048859596
1746734101302295800,8.4572958984375,-0.0006036954000592232,-0.0005580568686127663,-0.00039521045982837677
1746734101312262000,8.467261962890625,-0.00016374094411730766,-0.000635288655757904,-0.0005153194069862366
1746734101322228700,8.477228759765625,-0.0003700796514749527,0.000915982760488987,-0.00004685996100306511
1746734101332195800,8.48719580078125,0.0002453767228871584,0.00046883802860975266,0.00020640669390559196
1746734101342163000,8.497162841796875,0.0007903366349637508,-0.0013761292211711407,0.0015037062112241983
1746734101352128800,8.507128662109375,-0.002225959673523903,0.0002678399905562401,-0.0005309488624334335
1746734101362095900,8.517095947265625,-0.0007328074425458908,-0.0002195257693529129,0.0002077138051390648
1746734101372062700,8.527062744140625,-0.0007450580596923828,0.00025931093841791153,-0.00040667736902832985
1746734101382028800,8.53702880859375,-0.0007646633312106133,0.0007685231976211071,-0.0001508304849267006
1746734101391995600,8.54699560546875,0.0007062007207423449,0.0002553318627178669,-0.0010057054460048676
1746734101401962800,8.556962646484376,-0.0009626680985093117,-0.0008343616500496864,0.00046021630987524986
1746734101411929900,8.566929931640624,0.0017926380969583988,0.0009949635714292526,0.0008245366625487804
1746734101421895700,8.576895751953124,0.001114517217501998,0.0004385942593216896,-0.0011918433010578156
1746734101431862800,8.58686279296875,-0.0004191971383988857,-0.00012626219540834427,-0.0006315144710242748
1746734101441829600,8.59682958984375,-0.0006085438653826714,0.00009767431765794754,-0.0013766051270067692
1746734101451795700,8.606795654296874,-0.0002881656400859356,0.0000015338882803916931,0.00007375236600637436
1746734101461762600,8.616762451171875,-0.0006577633321285248,0.00008838903158903122,-0.00047715893015265465
1746734101471729700,8.626729736328125,-0.0008455165661871433,0.0004585683345794678,-0.0009328257292509079
1746734101481696800,8.63669677734375,-0.0008311574347317219,0.00013582780957221985,0.00023485161364078522
1746734101491662800,8.646662841796875,0.0026202991139143705,-0.00005378946661949158,-0.0024789096787571907
1746734101501630000,8.6566298828125,-0.000628164503723383,0.0007149381563067436,-0.00023900670930743217
1746734101511596800,8.6665966796875,-0.0009770384058356285,-0.0010507376864552498,-0.0005077198147773743
1746734101521563000,8.67656298828125,0.0005198707804083824,0.002065459731966257,0.0007188296876847744
1746734101531529700,8.68652978515625,0.00002159341238439083,-0.0001257890835404396,0.000898060854524374
1746734101541496800,8.696496826171876,-0.00032037217170000076,0.0012464551255106926,0.0004479559138417244
1746734101551462700,8.706462646484376,0.0012032222002744675,-0.0002917866222560406,0.00035181548446416855
1746734101561429800,8.7164296875,0.0006470242515206337,0.0016855518333613873,0.0006075911223888397
1746734101571396900,8.72639697265625,0.0008675339631736279,-0.0006332625634968281,0.0003479328006505966
1746734101581363700,8.73636376953125,0.0016147792339324951,0.0008439645171165466,0.0010724780149757862
1746734101591329800,8.746329833984374,0.0011905375868082047,-0.0004260968416929245,-0.00023353612050414085
1746734101601296600,8.756296630859374,0.0006351708434522152,-0.0016015779692679644,-0.0006977333687245846
1746734101611263700,8.766263671875,-0.0026461100205779076,0.000851193442940712,-0.0016620638780295849
1746734101621229600,8.7762294921875,-0.0013839961029589176,-0.00016899406909942627,-0.0013992106541991234
1746734101631196700,8.78619677734375,-0.0006271256133913994,0.0006595156155526638,-0.00045005977153778076
1746734101641163800,8.796163818359375,-0.0011530397459864616,-0.0002153376117348671,-0.00018139462918043137
1746734101651130600,8.806130615234375,-0.000060877297073602676,0.0001836041919887066,-0.0007798071019351482
1746734101661096700,8.8160966796875,-0.0004557357169687748,0.000040362123399972916,-0.000997630413621664
1746734101671063600,8.8260634765625,-0.00009594252333045006,0.0007005599327385426,0.0004356829449534416
1746734101681030700,8.83603076171875,0.00012641842477023602,0.0013183183036744595,0.00022736983373761177
1746734101690996700,8.845996826171875,0.0003312155604362488,-0.0007594800554215908,0.0005898261442780495
1746734101700963800,8.8559638671875,0.0003487681970000267,-0.0006876150146126747,0.0006388798356056213
1746734101710931000,8.865930908203126,-0.0008621709421277046,-0.00010544806718826294,-0.0006098765879869461
1746734101720896800,8.875896728515626,0.0010876571759581566,0.0016373307444155216,-0.0004890542477369308
1746734101730863900,8.88586376953125,0.0002314508892595768,-0.0009896117262542248,-0.0016536545008420944
1746734101740830700,8.895830810546874,-0.0013457383029162884,-0.0001745140179991722,0.0006196163594722748
1746734101750797800,8.9057978515625,-0.00039339205250144005,0.00034959614276885986,0.0011178934946656227
1746734101760763600,8.915763671875,0.0005658031441271305,0.0005071545019745827,0.0008077477104961872
1746734101770730800,8.925730712890624,-0.00167924165725708,0.0006546936929225922,0.001116940751671791
1746734101780697900,8.93569775390625,0.0007559873629361391,0.000906946137547493,-0.0005018054507672787
1746734101790663700,8.94566357421875,0.0012702436652034521,-0.0006744386628270149,0.0004092622548341751
1746734101800630800,8.955630859375,0.00044995429925620556,-0.00021715182811021805,0.001234438270330429
1746734101810597600,8.96559765625,-0.0018014819361269474,-0.00028532883152365685,-0.0004414888098835945
1746734101820564700,8.975564697265625,-0.0002314262092113495,0.0006262599490582943,0.0008476851508021355
1746734101830530600,8.985530517578125,-0.00019227759912610054,-0.0006571169942617416,0.0005581998266279697
1746734101840497700,8.99549755859375,0.000665576895698905,-0.00010190298780798912,-0.0005756434984505177
1746734101850464800,9.00546484375,0.0001723594032227993,0.0003444426693022251,0.0007905582897365093
1746734101860430600,9.0154306640625,-0.0008767358958721161,0.0000017718411982059479,0.0018329957965761423
1746734101870397700,9.025397705078126,0.00020637153647840023,0.0011272239498794079,0.000002605374902486801
1746734101880364500,9.035364501953126,-0.0009256354533135891,-0.000014410819858312607,-0.00046262890100479126
1746734101890331000,9.045330810546876,0.0018102300819009542,0.00033845799043774605,0.000559226144105196
1746734101900297700,9.055297607421876,0.0005914573557674885,-0.0012237443588674068,-0.000005379784852266312
1746734101910264800,9.065264892578124,-0.0008224151097238064,-0.0008951104246079922,-0.00022535724565386772
1746734101920232000,9.07523193359375,0.0003479511942714453,0.0012532160617411137,-0.0009849709458649158
1746734101930197800,9.08519775390625,-0.0005553928203880787,-0.0005585327744483948,-0.0004813671112060547
1746734101940164900,9.095164794921875,0.0021864846348762512,-0.0007469127885997295,-0.00044344644993543625
1746734101950131700,9.105131591796875,-0.0011030519381165504,-0.00015835417434573174,0.00041781971231102943
1746734101960097800,9.115097900390625,0.00007293303497135639,0.0014103795401751995,0.0003210664726793766
1746734101970064600,9.125064697265625,0.00043325871229171753,-0.0016645060386508703,0.0005477014929056168
1746734101980031700,9.13503173828125,-0.000028992537409067154,-0.0010245414450764656,-0.0019760667346417904
1746734101989998800,9.144998779296875,0.0011843435931950808,0.0007808152586221695,-0.0006210501305758953
1746734101999964700,9.154964599609375,-0.0003237607888877392,-0.00023500248789787292,-0.0003224550746381283
1746734102009931800,9.164931884765625,0.001126064220443368,0.000039303209632635117,-0.0019155577756464481
1746734102019898600,9.174898681640625,-0.0012816363014280796,0.001196755561977625,-0.00129685178399086
1746734102029864700,9.18486474609375,-0.0002707005478441715,0.0009474833495914936,0.00014338595792651176
1746734102039831600,9.19483154296875,0.00045354757457971573,0.0005117966793477535,0.0014357792679220438
1746734102049798700,9.204798583984376,0.0015544984489679337,0.0005301726050674915,-0.00026864372193813324
1746734102059765800,9.214765869140624,-0.0014814939349889755,-0.0006759301759302616,0.000572355929762125
1746734102069731800,9.22473193359375,0.0014852674212306738,-0.0007193395867943764,0.0002788752317428589
1746734102079698700,9.23469873046875,-0.0011183074675500393,0.0010519553907215595,0.0004542269743978977
1746734102089665500,9.24466552734375,0.001358432462438941,-0.0002535260282456875,-0.0003828047774732113
1746734102099631900,9.2546318359375,-0.002422166522592306,0.00043286150321364403,0.0004348577931523323
1746734102109598700,9.2645986328125,0.0004934621974825859,-0.0012766215950250626,-0.000772885512560606
1746734102119565800,9.27456591796875,-0.002003985457122326,-0.00008279643952846527,0.0018986882641911507
1746734102129531600,9.28453173828125,-0.0005099521949887276,-0.00042368145659565926,0.0007375502027571201
1746734102139498800,9.294498779296875,-0.0002919640392065048,-0.0002822019159793854,0.0009566904045641422
1746734102149465900,9.3044658203125,0.0001663658767938614,0.000009414274245500565,-0.00004705507308244705
1746734102159432700,9.3144326171875,0.0004022715147584677,-0.000779004767537117,-0.00018071569502353668
1746734102169398800,9.324398681640625,0.0006294390186667442,0.00040769996121525764,0.0009649759158492088
1746734102179365600,9.33436572265625,-0.00014717364683747292,0.00005827471613883972,0.0005368702113628387
1746734102189332700,9.344332763671876,-0.00009497581049799919,-0.0010067233815789223,-0.0011973804794251919
1746734102199298600,9.354298583984376,-0.0001558484509587288,0.0014025922864675522,0.0005958192050457001
1746734102209265700,9.364265625,0.0013922471553087234,0.0005208193324506283,-0.0005085938610136509
1746734102219232800,9.374232666015626,-0.002315597143024206,0.0005575059913098812,0.0010197460651397705
1746734102229199600,9.38419970703125,0.0010210771579295397,0.00017134752124547958,0.0005036257207393646
1746734102239165700,9.394165771484374,0.0009119773749262094,0.000268393661826849,-0.00005403021350502968
1746734102249132500,9.404132568359374,-0.0004259948618710041,0.0009315209463238716,-0.00021994533017277718
1746734102259099600,9.414099609375,-0.00002801883965730667,0.00022125942632555962,0.0007638041861355305
1746734102269065700,9.424065673828125,-0.000020295847207307816,0.0004870430566370487,-0.000421302393078804
1746734102279032800,9.43403271484375,0.0013353405520319939,-0.0001442250795662403,0.0008121589198708534
1746734102288999700,9.443999755859375,-0.0006859987042844296,-0.000691504217684269,-0.0010933326557278633
1746734102298965800,9.4539658203125,0.0000523619819432497,-0.00023455964401364326,0.00045528123155236244
1746734102308932900,9.463932861328125,0.00036768033169209957,0.00015452830120921135,-0.002365006133913994
1746734102318899700,9.473899658203125,0.0002999696880578995,0.001842221710830927,0.0002469555474817753
1746734102328866800,9.48386669921875,0.0011955909430980682,-0.0010606241412460804,0.00044429581612348557
1746734102338832600,9.49383251953125,-0.0000010114163160324097,-0.000102208461612463,-0.00034548668190836906
1746734102348799700,9.5037998046875,0.00020431820303201675,0.0006975387223064899,-0.0009702644310891628
1746734102358766800,9.513766845703126,-0.0005107647739350796,-0.0008906815201044083,0.0008995290845632553
1746734102368732700,9.523732666015626,-0.0005600331351161003,-0.0007809591479599476,-0.0009830594062805176
1746734102378699800,9.53369970703125,-0.0002611265517771244,-0.000004816334694623947,0.000747444573789835
1746734102388666600,9.54366650390625,0.0010408931411802769,0.0012322221882641315,0.00010242685675621033
1746734102398632700,9.5536328125,-0.0002152775414288044,-0.000002034474164247513,0.0002848883159458637
1746734102408599600,9.563599609375,-0.0007252725772559643,-0.0005234815180301666,-0.0010560136288404465
1746734102418566700,9.573566650390624,0.00008218083530664444,0.0014797430485486984,0.0013413960114121437
1746734102428533800,9.58353369140625,0.001553311012685299,-0.000286199152469635,0.0025749721098691225
1746734102438499600,9.59349951171875,-0.0006371787749230862,0.000059647951275110245,-0.00013204757124185562
1746734102448466700,9.603466796875,-0.0006347820162773132,0.0010287724435329437,0.0002083047293126583
1746734102458433500,9.61343359375,-0.0016663838177919388,0.0006107431836426258,0.00015640119090676308
1746734102468399900,9.62339990234375,-0.0003497172147035599,0.0006299177184700966,-0.0006002029404044151
1746734102478367000,9.633366943359375,-0.0005759801715612411,0.0012817722745239735,0.00027084536850452423
1746734102488333800,9.643333740234375,0.0009020741563290358,-0.0006202575750648975,0.0003874916583299637
1746734102498300700,9.65330078125,0.0006748959422111511,-0.00134766916744411,0.0026112650521099567
1746734102508266800,9.663266845703125,-0.0003834441304206848,0.0009306650608778,-0.0006814673542976379
1746734102518233900,9.67323388671875,-0.0007764152251183987,0.0017798440530896187,-0.0012679887004196644
1746734102528200700,9.68320068359375,-0.0010845428332686424,0.00048128701746463776,0.0013445722870528698
1746734102538166800,9.693166748046876,-0.0002081750426441431,0.000660124234855175,-0.0005238112062215805
1746734102548134000,9.7031337890625,0.0010291298385709524,0.001517662312835455,-0.0011592414230108261
1746734102558100700,9.713100830078124,-0.00013406598009169102,-0.00020804209634661674,0.00033482303842902184
1746734102568066800,9.72306689453125,0.000221998430788517,0.0001131352037191391,0.0003111208789050579
1746734102578033700,9.73303369140625,0.0003124035429209471,0.0008412734605371952,0.0005235397256910801
1746734102588000800,9.743000732421875,0.00029722368344664574,-0.00021759932860732079,0.0012732194736599922
1746734102597967600,9.752967529296875,0.00030245562084019184,0.0002650190144777298,-0.0002802703529596329
1746734102607933700,9.76293359375,-0.0011926430743187666,0.0013518547639250755,-0.0014882804825901985
1746734102617900800,9.77290087890625,0.0017160284332931042,-0.00041232630610466003,0.001348142046481371
1746734102627867600,9.78286767578125,0.0006486335769295692,0.0004018018953502178,0.000514838844537735
1746734102637833700,9.792833740234375,0.0003998507745563984,-0.0005322187207639217,-0.0013197911903262138
1746734102647800600,9.802800537109375,0.00024751806631684303,-0.00016363710165023804,-0.0013096709735691547
1746734102657768200,9.812768310546875,0.0010602881666272879,0.0006466582417488098,0.0009233225136995316
1746734102667734300,9.822734375,-0.00044279987923800945,-0.00123193534091115,-0.000005055218935012817
1746734102677701400,9.832701416015626,-0.0015538136940449476,-0.0008510304614901543,0.0004900814965367317
1746734102687668200,9.842668212890626,-0.00007629184983670712,0.00025498028844594955,0.0001763608306646347
1746734102697635300,9.85263525390625,0.0013717731926590204,-0.0007005468942224979,0.0017098640091717243
1746734102707601400,9.862601318359374,0.00024152756668627262,-0.0009524817578494549,-0.0007711369544267654
1746734102717568500,9.872568603515624,0.0005784546956419945,-0.00040891487151384354,0.0007241866551339626
1746734102727535400,9.882535400390625,-0.0007009280379861593,0.00032318802550435066,0.000912738498300314
1746734102737501400,9.89250146484375,0.0003002516459673643,-0.00010007061064243317,-0.0006487774662673473
1746734102747468500,9.902468505859375,-0.0011120224371552467,-0.00046625547111034393,0.0001192782074213028
1746734102757435400,9.912435302734375,0.0008091803174465895,-0.0006207572296261787,-0.0011123898439109325
1746734102767401500,9.9224013671875,0.00002381415106356144,0.0014035115018486977,0.0004508858546614647
1746734102777368300,9.932368408203125,0.00012006377801299095,-0.0005284612998366356,-0.00013137981295585632
1746734102787335400,9.94233544921875,-0.0007760899607092142,-0.00013218261301517487,0.00008034147322177887
1746734102797302300,9.95230224609375,-0.0008535147644579411,-0.0007685762830078602,-0.00009770924225449562
1746734102807268400,9.962268310546875,0.0009004434105008841,0.0009984313510358334,0.00040509551763534546
1746734102817235500,9.9722353515625,0.0003236320335417986,-0.0008022156544029713,0.00020528817549347878
1746734102827202300,9.982202392578126,-0.0004385649226605892,-0.0010794508270919323,0.0013123643584549427
1746734102837168400,9.99216845703125,0.00021694088354706764,-0.0005375505425035954,-0.00045646680518984795
1746734102847135200,10.00213525390625,-0.00022567645646631718,-0.0007165153510868549,-0.0009366348385810852
1746734102857102300,10.012102294921876,-0.0006822417490184307,0.0003905203193426132,0.00046838074922561646
1746734102867068400,10.022068359375,0.0015984894707798958,-0.00024357810616493225,0.0006026043556630611
1746734102877035300,10.03203515625,0.000682223355397582,0.000022450461983680725,0.0004311935044825077
1746734102887002400,10.04200244140625,-0.0009968997910618782,-0.0003788876347243786,-0.0012766914442181587
1746734102896969200,10.05196923828125,0.0008268223609775305,0.00012069428339600563,0.001095365732908249
1746734102906935600,10.061935546875,-0.0003822529688477516,0.00040725013241171837,0.0008543496951460838
1746734102916902400,10.07190234375,-0.0011549985501915216,0.000986847560852766,0.0007531139999628067
1746734102926869500,10.081869384765625,-0.001082294387742877,-0.0004224972799420357,-0.00035529397428035736
1746734102936835300,10.09183544921875,0.00044787535443902016,-0.0013929931446909904,-0.000425669364631176
1746734102946802400,10.101802490234375,-0.0011553477961570024,0.0005820072256028652,0.00013865483924746513
1746734102956769500,10.11176953125,0.0003356419038027525,0.00018433807417750359,-0.0017981748096644878
1746734102966736400,10.121736328125,-0.0013173820916563272,0.0009577199816703796,-0.0002969508059322834
1746734102976702500,10.131702392578125,-0.0009186482056975365,-0.0014886166900396347,-0.0010248017497360706
1746734102986669300,10.14166943359375,0.0004241177812218666,0.000714616384357214,-0.000006408896297216415
1746734102996636400,10.151636474609376,0.0007931380532681942,0.0010600583627820015,-0.0002014744095504284
1746734103006602200,10.161602294921876,0.0008607823401689529,0.0014589997008442879,0.001822261605411768
1746734103016569300,10.1715693359375,0.00043081166222691536,-0.000503916759043932,0.00013654585927724838
1746734103026536400,10.181536376953124,-0.000710619380697608,0.00023244693875312805,0.0011410899460315704
1746734103036502300,10.191502197265624,0.0003675867337733507,-0.0002691885456442833,-0.0005383831448853016
1746734103046469400,10.201469482421874,-0.0001906116958707571,-0.0007424321956932545,-0.00012266356498003006
1746734103056436200,10.211436279296874,-0.002719922224059701,0.0010637328960001469,0.0017329065594822168
1746734103066403300,10.2214033203125,0.00022207177244126797,3.3248215913772583e-7,-0.00012438185513019562
1746734103076369400,10.231369384765625,-0.00040027592331171036,-0.0009994800202548504,-0.0006833663210272789
1746734103086336300,10.241336181640625,-0.0005837674252688885,0.00016245711594820023,-0.0011494196951389313
1746734103096303400,10.251303466796875,-0.0013261607382446527,0.00007453607395291328,0.0005724085494875908
1746734103106269400,10.26126953125,0.0005729396361857653,-0.0005060327239334583,-0.0004853992722928524
1746734103116236500,10.271236572265625,0.0009387554600834846,-0.0015950396191328764,0.00012602051720023155
1746734103126203400,10.281203369140625,-0.0009576817974448204,-0.0007979553192853928,-0.0007972973398864269
1746734103136169500,10.29116943359375,0.0013355803675949574,0.0003824923187494278,0.00009918492287397385
1746734103146136300,10.30113623046875,0.002304438501596451,-0.0007727872580289841,0.0011410131119191647
1746734103156103400,10.311103515625,-0.00019981665536761284,-0.0005920510739088058,-0.00025092577561736107
1746734103166070500,10.321070556640626,0.0006188391707837582,0.0003685508854687214,0.001380260568112135
1746734103176036400,10.331036376953126,-0.000492714112624526,-0.001691153272986412,-0.0004799063317477703
1746734103186003500,10.34100341796875,-0.0015417335089296103,0.00029929308220744133,0.0010258452966809273
1746734103195970300,10.35097021484375,0.0007910197600722313,-0.00010542850941419601,0.00006238976493477821
1746734103205936400,10.360936279296874,-0.0010766552295535803,0.0011997870169579983,-0.00017383228987455368
1746734103215903200,10.3709033203125,-0.00012024445459246635,-0.000044689979404211044,0.0010206280276179314
1746734103225870300,10.380870361328125,-0.0006896285340189934,0.0008653122931718826,-0.001001243945211172
1746734103235836200,10.390836181640625,-0.00035973917692899704,-0.0001797233708202839,-0.00014161644503474236
1746734103245803300,10.40080322265625,0.0013105955440551043,0.00010044127702713013,-0.00018129777163267136
1746734103255770400,10.410770263671875,0.0004674128722399473,0.0011792201548814774,0.0009050262160599232
1746734103265737200,10.4207373046875,-0.000430072657763958,-0.0006016353145241737,-0.0006904737092554569
1746734103275703600,10.43070361328125,-0.0019241671543568373,0.0004443707875907421,0.0008923239074647427
1746734103285670400,10.44067041015625,-0.001402187393978238,-0.0004730881191790104,0.0003426475450396538
1746734103295637200,10.45063720703125,-0.0001408904790878296,0.0018681609071791172,-0.0003826534375548363
1746734103305603300,10.460603271484375,-0.0015438436530530453,0.00030674971640110016,0.00035157985985279083
1746734103315570400,10.4705703125,0.0013445152435451746,-0.0010100295767188072,-0.0005328082479536533
1746734103325537500,10.48053759765625,0.001357831060886383,0.00026056449860334396,-0.00215360801666975
1746734103335503400,10.49050341796875,0.0016280582640320063,-0.0002267812378704548,-0.0011851098388433456
1746734103345470500,10.500470458984376,0.00002643326297402382,0.0004094480536878109,0.000060716643929481506
1746734103355437300,10.510437255859374,-0.00039157853461802006,-0.00005070492625236511,-0.00021918956190347672
1746734103365404400,10.520404296875,0.0012489287182688713,0.00010881805792450905,0.0006157113239169121
1746734103375370200,10.530370361328124,0.0004953448660671711,-0.0006283414550125599,0.0012043914757668972
1746734103385337300,10.54033740234375,-0.000275373924523592,-0.000011819880455732346,0.0011071860790252686
1746734103395304400,10.550304443359375,0.0014997557736933231,-0.0010072053410112858,-0.00090433144941926
1746734103405270300,10.560270263671875,0.00033675343729555607,0.0012322468683123589,-0.0007237689569592476
1746734103415237400,10.5702373046875,-0.0001180300023406744,-0.0010796329006552696,-0.0007902788929641247
1746734103425204200,10.580204345703125,-0.00008713756687939167,0.00044848863035440445,0.0020459876395761967
1746734103435171300,10.59017138671875,-0.0014546189922839403,-0.0002825590781867504,0.001078946515917778
1746734103445137200,10.60013720703125,0.00021518301218748093,0.0002468773163855076,-0.00022786622866988182
1746734103455104300,10.610104248046875,0.0005953896325081587,-0.0008270419202744961,-0.00015161000192165375
1746734103465071400,10.6200712890625,-0.00007226504385471344,0.00008908519521355629,0.00009792810305953026
1746734103475037400,10.630037353515625,-0.0012798598036170006,-0.00006986502557992935,0.0012044585309922695
1746734103485004500,10.640004638671876,0.00023760925978422165,-0.00007226178422570229,0.0003538448363542557
1746734103494971400,10.649971435546876,0.0005922687705606222,0.0015895441174507141,-0.0004087560810148716
1746734103504937500,10.6599375,0.0019621988758444786,0.0007370659150183201,-0.0009847977198660374
1746734103514904300,10.669904296875,0.0006960227619856596,-0.0007404843345284462,-0.00020065391436219215
1746734103524871400,10.679871337890624,-0.0012235837057232857,-0.0010414216667413712,0.00004568835720419884
1746734103534838500,10.689838623046874,0.00023235613480210304,-0.0003822292201220989,0.0010495991446077824
1746734103544804400,10.699804443359374,0.002133320551365614,0.00025000516325235367,0.000854389276355505
1746734103554771500,10.709771484375,0.0009186258539557457,0.0005874624475836754,-0.0013326494954526424
1746734103564738300,10.71973828125,-0.00028432393446564674,0.000617023091763258,-0.0010626050643622875
1746734103574704400,10.729704345703125,0.00043269083835184574,0.00018592039123177528,-0.00010240916162729263
1746734103584671200,10.739671142578125,0.000026558758690953255,-0.0009328732267022133,0.0004896116442978382
1746734103594638300,10.749638427734375,-0.0010001191403716803,-0.0002558552660048008,0.00010006409138441086
1746734103604604200,10.759604248046875,-0.0009487203788012266,0.0002623959444463253,-0.0021673510782420635
1746734103614571300,10.7695712890625,0.00007404549978673458,0.00017316779121756554,-0.00047950493171811104
1746734103624538400,10.779538330078125,-0.0002926718443632126,-0.0007331059314310551,-0.0001623225398361683
1746734103634505200,10.789505126953125,-0.00021525914780795574,-0.00013037165626883507,0.0007233861833810806
1746734103644471300,10.79947119140625,0.0012108637019991875,-0.0006901677697896957,0.000009925104677677155
1746734103654438100,10.809438232421876,-0.0001443512737751007,0.00002629309892654419,-0.0010858490131795406
1746734103664405000,10.819405029296876,0.0015688601415604353,-0.00038037169724702835,0.00020525138825178146
1746734103674371000,10.82937109375,-0.0007497328333556652,-0.001623276388272643,0.0016798516735434532
1746734103684338200,10.839338134765624,-0.00101791275665164,-0.0012799948453903198,-0.00006265472620725632
1746734103694305000,10.849304931640624,-0.00024665798991918564,0.0011391779407858849,-0.0009662667289376259
1746734103704271000,10.85927099609375,0.0009184752125293016,-0.0011889575980603695,-0.0007958239875733852
1746734103714238000,10.869238037109374,0.0014841740485280752,-0.000044580549001693726,-0.0005881353281438351
1746734103724205000,10.879205078125,0.0013361023738980293,0.0006465096957981586,-0.0006880038417875767
1746734103734172200,10.889172119140625,0.00029519456438720226,0.00008471682667732239,-0.00014341995120048523
1746734103744138000,10.899137939453125,0.000374823110178113,0.0006173490546643734,0.0007010684348642826
1746734103754105000,10.90910498046875,-0.0017093727365136147,-0.00016744248569011688,0.0007157209329307079
1746734103764072000,10.919072021484375,-0.0005335872992873192,-0.000009517185389995575,0.0003782985731959343
1746734103774038000,10.9290380859375,0.0017410104628652334,0.0003117341548204422,0.000743283424526453
1746734103784004900,10.9390048828125,0.0007196881342679262,0.00029815221205353737,-0.0003930875100195408
1746734103793972000,10.948971923828125,-0.0014564641751348972,-0.0000019045546650886536,-0.0006666500121355057
1746734103803939000,10.95893896484375,0.0020908662118017673,-0.0007678298279643059,-0.00008554849773645401
1746734103813905000,10.96890478515625,-0.000667991116642952,0.00022667227312922478,0.0002512028440833092
1746734103823872000,10.9788720703125,-0.0005654594860970974,-0.0005080937407910824,-0.00010672584176063538
1746734103833838800,10.9888388671875,0.001640615751966834,-0.0007060347124934196,-0.000702656339854002
1746734103843805200,10.99880517578125,-0.0009572976268827915,-0.0005052322521805763,0.00009016692638397217
1746734103853772000,11.00877197265625,0.0009161287453025579,0.00019511673599481583,-0.0004222332499921322
1746734103863739100,11.0187392578125,-0.0006127920933067799,-0.0018994593992829323,-0.0005018613301217556
1746734103873705000,11.028705078125,0.001361023634672165,0.00041861366480588913,-0.00023504160344600677
1746734103883672000,11.038672119140625,-0.0009716390632092953,-0.0002525029703974724,-0.0032201791182160378
1746734103893639200,11.04863916015625,0.00048442487604916096,0.001594423782080412,0.0002114744856953621
1746734103903606000,11.05860595703125,0.0015235901810228825,0.001055932603776455,0.0004953672178089619
1746734103913572000,11.068572021484375,-0.00040563661605119705,0.0008333451114594936,-0.0002716626040637493
1746734103923539000,11.0785390625,-0.000006961403414607048,-0.000839652493596077,0.0006580469198524952
1746734103933506000,11.088506103515625,0.00024490361101925373,0.001066859345883131,-0.00018655648455023766
1746734103943471900,11.098471923828125,-0.0013093170709908009,-0.0005486141890287399,-0.0009194584563374519
1746734103953439000,11.10843896484375,-0.0006551556289196014,-0.0006540999747812748,-0.001725939568132162
1746734103963406000,11.118406005859375,0.0018578032031655312,0.00015896325930953026,-0.00013976078480482101
1746734103973372000,11.128371826171875,-0.0020163576118648052,0.00001604156568646431,-0.000002116430550813675
1746734103983339000,11.138339111328126,-0.00034495769068598747,0.0012831734493374825,-0.00047456100583076477
1746734103993305900,11.148305908203126,0.0007137611974030733,0.001100101973861456,-0.0010848254896700382
1746734104003273000,11.15827294921875,-0.0004934493917971849,-0.0002147005870938301,0.0003093392588198185
1746734104013238800,11.16823876953125,0.00014937878586351871,-0.0005596298724412918,0.0004907175898551941
1746734104023206000,11.178205810546874,-0.0006820601411163807,-0.0003007706254720688,0.00009550433605909348
1746734104033173000,11.188173095703124,0.0009890708606690168,0.0013350993394851685,-0.00041970936581492424
1746734104043139000,11.19813916015625,0.00030091009102761745,-0.00020047929137945175,-0.0010823039337992668
1746734104053106200,11.208106201171875,-0.001590257277712226,0.0008125086314976215,0.0011757477186620235
1746734104063073000,11.218072998046875,-0.0009460386354476213,-0.001149175688624382,0.0004055616445839405
1746734104073040100,11.2280400390625,-0.0007314605172723532,0.000057413242757320404,0.00032090069726109505
1746734104083006000,11.238005859375,0.0018219784833490849,0.0008009676821529865,0.00045325979590415955
1746734104092973000,11.24797314453125,-0.000266391783952713,0.00039971014484763145,0.0010639885440468788
1746734104102940200,11.257940185546875,0.0008659842424094677,-0.0008165552280843258,-0.0009682700037956238
1746734104112906000,11.267906005859375,0.0006071492098271847,0.0005349698476493359,0.0004256987012922764
1746734104122873000,11.277873046875,-0.0008179084397852421,-0.0004368177615106106,0.0007516695186495781
1746734104132840000,11.28783984375,0.0005742614157497883,0.00027535902336239815,-0.00007021240890026093
1746734104142807000,11.29780712890625,-0.000005775131285190582,-0.0001243813894689083,0.00042034173384308815
1746734104152773000,11.307773193359376,0.00002183998003602028,0.00037058861926198006,0.00019326480105519295
1746734104162740000,11.317739990234376,0.00023329490795731544,0.00037884432822465897,0.000053981319069862366
1746734104172707000,11.32770703125,-0.00021843519061803818,0.00011903559789061546,0.00007160939276218414
1746734104182673000,11.3376728515625,-0.0014064712449908257,-0.0013321209698915482,-0.0007955157198011875
1746734104192640000,11.347639892578124,0.0003583058714866638,0.00023356545716524124,-0.00014465022832155228
1746734104202606800,11.35760693359375,0.0004677616525441408,0.0001547359861433506,-0.001002986915409565
1746734104212573000,11.367572998046874,-0.0004614072386175394,0.0000025383196771144867,0.0009643412195146084
1746734104222540000,11.3775400390625,0.0014949510805308819,0.0011682040058076382,-0.0009483406320214272
1746734104232507000,11.3875068359375,-0.0012119761668145657,-0.0006003486923873425,0.00027082161977887154
1746734104242474000,11.397473876953125,0.0003973720595240593,-0.0007811770774424076,0.0005829441361129284
1746734104252440000,11.407440185546875,-0.000829566502943635,-0.00017103459686040878,0.0006987270899116993
1746734104262407200,11.4174072265625,0.00010946393013000488,-0.0003963378258049488,0.00022654887288808823
1746734104272374000,11.4273740234375,-0.000020999694243073463,-0.00021908944472670555,0.000054537318646907806
1746734104282340000,11.437340087890625,-0.000783728901296854,-0.000926425214856863,0.00010620243847370148
