time,seconds_elapsed,roll,rotationRateZ,quaternionY,rotationRateY,quaternionZ,quaternionW,yaw,devicelocation,accelerationZ,pitch,gravityX,gravityZ,quaternionX,rotationRateX,accelerationX,gravityY,accelerationY
1746728743355295000,0.352294921875,-0.18818482759673305,0.05826689302921295,-0.09228678729255338,-0.0458897165954113,7.686151032107162e-19,0.9897701545403009,-0.020566376847564894,left,0.00204080855473876,-0.21708208739971124,-1.7915325577519834,-9.407419795778393,-0.1088036013429511,0.045678604394197464,-0.0014066691510379314,2.112167948686331,-0.0031731436029076576
1746728743395295000,0.392294921875,-0.18922817373404188,0.03672605752944946,-0.09288050064658158,-0.049485139548778534,0.0008132568641792551,0.989701168698053,-0.019074273127807354,left,0.0038424134254455566,-0.21746366885391125,-1.8011949968494474,-9.404753206917643,-0.10892310735584529,0.03204952925443649,-0.0029548555612564087,2.1158219411492345,-0.004701331257820129
1746728743435295200,0.432295166015625,-0.1925656394054762,0.005620465148240328,-0.09460201504763267,-0.04479598253965378,0.0015222553814856522,0.9895871685245757,-0.01792990798450748,left,0.002180933952331543,-0.21665635637304967,-1.8328993180155753,-9.400362863004206,-0.10846812991914129,0.004946159198880196,-0.007100924849510193,2.108090762375295,-0.0006453990936279297
1746728743475295000,0.472294921875,-0.19419018978935984,0.004657623823732138,-0.0954138670543735,-0.042058106511831284,0.001582889496760707,0.9895494396987622,-0.017912727926006372,left,0.0005148053169250488,-0.21591726505938297,-1.8484683508083224,-9.398898635670543,-0.10810042274485583,0.006024048663675785,-0.007090434432029724,2.101011617769301,0.0029655247926712036
1746728743515295000,0.512294921875,-0.19642837186106252,0.030948977917432785,-0.0965899388243841,-0.038809653371572495,0.0022814577649797898,0.9894611491710086,-0.016707214166519,left,-0.002043783664703369,-0.2155351157949593,-1.8696566847875713,-9.39552477532327,-0.10785136014521088,0.02357415109872818,-0.007951736450195312,2.0973509033046662,0.005879402160644531
1746728743555295000,0.552294921875,-0.198132728046995,0.0485648512840271,-0.09753421167792999,-0.040057066828012466,0.003297924986643681,0.9893771397087381,-0.014835691693252143,left,0.00020503997802734375,-0.2155096487538847,-1.885677845261991,-9.39237712494731,-0.10774556323827943,0.029703378677368164,-0.0077469199895858765,2.097106865415722,0.00499783456325531
1746728743595295000,0.592294921875,-0.19983715192975368,0.06618072837591171,-0.09847830456738646,-0.04130448400974274,0.004314399725384928,0.9892912758003395,-0.01296411286032156,left,0.002450287342071533,-0.2154873360514445,-1.9016930143870412,-9.389194987779856,-0.1076395670491271,0.03583260625600815,-0.0075426846742630005,2.096893076534569,0.004113182425498962
1746728743635295000,0.632294921875,-0.20203991481148123,0.06378615647554398,-0.09973748693427335,-0.045328378677368164,0.0060970017005837224,0.9891282691874668,-0.009686010410654597,left,0.002937495708465576,-0.21633545268502694,-1.9220128949686883,-9.38323754068017,-0.10789083216515828,0.016939565539360046,-0.00435929000377655,2.1050172001488505,-0.0021891146898269653
1746728743675295200,0.672295166015625,-0.20438924013357138,0.07340137660503387,-0.10101975812686632,-0.07888557016849518,0.007418907601339012,0.9889615827946839,-0.007347766741811152,left,0.007186591625213623,-0.21709974985480215,-1.943724814430624,-9.37711818101704,-0.10814345760986957,0.007325376383960247,-0.005829080939292908,2.112337021642923,-0.0030177682638168335
1746728743715295000,0.712294921875,-0.20673708965754745,0.08301659673452377,-0.1023016731078022,-0.11244276165962219,0.008740827852878913,0.988791356095656,-0.005010890179567013,left,0.011429131031036377,-0.21786938600994255,-1.9654012241877614,-9.370935108467936,-0.10839570179213302,-0.002288813702762127,-0.007302507758140564,2.119706819758564,-0.0038515031337738037
1746728743754775000,0.751775146484375,-0.21143446823222117,0.12504711747169495,-0.10489053986145236,-0.1254817694425583,0.011451684376929424,0.9885127935226644,-0.00006145612227596579,left,-0.0058623021468520164,-0.21805899985417698,-2.009313723411411,-9.361206326135992,-0.10820934780990246,0.026513313874602318,-0.005887124687433243,2.1215223447479308,0.0012438121484592557
1746728744039822800,1.03682275390625,-0.21947070324991086,0.027445316314697266,-0.10967422541207306,0.01105971448123455,0.019060144942966265,0.9881679347094512,0.01486643741863263,left,-0.010910757817327976,-0.21434226653767507,-2.086179228688031,-9.35238822890818,-0.10551039531952881,0.03656448423862457,0.0008005608688108623,2.0859221851870418,-0.0031645125709474087
1746728744079822800,1.07682275390625,-0.2178350282365921,0.05647950619459152,-0.10902134214652846,0.012729777954518795,0.020388710802925866,0.9882610283808054,0.01779588075280886,left,-0.004306674003601074,-0.2137329008490613,-2.0711532167308033,-9.357027579146623,-0.10506521870594747,0.017138928174972534,-0.000398784875869751,2.0800826653786,-0.0013426542282104492
1746728744119822800,1.11682275390625,-0.21689515236933943,0.06115437299013138,-0.10867881615857214,0.008992516435682774,0.021486155460395333,0.9882882785357381,0.020117515506819877,left,-0.0027878284454345703,-0.21372509752802354,-2.0623614229880274,-9.358985727477073,-0.10494484770279726,0.013168598525226116,-0.0005361884832382202,2.0800079927071926,-0.002038732171058655
1746728744159822600,1.156822509765625,-0.21577299483416643,0.05959790199995041,-0.10826934642856863,0.014383276924490929,0.0227770162910019,0.9883356582647174,0.02288309008386259,left,0.0020514726638793945,-0.2134055952409778,-2.0520000418409703,-9.361942823716998,-0.10464934402888704,0.028284907341003418,-0.001915082335472107,2.076945828657597,-0.0007471442222595215
1746728744199822600,1.196822509765625,-0.21482389194260004,0.05567284673452377,-0.10793922225117535,0.008996546268463135,0.02399901303730452,0.9884027366126817,0.02554975634591154,left,0.0024617910385131836,-0.21252825070527512,-2.043501385825872,-9.365662721022963,-0.1040826077737929,0.03622288629412651,-0.0020810067653656006,2.0685364583611485,0.0036855190992355347
1746728744239822600,1.236822509765625,-0.21392840669759625,0.044461123645305634,-0.10763233525062504,0.014517726376652718,0.025194324326742457,0.9884817608826123,0.028188367232862856,left,0.0019044876098632812,-0.211340997195252,-2.035633721190691,-9.36988238454461,-0.1033644771682206,0.04681503772735596,-0.00017030537128448486,2.0571539174728093,0.002135172486305237
1746728744279822600,1.276822509765625,-0.21313864636544264,0.03296513855457306,-0.10734431549961095,0.014896787703037262,0.026085458272897665,0.9885714376637535,0.0302193942587905,left,0.004206955432891846,-0.20996096911987056,-2.028831639960408,-9.374252854713797,-0.1025831150016088,0.05839943140745163,0.0009975731372833252,2.043919611237943,-0.0010151714086532593
1746728744434790400,1.431790283203125,-0.2133008371223759,0.01279410533607006,-0.1076142167913732,-0.0260624960064888,0.027810111945544523,0.9887609258831149,0.034198600845393536,left,0.004707633517682552,-0.2051489407600647,-2.032410521360487,-9.383427510294318,-0.09998749329880771,0.047522686421871185,0.0017186615150421858,1.9977426742136477,-0.004947266541421413
1746728744474790700,1.471790771484375,-0.21412875279244167,0.032315757125616074,-0.10810786048677863,-0.02950103208422661,0.028650566245729675,0.98879282417886,0.036024378146413516,left,0.0001366734504699707,-0.20316724647973136,-2.0410158526204527,-9.385591994851827,-0.09889722798060137,0.05486229434609413,-0.0020271390676498413,1.978712541181594,-0.004419580101966858
1746728744514790700,1.511790771484375,-0.21464395179393234,0.03746875002980232,-0.1084546911341422,-0.029651116579771042,0.029579631353675508,0.9888100351188712,0.03800496190984376,left,-0.0007569193840026855,-0.20172299906040445,-2.04645745915249,-9.38732159512341,-0.09806817406895502,0.048120688647031784,-0.002688467502593994,1.9648384757384656,-0.0045562684535980225
1746728744554790400,1.551790283203125,-0.21516192362094927,0.04262174293398857,-0.10880134462200276,-0.029801201075315475,0.030508619002324135,0.9888255598570808,0.03998566168763696,left,-0.0016536116600036621,-0.20027974914281152,-2.051922884951532,-9.389020800256729,-0.0972389600701731,0.041379086673259735,-0.0033473819494247437,1.9509699632532893,-0.004693523049354553
1746728744594790400,1.591790283203125,-0.21576275178505308,0.034251462668180466,-0.10916823009171807,-0.022326581180095673,0.031245761007941738,0.9888182218213897,0.041520474556559814,left,-0.003176748752593994,-0.19931142512869848,-2.0579672796823085,-9.389627533978222,-0.09666708271529538,0.03315965458750725,-0.004727557301521301,1.9416629134647547,-0.001848861575126648
1746728744634790400,1.631790283203125,-0.21650319998992118,0.010605499148368835,-0.1095956739000188,-0.01842517778277397,0.03191165378101643,0.9888367262241552,0.042968216159460296,left,0.00043767690658569336,-0.19768599417109692,-2.0655944135598836,-9.391170671766996,-0.09577221280310434,0.05018371343612671,-0.0030240118503570557,1.9260358668744564,-0.005475074052810669
1746728744674790400,1.671790283203125,-0.21716905536951478,0.006551588885486126,-0.1099425360650549,-0.015406983904540539,0.03213328057304823,0.9888949447526812,0.04357560715623244,left,-0.001203000545501709,-0.19559417493950151,-2.072710675305873,-9.393706912246346,-0.09469346918040986,0.05409298837184906,-0.0033167600631713867,1.9059175002142785,0.001420721411705017
1746728744714790400,1.711790283203125,-0.21771665106677643,-0.0021773148328065872,-0.1102233480731166,-0.016689535230398178,0.03227238052932502,0.9889330195831469,0.04396581169458458,left,0.001687467098236084,-0.19408900522558875,-2.0784715769201516,-9.395361109194159,-0.0939185880328578,0.03299340605735779,-0.0032296031713485718,1.8914361165277658,-0.002641648054122925
1746728744754790700,1.751790771484375,-0.21826472628461555,-0.01090622041374445,-0.11050410298316767,-0.017972087487578392,0.032411525194745126,0.9889704623869127,0.0443568733842184,left,0.004575252532958984,-0.1925841086466512,-2.0842346704915165,-9.396989002656936,-0.09314365857973557,0.011893818154931068,-0.0031422078609466553,1.8769529792755841,-0.006703853607177734
1746728744794790400,1.791790283203125,-0.219372979262018,-0.019699912518262863,-0.11100255087676475,-0.013636825606226921,0.031937047915978165,0.9889249588927843,0.04328996791955494,left,-0.0008740425109863281,-0.1926113809316411,-2.094636529779434,-9.394623442569374,-0.09319839995092338,-0.019971352070569992,-0.00199340283870697,1.877215575734526,-0.0008183270692825317
1746728744834790400,1.831790283203125,-0.21953034815960765,-0.006428309716284275,-0.11105510621303594,0.004727384075522423,0.031675311410802834,0.9889047631174027,0.042699758979332286,left,-0.0015745162963867188,-0.19303703727879032,-2.095940744245797,-9.39351285097897,-0.09343922672327186,-0.014948255382478237,-0.003542572259902954,1.8813124896593392,-0.0002848505973815918
1746728744874790400,1.871790283203125,-0.21953034815960765,-0.00030067237094044685,-0.11105510621303594,0.0005909702740609646,0.031675311410802834,0.9889047631174027,0.042699758979332286,left,-0.0023439526557922363,-0.19303703727879032,-2.095940744245797,-9.39351285097897,-0.09343922672327186,-0.013599179685115814,-0.0027269572019577026,1.8813124896593392,0.0012966692447662354
1746728744914790400,1.911790283203125,-0.21925236185445066,-0.0036142845638096333,-0.11091186443707057,0.006027710158377886,0.03159979143890737,0.9888924450511937,0.042505579329846985,left,-0.0013752579689025879,-0.19366382530529586,-2.093072495333105,-9.392942357614636,-0.09376445773743748,-0.012128663249313831,-0.0019576549530029297,1.8873446094304323,0.0006828457117080688
1746728744954790400,1.951790283203125,-0.2189744847450185,-0.006927897222340107,-0.1107686128284017,0.011464450508356094,0.03152427180869734,0.9888800426919787,0.04231156429493446,left,-0.00040709972381591797,-0.19429067879071932,-2.090204830942303,-9.392366603553295,-0.09408967751640047,-0.010658146813511848,-0.0011882930994033813,1.893376583071053,0.00006903707981109619
1746728744994790700,1.991790771484375,-0.2189744847450185,-0.010241510346531868,-0.1107686128284017,0.01690119132399559,0.03152427180869734,0.9888800426919787,0.04231156429493446,left,0.0006197094917297363,-0.19429067879071932,-2.090204830942303,-9.392366603553295,-0.09408967751640047,-0.00918763130903244,-0.00012649595737457275,1.893376583071053,0.00007033348083496094
1746728745034790400,2.031790283203125,-0.21835443538885851,-0.0049669393338263035,-0.11043868862106809,0.007459778338670731,0.031249881252107665,0.988903881574983,0.04177455931293681,left,0.003323853015899658,-0.19467236013581687,-2.0842240029670296,-9.39295463257432,-0.0943179139592207,-0.005701293237507343,-0.0029881447553634644,1.8970491341039537,0.0013394802808761597
1746728745074790400,2.071790283203125,-0.21773457393710463,0.00030763261020183563,-0.11010875259741154,-0.001981634646654129,0.030975533696233997,0.9889275098963161,0.04123785302405851,left,0.006027400493621826,-0.19505441113979505,-2.0782446362964806,-9.393536816376447,-0.09454614113445088,-0.0022149544674903154,-0.0058496445417404175,1.900724900007248,0.002608254551887512
1746728745114790400,2.111790283203125,-0.21773457393710463,0.003750616917386651,-0.11010875259741154,0.018803153187036514,0.030975533696233997,0.9889275098963161,0.04123785302405851,left,0.0025780797004699707,-0.19505441113979505,-2.0782446362964806,-9.393536816376447,-0.09454614113445088,0.0074974047020077705,-0.006479427218437195,1.900724900007248,0.001478731632232666
1746728745154790400,2.151790283203125,-0.21720566236904573,0.01508738286793232,-0.10986845007584357,0.01763240247964859,0.031172589009206216,0.9889752606241115,0.0417443506737722,left,0.0021436214447021484,-0.19451789396797003,-2.073495395942777,-9.395628820219635,-0.09426109166122552,0.01979449763894081,-0.006231963634490967,1.8955628410689531,0.0030623525381088257
1746728745194790400,2.191790283203125,-0.21667707312322845,0.026424147188663483,-0.10962811408890785,0.016461651772260666,0.03136960268820408,0.9890228847415541,0.04225044140877798,left,0.0017086267471313477,-0.19398108927440955,-2.0687471785023805,-9.397716147887706,-0.0939760124176068,0.03209158778190613,-0.005984410643577576,1.8903977133907377,0.00464630126953125
1746728745234790700,2.231790771484375,-0.21568878827792506,0.018321499228477478,-0.10918667988973618,0.020673880353569984,0.03182938194759789,0.9891279669121428,0.04342460604216226,left,0.002727508544921875,-0.19256342610417898,-2.060030057431012,-9.402364265954494,-0.09322599506532249,0.04477884620428085,-0.0026395022869110107,1.876753949572146,0.0005684345960617065
1746728745274790400,2.271790283203125,-0.21470250985286718,0.010218854993581772,-0.10874515644960893,0.024886108934879303,0.03228912298987122,0.9892320795423228,0.04459699959423491,left,0.003743469715118408,-0.1911446497179338,-2.051320973535627,-9.406983742448688,-0.09247589832534511,0.05746610462665558,0.0007062405347824097,1.8630958649672567,-0.0035079866647720337
1746728745314790400,2.311790283203125,-0.2141049986954222,-0.0019364426843822002,-0.10846838403729286,-0.01018607895821333,0.03249763071882811,0.9893762672866867,0.0453444108806409,left,0.004065811634063721,-0.18858131474749035,-2.046707780651748,-9.412843574392795,-0.09117644391200114,0.05009961873292923,0.0005908608436584473,1.8384097520001232,-0.0008352547883987427
1746728745354790400,2.351790283203125,-0.21466133809083368,0.001160060754045844,-0.10874256848209508,-0.03057258203625679,0.03252990318737278,0.9894000848140948,0.04548257782166563,left,0.002192556858062744,-0.18740553293245893,-2.052403215814382,-9.413808620032668,-0.09057797591627864,0.025139708071947098,-0.00037895143032073975,1.8270824484303592,0.004104748368263245
1746728745394790400,2.391790283203125,-0.21640766740183243,0.01311417669057846,-0.10963403951476137,-0.022528035566210747,0.03291875470433129,0.9893165237256893,0.046159977084278096,left,0.00011211633682250977,-0.1869251686056823,-2.069027895139903,-9.411066043326258,-0.09027468615982638,0.008675798773765564,-0.002048894762992859,1.8224540579773485,0.0011336207389831543
1746728745434790400,2.431790283203125,-0.2169487236754853,0.009471215307712555,-0.109920516519763,-0.017072152346372604,0.03316560315477597,0.9893184094194326,0.046700660622354936,left,0.0002505779266357422,-0.18607258921296937,-2.074453281189501,-9.411459426558018,-0.08981413475379438,0.023432139307260513,-0.0016413182020187378,1.814238018295914,0.0019143074750900269
1746728745474790700,2.471790771484375,-0.21750355522108009,0.01866770349442959,-0.11022197045341224,-0.017216628417372704,0.03350808252937075,0.9893205563137454,0.04744471347947185,left,0.0012066960334777832,-0.18511890330506015,-2.080047155673802,-9.411991925999521,-0.08929196492672291,0.0197808425873518,-0.003031715750694275,1.8050461193196474,0.00324442982673645
1746728745514790700,2.511790771484375,-0.2176260151127579,0.026964137330651283,-0.11034354992936878,-0.010770664550364017,0.03418390753934664,0.9892802635192431,0.04877473880984347,left,0.0005753040313720703,-0.18535438571775575,-2.0811079167731106,-9.411322063913941,-0.08933308367697446,0.010979846119880676,-0.0029331594705581665,1.807315963947773,-0.000675395131111145
1746728745554790400,2.551790283203125,-0.21774811497918106,0.03526057302951813,-0.11046506966247725,-0.004324700683355331,0.03485969296546062,0.9892393383563555,0.050104737206504935,left,-0.00005602836608886719,-0.18558998608783853,-2.0821648784801363,-9.41065161730647,-0.08937415674513753,0.002178850583732128,-0.0028349608182907104,1.8095868314892052,-0.004595354199409485
1746728745594790400,2.591790283203125,-0.21786989761501108,0.04355700686573982,-0.11058653163635751,0.002121263649314642,0.03553548010000186,0.989197991728438,0.05143480738584468,left,-0.0006874799728393555,-0.18582574787289233,-2.0832186253167686,-9.409981170699,-0.08941518216359325,-0.006622145883738995,-0.0027371197938919067,1.8118590142048894,-0.008515417575836182
1746728745634790400,2.631790283203125,-0.21765183179055278,0.02180343307554722,-0.11053744741754815,0.010949963703751564,0.036172641463525376,0.9891821140155446,0.05273219471558588,left,-0.008437812328338623,-0.18592464393637786,-2.081127936647832,-9.41026057216227,-0.08939630801808066,0.0010685115121304989,0.00009582936763763428,1.8128122232764958,-0.012116342782974243
1746728745674790400,2.671790283203125,-0.21704967382603144,0.005418267101049423,-0.11022921250299937,0.012582935392856598,0.036009069321734304,0.9891922406531878,0.05239030052539409,left,-0.007511615753173828,-0.18654051383342138,-2.0752203200392425,-9.410420146638154,-0.08973080840455441,-0.01915018819272518,0.00018209218978881836,1.8187474585443735,-0.007715761661529541
1746728745714790400,2.711790283203125,-0.21644763629285035,-0.010966898873448372,-0.10992094346188047,0.014215907081961632,0.035845498204999486,0.9892021144118132,0.052048764667842834,left,-0.006586313247680664,-0.18715656712876214,-2.0693134340830146,-9.410571537807582,-0.09006527967650801,-0.0393688902258873,0.0002684295177459717,1.8246837167255578,-0.003315269947052002
1746728745754790700,2.751790771484375,-0.2158457250288027,-0.027352062985301018,-0.1096126514493181,0.015848878771066666,0.0356819704306662,0.9892116933157618,0.051707665369399004,left,-0.005661725997924805,-0.18777282614664265,-2.0634075710400936,-9.410715330192446,-0.09039973175740826,-0.059587590396404266,0.00035487115383148193,1.8306211439505218,0.0010850727558135986
1746728745794790400,2.791790283203125,-0.21506828046449197,-0.006712192203849554,-0.10918507058813842,0.014231955632567406,0.03512243840108683,0.989187424417226,0.050452321232082646,left,0.0048198699951171875,-0.18962147049063507,-2.0553648420989514,-9.408994497749209,-0.09139697269615359,-0.0439174622297287,0.0012151002883911133,1.8484284571893512,0.006096929311752319
1746728745834790400,2.831790283203125,-0.2149135138758,0.010293601080775261,-0.10910903101124055,-0.002177329733967781,0.03509246136084239,0.9891484010609665,0.05029696314282438,left,0.005456805229187012,-0.1906550782848658,-2.0535000711403786,-9.407440838566423,-0.09191964267114885,-0.015213096514344215,0.0009127110242843628,1.8583819881878791,0.005515947937965393
1746728745874790400,2.871790283203125,-0.21512279430378492,0.015196409076452255,-0.10923924058086133,-0.011488239280879498,0.03537649658808886,0.9891055086035068,0.05080308175923586,left,-0.001121819019317627,-0.19111673599929527,-2.055285493252426,-9.406171257022022,-0.09211677199148732,-0.0035494817420840263,-0.0002145320177078247,1.8628269848980008,0.004552945494651794
1746728745914782500,2.911782470703125,-0.21559602413430642,0.019063644111156464,-0.10951236727620653,-0.017388563603162766,0.03580307685186496,0.9890410245391469,0.051567368608328674,left,0.00021564390044659376,-0.19162947702111277,-2.0595318986505267,-9.404263377574086,-0.09232025413557388,-0.009049632586538792,-0.002629536669701338,1.867763564517349,0.001604922697879374
1746728746094314500,3.091314453125,-0.2153489977694195,0.001912980922497809,-0.10951062880919825,0.005788223817944527,0.036908079438989064,0.9887634126372201,0.0532713578911324,left,-0.0008347614202648401,-0.19687603638289658,-2.055086463548988,-9.395069432771205,-0.09482704236967826,-0.012993482872843742,-0.00015420018462464213,1.9182469665639101,0.002236390020698309
1746728746134314500,3.131314453125,-0.2153489977694195,-0.00025845516938716173,-0.10951062880919825,0.00407621031627059,0.036908079438989064,0.9887634126372201,0.0532713578911324,left,-0.00029098987579345703,-0.19687603638289658,-2.055086463548988,-9.395069432771205,-0.09482704236967826,-0.010584578849375248,0.0009480565786361694,1.9182469665639101,0.0035831034183502197
1746728746174314500,3.171314453125,-0.2153489977694195,0.0013825026107951999,-0.10951062880919825,0.00042031961493194103,0.036908079438989064,0.9887634126372201,0.0532713578911324,left,0.0007727742195129395,-0.19687603638289658,-2.055086463548988,-9.395069432771205,-0.09482704236967826,-0.005998928565531969,0.0012524127960205078,1.9182469665639101,0.0042776018381118774
1746728746214314500,3.211314453125,-0.21511321516842127,-0.00038011535070836544,-0.10939532829439584,-0.0009052603272721171,0.036898912355510294,0.9887582335237712,0.05323606051747472,left,-0.00011944770812988281,-0.19724972174152425,-2.0527179808519778,-9.39485315967202,-0.09501816692386236,0.0006088661029934883,0.0004716813564300537,1.9218406071417033,0.0031445473432540894
1746728746254314500,3.251314453125,-0.21511321516842127,-0.002680030418559909,-0.10939532829439584,-0.00011482957052066922,0.036898912355510294,0.9887582335237712,0.05323606051747472,left,-0.00007224082946777344,-0.19724972174152425,-2.0527179808519778,-9.39485315967202,-0.09501816692386236,0.004272845108062029,0.0003219097852706909,1.9218406071417033,0.0014221221208572388
1746728746294314500,3.291314453125,-0.21511321516842127,-0.0046328287571668625,-0.10939532829439584,0.002728095045313239,0.036898912355510294,0.9887582335237712,0.05323606051747472,left,-0.0004691481590270996,-0.19724972174152425,-2.0527179808519778,-9.39485315967202,-0.09501816692386236,0.005730564706027508,0.0004610717296600342,1.9218406071417033,0.0008405894041061401
1746728746334314200,3.331314208984375,-0.21494735287901465,-0.007255450822412968,-0.1092968197295117,0.0045995526015758514,0.03672981257179687,0.9887907179032842,0.05294785531293317,left,-0.00018858909606933594,-0.19688985020533606,-2.051307091140747,-9.395868474194407,-0.09485895962284493,0.006104122381657362,0.0011083632707595825,1.9183797991633413,0.0007900148630142212
1746728746374314500,3.371314453125,-0.21494735287901465,-0.009878072887659073,-0.1092968197295117,0.0064710103906691074,0.03672981257179687,0.9887907179032842,0.05294785531293317,left,-0.000011622905731201172,-0.19688985020533606,-2.051307091140747,-9.395868474194407,-0.09485895962284493,0.006477680057287216,0.00189952552318573,1.9183797991633413,0.0003865361213684082
1746728746414314500,3.411314453125,-0.21500025423089103,-0.006431663408875465,-0.10929751823021776,-0.008831193670630455,0.03648340789431627,0.9888249119888333,0.05250526834738736,left,-0.0016199946403503418,-0.19631196272703932,-2.0520403738513586,-9.396841118618845,-0.09459630904424779,0.010985614731907845,0.000313684344291687,1.9128218727752566,-0.0004688054323196411
1746728746454314500,3.451314453125,-0.21470687057558235,0.00078232167288661,-0.10915628312307188,-0.009179819375276566,0.03651852483091982,0.9888540515959676,0.05263694230485289,left,-0.0005459189414978027,-0.19600230443001457,-2.0494094408258796,-9.398021268314123,-0.09444128419149352,0.005022346507757902,0.00028280913829803467,1.9098432953558862,0.00019560754299163818
1746728746494314500,3.491314453125,-0.21470687057558235,0.007996306754648685,-0.10915628312307188,-0.009528445079922676,0.03651852483091982,0.9888540515959676,0.05263694230485289,left,0.00040781497955322266,-0.19600230443001457,-2.0494094408258796,-9.398021268314123,-0.09444128419149352,-0.0009409212507307529,0.0005201995372772217,1.9098432953558862,0.0005562752485275269
1746728746534314500,3.531314453125,-0.21470687057558235,0.008585539646446705,-0.10915628312307188,-0.0003211610019207001,0.03651852483091982,0.9888540515959676,0.05263694230485289,left,0.0010389089584350586,-0.19600230443001457,-2.0494094408258796,-9.398021268314123,-0.09444128419149352,-0.007039132993668318,0.0017179250717163086,1.9098432953558862,0.0006232261657714844
1746728746574314200,3.571314208984375,-0.21470687057558235,0.007405931130051613,-0.10915628312307188,-0.0047753010876476765,0.03651852483091982,0.9888540515959676,0.05263694230485289,left,0.0020766258239746094,-0.19600230443001457,-2.0494094408258796,-9.398021268314123,-0.09444128419149352,-0.006416541989892721,0.0012892484664916992,1.9098432953558862,0.00044582784175872803
1746728746614314500,3.611314453125,-0.21462280797730823,0.003983716480433941,-0.1091448231529723,-0.008699923753738403,0.03681561005211682,0.988825415636972,0.05319784653598524,left,0.0007267594337463379,-0.19645870591194206,-2.0484335815310475,-9.397340884834527,-0.09463800125050585,-0.005132167134433985,-0.0007190406322479248,1.9142332008779048,-0.0002011805772781372
1746728746654314500,3.651314453125,-0.21481290574366316,0.0021417182870209217,-0.10925109959746866,-0.008236711844801903,0.036942975913692645,0.9887949537411213,0.053402991833773006,left,0.0012090802192687988,-0.1967845204349993,-2.050086901696026,-9.396341352403164,-0.09478446614747864,-0.006147687789052725,-0.0019186139106750488,1.9173668227285146,0.0008593648672103882
1746728746694314500,3.691314453125,-0.21481290574366316,0.0004960097139701247,-0.10925109959746866,-0.001727455761283636,0.036942975913692645,0.9887949537411213,0.053402991833773006,left,0.00017321109771728516,-0.1967845204349993,-2.050086901696026,-9.396341352403164,-0.09478446614747864,-0.001840297132730484,-0.0026265233755111694,1.9173668227285146,0.0000508427619934082
1746728746734314500,3.731314453125,-0.21481290574366316,-0.0011496988590806723,-0.10925109959746866,0.004781800322234631,0.036942975913692645,0.9887949537411213,0.053402991833773006,left,-0.0008626580238342285,-0.1967845204349993,-2.050086901696026,-9.396341352403164,-0.09478446614747864,0.0024670930579304695,-0.003334417939186096,1.9173668227285146,-0.0007576942443847656
1746728746774314500,3.771314453125,-0.21481290574366316,-0.006514273583889008,-0.10925109959746866,0.008857747539877892,0.036942975913692645,0.9887949537411213,0.053402991833773006,left,-0.001502394676208496,-0.1967845204349993,-2.050086901696026,-9.396341352403164,-0.09478446614747864,0.005543457344174385,-0.0015252381563186646,1.9173668227285146,-0.0007452815771102905
1746728746814314200,3.811314208984375,-0.21481290574366316,-0.010383076034486294,-0.10925109959746866,0.012033690698444843,0.036942975913692645,0.9887949537411213,0.053402991833773006,left,-0.0015880465507507324,-0.1967845204349993,-2.050086901696026,-9.396341352403164,-0.09478446614747864,0.0076087722554802895,-0.0012102723121643066,1.9173668227285146,-0.0011975765228271484
1746728746854314500,3.851314453125,-0.2143521134723665,-0.005999704357236624,-0.10899918661796036,0.01406136341392994,0.036685972724923514,0.9888547724991994,0.052983774758679145,left,-0.0010699033737182617,-0.19624715865509745,-2.0459758131153882,-9.398290732905268,-0.09454999301743008,0.006498041562736034,-0.0003345310688018799,1.9121984801799057,-0.00015915930271148682
1746728746894314500,3.891314453125,-0.21385892123437505,-0.004494476597756147,-0.10874471959430561,0.010273553431034088,0.03655265550464634,0.9888873597786353,0.052765039681518876,left,-0.000013768672943115234,-0.19621141194645306,-2.0413548753164705,-9.399365084138513,-0.09455325066343605,0.00013337982818484306,0.0005512982606887817,1.9118546351782977,-0.0008872002363204956
1746728746934314500,3.931314453125,-0.21336576208774052,-0.0029892493039369583,-0.10849025323185937,0.00648574298247695,0.03641933828436902,0.9889199470580711,0.052546297218908786,left,0.0010420680046081543,-0.1961758030043356,-2.0367336452566085,-9.400437097284197,-0.09455650765357235,-0.006231281906366348,0.0014370977878570557,1.9115122514814138,-0.0016153454780578613
1746728746974314500,3.971314453125,-0.21336576208774052,-0.0037340668495744467,-0.10849025323185937,0.0029327799566090107,0.03641933828436902,0.9889199470580711,0.052546297218908786,left,0.001892387866973877,-0.1961758030043356,-2.0367336452566085,-9.400437097284197,-0.09455650765357235,-0.008165218867361546,0.0020734667778015137,1.9115122514814138,-0.0012927651405334473
1746728747014314500,4.011314453125,-0.21336576208774052,-0.002735684160143137,-0.10849025323185937,-0.0033647269010543823,0.03641933828436902,0.9889199470580711,0.052546297218908786,left,0.0009563565254211426,-0.1961758030043356,-2.0367336452566085,-9.400437097284197,-0.09455650765357235,-0.00721214571967721,0.001528814435005188,1.9115122514814138,-0.0002871006727218628
1746728747054314500,4.051314453125,-0.2134220929543906,-0.00037899473682045937,-0.10850575351184985,-0.005160931032150984,0.03627630956873409,0.9888945004524491,0.05219148945240576,left,0.000013232231140136719,-0.1967510849884477,-2.0370299978546798,-9.399246426194905,-0.09485933947657119,-0.0044365981593728065,0.0008341968059539795,1.9170451895587146,0.00023606419563293457
1746728747094314500,4.091314453125,-0.2134220929543906,-0.0015584237407892942,-0.10850575351184985,-0.005637714173644781,0.03627630956873409,0.9888945004524491,0.05219148945240576,left,-0.0005922913551330566,-0.1967510849884477,-2.0370299978546798,-9.399246426194905,-0.09485933947657119,-0.0015876907855272293,0.0007663965225219727,1.9170451895587146,0.00012053549289703369
1746728747134314500,4.131314453125,-0.21366208751697946,-0.0035153250209987164,-0.10861256821171912,-0.002109610941261053,0.03615531714455687,0.9888707026161243,0.05188992324854657,left,-0.001181185245513916,-0.19707428592554668,-2.0391541504018007,-9.398151032173633,-0.09503125425000403,-0.00697293458506465,0.0005054771900177002,1.9201535308375954,0.0008715838193893433
1746728747174314500,4.171314453125,-0.21366208751697946,-0.005472226068377495,-0.10861256821171912,0.0014184925239533186,0.03615531714455687,0.9888707026161243,0.05188992324854657,left,-0.0016584396362304688,-0.19707428592554668,-2.0391541504018007,-9.398151032173633,-0.09503125425000403,-0.01235817838460207,0.000027939677238464355,1.9201535308375954,0.0019395649433135986
1746728747214314500,4.211314453125,-0.2141110707839493,-0.0008370880968868732,-0.10881841167155373,-0.005877654068171978,0.03599077165239072,0.9888194168640756,0.05144105141046193,left,-0.0022762417793273926,-0.19776916432694838,-2.043089590154588,-9.395928679949044,-0.09539130722141216,-0.013647802174091339,0.0007619559764862061,1.9268356389500199,0.002255469560623169
1746728747254314500,4.251314453125,-0.21373303691279188,-0.00010075198952108622,-0.10863438070189053,-0.005432970821857452,0.035988021435763545,0.9888116506370966,0.05141222489682134,left,-0.0008752942085266113,-0.19833938008405405,-2.0393040802665054,-9.395625313088297,-0.0956817542397018,-0.013108748942613602,0.001063317060470581,1.9323181620143353,0.002302393317222595
1746728747294314500,4.291314453125,-0.21335502511461144,0.0006355841760523617,-0.10845034907101865,-0.004988288041204214,0.03598522924347647,0.9888038420927725,0.05138353937932583,left,0.0005251765251159668,-0.19890963775907403,-2.035518716508895,-9.395316685530542,-0.09597220191386426,-0.01256969477981329,0.0013646632432937622,1.9378005389481783,0.0023493915796279907
1746728747334314200,4.331314208984375,-0.21335502511461144,0.0021778172813355923,-0.10845034907101865,-0.0009424076415598392,0.03598522924347647,0.9888038420927725,0.05138353937932583,left,0.0018826127052307129,-0.19890963775907403,-2.035518716508895,-9.395316685530542,-0.09597220191386426,-0.013707407750189304,0.0018134266138076782,1.9378005389481783,0.0054210275411605835
1746728747374314500,4.371314453125,-0.21345018353608874,0.0046545579098165035,-0.10851342354652808,-0.004917465150356293,0.03614726271435314,0.9887781990601248,0.05167052554111345,left,0.0006232857704162598,-0.199210990908795,-2.0362888240985573,-9.394552130898832,-0.09610399041906709,-0.0021471334621310234,0.0007197856903076172,1.940697429433465,0.003017991781234741
1746728747414314500,4.411314453125,-0.21345018353608874,0.007131299003958702,-0.10851342354652808,-0.008892523124814034,0.03614726271435314,0.9887781990601248,0.05167052554111345,left,-0.000558018684387207,-0.199210990908795,-2.0362888240985573,-9.394552130898832,-0.09610399041906709,0.009413139894604683,-0.000452384352684021,1.940697429433465,0.0009103715419769287
1746728747454314500,4.451314453125,-0.2139076944013531,0.005767785478383303,-0.10875398907621751,-0.008466959930956364,0.03630995969100833,0.988734435428762,0.05192580535211154,left,-0.0020641684532165527,-0.1994909938364602,-2.0404713704802093,-9.393087903565167,-0.09622034613862517,0.00319652259349823,0.00008337199687957764,1.9433890066049992,-0.0003577917814254761
1746728747494314500,4.491314453125,-0.21436520259876404,0.004404271952807903,-0.10899455460590712,-0.008041396737098694,0.03647269864332347,0.9886907141147445,0.05218106749065108,left,-0.003570556640625,-0.19977116922307092,-2.04465260168761,-9.391620753622055,-0.0963367018581801,-0.0030200951732695103,0.0006190091371536255,1.9460820450812577,-0.0016261190176010132
1746728747534314500,4.531314453125,-0.21436520259876404,0.004106728360056877,-0.10899455460590712,0.00022259168326854706,0.03647269864332347,0.9886907141147445,0.05218106749065108,left,0.00023061037063598633,-0.19977116922307092,-2.04465260168761,-9.391620753622055,-0.0963367018581801,-0.006617068313062191,-0.0005953013896942139,1.9460820450812577,-0.001825094223022461
1746728747721484500,4.718484619140625,-0.21473990716917712,-0.003968511708080769,-0.10920360298840256,0.004926372319459915,0.03668298100368831,0.9885634812237694,0.05235730522128477,left,-0.000680844415910542,-0.20179292373720725,-2.0473289812900126,-9.386990755733848,-0.0973201880471414,-0.006022932007908821,0.00032320115133188665,1.9655103836506604,0.000621020095422864
1746728747761352400,4.7583525390625,-0.21462274968102943,-0.00837521068751812,-0.1091294582561805,0.001402564812451601,0.03650818050065192,0.9885674510027371,0.05199683802204527,left,0.000680844415910542,-0.20196753176525784,-2.046156138118356,-9.38689489414394,-0.09742836516477493,-0.008535053580999374,-0.00032320115133188665,1.9671878153435884,-0.000621020095422864
1746728747801352400,4.7983525390625,-0.21476050283107054,-0.004173720721155405,-0.1091826869134731,0.0006989571847952902,0.03635873930723938,0.9885539060547093,0.051655841630885546,left,0.0002612471580505371,-0.20220597035654617,-2.047349147295207,-9.386154889431594,-0.0975623851086932,-0.004253377206623554,-0.0006198137998580933,1.9694785566292703,-0.0001563727855682373
1746728747841352400,4.8383525390625,-0.21476050283107054,-0.000707992585375905,-0.1091826869134731,-0.0009004898020066321,0.03635873930723938,0.9885539060547093,0.051655841630885546,left,0.0007958412170410156,-0.20220597035654617,-2.047349147295207,-9.386154889431594,-0.0975623851086932,-0.0027657169848680496,-0.00077076256275177,1.9694785566292703,0.0009229481220245361
1746728747881352400,4.8783525390625,-0.21493070523588015,0.0005832111928611994,-0.10926840355505896,-0.002990062814205885,0.036373865789216635,0.9885237899899347,0.0516260540489825,left,0.00042492151260375977,-0.20262000905234082,-2.0487726042270658,-9.38500864200592,-0.09776567987104748,-0.004913714714348316,-0.0011253803968429565,1.9734559358276427,0.0008181929588317871
1746728747921352700,4.918352783203125,-0.21493070523588015,0.0018744150875136256,-0.10926840355505896,-0.005079636350274086,0.036373865789216635,0.9885237899899347,0.0516260540489825,left,0.00017088651657104492,-0.20262000905234082,-2.0487726042270658,-9.38500864200592,-0.09776567987104748,-0.007061712443828583,-0.001625165343284607,1.9734559358276427,0.0011190325021743774
1746728748080296000,5.0772958984375,-0.21563963861484728,-0.010048182681202888,-0.10962205123730116,0.0032551777549088,0.03639950351350538,0.9883856090179568,0.0513970238500175,left,-0.0005269274115562439,-0.20461537885973424,-2.054578660157323,-9.379688323765993,-0.09875204527726367,-0.009717585518956184,0.0008006024872884154,1.9926196321114897,-0.000994349829852581
1746728748239767300,5.236767333984375,-0.2138392828670203,-0.004895463120192289,-0.10875543381015428,0.011998424306511879,0.03655108571459779,0.9884948367466737,0.05192489983020627,left,0.002047707559540868,-0.20422105550336517,-2.0378551966324445,-9.384139457955955,-0.0985610639776075,-0.009761471301317215,0.0003415938117541373,1.9888330993101,0.0020671901293098927
1746728748279635200,5.27663525390625,-0.21381480985101622,0.0007391218096017838,-0.10873500090153472,-0.000020894338376820087,0.036458374060288026,0.9884814374595609,0.05170195197731432,left,0.0024224426597356796,-0.20458218550901353,-2.0374730654470623,-9.383487131527065,-0.09875222043150139,-0.004304270725697279,-0.0004993443144485354,1.992300921551138,0.005986993201076984
1746728748319635200,5.31663525390625,-0.213795675139471,0.006948105059564114,-0.10875090480233579,-0.001082765869796276,0.03670042893266127,0.9884493752474945,0.05214332970838254,left,0.0021557211875915527,-0.2050627332976112,-2.037090057478845,-9.382589305904506,-0.09896620627292346,-0.009899111464619637,-0.0007552504539489746,1.9969149912178514,0.0035175085067749023
1746728748359635200,5.35663525390625,-0.21406361442217156,0.006245629861950874,-0.10890299100733612,-0.007695597596466541,0.03689461402147035,0.9883941909276914,0.05243909799997223,left,-0.0000317692756652832,-0.20573389719069116,-2.03931883944422,-9.380731110817193,-0.09927707451567701,-0.011981114745140076,-0.0005675703287124634,2.0033584682688117,0.0021818429231643677
1746728748399635200,5.39663525390625,-0.21414313819011108,0.003850627224892378,-0.1089577387098392,-0.0012085502967238426,0.03703837202675704,0.9883541016268976,0.05265880667917611,left,-0.00017219781875610352,-0.20633695415029657,-2.0398076458744705,-9.379386710470914,-0.09956183840477664,-0.009404820390045643,-0.0012020766735076904,2.009147426933795,0.0013913214206695557
1746728748439635000,5.436635009765625,-0.21427989796264463,0.0038119032979011536,-0.1090369452019494,-0.0021695448085665703,0.03715082725476865,0.9883213033426691,0.052828316514432656,left,-0.0005068778991699219,-0.2067592970988243,-2.0409097618974745,-9.378277872446178,-0.09975889269756333,-0.006564324721693993,-0.0008941888809204102,2.0132010862387717,0.0011569559574127197
1746728748479635000,5.476635009765625,-0.21427989796264463,0.002050141105428338,-0.1090369452019494,0.002585063222795725,0.03715082725476865,0.9883213033426691,0.052828316514432656,left,-0.0008878111839294434,-0.2067592970988243,-2.0409097618974745,-9.378277872446178,-0.09975889269756333,-0.0010040225461125374,-0.000558897852897644,2.0132010862387717,0.0001195073127746582
1746728748519635000,5.516635009765625,-0.21427989796264463,-0.002421776996925473,-0.1090369452019494,0.009716948494315147,0.03715082725476865,0.9883213033426691,0.052828316514432656,left,-0.0011502504348754883,-0.2067592970988243,-2.0409097618974745,-9.378277872446178,-0.09975889269756333,0.002905554138123989,-0.00020137429237365723,2.0132010862387717,-0.000543549656867981
1746728748559635200,5.55663525390625,-0.2137077739713212,-0.010042182169854641,-0.10875071695988953,0.01418883353471756,0.03708572118809109,0.9883496995172208,0.052745815218834056,left,-0.0011792182922363281,-0.2068406410185798,-2.0355092180281877,-9.37928383461833,-0.09981422386048426,-0.0023748716339468956,0.00046978890895843506,2.0139818613529203,-0.00045734643936157227
1746728748599635200,5.59663525390625,-0.2131243221718342,-0.014283297583460808,-0.10843882968435273,0.01732884719967842,0.03681864088470582,0.9883793000485073,0.05224183239991605,left,0.00011169910430908203,-0.2070560717561002,-2.0299445696383716,-9.380045466640592,-0.09995889592963238,-0.007768760900944471,0.0003469735383987427,2.0160494614072144,0.0004738718271255493
1746728748639635200,5.63663525390625,-0.21259960021941218,-0.01297792512923479,-0.10815048876104628,0.013781826011836529,0.03650040531914284,0.9884060800952108,0.05162561106254225,left,0.00005698204040527344,-0.20729969942894266,-2.0249187043003736,-9.380628819486498,-0.10012235671570029,-0.0084715336561203,0.0006147623062133789,2.018387548965961,0.00156460702419281
1746728748679635000,5.676635009765625,-0.2122163754632163,-0.007714312989264727,-0.10794970521636701,0.008768832311034203,0.03636705300852665,0.9884265288444991,0.05138542804264285,left,0.0003209114074707031,-0.20738808666672484,-2.021286046886444,-9.381229707989096,-0.10018601717727264,-0.0030638049356639385,0.0007544010877609253,2.019235690227896,0.0011659711599349976
1746728748719635000,5.716635009765625,-0.21183319216242819,-0.00245070131495595,-0.10774892167168776,0.0037558390758931637,0.036233700697910466,0.9884469775937872,0.05114528171642715,left,0.000584721565246582,-0.20747659031659454,-2.017653681733459,-9.381828842926025,-0.100249677638845,0.002343923319131136,0.0008940845727920532,2.0200850005336104,0.0007672011852264404
1746728748877702100,5.8747021484375,-0.21191886256580833,0.0033424950670450926,-0.10780184625014348,-0.006325393449515104,0.03634906569508632,0.9884553688980827,0.05140500991802373,left,-0.000682569167111069,-0.20713913528633962,-2.0186006071947515,-9.382322179400921,-0.10006726145533706,0.0014909321907907724,-0.00011386460391804576,2.016846603134274,-0.0006890633376315236
1746728748917702100,5.9147021484375,-0.2121819554304107,0.0006835148669779301,-0.1079225918480748,-0.00653538852930069,0.03626671016447321,0.9884345515380312,0.051190846521319694,left,0.001878201961517334,-0.20734041240477502,-2.020983556808531,-9.381393374118208,-0.10017355814711133,-0.0037068838719278574,0.00002619624137878418,2.018778155718744,-0.000008881092071533203
1746728748957702100,5.9547021484375,-0.2121819554304107,-0.001975465100258589,-0.1079225918480748,-0.006745383609086275,0.03626671016447321,0.9884345515380312,0.051190846521319694,left,0.004533708095550537,-0.20734041240477502,-2.020983556808531,-9.381393374118208,-0.10017355814711133,-0.008904700167477131,-0.00007674098014831543,2.018778155718744,0.0008682608604431152
1746728748997702100,5.9947021484375,-0.2127520284793326,0.0019236726220697165,-0.10819622622169092,-0.0008834078907966614,0.036209857637555964,0.9883919631681787,0.050987511314715024,left,-0.0035791993141174316,-0.20763348119712907,-2.0262062598928807,-9.379661435759067,-0.10031913310697865,-0.0030441167764365673,0.0011874139308929443,2.021590582790971,0.0011291354894638062
1746728749037702400,6.034702392578125,-0.2127520284793326,0.008731035515666008,-0.10819622622169092,0.0008969677146524191,0.036209857637555964,0.9883919631681787,0.050987511314715024,left,0.0008410811424255371,-0.20763348119712907,-2.0262062598928807,-9.379661435759067,-0.10031913310697865,-0.005541895516216755,-0.0003689974546432495,2.021590582790971,0.0019364804029464722
1746728749236524300,6.233524169921875,-0.21465049837579303,0.008857076056301594,-0.10919463048689118,-0.02216513082385063,0.03692196661094576,0.9883216400639582,0.05235129443939505,left,-0.003347669495269656,-0.20653531640035608,-2.0444811906434595,-9.377961061581969,-0.09966731415607648,0.014036140404641628,-0.0028021293692290783,2.0110513608589766,0.002395142801105976
1746728749276393500,6.2733935546875,-0.21534835837821611,0.015084784477949142,-0.10956429936744667,-0.020322691649198532,0.03719517386624317,0.9882569979152752,0.052797367157178594,left,-0.0013016867451369762,-0.20688118409044962,-2.0508764446385204,-9.375852106603979,-0.09980099642914446,-0.017694959416985512,-0.0028976015746593475,2.0143710068009795,0.0031522493809461594
1746728749316393500,6.3133935546875,-0.21533030319478835,0.0088181272149086,-0.1095774841188752,-0.01120669674128294,0.03739735444417467,0.9882152909563497,0.05313574320298646,left,-0.0013225078582763672,-0.20757047500223255,-2.0504099961705506,-9.374530502611398,-0.1001235875354297,-0.012887559831142426,-0.00200439989566803,2.0209858948960897,0.0016370564699172974
1746728749356393200,6.353393310546875,-0.2153120109022233,0.002551470883190632,-0.10959065771518617,-0.0020907018333673477,0.03759953570547698,0.9881734154114132,0.05347418992284152,left,-0.0013437271118164062,-0.2082597665184097,-2.0499404789626596,-9.373204806965589,-0.10044616871825503,-0.00808016024529934,-0.0011115074157714844,2.0276000523388387,0.00012198090553283691
1746728749396393200,6.393393310546875,-0.21513776128933637,-0.0017049694433808327,-0.10950108400730754,0.0010527253616601229,0.03755378710926625,0.9881780768945576,0.05338620458928862,left,-0.000893712043762207,-0.208384412676165,-2.048253110397607,-9.37331469708085,-0.10051587764558673,-0.005376461893320084,-0.0007392317056655884,2.028795984125137,0.00008109211921691895
1746728749436393200,6.433393310546875,-0.21513776128933637,-0.005961409769952297,-0.10950108400730754,0.004196152091026306,0.03755378710926625,0.9881780768945576,0.05338620458928862,left,-0.00045490264892578125,-0.208384412676165,-2.048253110397607,-9.37331469708085,-0.10051587764558673,-0.0026727633085101843,-0.0001948922872543335,2.028795984125137,0.00016216933727264404
1746728749476393500,6.4733935546875,-0.21490736266501584,-0.00971018336713314,-0.10936808393406543,0.005590333603322506,0.0373489595070739,0.988186561147953,0.05297152411546077,left,-0.0005687475204467773,-0.2086086142899082,-2.0459964175119993,-9.373342169609666,-0.10065372258984055,-0.007418744266033173,0.00006639957427978516,2.030947024679184,0.000393599271774292
1746728749516393500,6.5133935546875,-0.21490736266501584,-0.011322565376758575,-0.10936808393406543,-0.00023534009233117104,0.0373489595070739,0.988186561147953,0.05297152411546077,left,0.0005063414573669434,-0.2086086142899082,-2.0459964175119993,-9.373342169609666,-0.10065372258984055,-0.005671053193509579,0.00046978890895843506,2.030947024679184,0.00024993717670440674
1746728749556393500,6.5533935546875,-0.2150660732916071,-0.0029343366622924805,-0.10942830542852851,-0.004333709366619587,0.037172219681389194,0.9881698709470879,0.05256704424206717,left,0.0005657076835632324,-0.20889939393678944,-2.047357915123552,-9.372439667811989,-0.10081665455098289,-0.00593776348978281,0.00034996867179870605,2.033736655397713,0.00039756298065185547
1746728749596393500,6.5933935546875,-0.21522495991704177,0.0054538920521736145,-0.10948852758419694,-0.008432078175246716,0.0369954375383593,0.9881532227218826,0.05216241634718868,left,0.0006250143051147461,-0.20919013478462273,-2.048720727909356,-9.371535996970534,-0.10097958585625534,-0.006204474251717329,0.00023029744625091553,2.036525847724825,0.0005452185869216919
1746728749636393200,6.633393310546875,-0.21547133074899488,0.009597640484571457,-0.10961624755151181,-0.01045665517449379,0.03706068116255074,0.98812208753951,0.05223707012967839,left,0.0002288222312927246,-0.20949578362264892,-2.0508963183827698,-9.370422482770682,-0.10112203293601028,-0.0063362279906868935,-0.00035074353218078613,2.0394578095234928,0.00042338669300079346
1746728749676393200,6.673393310546875,-0.2157843052849097,0.008175965398550034,-0.10978575483629387,-0.010961993597447872,0.037215145053659755,0.9880818730454889,0.05248106776386753,left,-0.0002345442771911621,-0.20984264135835684,-2.053677327403426,-9.369088603818415,-0.10127430505865755,-0.00564679317176342,-0.00023020803928375244,2.0427847619891164,-0.00014221668243408203
1746728749716393500,6.7133935546875,-0.2157843052849097,0.0029963222332298756,-0.10978575483629387,-0.008128027431666851,0.037215145053659755,0.9880818730454889,0.05248106776386753,left,-0.00006479024887084961,-0.20984264135835684,-2.053677327403426,-9.369088603818415,-0.10127430505865755,-0.0056402068585157394,-0.0008549690246582031,2.0427847619891164,0.0004011988639831543
1746728749756393500,6.7533935546875,-0.216171526551655,-0.002022291999310255,-0.10997243468775056,-0.005830149166285992,0.03718272007699245,0.9880436827060094,0.05233716234891626,left,0.00024086236953735352,-0.2102072988497716,-2.057145149644464,-9.367564755252003,-0.10145527725546452,-0.005317613482475281,-0.00021810829639434814,2.0462822487160564,0.00039523839950561523
1746728749796393500,6.7933935546875,-0.21655890206017572,-0.007040905766189098,-0.11015912503311907,-0.0035322706680744886,0.037150252782979724,0.9880055343421906,0.05219302196086805,left,0.0005462169647216797,-0.21057195305133605,-2.060613264146447,-9.366037399554251,-0.10163626003160763,-0.004995020106434822,0.0004187971353530884,2.049779443182051,0.00038929283618927
1746728749836393500,6.8333935546875,-0.2168237729779992,-0.009656863287091255,-0.11027345996102349,-0.0007532213348895311,0.036999697378211675,0.9879861264191403,0.05183834847484569,left,-0.0006989240646362305,-0.2107855136105347,-2.0629998670220373,-9.365063586086034,-0.10175645050953223,-0.00532563915476203,0.0011687129735946655,2.0518274617530405,0.0009872019290924072
1746728749876393200,6.873393310546875,-0.2168237729779992,-0.004401637241244316,-0.11027345996102349,-0.011738142929971218,0.036999697378211675,0.9879861264191403,0.05183834847484569,left,-0.0005738735198974609,-0.2107855136105347,-2.0629998670220373,-9.365063586086034,-0.10175645050953223,-0.004305305425077677,0.0003588050603866577,2.0518274617530405,0.0009485334157943726
1746728749916393200,6.913393310546875,-0.2168237729779992,0.005530196242034435,-0.11027345996102349,0.004963668994605541,0.036999697378211675,0.9879861264191403,0.05183834847484569,left,-0.002092599868774414,-0.2107855136105347,-2.0629998670220373,-9.365063586086034,-0.10175645050953223,-0.00947507843375206,-0.00010763108730316162,2.0518274617530405,0.00262567400932312
1746728749956393500,6.9533935546875,-0.21702155321368127,0.007262693252414465,-0.11037730851663592,-0.005475049838423729,0.03705872182958603,0.9879400037787432,0.05186904204670347,left,-0.0012062788009643555,-0.2114296403455029,-2.064566970208287,-9.363363211908936,-0.10206947490506812,-0.010159085504710674,0.0010545998811721802,2.058003958430886,0.0012806504964828491
1746728749996393500,6.9933935546875,-0.21722047797035915,0.00504263024777174,-0.11048338056541433,-0.004047447815537453,0.03713351864049698,0.9878915848299665,0.051928218224692235,left,0.001605212688446045,-0.21210405017378575,-2.0661299817413092,-9.361595033192634,-0.10239584625404236,-0.014245218597352505,0.0013344436883926392,2.0644699395745993,0.00259341299533844
1746728750036393500,7.0333935546875,-0.217606091865486,0.0018844692967832088,-0.11067622296482395,-0.012448951601982117,0.03716760875796873,0.9878413149876207,0.05189922474473524,left,0.002537250518798828,-0.21264902816947928,-2.069496535564959,-9.359697090616821,-0.10265963402060702,-0.009225962683558464,0.0007142126560211182,2.0696942500941455,0.0023569315671920776
1746728750076393500,7.0733935546875,-0.21819555888253167,0.002738931216299534,-0.1109664548177723,-0.011469324119389057,0.03718744475218311,0.9878035050771833,0.05186689199472742,left,0.0012829303741455078,-0.2127541806932578,-2.0749663452781735,-9.35826325842142,-0.10270244072214646,-0.006712895818054676,0.00024145841598510742,2.0707021119624374,0.0038647055625915527
1746728750116393200,7.113393310546875,-0.2187850816916189,0.003593393135815859,-0.11125668667072065,-0.010489695705473423,0.037207280746397384,0.9877656951667458,0.05183450440815476,left,0.000028312206268310547,-0.2128593525419907,-2.0804355704694983,-9.356825919094682,-0.10274524742368593,-0.004199828952550888,-0.00023134052753448486,2.0717102660916744,0.005372434854507446
1746728750156393200,7.153393310546875,-0.21928605403475052,0.014168350026011467,-0.11151970668015371,-0.009419385343790054,0.03738075834073158,0.9877241668874442,0.05211703567849494,left,-0.003760695457458496,-0.2130142705189826,-2.085053001137078,-9.355469243788718,-0.10279672327389379,0.0019733677618205547,-0.0003112107515335083,2.0731952439524233,0.004923120141029358
1746728750196393500,7.1933935546875,-0.21925912769638173,0.025752495974302292,-0.11155251318246483,-0.002040622755885124,0.03782306360460651,0.9877106603575236,0.05301938218673029,left,-0.0011479854583740234,-0.21297756909887447,-2.0848175849460064,-9.355599592170119,-0.10272877403324314,0.011554442346096039,-0.0023470520973205566,2.072843361774832,0.00423257052898407
1746728750236393500,7.2333935546875,-0.21932237217510436,0.03530566766858101,-0.11165331567297411,-0.009285026229918003,0.03849476230310063,0.9876797496564927,0.054369965945116575,left,-0.00008159875869750977,-0.21300516674067901,-2.085396846138686,-9.355411376121639,-0.10266585118902917,0.005374712869524956,-0.0019799917936325073,2.0731080040603875,0.004587233066558838
1746728750276393500,7.2733935546875,-0.21938194651696954,0.032315194606781006,-0.11175731098236394,-0.003973482176661491,0.039208921890682986,0.9876338380871924,0.05577992078544304,left,-0.0009929537773132324,-0.2132852163966188,-2.0858277849018574,-9.35472047124803,-0.10272432817153003,0.003369959769770503,-0.002268552780151367,2.0757921285778282,0.0026385337114334106
1746728750316393500,7.3133935546875,-0.2192039197827524,0.02348494715988636,-0.11173176247555078,0.0013879453763365746,0.039796576318135685,0.9876140085967298,0.0569762968486867,left,-0.00020051002502441406,-0.21339895954005708,-2.0841110441118476,-9.354861341023444,-0.1027172011547358,0.012227784842252731,-0.0017303526401519775,2.0768822619020937,0.001096278429031372
1746728750356393200,7.353393310546875,-0.21898937007574765,0.004275858402252197,-0.11164065744699797,0.002841534558683634,0.039945162172622804,0.9876514053814128,0.05736452096693913,left,-0.0006434321403503418,-0.21279090787392352,-2.0823777905784544,-9.356538918846844,-0.10239932287029792,0.011281726881861687,0.0007716715335845947,2.0710542864009738,-0.0024184882640838623
1746728750396393200,7.393393310546875,-0.2187750685411191,-0.014933228492736816,-0.1115495409327263,0.004295123741030693,0.04009374905216595,0.9876885492870794,0.057752562081678706,left,-0.0010867714881896973,-0.21218275913922158,-2.080645706088841,-9.358212989538908,-0.10208143499033827,0.010335668921470642,0.003273800015449524,2.065224411203712,-0.005933091044425964
1746728750436393200,7.433393310546875,-0.21873555584203283,-0.028492577373981476,-0.11148962246424733,0.0043497709557414055,0.03971613457603671,0.9877345184880912,0.05705088048173781,left,-0.00010919570922851562,-0.21163152314997566,-2.0805225181005893,-9.359404829671979,-0.10184894033033985,0.004948046058416367,0.0037259161472320557,2.0599396026685834,-0.004308551549911499
1746728750476393500,7.4733935546875,-0.21892964596448175,-0.026587001979351044,-0.1115263989882161,-0.005152757279574871,0.039167007065878015,0.9877740604393527,0.05597676623198468,left,0.0010245442390441895,-0.21109131993244162,-2.0825804735437035,-9.360085797673463,-0.10163802516063833,0.0010662083514034748,0.0017160475254058838,2.0547598619431255,-0.0016440004110336304
1746728750632043800,7.629043701171875,-0.22242089260949494,-0.007479304447770119,-0.1131400028370831,-0.029250988736748695,0.03825827541428093,0.9875858986556866,0.05370464208688175,left,-0.0007782087777741253,-0.21175876826503945,-2.114943112488091,-9.3514179225713,-0.10202789639866831,-0.012663697823882103,-0.004572335630655289,2.0611596459828316,0.0015264323446899652
1746728750791522600,7.7885224609375,-0.22277492240687147,0.014413051307201385,-0.11336247324851147,-0.00656286533921957,0.038787276033481304,0.9876663102827782,0.05499354472316586,left,0.0011477696243673563,-0.20942691482317286,-2.1193097832649945,-9.355330712100862,-0.1007958484909349,0.037070926278829575,0.0024202000349760056,2.0387971536576748,-0.0015368794556707144
1746728750831522600,7.8285224609375,-0.22200501960502592,0.013529419898986816,-0.11302617431332979,-0.008066178299486637,0.03920062606688401,0.9877360113575256,0.056002340202137485,left,0.002250194549560547,-0.20856815689670435,-2.1124911892913283,-9.358664240437745,-0.10032939163194379,0.026256557554006577,0.0021730512380599976,2.030558902144432,-0.003282219171524048
1746728750871522300,7.868522216796875,-0.22168271639330417,0.009038262069225311,-0.11289916760415099,-0.007102128118276596,0.039521031764997015,0.987776928479437,0.056760583425276595,left,0.0016965866088867188,-0.20785995980053082,-2.109790405900031,-9.36074513836503,-0.09994291714543331,0.017927903681993484,0.0022970587015151978,2.0237638351768252,-0.002405419945716858
1746728750911522600,7.9085224609375,-0.22187562508254566,-0.0010122070088982582,-0.11300433591735366,-0.013032535091042519,0.03964091446383803,0.9877833571782437,0.05702993463190257,left,0.0012637972831726074,-0.20743471568462318,-2.1117853791095316,-9.361176515519618,-0.09971371630660415,0.0066683329641819,0.0014385581016540527,2.019683141734451,-0.0016610324382781982
1746728750951522600,7.9485224609375,-0.22246314359332436,-0.0015267918352037668,-0.11327339457199707,-0.012829558923840523,0.039465985041838646,0.9877671379329696,0.0566353878811983,left,0.000580132007598877,-0.20726043753500703,-2.1173624485895037,-9.36027752085328,-0.09963828740443188,0.006683393847197294,-0.0002848207950592041,2.018010678477585,0.0002873241901397705
1746728750991522600,7.9885224609375,-0.22305055917177116,-0.0020413766615092754,-0.1135424420715231,-0.012626583687961102,0.03929109827886993,0.9877507924190295,0.05624105343359811,left,-0.00010383129119873047,-0.20708594167594976,-2.1229383490256963,-9.359375603577494,-0.09956284857879653,0.006698454264551401,-0.002008289098739624,2.016336023263633,0.002235889434814453
1746728751031522600,8.0285224609375,-0.2233805017233907,0.006859260145574808,-0.11373152380937272,-0.007491504307836294,0.03957192239618456,0.9877306464197646,0.05679614361075384,left,-0.00006985664367675781,-0.20690542478750307,-2.126106896059215,-9.35902898209691,-0.09943559357409755,0.006150273606181145,-0.0016269832849502563,2.0146036465130743,0.0006031543016433716
1746728751071522600,8.0685224609375,-0.22371054854549144,0.015759896486997604,-0.11392059439210146,-0.002356424927711487,0.03985266290386481,0.9877103314928033,0.05735111023642143,left,-0.00003612041473388672,-0.2067250675484016,-2.1292761737450956,-9.358681191572547,-0.0993083286459416,0.005602092947810888,-0.0012456327676773071,2.0128725849367677,-0.0010297149419784546
1746728751111522600,8.1085224609375,-0.22401632786461168,0.002990167587995529,-0.11408260277921971,-0.0034894184209406376,0.039976039993745466,0.9876865126813149,0.057565900993946414,left,-0.000024974346160888672,-0.20676424178520977,-2.132120311129838,-9.357952292776107,-0.09930934491878131,0.0036374316550791264,-0.0011204183101654053,2.0132485786423087,-0.0015656203031539917
1746728751151522600,8.1485224609375,-0.22432218179535926,-0.00977956224232912,-0.11424463215416478,-0.004622411914169788,0.040099374766280775,0.9876627358454881,0.05778059528008894,left,-0.000014007091522216797,-0.20680354100242485,-2.1349647407755254,-9.35722280945778,-0.09931038235029344,0.0016727701295167208,-0.0009952038526535034,2.0136257413916288,-0.0021016299724578857
1746728751191522600,8.1885224609375,-0.22473548556880288,-0.021460290998220444,-0.1144220763343851,-0.0031004215124994516,0.03986246499326936,0.9876628292033021,0.05728803458701686,left,-0.0010476112365722656,-0.20654208829050333,-2.1389492803670467,-9.356852807101607,-0.0992010724321252,0.003379033412784338,-0.00021727383136749268,2.0111163889192043,-0.0007501989603042603
1746728751349696500,8.346696533203126,-0.22563454115221063,0.007629189640283585,-0.11471054775817396,-0.006622004322707653,0.03838225830375525,0.9877245175127259,0.054316082127664055,left,-0.0008364861714653671,-0.20549429772015945,-2.147830944350362,-9.356974387654661,-0.09883595041866303,0.011091061867773533,-0.000591265968978405,2.001058374632895,0.0009263065876439214
1746728751389566200,8.386566162109375,-0.22577078458968663,0.013397577218711376,-0.11481224156987944,-0.004340237472206354,0.038736978688456415,0.9877117517807946,0.055039727682919204,left,0.001361688831821084,-0.20532234534216465,-2.1491827973507345,-9.357017057752609,-0.09870682717407395,0.012956781312823296,-0.0006464023026637733,1.9994075386859476,-0.001242040190845728
1746728751429566200,8.426566162109374,-0.22608134101682792,0.005403194576501846,-0.11498455512014623,-0.005768402945250273,0.03895257836408336,0.9877076102035436,0.05549271863802493,left,-0.0010332465171813965,-0.2048937556485769,-2.1522804711051284,-9.357183646491169,-0.09846296984019096,0.010701771825551987,-0.0006077885627746582,1.995292504582554,-0.0023472607135772705
1746728751469566200,8.466566162109375,-0.22625864385841762,-0.0015783780254423618,-0.11507798575364311,-0.0027683950029313564,0.039027760540011135,0.9877096851368931,0.055660093740855864,left,-0.0008578896522521973,-0.20459764074591005,-2.1540718845665454,-9.357377123236656,-0.09830355010651103,0.005036764312535524,-0.0005792230367660522,1.9924493901111184,-0.0021723657846450806
1746728751509566000,8.50656591796875,-0.22625864385841762,-0.0029983404092490673,-0.11507798575364311,-0.0005112274084240198,0.039027760540011135,0.9877096851368931,0.055660093740855864,left,-0.0007799267768859863,-0.20459764074591005,-2.1540718845665454,-9.357377123236656,-0.09830355010651103,0.0021174317225813866,-0.00022517144680023193,1.9924493901111184,-0.0009274035692214966
1746728751549566000,8.54656591796875,-0.22625864385841762,-0.0026415251195430756,-0.11507798575364311,0.0026237706188112497,0.039027760540011135,0.9877096851368931,0.055660093740855864,left,-0.0007486343383789062,-0.20459764074591005,-2.1540718845665454,-9.357377123236656,-0.09830355010651103,-0.0009562051855027676,0.00003300607204437256,1.9924493901111184,-0.00025369226932525635
1746728751589566000,8.58656591796875,-0.22625864385841762,-0.0033738480415195227,-0.11507798575364311,0.0018556026043370366,0.039027760540011135,0.9877096851368931,0.055660093740855864,left,-0.0010052323341369629,-0.20459764074591005,-2.1540718845665454,-9.357377123236656,-0.09830355010651103,0.00006676616612821817,0.000354573130607605,1.9924493901111184,-0.0010970979928970337
1746728751629566200,8.626566162109375,-0.22625864385841762,-0.00019620032981038094,-0.11507798575364311,-0.01056116633117199,0.039027760540011135,0.9877096851368931,0.055660093740855864,left,0.0020141005516052246,-0.20459764074591005,-2.1540718845665454,-9.357377123236656,-0.09830355010651103,0.0012391970958560705,0.000014960765838623047,1.9924493901111184,-0.0010037273168563843
1746728751788055000,8.785054931640625,-0.22606448137844665,-0.001128579257056117,-0.11501166501496775,0.0036425432190299034,0.03929366219296499,0.9876693323004639,0.056128556556785336,left,-0.00015391700435429811,-0.20540430854036645,-2.1518941021360454,-9.356225615113972,-0.09867904194856848,-0.01527787558734417,-0.0004774013359565288,2.000194451279938,0.001615369925275445
1746728751828054800,8.8250546875,-0.2261781151590125,0.005779976025223732,-0.11508699168978576,-0.006925011053681374,0.039486287530251206,0.9876454148648888,0.05648520910075459,left,0.0004521012306213379,-0.20560370726237037,-2.152867769473791,-9.355591993385552,-0.09875481117695281,-0.001145336776971817,-0.0010411441326141357,2.0021086143381894,0.0018026381731033325
1746728751868054800,8.8650546875,-0.22637599748672374,0.006960578728467226,-0.11520190365382392,-0.006566520780324936,0.039670819997209304,0.9876320435659354,0.056850145799217364,left,0.000849604606628418,-0.20550409953759086,-2.154763812353462,-9.355360522717238,-0.09868066326524948,0.0036408724263310432,-0.002829909324645996,2.0011524826571345,0.002398967742919922
1746728751908054800,8.9050546875,-0.22637599748672374,0.00814118143171072,-0.11520190365382392,-0.006208030041307211,0.039670819997209304,0.9876320435659354,0.056850145799217364,left,0.0012707710266113281,-0.20550409953759086,-2.154763812353462,-9.355360522717238,-0.09868066326524948,0.008427081629633904,-0.00481201708316803,2.0011524826571345,0.0028977394104003906
1746728751948054800,8.9450546875,-0.226431845647396,0.01880352757871151,-0.1152660427986993,0.008259255439043045,0.04004767698185346,0.9876273755293684,0.057637816834879056,left,-0.001821756362915039,-0.20523243397124152,-2.1554082477368413,-9.355769688040018,-0.0984999260648741,0.007552019320428371,-0.0034928470849990845,1.998544345985353,0.004745990037918091
1746728751988054800,8.9850546875,-0.22578278872118487,0.012988916598260403,-0.11498762463840834,0.010752476751804352,0.040430086683891774,0.987635753482751,0.05845042687606662,left,-0.0010007023811340332,-0.2054724766638562,-2.14922780553624,-9.35669849332273,-0.09858482779889512,0.0038841497153043747,-0.0012367069721221924,2.000848823535442,0.0023002177476882935
1746728752028054800,9.0250546875,-0.22513351943174734,0.007174304686486721,-0.11470918350666778,0.013245698064565659,0.04081249706930106,0.9876439628501218,0.05926326027564342,left,-0.0001800060272216797,-0.20571202475565886,-2.143045317509025,-9.357624375995993,-0.09866971034185924,0.0002162798773497343,0.001019209623336792,2.003148478779942,-0.00014507770538330078
1746728752068055000,9.065054931640624,-0.22513351943174734,-0.0006008753553032875,-0.11470918350666778,0.012965299189090729,0.04081249706930106,0.9876439628501218,0.05926326027564342,left,0.000051081180572509766,-0.20571202475565886,-2.143045317509025,-9.357624375995993,-0.09866971034185924,0.002959015080705285,0.0024027079343795776,2.003148478779942,-0.0004447251558303833
1746728752108054800,9.1050546875,-0.22448159886560584,0.0016603602562099695,-0.11439773816501951,0.003270045854151249,0.04089169100458529,0.9876857145444227,0.05950852839302738,left,0.0003719925880432129,-0.2055316726365702,-2.1370248881757257,-9.359371511924266,-0.09857985908604017,0.008558263070881367,0.0012404024600982666,2.00141712494269,0.0001309812068939209
1746728752148054800,9.1450546875,-0.22418497458443323,0.003210520837455988,-0.1142623694904706,-0.0009101349860429764,0.04099805295686328,0.9877108439332594,0.059782081555724176,left,-0.0005116462707519531,-0.2052708427745392,-2.1343644367948174,-9.360513667696713,-0.09844138893095704,0.005078929476439953,0.0004935711622238159,1.9989130331672726,-0.0006367862224578857
1746728752188054800,9.1850546875,-0.22439163151982797,-0.005842215847223997,-0.11435180559820929,-0.0019832737743854523,0.040875213550186265,0.9876955944872544,0.059493288691621106,left,-0.0004438161849975586,-0.20544829410973636,-2.136219855403155,-9.359726901233195,-0.09854136175478656,-0.002791311591863632,-0.0002913624048233032,2.000616622214764,-0.00021529197692871094
1746728752228054800,9.2250546875,-0.22439163151982797,-0.01489495299756527,-0.11435180559820929,-0.003056412562727928,0.040875213550186265,0.9876955944872544,0.059493288691621106,left,-0.0002957582473754883,-0.20544829410973636,-2.136219855403155,-9.359726901233195,-0.09854136175478656,-0.010661552660167217,-0.001265496015548706,2.000616622214764,0.00037992000579833984
1746728752268054800,9.2650546875,-0.22466180735862137,-0.013270203024148941,-0.11445038003416941,0.0024583935737609863,0.04052820117047416,0.9876783826708926,0.0587275133193837,left,-0.001666426658630371,-0.20577741167659488,-2.1386017821036276,-9.35850641952753,-0.09874231284437014,-0.010336543433368206,-0.0029283761978149414,2.003776255289465,0.002074897289276123
1746728752308055000,9.305054931640624,-0.22451719363629039,-0.005003367550671101,-0.11435563745612601,0.011279184371232986,0.040282611576672005,0.9876882611403391,0.05822681002280685,left,-0.0013998746871948242,-0.2059402066707074,-2.1371756948232647,-9.358497651699185,-0.09885431957364992,-0.006200161762535572,-0.0024441778659820557,2.005338974561542,0.0024704188108444214
1746728752348054800,9.3450546875,-0.22451719363629039,-0.00004594912752509117,-0.11435563745612601,0.01525416225194931,0.040282611576672005,0.9876882611403391,0.05822681002280685,left,-0.0010761022567749023,-0.2059402066707074,-2.1371756948232647,-9.358497651699185,-0.09885431957364992,-0.007658244576305151,-0.000814780592918396,2.005338974561542,0.0011032670736312866
1746728752388054800,9.3850546875,-0.2237929744485134,-0.00604074215516448,-0.11399010238429318,0.015426014550030231,0.04015384521828363,0.9877107093987109,0.0579896238674866,left,-0.0007134079933166504,-0.2063874685754987,-2.130198257026076,-9.359167513784765,-0.09910346023388573,-0.0075273350812494755,0.0004857480525970459,2.00963228784129,-0.00013193488121032715
1746728752428054800,9.4250546875,-0.2232412618586574,-0.01802729442715645,-0.11369031246981838,0.01499758381396532,0.039841615644260774,0.9877322875420174,0.05736660012291811,left,-0.000265657901763916,-0.20681060646740593,-2.1248459362126884,-9.359511212655901,-0.09935906238056878,-0.010387529619038105,0.0007064640522003174,2.0136935459308325,-0.00022110342979431152
1746728752468054800,9.4650546875,-0.2228724242425374,-0.008251801133155823,-0.11347512509595219,0.006577079184353352,0.039492097459602776,0.9877613853204624,0.05668513306308956,left,0.0013988018035888672,-0.20691023799157607,-2.121349326268583,-9.360098657155037,-0.0994543258968102,-0.002886790782213211,0.00012786686420440674,2.0146498237423596,0.0007091909646987915
1746728752508054800,9.5050546875,-0.22250372774620875,0.0015236921608448029,-0.1132599377220858,-0.0018434254452586174,0.039142537299284935,0.9877904407815622,0.056003621634264755,left,0.0030629634857177734,-0.20701017201518226,-2.1178537392377854,-9.360683763566612,-0.09954958941305476,0.004613947123289108,-0.00045062601566314697,2.015608878032863,0.0016391873359680176
1746728752548055000,9.545054931640625,-0.22196669841939215,0.016830652952194214,-0.11300762002569686,0.01719333976507187,0.03924790135821709,0.9878226047054517,0.056285964148573564,left,-0.004087090492248535,-0.20687306346332904,-2.112887349002063,-9.36208953871131,-0.09947637375059959,0.0044425963424146175,0.0015757083892822266,2.0142929731287063,0.0017071068286895752
1746728752588054800,9.5850546875,-0.22122368673084566,0.014649474062025547,-0.11267284945025391,0.008443435654044151,0.03951736459024258,0.98782900752937,0.0568567413441508,left,-0.0011064410209655762,-0.20733168370655544,-2.1057276865057646,-9.362754140099883,-0.09968546953298692,-0.011868862435221672,0.0013724267482757568,2.018694422958046,-0.00013500452041625977
1746728752628054800,9.6250546875,-0.22084067888421421,0.0038378695026040077,-0.11247487603420954,0.004800782538950443,0.03939514829314424,0.987826404765401,0.05658802845496357,left,0.0008518099784851074,-0.2078867427991034,-2.1018957071274516,-9.362465386286377,-0.09998248439264838,-0.008503048680722713,0.0008631795644760132,2.024020878677815,0.0016639083623886108
1746728752668054800,9.6650546875,-0.22045777983362438,-0.006973734125494957,-0.11227689080183909,0.0011581296566873789,0.039272932679416755,0.9878236334154209,0.056319510001853104,left,0.002809584140777588,-0.20844190858312886,-2.0980646045319733,-9.362171371775865,-0.10027948998471958,-0.005137234926223755,0.00035403668880462646,2.029347626658529,0.003462746739387512
1746728752864580000,9.861580078125,-0.22096703478429536,0.012700285762548447,-0.1125710495236638,0.0025121509097516537,0.03969082204171627,0.9877300747142672,0.05701008517417243,left,-0.00288591836579144,-0.20940358512342191,-2.1024033643886444,-9.359193232747911,-0.10070589158067435,-0.007580168079584837,-0.0013699254486709833,2.0385732817739246,-0.002450966974720359
1746728752904451000,9.901451171875,-0.22096777874297954,0.0015878994017839432,-0.112589017327623,-0.004081870894879103,0.03984427545357142,0.9876896032422026,0.05724882745773658,left,0.00052347790915519,-0.21006960699922203,-2.1021122724875805,-9.357865199014544,-0.10102157643666317,-0.018318943679332733,-0.0016747340559959412,2.0449616676367817,-0.0016258170362561941
1746728752944451000,9.941451171875,-0.22062364597948939,0.0039649768732488155,-0.11240526951063258,0.0052656750194728374,0.039679555661861564,0.9876917172617106,0.0569019571540911,left,-0.0007618069648742676,-0.2105198758535768,-2.098690042953938,-9.357688673403858,-0.10127043718035773,-0.013510367833077908,0.00009019672870635986,2.049279969227314,0.0014387071132659912
1746728753103764000,10.100763916015625,-0.21900113675741775,0.0175922978669405,-0.11174196477896706,-0.012106440030038357,0.0408902406858361,0.9876484505849287,0.05935179156302459,left,0.0006225670222193003,-0.21209184241521073,-2.0828020073398945,-9.357925404769182,-0.10194265835520949,0.0013071722351014614,0.0036578683648258448,2.0643528890661895,-0.0012211458524689078
1746728753143634700,10.140634765625,-0.21926205278997185,0.005018917378038168,-0.11189533381726609,-0.005557839293032885,0.04114367163003025,0.9876276877809571,0.05984592585192891,left,0.0004669252666644752,-0.21201835778090414,-2.0852765807598828,-9.357529683449863,-0.10187336936306203,0.00354759581387043,0.0027434013318270445,2.0636483940586445,-0.0009158593602478504
1746728753183634700,10.180634765625,-0.21964233463780833,0.003587391460314393,-0.11208905576832465,-0.01017127837985754,0.041230364803394065,0.9876181767524757,0.060012199702633176,left,0.00023108720779418945,-0.21173895520608524,-2.08896038383916,-9.357298212781547,-0.10171815138782274,0.0064362091943621635,0.000928729772567749,2.0609696763686833,-0.00177079439163208
1746728753223634700,10.220634765625,-0.2201954887069628,0.00634255725890398,-0.11237569742525091,-0.01333744265139103,0.041399926590217816,0.9875964839210157,0.060330333995749226,left,-0.000003337860107421875,-0.21144350511795307,-2.0942690116412934,-9.35673531820178,-0.1015428805284538,0.0035091640893369913,-0.0005933642387390137,2.05813693716079,-0.0017483383417129517
1746728753263634700,10.260634765625,-0.22074870848176262,0.009097723290324211,-0.11266232858826833,-0.016503605991601944,0.04156953103607239,0.9875746648208901,0.060648712830449626,left,-0.00023818016052246094,-0.21114824953665876,-2.099577931704372,-9.356167747446895,-0.1013675990897521,0.0005821189843118191,-0.002115413546562195,2.055305805388093,-0.0017260760068893433
1746728753303634700,10.300634765625,-0.22131991145546775,0.005688115023076534,-0.11295550875940517,-0.007610755041241646,0.04170272033067006,0.9875320459933197,0.060847276488546605,left,0.00014770030975341797,-0.21126452419118635,-2.1048694622412323,-9.354733915251494,-0.10140196129906104,-0.01023431122303009,-0.0014525502920150757,2.05642078089267,-0.0003546774387359619
1746728753343635000,10.340635009765625,-0.22146962979446325,0.009860489517450333,-0.11304546440049731,0.005692797712981701,0.041854199459324594,0.9875003331307987,0.06110294797074201,left,-0.0016398429870605469,-0.21159550078566144,-2.1061203390851615,-9.353753672042489,-0.10154792934650542,-0.01265101507306099,-0.0024632811546325684,2.0595941502317787,0.0017337948083877563
1746728753383634700,10.380634765625,-0.2216193360973433,0.014032863080501556,-0.11313543053550126,0.018996350467205048,0.0420056362706337,0.9874686622439383,0.0613585071028761,left,-0.003427565097808838,-0.21192655893818876,-2.107370631407201,-9.352772844311595,-0.10169390797328591,-0.015067718923091888,-0.003474101424217224,2.062768250223249,0.003822222352027893
1746728753423634700,10.420634765625,-0.22129596773960156,0.008865639567375183,-0.11299960351149299,0.017892202362418175,0.04219217242204525,0.9874392831411931,0.061688799384623336,left,-0.0028045177459716797,-0.21267583381626037,-2.10400641567111,-9.351943407750129,-0.10205224997323596,-0.01971365138888359,-0.0016860365867614746,2.069951147464663,0.00298425555229187
1746728753463634700,10.460634765625,-0.2206010551226119,0.006444147322326899,-0.11266510424823334,0.013004417531192303,0.0422186114058101,0.9874465553355691,0.061753928169421254,left,-0.0004786252975463867,-0.21323626173402094,-2.097252849757671,-9.352269570964575,-0.10234014038661753,-0.012082825414836407,-0.0008875280618667603,2.0753229036308825,0.003371715545654297
1746728753503634700,10.500634765625,-0.2199060017872909,0.004022655077278614,-0.1123305725114217,0.00811663269996643,0.04224500909728592,0.9874536166265871,0.061819399217482855,left,0.0018465518951416016,-0.21379661128710212,-2.090498114800453,-9.352588719916342,-0.10262800004580452,-0.004451998043805361,-0.00008912384510040283,2.0806933446228504,0.0037593096494674683
1746728753543634700,10.540634765625,-0.2196358429539624,0.0008210984524339437,-0.11219697585145423,0.004398621618747711,0.042221303295970736,0.9874583253140449,0.06177717873142387,left,0.002145707607269287,-0.2140049860665714,-2.087876826386154,-9.352730174213647,-0.10273902575410933,-0.0029608681797981262,0.00024242699146270752,2.082690217528492,0.0038629770278930664
1746728753583635000,10.580635009765626,-0.2196358429539624,-0.0023804581724107265,-0.11219697585145423,0.0006806105375289917,0.042221303295970736,0.9874583253140449,0.06177717873142387,left,0.0024304986000061035,-0.2140049860665714,-2.087876826386154,-9.352730174213647,-0.10273902575410933,-0.001469738082960248,0.0008412599563598633,2.082690217528492,0.004170268774032593
1746728753623634700,10.620634765625,-0.2196358429539624,0.0023584123700857162,-0.11219697585145423,-0.0003621213836595416,0.042221303295970736,0.9874583253140449,0.06177717873142387,left,-0.0012589693069458008,-0.2140049860665714,-2.087876826386154,-9.352730174213647,-0.10273902575410933,0.008037877269089222,0.0014761090278625488,2.082690217528492,0.003666788339614868
1746728753663634700,10.660634765625,-0.2196358429539624,0.00613863579928875,-0.11219697585145423,0.0024916636757552624,0.042221303295970736,0.9874583253140449,0.06177717873142387,left,0.00135880708694458,-0.2140049860665714,-2.087876826386154,-9.352730174213647,-0.10273902575410933,0.009303182363510132,0.0009650886058807373,2.082690217528492,0.002369433641433716
1746728753703634700,10.700634765625,-0.2196358429539624,-0.004654320888221264,-0.11219697585145423,-0.0001996725331991911,0.042221303295970736,0.9874583253140449,0.06177717873142387,left,0.000012636184692382812,-0.2140049860665714,-2.087876826386154,-9.352730174213647,-0.10273902575410933,0.0013539334759116173,0.0011306554079055786,2.082690217528492,0.0013979822397232056
1746728753743634700,10.740634765625,-0.2196358429539624,-0.015447278507053852,-0.11219697585145423,-0.0028910087421536446,0.042221303295970736,0.9874583253140449,0.06177717873142387,left,-0.001333475112915039,-0.2140049860665714,-2.087876826386154,-9.352730174213647,-0.10273902575410933,-0.006595315411686897,0.0012962371110916138,2.082690217528492,0.00042654573917388916
1746728753783634700,10.780634765625,-0.21968253775038615,-0.02490614727139473,-0.11217908734460867,0.0023231273517012596,0.04182722969037036,0.9874680655180423,0.060964813139673675,left,-0.0015380382537841797,-0.21409246646454075,-2.0882738628797233,-9.352454864403605,-0.10282682949900235,-0.0075774965807795525,0.0020686984062194824,2.083528568048775,0.0008511543273925781
1746728753823635000,10.820635009765626,-0.21957279266993449,-0.021259337663650513,-0.11207598594239046,0.006125514395534992,0.04135627119350557,0.987500675016201,0.06003659832505481,left,-0.0013661384582519531,-0.21395954852708202,-2.087307648196071,-9.352954046097397,-0.1028154875621689,0.003853444941341877,0.0020322948694229126,2.0822547487206755,0.0015700459480285645
1746728753863635000,10.860635009765625,-0.2194717429965494,-0.003985563293099403,-0.1119994204421259,-0.0022706259042024612,0.04111043026225101,0.9875413620543833,0.059600192686140654,left,0.0014991164207458496,-0.21348327287513777,-2.086578311008215,-9.354131857705116,-0.10260668359460103,0.013032549992203712,0.0031856000423431396,2.0776903634145856,0.0003982633352279663
1746728753903634700,10.900634765625,-0.21965475219456693,0.020920323207974434,-0.11210879111131931,-0.016851160675287247,0.04130843354984694,0.9875320071947669,0.06000002432628096,left,0.001864016056060791,-0.21331677782226086,-2.0883654866859316,-9.354086849519609,-0.10249823800179073,-0.0006942357867956161,0.0024143606424331665,2.076094618655741,0.0017799437046051025
1746728753943634700,10.940634765625,-0.22027797275935593,0.033792443573474884,-0.1124764159590406,-0.03009045124053955,0.041893814471330865,0.9874387902461795,0.06104943634209101,left,0.0009782910346984863,-0.21398283035281865,-2.093892141152918,-9.351432535618542,-0.10275545034741994,-0.018178367987275124,0.0011859536170959473,2.0824778899520635,-0.000655442476272583
1746728753983634700,10.980634765625,-0.22131510544844993,0.022449718788266182,-0.11304625565036852,-0.030836399644613266,0.04246410851649728,0.9873035335502915,0.061984569238588534,left,-0.001377403736114502,-0.21502281766204967,-2.1031131200931963,-9.347137468773125,-0.10319465934404719,-0.016343528404831886,0.000029087066650390625,2.092442965257913,-0.0012640953063964844
1746728754023634700,11.020634765625,-0.22236014016107933,0.0026438962668180466,-0.11358646479630803,-0.02696889266371727,0.04273544063201244,0.9872127946940273,0.06237956084637117,left,-0.0016129612922668457,-0.21544255916008073,-2.1126861273415387,-9.344077496680617,-0.1033573729479396,0.0013918839395046234,-0.0015288889408111572,2.0964641835980116,-0.0008474886417388916
1746728754063634700,11.060634765625,-0.22330245388029338,-0.00710681825876236,-0.11404228252303425,-0.019961116835474968,0.042709429706539216,0.9871831019344467,0.06227092481464947,left,-0.0023227334022521973,-0.21504992860572594,-2.1216724207431077,-9.342884487503767,-0.1031494790616719,0.014940300956368446,-0.003310859203338623,2.092702639107406,0.0008339881896972656
1746728754103635000,11.100635009765625,-0.2238416676815026,-0.005775046069175005,-0.1142937872836466,-0.010118878446519375,0.0426293065134966,0.9872042300650103,0.062150252832551746,left,-0.0020665526390075684,-0.21415155844661027,-2.1271263022348283,-9.3435683781147,-0.10270109683715078,0.024762336164712906,-0.0031336992979049683,2.084094823629409,0.0001583695411682129
1746728754143634700,11.140634765625,-0.22379859913319486,-0.002596162958070636,-0.1142774290742914,-0.0021066730841994286,0.042698292142728425,0.9872377216772122,0.06236541888688069,left,0.000567018985748291,-0.2135012841290252,-2.127024303165078,-9.344979413956404,-0.10236849376513937,0.01613905280828476,-0.0026315301656723022,2.0778629435025153,-0.001706823706626892
1746728754183634700,11.180634765625,-0.22375568785758132,0.0005827206186950207,-0.11426105904860696,0.005905533209443092,0.042767236137985866,0.9872710866790628,0.062580449851476,left,0.003200232982635498,-0.2128509953477497,-2.126922596356273,-9.346386358144878,-0.10203588142553749,0.0075157685205340385,-0.0021293312311172485,2.0716301865927873,-0.0035718828439712524
1746728754223634700,11.220634765625,-0.22375568785758132,-0.002661181380972266,-0.11426105904860696,0.018714740872383118,0.042767236137985866,0.9872710866790628,0.062580449851476,left,-0.005910158157348633,-0.2128509953477497,-2.126922596356273,-9.346386358144878,-0.10203588142553749,0.003925700671970844,0.0003685504198074341,2.0716301865927873,-0.00515197217464447
1746728754263634700,11.260634765625,-0.22284188027891025,-0.022203730419278145,-0.11376732448184625,0.01871943101286888,0.04230910297323255,0.9873421863960352,0.06174972981438412,left,-0.004128932952880859,-0.21282458240057645,-2.118392960681021,-9.34837899326682,-0.10208963487667425,-0.006161844357848167,0.0014234930276870728,2.071376942484081,-0.004271835088729858
1746728754303634700,11.300634765625,-0.2219280938852954,-0.04174627736210823,-0.11327354529460322,0.018724123015999794,0.041850929199561016,0.9874129066236385,0.060918950921044206,left,-0.0023487210273742676,-0.2127989381644239,-2.109861425309628,-9.350362860560416,-0.10214334863396103,-0.016249388456344604,0.0024782121181488037,2.0711311510294674,-0.0033923983573913574
1746728754343635000,11.340635009765625,-0.2212727890641959,-0.05246178060770035,-0.11285578336907039,0.02417246624827385,0.04090242814195345,0.9874803748808813,0.059049188231722165,left,-0.000030159950256347656,-0.21295159906415262,-2.1036641781046987,-9.351434873706102,-0.10233802956749388,-0.018982037901878357,0.0022736787796020508,2.072594501580298,0.0022413134574890137
1746728754383634700,11.380634765625,-0.2205702400587475,-0.033960774540901184,-0.11241707974771915,0.02376321516931057,0.03998258323463518,0.9875592125930999,0.05726540819735997,left,0.0009388923645019531,-0.21289298353644528,-2.0971204555496574,-9.353028864899278,-0.10242373207671658,-0.002192283049225807,-0.00019566714763641357,2.0720326299138367,0.007624790072441101
1746728754423634700,11.420634765625,-0.21977308369682189,-0.0009066127240657806,-0.1119938461960871,0.015968531370162964,0.03966692637139435,0.9876360739431227,0.056752106909981156,left,0.0012034177780151367,-0.21249006119003105,-2.0898457883715627,-9.355511913886666,-0.10226930238408849,0.012306397780776024,0.000003129243850708008,2.0681704015277327,0.010870784521102905
1746728754578963200,11.575963134765624,-0.21907861769610754,0.024769067764282227,-0.11189484306707828,-0.01304878294467926,0.04196897735445309,0.9875496048289344,0.061427255064266516,left,0.0015173305291682482,-0.21303848833635677,-2.0831014286778866,-9.355852105626463,-0.10229280800168603,0.04774331673979759,0.0002680647885426879,2.0734272991426286,-0.0015473266830667853
1746728754618963200,11.615963134765625,-0.21918748590617682,0.008260529488325119,-0.11196931385503263,-0.01033088844269514,0.04225107284173755,0.9876317130401092,0.06219255687264851,left,-0.0007994771003723145,-0.2111159315840343,-2.0849828585103154,-9.359498937696218,-0.1012976474409791,0.04622902721166611,0.00032660365104675293,2.0549958626560865,-0.004120379686355591
1746728754658963500,11.65596337890625,-0.2193216223172648,0.00025398842990398407,-0.11203671080318073,-0.006561894901096821,0.04233692777897619,0.987704217024658,0.0625254141735735,left,-0.0020339488983154297,-0.20949908964310493,-2.0869583963669833,-9.362450188717245,-0.10047713890994064,0.029470812529325485,0.0001163184642791748,2.0394895198360086,-0.004593119025230408
1746728754698963500,11.69596337890625,-0.21939045619345215,-0.008519059047102928,-0.112056245405885,-0.002144560217857361,0.042236680963575024,0.9877509312172781,0.06241148574835092,left,-0.002151668071746826,-0.20860056612176264,-2.0880008911572396,-9.364091526183486,-0.1000379916389525,0.009135004132986069,0.00054951012134552,2.030869721659273,-0.006107687950134277
1746728754738963500,11.73596337890625,-0.21949357850463733,-0.016481880098581314,-0.11207679472785233,-0.005752519238740206,0.04195550803953319,0.9877739418090187,0.06186635424277857,left,0.000803828239440918,-0.20827693118185042,-2.08910943692103,-9.364517058119178,-0.0999064110592763,-0.0033549973741173744,0.00015978515148162842,2.0277647413812576,-0.005562588572502136
1746728754778963200,11.775963134765625,-0.2199429471174313,-0.01869131810963154,-0.11225543364718477,-0.008809667080640793,0.041547899521748304,0.9877642815921075,0.06099017412101902,left,0.00005459785461425781,-0.20832729301897626,-2.0932950520426035,-9.363477193677426,-0.09997106524548353,-0.012386452406644821,0.0002422630786895752,2.0282478487230837,-0.0024419426918029785
1746728754818963200,11.815963134765624,-0.22063023131450002,-0.010937580838799477,-0.11257221678537452,-0.012590581551194191,0.04134649166554886,0.9877193370813707,0.060478508720884686,left,-0.0004744529724121094,-0.20864594967601852,-2.0995884530983866,-9.361405648100376,-0.10014305997673434,-0.010022919625043869,-0.00022308528423309326,2.0313051904670893,-0.0019821077585220337
1746728754858963200,11.855963134765625,-0.22131766148759224,-0.003183844033628702,-0.11288896711941417,-0.01637149602174759,0.04114508517609086,0.9876740553986108,0.05996659364897315,left,-0.0010039806365966797,-0.20896420230539506,-2.1058812696322797,-9.359328841826319,-0.10031502428172889,-0.007659385912120342,-0.0006884932518005371,2.034358440557867,-0.001521870493888855
1746728754898963200,11.895963134765625,-0.2220311240010879,-0.0002540335990488529,-0.11323248664725066,-0.01525244489312172,0.041088117309460666,0.9876287269935121,0.059759955409308035,left,-0.0012354254722595215,-0.209137853518505,-2.112480375636369,-9.35747941456735,-0.10039784777188437,-0.0021657049655914307,-0.0027159303426742554,2.036024327943474,-0.0003254413604736328
1746728754938963500,11.93596337890625,-0.22260208140787943,0.00934535451233387,-0.11352106634569344,-0.013975080102682114,0.041177888873145045,0.9875876180582556,0.05987046340715962,left,-0.0021196603775024414,-0.2092598733819238,-2.1177679606504736,-9.356029215759039,-0.10044013147087491,-0.0016589625738561153,-0.0036308765411376953,2.0371948330275713,0.0017167925834655762
1746728755097318400,12.094318359375,-0.22160455914114363,-0.006979026366025209,-0.11313443272112607,0.026362193748354912,0.042122596356896976,0.9875410394316174,0.06175685253931219,left,0.0054536545649170876,-0.21044594958547336,-2.1079013772830364,-9.355773195171356,-0.10094010858116606,-0.00044014083687216043,-0.0008373461896553636,2.0485710903055963,0.0002721729688346386
1746728755137190700,12.134190673828124,-0.2213240943628682,-0.01247796043753624,-0.11297015666032632,0.016638359054923058,0.041877668590075676,0.9875955965938932,0.06135001345133016,left,-0.006350142881274223,-0.20988517294664244,-2.105529241324216,-9.357483506220579,-0.10069189311271351,0.02436429262161255,0.0037900840397924185,2.043192758268118,-0.0012560754548758268
1746728755177190700,12.174190673828125,-0.22042788139182118,-0.000764165073633194,-0.11255066951434897,0.010555198416113853,0.042058736267190935,0.9876363703799136,0.061807669777608855,left,-0.003209412097930908,-0.209888854305051,-2.097140475424379,-9.359359236964583,-0.1006867116006117,0.013364854268729687,0.003140583634376526,2.0432279757119716,-0.0005570054054260254
1746728755217190400,12.2141904296875,-0.21953163473215712,0.010949631221592426,-0.11213114890301021,0.004472037777304649,0.04223984694502246,0.9876769336042615,0.06226543825352948,left,-0.0000693202018737793,-0.2098921276544163,-2.088749955958873,-9.3612285379678,-0.10068150031811689,0.00236541498452425,0.0024909228086471558,2.043259393763542,0.0001424551010131836
1746728755257190700,12.254190673828125,-0.21937151388720488,0.012758499942719936,-0.11209404897566694,-0.00026540597900748253,0.04262657692252094,0.9876488717575075,0.06302323612328216,left,-0.0006801486015319824,-0.21028181256835615,-2.087077492702007,-9.360784885853528,-0.10083499686068638,-0.00044094701297581196,0.0018484443426132202,2.046996826726198,-0.000700533390045166
1746728755297190700,12.294190673828124,-0.21921104884759432,0.014567368663847446,-0.11205691624416747,-0.005002849269658327,0.04301326560773044,0.9876205990073958,0.06378109429530042,left,-0.0012909770011901855,-0.21067133622108788,-2.085401814574748,-9.360340649217367,-0.10098846297699612,-0.0032473092433065176,0.00120563805103302,2.050732506123185,-0.0015433579683303833
1746728755337190700,12.334190673828125,-0.21917792505556666,0.010492963716387749,-0.11207388919062482,-0.005304145161062479,0.04331929921085513,0.9875887118394548,0.06436239223925556,left,-0.0003739595413208008,-0.2110635080946321,-2.0849168075367808,-9.359624025380612,-0.10115040729057453,-0.0041629597544670105,-0.000027760863304138184,2.054493173830956,-0.0009236186742782593
1746728755377190700,12.374190673828124,-0.21932242867729498,0.0028061443008482456,-0.11215994845037132,-0.00012008845806121826,0.043458409766177396,0.9875617957661922,0.06460236738668453,left,-0.0038968920707702637,-0.21131606914385861,-2.086156286203861,-9.358816216129064,-0.10125862002364483,-0.0029268977232277393,0.001362532377243042,2.0569149941504,0.00019356608390808105
1746728755417190700,12.414190673828125,-0.21932242867729498,-0.003384203650057316,-0.11215994845037132,0.004952483810484409,0.043458409766177396,0.9875617957661922,0.06460236738668453,left,-0.0004398226737976074,-0.21131606914385861,-2.086156286203861,-9.358816216129064,-0.10125862002364483,-0.0031854365952312946,-0.00027664005756378174,2.0569149941504,0.00241813063621521
1746728755575776000,12.57277587890625,-0.21819442083486223,0.0129053620621562,-0.11162246070264253,0.008561828173696995,0.043567702869026205,0.9875916575238686,0.06488651481828656,left,-0.0006791196647100151,-0.21181392377957836,-2.0753762412533163,-9.360162370041012,-0.10151329222280898,0.004833299666643143,0.0007602669065818191,2.061688346032053,0.0019311035284772515
1746728755615647200,12.612647216796875,-0.21772205645901685,0.018044283613562584,-0.11142430944009828,0.0068244063295423985,0.043880409425764454,0.98759798275067,0.0655578864209256,left,0.0006842939183115959,-0.21191260551070798,-2.0709106401465833,-9.360942706763744,-0.10153494620782104,0.0012928879586979747,0.0005509303882718086,2.062634540840983,0.001999146770685911
1746728755655647200,12.652647216796876,-0.2175131772438386,0.012408288195729256,-0.11135839923005433,0.00028613256290555,0.04421333791571731,0.9875752662458323,0.06621485995549983,left,0.00007677078247070312,-0.21227893876510467,-2.068792040557414,-9.360637001815437,-0.10168398447797795,-0.0009768415475264192,0.0006763041019439697,2.0661464944846926,0.000497475266456604
1746728755695647200,12.692647216796875,-0.2173976844624566,0.009074000641703606,-0.11132594164873319,0.00260520470328629,0.04443181763496929,0.9875572699227977,0.06664011307892953,left,-0.0006476640701293945,-0.2125544154168039,-2.0675880715951322,-9.360319606429337,-0.10179900068621053,0.0008904999122023582,0.0002221614122390747,2.068787218251824,-0.00044493377208709717
1746728755735647200,12.732647216796876,-0.21726621960523623,0.00840731244534254,-0.11128368724064808,-0.00011567655019462109,0.04464160760270035,0.9875515032047633,0.06707181125670439,left,-0.0006652474403381348,-0.21261808909069302,-2.0663291575752196,-9.360462814292312,-0.10180936817342218,0.002456843387335539,0.00005310773849487305,2.0693976052351295,-0.0005678534507751465
1746728755775647500,12.7726474609375,-0.21725025194141076,0.008330032229423523,-0.11129785639740254,-0.0008191535016521811,0.044856965004815015,0.987544747521673,0.06751401853947583,left,-0.0007233023643493652,-0.2125761929942725,-2.0661983708024025,-9.360580303192139,-0.10176441832397581,0.0009174877777695656,-0.0003098398447036743,2.068996038696915,-0.000506088137626648
1746728755815647500,12.8126474609375,-0.21723432190848047,0.008252752013504505,-0.11131201506023905,-0.0015226304531097412,0.04507232206524442,0.9875380761315871,0.06795623919440733,left,-0.0007813572883605957,-0.21253430612769447,-2.06606787629053,-9.360697792091965,-0.10171945789518978,-0.0006218678317964077,-0.0006727427244186401,2.0685944721587,-0.00044433772563934326
1746728755855647200,12.852647216796875,-0.21723432190848047,-0.0020379824563860893,-0.11131201506023905,-0.006730914115905762,0.04507232206524442,0.9875380761315871,0.06795623919440733,left,0.00037229061126708984,-0.21253430612769447,-2.06606787629053,-9.360697792091965,-0.10171945789518978,-0.005252290517091751,-0.00020708143711090088,2.0685944721587,-0.0019567906856536865
1746728755895647200,12.892647216796876,-0.21723432190848047,-0.012328716926276684,-0.11131201506023905,-0.011939197778701782,0.04507232206524442,0.9875380761315871,0.06795623919440733,left,0.0015259385108947754,-0.21253430612769447,-2.06606787629053,-9.360697792091965,-0.10171945789518978,-0.009882712736725807,0.0002585798501968384,2.0685944721587,-0.00346924364566803
1746728755935647200,12.932647216796875,-0.21733065499421786,-0.01911943405866623,-0.11132507287660158,0.012836780399084091,0.04472623002618896,0.9875329642873311,0.06721365561191311,left,-0.003210783004760742,-0.21283504359483207,-2.0668354996621607,-9.359891151884197,-0.10190723971339767,-0.014395652338862419,0.0003379732370376587,2.0714773341186343,0.00007414817810058594
1746728755975647200,12.972647216796876,-0.21710404564678693,-0.016154497861862183,-0.11117432239079979,0.006462741177529097,0.044313587080495195,0.9875383723564277,0.06635034288097418,left,0.0003458261489868164,-0.21331870159564903,-2.064498288886249,-9.359379695230722,-0.10219930602098713,-0.018601175397634506,-0.0004165768623352051,2.0761130310952662,0.0024490058422088623
1746728756015647200,13.012647216796875,-0.21697316937687058,-0.007109940983355045,-0.11108057954894421,0.007764562964439392,0.04400289161863976,0.9875350055865455,0.06568604505356263,left,0.0008703470230102539,-0.21377974419691584,-2.0630670870393515,-9.35871392479837,-0.1024669374208922,-0.01623157225549221,0.0012469291687011719,2.080531724320352,0.005906835198402405
1746728756055647500,13.0526474609375,-0.21695014231877605,0.00329733919352293,-0.11109041949778806,-0.0001622624695301056,0.04418420466762314,0.9875048466611386,0.06600886326112344,left,0.0002944469451904297,-0.2142235682259278,-2.0626526610195635,-9.357858769273758,-0.10266882515886154,-0.009642223827540874,0.000921100378036499,2.084784851720184,0.005108579993247986
1746728756095647200,13.092647216796875,-0.2169269588124608,0.013704618439078331,-0.11110024862211579,-0.008089087903499603,0.04436556003395185,0.9874746457600708,0.06633181961789002,left,-0.0002816319465637207,-0.21466739657162318,-2.062236335303634,-9.357001860183477,-0.10287070264542957,-0.003052876330912113,0.0005950629711151123,2.0890375407285986,0.004310354590415955
1746728756135647200,13.132647216796874,-0.2171330007155673,0.007274064235389233,-0.11122653141906612,-0.00871757697314024,0.04459827272531592,0.987439005314233,0.0667533642579097,left,-0.0011096596717834473,-0.21493603756024435,-2.064043238595128,-9.356028631237148,-0.10297543170319239,0.0006951612886041403,0.0006835460662841797,2.091611482869834,0.003247469663619995
1746728756175647200,13.172647216796875,-0.21733897432197782,0.0008435100317001343,-0.11135281421601628,-0.009346066042780876,0.044830943441020045,0.9874033225510499,0.06717479917558039,left,-0.0019378066062927246,-0.21520478084870012,-2.065848972842842,-9.35505423324704,-0.10308016076095836,0.004443198908120394,0.0007719099521636963,2.094186301793903,0.0021844953298568726
1746728756215647200,13.212647216796874,-0.21733897432197782,-0.0031404863111674786,-0.11135281421601628,0.002062634564936161,0.044830943441020045,0.9874033225510499,0.06717479917558039,left,-0.0009654760360717773,-0.21520478084870012,-2.065848972842842,-9.35505423324704,-0.10308016076095836,0.009256631135940552,0.0006132572889328003,2.094186301793903,0.0016427189111709595
1746728756255647200,13.252647216796875,-0.21733897432197782,-0.005092497915029526,-0.11135281421601628,-0.0004646242596209049,0.044830943441020045,0.9874033225510499,0.06717479917558039,left,-0.0009153485298156738,-0.21520478084870012,-2.065848972842842,-9.35505423324704,-0.10308016076095836,0.008904343470931053,0.0005171000957489014,2.094186301793903,0.000738784670829773
1746728756295647500,13.2926474609375,-0.21724577681974294,-0.0019874514546245337,-0.11129860988501271,-0.0011690129758790135,0.044772686904532004,0.9874367620032719,0.06711815776536824,left,-0.00009191036224365234,-0.21471530781413734,-2.0651978154577315,-9.356246657902002,-0.10284355125428006,0.007143472321331501,0.00030940771102905273,2.0894966826729475,0.0007131099700927734
1746728756335647200,13.332647216796875,-0.21724577681974294,0.004543710500001907,-0.11129860988501271,-0.00422820495441556,0.044772686904532004,0.9874367620032719,0.06711815776536824,left,-0.0005483031272888184,-0.21471530781413734,-2.0651978154577315,-9.356246657902002,-0.10284355125428006,0.009908678010106087,-0.0002397596836090088,2.0894966826729475,0.0004161447286605835
1746728756375647200,13.372647216796874,-0.21729705914951772,0.009724194183945656,-0.11134412240285955,-0.003992076963186264,0.04499575888321937,0.9874503946786586,0.06761775506870783,left,-0.0012401938438415527,-0.21421177726996854,-2.065904210161418,-9.35716669535637,-0.10256579045703214,0.006088580936193466,0.000858113169670105,2.084671892865002,0.00100630521774292
1746728756415647200,13.412647216796875,-0.21729705914951772,0.008923007175326347,-0.11134412240285955,-0.003070229198783636,0.04499575888321937,0.9874503946786586,0.06761775506870783,left,-0.0006322860717773438,-0.21421177726996854,-2.065904210161418,-9.35716669535637,-0.10256579045703214,0.0018325713463127613,0.00036728382110595703,2.084671892865002,0.00028505921363830566
1746728756455647200,13.452647216796874,-0.2174515919964975,0.003742476459592581,-0.11144416669878783,-0.006586592644453049,0.0452460548743974,0.9874439913551649,0.06813546642314311,left,0.00032407045364379883,-0.21395774642851434,-2.067464299084991,-9.357364263755082,-0.10240795400903814,0.0003522785846143961,0.00004719197750091553,2.08223750532493,0.001690000295639038
1746728756495647200,13.492647216796875,-0.21772132732981594,0.003049435093998909,-0.11158983395896854,-0.0054991403594613075,0.04538411427010699,0.9874268491659112,0.06839428917489068,left,-0.00043970346450805664,-0.21389002451029593,-2.0700186597429213,-9.356943992516397,-0.10235394442848905,-0.0019069621339440346,-0.0010077208280563354,2.0815885398969054,0.0022911280393600464
1746728756535647500,13.5326474609375,-0.21772132732981594,0.0010169551242142916,-0.11158983395896854,-0.0032508375588804483,0.04538411427010699,0.9874268491659112,0.06839428917489068,left,-0.0001728534698486328,-0.21389002451029593,-2.0700186597429213,-9.356943992516397,-0.10235394442848905,0.005469804164022207,-0.0009220689535140991,2.0815885398969054,0.0003810375928878784
1746728756575647200,13.572647216796875,-0.21772132732981594,0.0002029474126175046,-0.11158983395896854,-0.002489194506779313,0.04538411427010699,0.9874268491659112,0.06839428917489068,left,-0.00009721517562866211,-0.21389002451029593,-2.0700186597429213,-9.356943992516397,-0.10235394442848905,0.009966722689568996,-0.0006904006004333496,2.0815885398969054,-0.00013111531734466553
1746728756615647200,13.612647216796875,-0.2180009011501071,-0.0017130785854533315,-0.11173014074029683,-0.0012494075344875455,0.04544877377213725,0.9874358357296336,0.06855070654710722,left,-0.0007591843605041504,-0.2133755137651747,-2.072866011998057,-9.357409271940588,-0.102084641711692,0.007228237576782703,-0.0004487931728363037,2.076657659365982,-0.0007823556661605835
1746728756655647200,13.652647216796876,-0.2180009011501071,-0.004382195416837931,-0.11173014074029683,-0.00008845177944749594,0.04544877377213725,0.9874358357296336,0.06855070654710722,left,-0.0017310380935668945,-0.2133755137651747,-2.072866011998057,-9.357409271940588,-0.102084641711692,0.004223157651722431,-0.00019612908363342285,2.076657659365982,-0.002297148108482361
1746728756695647200,13.692647216796875,-0.21832112498929956,-0.010492445901036263,-0.11187051616317788,0.0019560703076422215,0.04532331769587387,0.9874526496798028,0.06832066924478261,left,-0.0020914077758789062,-0.21283603130787251,-2.076104701658338,-9.35783714196384,-0.10182366631402245,0.005200998857617378,0.0006264299154281616,2.0714866864688695,-0.0028577446937561035
1746728756735647200,13.732647216796876,-0.2187016747252389,-0.00792142003774643,-0.1120372499215902,-0.009470904245972633,0.045160676498058036,0.9874618528482868,0.06799706389456159,left,-0.0012709498405456543,-0.2124118357927736,-2.0798561631463466,-9.357903192937373,-0.10162356381043294,0.0038780136965215206,0.0004885345697402954,2.0674204599432646,-0.0025674104690551758
1746728756775647500,13.7726474609375,-0.2187016747252389,-0.0013580364175140858,-0.1120372499215902,0.01314740814268589,0.045160676498058036,0.9874618528482868,0.06799706389456159,left,-0.003580331802368164,-0.2124118357927736,-2.0798561631463466,-9.357903192937373,-0.10162356381043294,0.004029137082397938,0.0007216930389404297,2.0674204599432646,-0.0018098950386047363
1746728756815647500,13.8126474609375,-0.2187016747252389,-0.0016355623956769705,-0.1120372499215902,0.0012519285082817078,0.045160676498058036,0.9874618528482868,0.06799706389456159,left,-0.0010133981704711914,-0.2124118357927736,-2.0798561631463466,-9.357903192937373,-0.10162356381043294,-0.006174886599183083,0.0007857680320739746,2.0674204599432646,-0.0019016563892364502
1746728756855647200,13.852647216796875,-0.2185809492889042,-0.0032799900509417057,-0.11195745157609212,-0.00045258202590048313,0.044948396991714754,0.987468325977998,0.06755993939900667,left,0.0006988644599914551,-0.21259640057477186,-2.078643572486192,-9.357781612384318,-0.10174196636603107,-0.006251886952668428,0.0005852729082107544,2.0691898077033457,0.0007423758506774902
1746728756895647200,13.892647216796876,-0.21846037361096107,-0.004924417473375797,-0.11187766438571477,-0.002157092560082674,0.04473615911934591,0.9874749257180607,0.06712292105032057,left,0.0024109482765197754,-0.2127811021588423,-2.0774324431307614,-9.357658862787485,-0.1018603788450893,-0.006328887306153774,0.0003849118947982788,2.070960178376734,0.003386273980140686
1746728756935647200,13.932647216796875,-0.21846037361096107,-0.0014350868295878172,-0.11187766438571477,-0.001996054779738188,0.04473615911934591,0.9874749257180607,0.06712292105032057,left,0.0017230510711669922,-0.2127811021588423,-2.0774324431307614,-9.357658862787485,-0.1018603788450893,-0.0023561306297779083,-0.00027017295360565186,2.070960178376734,0.004092603921890259
1746728756975647200,13.972647216796876,-0.21846037361096107,0.0013396909926086664,-0.11187766438571477,-0.006106112617999315,0.04473615911934591,0.9874749257180607,0.06712292105032057,left,0.001792311668395996,-0.2127811021588423,-2.0774324431307614,-9.357658862787485,-0.1018603788450893,0.002254953607916832,-0.0009404569864273071,2.070960178376734,0.0036445707082748413
1746728757015647200,14.012647216796875,-0.21846037361096107,0.004114468581974506,-0.11187766438571477,-0.01021617092192173,0.04473615911934591,0.9874749257180607,0.06712292105032057,left,0.001861572265625,-0.2127811021588423,-2.0774324431307614,-9.357658862787485,-0.1018603788450893,0.006866037845611572,-0.0016107410192489624,2.070960178376734,0.00319652259349823
1746728757055647500,14.0526474609375,-0.21846037361096107,0.006159285549074411,-0.11187766438571477,-0.00027324259281158447,0.04473615911934591,0.9874749257180607,0.06712292105032057,left,0.0009109973907470703,-0.2127811021588423,-2.0774324431307614,-9.357658862787485,-0.1018603788450893,0.012872189283370972,-0.0008838772773742676,2.070960178376734,0.0020022541284561157
1746728757095647200,14.092647216796875,-0.2187715510454266,0.005096433684229851,-0.11205029073782567,-0.0037151621654629707,0.044958127529842344,0.9874696719827647,0.06758431600866294,left,0.0007867813110351562,-0.21236779438695924,-2.0805298246242105,-9.357847078835963,-0.10162334733183996,0.014438644051551819,-0.0010508447885513306,2.0669982890084384,-0.0007897317409515381
1746728757135647200,14.132647216796874,-0.2190416779466296,0.004229474347084761,-0.11219576338243194,-0.003704426111653447,0.04511343447323528,0.9874710180239199,0.06791820842354379,left,-0.0002541542053222656,-0.21192464596470728,-2.0832563269786535,-9.358177918225527,-0.10137958469101924,0.011733131483197212,-0.0011224299669265747,2.0627499839141965,-0.0011281818151474
1746728757175647200,14.172647216796875,-0.21931197695288476,0.0033625150099396706,-0.11234123602703822,-0.0036936900578439236,0.04526874141662811,0.9874723640650753,0.06825220597463279,left,-0.0012954473495483398,-0.21148163087930372,-2.0859842906378208,-9.35850525048375,-0.10113582205019851,0.009027617983520031,-0.0011938661336898804,2.0585024094723163,-0.0014667510986328125
1746728757215647200,14.212647216796874,-0.2194375051145671,0.00189610302913934,-0.11241541635391121,-0.002370391972362995,0.04541358373144694,0.9874767022851025,0.06856911485570424,left,-0.001696169376373291,-0.2111401030617932,-2.087312032110244,-9.358929028853774,-0.10094640504190397,0.006153743714094162,-0.0002699047327041626,2.0552276255853474,-0.00038580596446990967
1746728757255647200,14.252647216796875,-0.2194375051145671,-0.0019761505536735058,-0.11241541635391121,0.0036120587028563023,0.04541358373144694,0.9874767022851025,0.06856911485570424,left,-0.0011125802993774414,-0.2111401030617932,-2.087312032110244,-9.358929028853774,-0.10094640504190397,0.00044086528941988945,0.0003210306167602539,2.0552276255853474,-0.0008918941020965576
1746728757295647500,14.2926474609375,-0.2194375051145671,-0.004178007133305073,-0.11241541635391121,0.0021819043904542923,0.04541358373144694,0.9874767022851025,0.06856911485570424,left,-0.00010716915130615234,-0.2111401030617932,-2.087312032110244,-9.358929028853774,-0.10094640504190397,-0.0013105941470712423,0.0005026012659072876,2.0552276255853474,-0.0010616481304168701
1746728757449749800,14.446749755859376,-0.2188858797137601,-0.00019472872372716665,-0.11209690029999637,0.0018108244985342026,0.044938571218154776,0.9875320548293638,0.06767155275301087,left,0.00015564175555482507,-0.21106412660832954,-2.0821829986587166,-9.360231343623996,-0.10097170025683568,-0.009791073389351368,0.0009144670912064612,2.0544991651803253,-0.00030528646311722696
1746728757489622000,14.4866220703125,-0.2189516410842656,0.001361688831821084,-0.11212923312801054,-0.001242040190845728,0.04492313955544754,0.9875126888685644,0.06759974041933745,left,0.000682569167111069,-0.21138214112222095,-2.082656461389363,-9.35945626759827,-0.10113140060133555,-0.0006464023026637733,0.00011386460391804576,2.057548469748348,0.0006890633376315236
1746728757649113000,14.646113037109375,-0.22018656087630706,0.004704183898866177,-0.11275149983298906,-0.007567433174699545,0.045083861188001104,0.9874155588972081,0.06775087282960088,left,-0.010909033007919788,-0.21183028036814755,-2.0940115297488866,-9.355976608788966,-0.1013165494150328,0.0008445300627499819,0.0012376265367493033,2.0618451440289616,-0.001854429254308343
1746728757688987000,14.68598681640625,-0.21937693643873063,0.015366185456514359,-0.11237559764482856,0.01876014843583107,0.04525066915737069,0.987428584184002,0.06812465467801765,left,0.0027868293691426516,-0.21227278697005886,-2.086237242485583,-9.356777403777837,-0.10153244329599606,-0.021381396800279617,-0.003962676972150803,2.0660874577738344,0.0020462959073483944
1746728757728986600,14.725986572265626,-0.21935959944911002,0.012612037360668182,-0.11237569120531984,0.012834453023970127,0.04529226507083738,0.9873878278833275,0.06812945535694392,left,0.002384662628173828,-0.2130353440730967,-2.0857314849205313,-9.355272844433784,-0.10190934628475073,-0.013823735527694225,-0.0032944530248641968,2.0733971962653097,0.0027974992990493774
1746728757768986600,14.765986572265625,-0.21934232038094686,0.009857888333499432,-0.11237578509641521,0.006908757612109184,0.04533381900864411,0.9873470292653076,0.06813420154506661,left,0.0019819140434265137,-0.2137979449794031,-2.085225288964063,-9.353763024392723,-0.1022862489455737,-0.006266073789447546,-0.0026262998580932617,2.080706057973951,0.00354883074760437
1746728757808986600,14.805986572265626,-0.21934232038094686,0.0068391673266887665,-0.11237578509641521,0.0029862788505852222,0.04533381900864411,0.9873470292653076,0.06813420154506661,left,0.0007879137992858887,-0.2137979449794031,-2.085225288964063,-9.353763024392723,-0.1022862489455737,0.004804059397429228,-0.002626568078994751,2.080706057973951,0.0024543702602386475
1746728757848986600,14.845986572265625,-0.21934232038094686,0.0006434647366404533,-0.11237578509641521,0.0013439873000606894,0.04533381900864411,0.9873470292653076,0.06813420154506661,left,0.001338362693786621,-0.2137979449794031,-2.085225288964063,-9.353763024392723,-0.1022862489455737,0.0028047971427440643,-0.002115190029144287,2.080706057973951,0.000554010272026062
1746728757888986600,14.885986572265624,-0.21934232038094686,-0.0038005984388291836,-0.11237578509641521,0.008395705372095108,0.04533381900864411,0.9873470292653076,0.06813420154506661,left,-0.0017516613006591797,-0.2137979449794031,-2.085225288964063,-9.353763024392723,-0.1022862489455737,0.004670620430260897,-0.0009154528379440308,2.080706057973951,-0.0007631778717041016
1746728757928987000,14.92598681640625,-0.21934232038094686,-0.0042557381093502045,-0.11237578509641521,0.009301749058067799,0.04533381900864411,0.9873470292653076,0.06813420154506661,left,-0.00042760372161865234,-0.2137979449794031,-2.085225288964063,-9.353763024392723,-0.1022862489455737,0.0023239615838974714,-0.0008492916822433472,2.080706057973951,0.0006162077188491821
1746728757968986600,14.965986572265624,-0.2187109854170323,-0.006280563771724701,-0.11205732750608485,0.009890836663544178,0.045231347907763966,0.9873810059969506,0.0679825340866317,left,-0.0005576014518737793,-0.21388758179722972,-2.0792789477802813,-9.354895827814936,-0.10235333728048111,-0.005891217850148678,-0.0006979256868362427,2.081565159021318,-0.0007101595401763916
1746728758008986600,15.005986572265625,-0.21831598214521902,-0.003804766107350588,-0.1118508041779867,0.00899316556751728,0.045090208917598996,0.9873988522055316,0.0677180013930102,left,-0.0008285045623779297,-0.2140723865011158,-2.075500306024402,-9.355340648972987,-0.10246838318792885,-0.003854860085994005,-0.0002446025609970093,2.083336114216596,-0.00005167722702026367
1746728758048986600,15.045986572265624,-0.21792108746010094,-0.001328968210145831,-0.11164429134380058,0.008095495402812958,0.04494906958574856,0.9874167827071185,0.0674535461026582,left,-0.001099705696105957,-0.21425736632479286,-2.0717223949208856,-9.35578313204348,-0.10258343967470956,-0.001818502089008689,0.00020879507064819336,2.0851086768470704,0.0006066411733627319
1746728758088986600,15.085986572265625,-0.21792108746010094,0.0013383349869400263,-0.11164429134380058,0.008334989659488201,0.04494906958574856,0.9874167827071185,0.0674535461026582,left,-0.001114487648010254,-0.21425736632479286,-2.0717223949208856,-9.35578313204348,-0.10258343967470956,-0.005088343285024166,0.0017188340425491333,2.0851086768470704,0.0007919073104858398
1746728758247071000,15.244071044921874,-0.21724023263807263,0.007431010715663433,-0.11130475567698005,-0.007431346923112869,0.04483348926539336,0.9874095285062804,0.06719250162109337,left,-0.0021947254426777363,-0.21518347587455114,-2.0649349267378447,-9.355301486006379,-0.1030708684153452,0.00042585679329931736,0.000929267902392894,2.09398215752393,0.004788513761013746
1746728758286939600,15.283939697265625,-0.21734656973687574,0.009107432328164577,-0.11137811793294933,-0.00666379276663065,0.04503318154619499,0.9873890114906105,0.06757432268186596,left,-0.000680844415910542,-0.21529309633923693,-2.065880098633468,-9.354857833892106,-0.10310138302016672,0.002482520416378975,0.00032320115133188665,2.0950323972292244,0.000621020095422864
1746728758326939600,15.323939697265626,-0.21734656973687574,0.005908377468585968,-0.11137811793294933,-0.0019382932223379612,0.04503318154619499,0.9873890114906105,0.06757432268186596,left,-0.0010126233100891113,-0.21529309633923693,-2.065880098633468,-9.354857833892106,-0.10310138302016672,0.0014656592393293977,0.0002552419900894165,2.0950323972292244,0.00031213462352752686
1746728758526152700,15.523152587890625,-0.21759846249888448,0.005912537686526775,-0.1115168911364704,0.024443354457616806,0.04517197611148273,0.9873568678856691,0.06780455079487227,left,-0.01158470381051302,-0.2155260647500379,-2.068131092430651,-9.353860055026411,-0.10319798319217037,0.0008966323221102357,0.00287202512845397,2.09726424793452,0.0026968407910317183
1746728758685627400,15.68262744140625,-0.2179698375957536,0.014978577382862568,-0.11176720110092755,-0.013662442564964294,0.04573630383017646,0.9872170351116233,0.06872163443030972,left,-0.0006191175198182464,-0.21729720845651107,-2.070798265813291,-9.349450421890616,-0.10401337152163344,-0.007110425271093845,-0.002783736912533641,2.114228096086532,0.003841312602162361
1746728758725496000,15.72249609375,-0.2185052426937886,0.009213639423251152,-0.11205699012928041,-0.013324041850864887,0.04597493426991311,0.9871459728743505,0.06908647965627616,left,-0.0029746592044830322,-0.2178842994598633,-2.075534208294004,-9.347126947379111,-0.1042707003764848,-0.008102013729512691,-0.0040801335126161575,2.1198497353605923,0.0050048623234033585
1746728758884972000,15.881971923828125,-0.21892884602918822,-0.0018957332940772176,-0.11229435428891266,0.007312610745429993,0.04632514121451607,0.98716530499596,0.06986765985664452,left,-0.001365138334222138,-0.2167879134980703,-2.079997032921761,-9.34850992617011,-0.10367550955239573,0.01736414059996605,-0.00022772920783609152,2.1093506993085143,-0.0013781266752630472
1746728758924840400,15.92184033203125,-0.21860792964207615,0.002312786877155304,-0.11213605247732543,0.010027075186371803,0.04634172554188117,0.9872122398854013,0.0699958065537735,left,-0.000680844415910542,-0.21621382823257984,-2.077259132390469,-9.35035759986341,-0.10339215205527941,0.009211057797074318,0.00032320115133188665,2.1038522480227053,0.000621020095422864
1746728758964840400,15.96184033203125,-0.2183427601310971,-0.003616719041019678,-0.11199769557310077,0.006213471293449402,0.04623463624624896,0.9872105835293006,0.06976480117733264,left,0.00023746490478515625,-0.2166090730488641,-2.074599411661923,-9.35009573405683,-0.10360648264899615,-0.007793905213475227,0.0015944242477416992,2.1076379040412605,0.00019569694995880127
1746728759004840700,16.0018408203125,-0.21830737235880665,-0.006071490701287985,-0.11196371704406495,-0.0007566418498754501,0.04605248219830171,0.9871986761612802,0.06935507773249396,left,0.0008823871612548828,-0.21702861717387043,-2.074076849092543,-9.349304875940083,-0.10383749989691309,-0.005483241751790047,0.0013671517372131348,2.1116559075109658,0.0006364136934280396
1746728759044840400,16.04184033203125,-0.21830737235880665,-0.0026108904276043177,-0.11196371704406495,-0.003217139048501849,0.04605248219830171,0.9871986761612802,0.06935507773249396,left,0.0001347661018371582,-0.21702861717387043,-2.074076849092543,-9.349304875940083,-0.10383749989691309,0.0035928143188357353,0.0009469091892242432,2.1116559075109658,0.0013385415077209473
1746728759084840400,16.08184033203125,-0.21830737235880665,0.0017964399885386229,-0.11196371704406495,-0.007548189722001553,0.04605248219830171,0.9871986761612802,0.06935507773249396,left,0.000091552734375,-0.21702861717387043,-2.074076849092543,-9.349304875940083,-0.10383749989691309,0.010821051895618439,0.00014303624629974365,2.1116559075109658,0.00045152008533477783
1746728759124840400,16.12184033203125,-0.21882467807162845,0.0011388233397156,-0.11221218577390817,-0.010247720405459404,0.04603824998819603,0.9871953309887866,0.06931921817575773,left,-0.0006427168846130371,-0.21658208228611248,-2.0791174736082554,-9.349149977639318,-0.10360700965581932,0.00946088321506977,-0.0000438690185546875,2.1073793992355463,-0.0004710853099822998
