time,seconds_elapsed,roll,rotationRateZ,quaternionY,rotationRateY,quaternionZ,quaternionW,yaw,devicelocation,accelerationZ,pitch,gravityX,gravityZ,quaternionX,rotationRateX,accelerationX,gravityY,accelerationY
1746728658361075700,0.25707568359375,0.09444232947059995,-0.03486906364560127,0.04649919203945193,-0.035468053072690964,-1.972236956335703e-17,0.9939394371604517,0.009450856807289548,left,0.009319543838500977,-0.19933034758042803,0.9064757428083569,-9.569635726082325,-0.09961018495731484,-0.024844974279403687,-0.23704147338867188,1.9418448459029196,-0.04241001605987549
1746728658400542700,0.296542724609375,-0.15976796552151987,0.0005418172804638743,-0.07446012417240809,-0.0500512532889843,-0.05144492952785852,0.9919546581726741,-0.11717222379421621,left,-0.0020356341265141964,-0.16874512322849988,-1.537971492050588,-9.544237665453553,-0.08851544724790354,-0.08563107252120972,0.002717866562306881,1.6469829247809946,0.0071033937856554985
1746728658440542700,0.336542724609375,-0.1570485963250927,0.03466663137078285,-0.07318419151585617,-0.046558260917663574,-0.0505833505797663,0.9920883418893942,-0.11522708852354129,left,-0.0003222823143005371,-0.1691558406780884,-1.5119056151628494,-9.547716155219078,-0.08857784842787857,-0.08481397479772568,-0.007053464651107788,1.6509534358471631,0.010040491819381714
1746728658480542700,0.376542724609375,-0.1543282538536386,0.06879143416881561,-0.07190808830006602,-0.04306527227163315,-0.049721671963654845,0.992219709289636,-0.11328074209255647,left,0.0013845562934875488,-0.16956135746958795,-1.4858239561840891,-9.551130932098626,-0.08864004238069527,-0.08399687707424164,-0.016826391220092773,1.6548732396394013,0.012982726097106934
1746728658520542700,0.416542724609375,-0.1574179935945558,0.036740802228450775,-0.07336492621020711,-0.043983686715364456,-0.049263646197586115,0.9919970301427584,-0.11288316596465713,left,0.0016812682151794434,-0.17254403984985597,-1.514546777321398,-9.541577506333589,-0.09018051864013443,-0.05709050968289375,-0.014243662357330322,1.683696452411264,0.0125703364610672
1746728658560542700,0.456542724609375,-0.16050817056257544,0.004690162837505341,-0.0748214159194391,-0.044902101159095764,-0.04880546058645034,0.991769673717916,-0.1124948974671698,left,0.0019602179527282715,-0.17552791570906726,-1.543214799531549,-9.531849893045425,-0.09172056681582037,-0.03018413856625557,-0.01166650652885437,1.712516304182261,0.01215827465057373
1746728658600542700,0.496542724609375,-0.16359881546470803,-0.027360472828149796,-0.07627755214260637,-0.04582051560282707,-0.048346986349258866,0.9915376056781732,-0.11211567986342774,left,0.002221524715423584,-0.17851297398901347,-1.5718274382926523,-9.521948676756024,-0.09326018163565436,-0.003277769312262535,-0.009094998240470886,1.7413322104305027,0.011746630072593689
1746728658640542700,0.536542724609375,-0.1642887911079209,-0.00179331935942173,-0.07660382107281066,-0.02019365131855011,-0.04847417328737654,0.9915024942773325,-0.11243909939820661,left,-0.0029988884925842285,-0.1785354231906178,-1.5783905962005256,-9.520823472118376,-0.09330036088600037,-0.025595270097255707,-0.009959116578102112,1.741548921921104,0.022088810801506042
1746728658680542700,0.576542724609375,-0.16533474459544928,0.045076560229063034,-0.07707321572875936,0.0087601812556386,-0.047958656282009814,0.9913683798282785,-0.11172786154441516,left,0.00003653764724731445,-0.18115586748324347,-1.5875915552660822,-9.514632800784707,-0.09459616932060848,-0.03304971382021904,-0.011600151658058167,1.7668321239985525,0.019649744033813477
1746728658720542700,0.616542724609375,-0.16551695688785054,0.049352556467056274,-0.07713852730887527,0.013369562104344368,-0.04725657483002046,0.9912782079322984,-0.11055583026285495,left,0.001144111156463623,-0.18373587522755702,-1.5885688758656382,-9.509815755891799,-0.09583305497702685,-0.021421687677502632,-0.005928367376327515,1.7917134672768413,0.01492471992969513
1746728658760542700,0.656542724609375,-0.16616649379545081,0.029172299429774284,-0.07742815533421483,0.0043699368834495544,-0.04647832149000234,0.9911522498421018,-0.1093109173226814,left,0.0025801658630371094,-0.18670826797510376,-1.59385748379305,-9.503487721914052,-0.09727206100686704,-0.008178004063665867,-0.0025060176849365234,1.820364099960774,0.006959691643714905
1746728658800542700,0.696542724609375,-0.16722902701534353,-0.005674494430422783,-0.07791091592754232,-0.008750400505959988,-0.04614862903315222,0.9910303563160067,-0.10892925356242657,left,0.0038766860961914062,-0.18872553610896417,-1.6033398901484905,-9.498148698973655,-0.09828063069465032,0.0009196987375617027,0.0009618550539016724,1.8397991605319082,0.006784558296203613
1746728658840542700,0.736542724609375,-0.1685027837996809,-0.008953589014708996,-0.07850943445115134,-0.01795334927737713,-0.046366153019868205,0.990961039655307,-0.10950682425477931,left,0.0011868476867675781,-0.18886191014629314,-1.6153947773404418,-9.495850943425298,-0.0984001978636103,0.013835087418556213,-0.0013753026723861694,1.8411128734789788,0.009240642189979553
1746728658880542700,0.776542724609375,-0.16939852758162935,-0.009187129326164722,-0.07894548378471705,-0.0277777798473835,-0.04643064646735599,0.9909247438770108,-0.10971830951417048,left,0.004296302795410156,-0.18877701117006088,-1.6239263127118349,-9.494554473873972,-0.09838726640321172,0.021383274346590042,-0.0040405988693237305,1.8402949812248348,0.006405383348464966
1746728658920542700,0.816542724609375,-0.17029420572657064,-0.009420669637620449,-0.07938151441916103,-0.03760220855474472,-0.0464950798077255,0.9908881561998013,-0.10992959979935739,left,0.00740504264831543,-0.18869190707219066,-1.6324563867785036,-9.493250405538081,-0.0983743116947535,0.02893146313726902,-0.006706029176712036,1.8394751892745493,0.0035703033208847046
1746728658960542700,0.856542724609375,-0.17146035115601432,-0.019961006939411163,-0.07993948656607543,-0.01911059021949768,-0.04674318373784957,0.9908410349881912,-0.11051937365420887,left,0.002623915672302246,-0.1883976162511636,-1.6436179783925413,-9.49187327196598,-0.09827931570341181,0.00957982987165451,-0.007533535361289978,1.836640404240042,0.003123268485069275
1746728659000542700,0.896542724609375,-0.17181246967002684,-0.02352191135287285,-0.0800685206136685,0.0024068597704172134,-0.047106073579038746,0.9907990010127293,-0.11130626525855186,left,0.001636803150177002,-0.18861064841320738,-1.6468932006709276,-9.490908226326107,-0.09842449934024862,-0.006624788045883179,-0.00516161322593689,1.838692514464259,0.0035753846168518066
1746728659040542700,0.936542724609375,-0.17216474705347837,-0.027082815766334534,-0.0801975363109304,0.023924309760332108,-0.047468908467145875,0.9907567592743344,-0.11209316416323256,left,0.000649571418762207,-0.18882339522153738,-1.650169445862621,-9.489941427120566,-0.09856965942049874,-0.022829407826066017,-0.002789601683616638,1.8407418482095002,0.004027813673019409
1746728659080542700,0.976542724609375,-0.17227846558171633,-0.03429677337408066,-0.08016464603152378,0.02401839569211006,-0.04818683333545485,0.9906954255271379,-0.11359673218742342,left,0.0026253461837768555,-0.189292024067924,-1.6511005892328916,-9.488903316244482,-0.09886457944996575,-0.011153878644108772,-0.00038808584213256836,1.8452556723721325,0.003611266613006592
1746728659120542700,1.016542724609375,-0.17222159980834306,-0.02172786556184292,-0.08006391085758134,0.004774950444698334,-0.04882882861252033,0.9906553378619471,-0.11490881227979434,left,0.00465703010559082,-0.18952842038507833,-1.650486256726831,-9.488567216157913,-0.09903274493064593,-0.0021880334243178368,-0.0013489872217178345,1.8475323851324617,0.008119240403175354
1746728659160542700,1.056542724609375,-0.17242148797363743,-0.009836188517510891,-0.08017168511014898,0.00024358928203582764,-0.0487261823720051,0.9906512804714066,-0.11472282033248205,left,0.0015029311180114746,-0.18954207422834263,-1.652378500214219,-9.488211826848984,-0.0990369236436683,-0.001099877990782261,-0.0006154477596282959,1.8476639025576411,0.0058480799198150635
1746728659200542700,1.096542724609375,-0.17242148797363743,0.002055487595498562,-0.08017168511014898,-0.0042877718806266785,-0.0487261823720051,0.9906512804714066,-0.11472282033248205,left,-0.0016150474548339844,-0.18954207422834263,-1.652378500214219,-9.488211826848984,-0.0990369236436683,-0.000011722557246685028,-0.00007487833499908447,1.8476639025576411,0.0035903453826904297
1746728659240542700,1.136542724609375,-0.17242148797363743,0.01394716277718544,-0.08017168511014898,-0.008819133043289185,-0.0487261823720051,0.9906512804714066,-0.11472282033248205,left,-0.004732966423034668,-0.18954207422834263,-1.652378500214219,-9.488211826848984,-0.0990369236436683,0.0010764328762888908,0.00046569108963012695,1.8476639025576411,0.0013326257467269897
1746728659280543000,1.17654296875,-0.17275248507308621,0.034265726804733276,-0.08042104004034258,-0.003438337240368128,-0.04788404919450493,0.9906819241775716,-0.11304854843787573,left,-0.0030702948570251465,-0.18946359789100606,-1.6555439785078168,-9.48780733770132,-0.0989388642206988,0.02069571241736412,0.0008363127708435059,1.8469081157542764,-0.007647916674613953
1746728659320542700,1.216542724609375,-0.1722468042244401,0.02922757714986801,-0.08028164160710459,0.012676697224378586,-0.0471912189886716,0.9907875779316967,-0.11149967698771057,left,-0.006028294563293457,-0.18837458219941347,-1.6510896294474602,-9.490619472512602,-0.09832564539253937,0.028372112661600113,0.002011999487876892,1.8364185781829059,-0.00932207703590393
1746728659360542700,1.256542724609375,-0.17162414802555556,0.0211807694286108,-0.08004459439770492,-0.0018348698504269123,-0.04654761042072419,0.9908502708121888,-0.11012720453751798,left,0.0025763511657714844,-0.1882478990375641,-1.645219714500755,-9.49187444100976,-0.09819334481261659,-0.017580367624759674,-0.0025184601545333862,1.8351980964772403,-0.00935448706150055
1746728659400542700,1.296542724609375,-0.17245479264199684,0.002385791391134262,-0.08045371425699535,-0.008142775855958462,-0.04653335077898211,0.9908160124183448,-0.11018014945528662,left,0.0003972649574279785,-0.1882413487810126,-1.6531054993145167,-9.490516596660017,-0.09821155504144805,-0.007318479008972645,-0.002183765172958374,1.8351349681131541,-0.009463280439376831
1746728659440542700,1.336542724609375,-0.17328540792964858,-0.01640918478369713,-0.08086281506837638,-0.014450682327151299,-0.046519036184157904,0.9907815462615678,-0.11023298717904066,left,-0.0017824172973632812,-0.18823474277427127,-1.6609899689540266,-9.489152322569488,-0.09822974233073926,0.002943410538136959,-0.0018491894006729126,1.8350714013576506,-0.009572044014930725
1746728659480542700,1.376542724609375,-0.1736679531555044,0.011387309059500694,-0.08106632824374349,-0.01107448898255825,-0.04650210946523631,0.9907843988651068,-0.11020029706227993,left,0.0008552670478820801,-0.18783942022102681,-1.6647452298343182,-9.489230063980818,-0.09804164664379046,-0.0038441354408860207,-0.004423081874847412,1.8312629489853978,-0.0028888732194900513
1746728659520542700,1.416542724609375,-0.17405047510700258,0.03918379917740822,-0.08126983224394177,-0.007698295637965202,-0.04648521708324967,0.9907871226876569,-0.1101675258953582,left,0.0034926533699035645,-0.1874440849909157,-1.6685000523231923,-9.489304882782697,-0.09785353917854821,-0.010631681419909,-0.006997019052505493,1.8274540582217276,0.0037943273782730103
1746728659560542700,1.456542724609375,-0.17369192225013458,0.041215598583221436,-0.08115899824523241,0.004948487505316734,-0.04567658220368473,0.9908207392346726,-0.10853823623708503,left,0.0023386478424072266,-0.18786059697025612,-1.6649658868476747,-9.4891517380476,-0.09798527884844394,-0.012553772889077663,-0.005182221531867981,1.8314669471248983,-0.00006529688835144043
1746728659600542700,1.496542724609375,-0.17333270464362632,0.04324739798903465,-0.08104812684827577,0.01759527064859867,-0.04486791124586321,0.990853766829826,-0.10690867202278725,left,0.0011845827102661133,-0.18827659293743865,-1.6614255838923155,-9.488998008790611,-0.09811697202221895,-0.014475864358246326,-0.0033680349588394165,1.835474575331062,-0.003924384713172913
1746728659640542700,1.536542724609375,-0.1729727421034072,0.04527920112013817,-0.08093718843484145,0.030242053791880608,-0.04405919905574693,0.9908861213371359,-0.10527880070032103,left,0.00003045797348022461,-0.18869199126851535,-1.6578784128047526,-9.488843695011735,-0.09824858521612094,-0.016397954896092415,-0.0015545636415481567,1.839476066057384,-0.007782831788063049
1746728659680542700,1.576542724609375,-0.1724273857732086,0.009387198835611343,-0.08068295124786451,0.01251436211168766,-0.043468932007054505,0.9908738471341095,-0.10415352492570835,left,-0.0005099177360534668,-0.19000739649476697,-1.6522867302775381,-9.487354333236812,-0.09884233112565594,-0.04715043306350708,0.003214314579963684,1.8521452857553957,-0.0046676695346832275
1746728659720542700,1.616542724609375,-0.17189012434107476,-0.008555706590414047,-0.0803019726811086,0.016595035791397095,-0.043832889487618217,0.9907699713882516,-0.10504811376025315,left,-0.0009704828262329102,-0.1923503480934116,-1.6464425342939792,-9.483938971835375,-0.10002632483045545,-0.05886517092585564,0.004157766699790955,1.8747031545221804,-0.0012902617454528809
1746728659760542700,1.656542724609375,-0.17133848577931135,-0.018016140908002853,-0.0799130905823576,0.016678865998983383,-0.04433229112918287,0.9906782358534956,-0.10617729259334022,left,0.0012934207916259766,-0.19429317665607124,-1.6405865017421544,-9.481239065226912,-0.1010209535107177,-0.05277783423662186,0.003966659307479858,1.893400840729475,0.001100495457649231
1746728659800542700,1.696542724609375,-0.1707888766914399,-0.02747657522559166,-0.0795240973352367,0.01676269620656967,-0.04483164979713133,0.9905851094980449,-0.10730585088814093,left,0.0035529136657714844,-0.196236612349568,-1.6347468358032404,-9.478495319476723,-0.10201544177703023,-0.046690501272678375,0.003777250647544861,1.9120972117625177,0.0034913718700408936
1746728659840542700,1.736542724609375,-0.1702018908393899,-0.011737193912267685,-0.07916234333227068,0.018562227487564087,-0.04519606437986269,0.9905431510485286,-0.10807432359185105,left,0.002054870128631592,-0.19726503172116425,-1.6288488638058305,-9.477509815570711,-0.10254161700254913,-0.04189100116491318,0.002464205026626587,1.9219880527883766,0.007367879152297974
1746728659880542700,1.776542724609375,-0.16961560195865924,0.004002189263701439,-0.07880054345347379,0.020361758768558502,-0.04556045319240947,0.9905007719191099,-0.10884234570543433,left,0.0005551576614379883,-0.19829391126048554,-1.6229573215492068,-9.476509114095569,-0.10306773333659473,-0.03709150478243828,0.0011518150568008423,1.9318812319017946,0.01124417781829834
1746728659920542700,1.816542724609375,-0.16922048343881538,0.01613987609744072,-0.07856660588636212,0.011220305226743221,-0.045395645778434565,0.9904456288539151,-0.10861358595988752,left,0.0042458176612854,-0.1999028622593808,-1.618687243014574,-9.474073411381244,-0.10384582759206153,-0.04968860372900963,0.0013350099325180054,1.947347827233374,0.010696321725845337
1746728659960542700,1.856542724609375,-0.16809912555869158,-0.005004968494176865,-0.07787599004054217,0.030093230307102203,-0.04541915083814481,0.9902978764853357,-0.10889109092917702,left,0.00016325712203979492,-0.2037772076714668,-1.6067881309062242,-9.46837315391302,-0.10574795089591084,-0.06362094730138779,0.0032500922679901123,1.9845709118209778,0.0014970749616622925
1746728660000542700,1.896542724609375,-0.1670501667120751,-0.02008916437625885,-0.07721785491666144,0.029788844287395477,-0.04582997685592704,0.9901808687790895,-0.10985750508181623,left,0.0008727908134460449,-0.20656167963641897,-1.5959301984138785,-9.464567916411161,-0.10713884823914933,-0.07502542436122894,0.002489343285560608,2.0113046049676835,0.0005464255809783936
1746728660040542700,1.936542724609375,-0.16600339653933344,-0.035173360258340836,-0.07655953688037383,0.02948445826768875,-0.046240698051652256,0.9900614606203832,-0.1108215434689113,left,0.0015730857849121094,-0.20934720024333137,-1.585090239969641,-9.46067090897262,-0.1085294895995779,-0.0864298939704895,0.0017304271459579468,2.0380325990259647,-0.0004037022590637207
1746728660080542700,1.976542724609375,-0.16555817082599042,-0.03286588937044144,-0.07618976618197819,0.024125032126903534,-0.04689973747727115,0.9899363416815886,-0.11229577438462775,left,-0.00012665987014770508,-0.21150493886975955,-1.580149568697065,-9.4570164781183,-0.10964245421160733,-0.08857423067092896,0.00335066020488739,2.0587259890951217,0.0036762207746505737
1746728660120542700,2.016542724609375,-0.16521379573661646,-0.022870652377605438,-0.07584077121613322,0.00942161027342081,-0.04761203038355694,0.9897734197832143,-0.1139379531146073,left,0.0020815134048461914,-0.2142205455406139,-1.57596746070683,-9.452010632655025,-0.11103941405914546,-0.06768444180488586,0.002219945192337036,2.084756064017117,0.0037381350994110107
1746728660160542700,2.056542724609375,-0.1650816422608334,-0.019968930631875992,-0.07559278743708008,-0.0035033593885600567,-0.048318517492528884,0.9895984391367112,-0.11559452345445033,left,0.0021287202835083008,-0.21696184322066933,-1.5737731655329465,-9.446545937508343,-0.11245407483495078,-0.04274367541074753,-0.0006287097930908203,2.111016586694121,0.008915722370147705
1746728660200542700,2.096542724609375,-0.16568368703924605,-0.008298266679048538,-0.07581826903484751,-0.015182530507445335,-0.04856428636291313,0.9895049281116309,-0.11625445392462365,left,-0.0009627938270568848,-0.21802289375779865,-1.5790898305110632,-9.44338250504136,-0.11301806528629615,-0.028666067868471146,-0.002573743462562561,2.1211767461806534,0.008988022804260254
1746728660240542700,2.136542724609375,-0.16620055597459815,0.006734350696206093,-0.07605119170439845,0.008357228711247444,-0.048361459180930974,0.9894336613604309,-0.11600328224572502,left,-0.0050754547119140625,-0.2191360313237631,-1.5835791047543286,-9.44023017849028,-0.11357117656983559,-0.01680932007730007,0.0007363259792327881,2.1318331647515296,0.005979105830192566
1746728660280543000,2.17654296875,-0.16625362022394072,0.009152907878160477,-0.07607131615235078,-0.009408550336956978,-0.04812000946670298,0.9893957121127,-0.1155998373722591,left,0.0039536356925964355,-0.22001190323458428,-1.5837703895427286,-9.438301256254315,-0.11398995444745595,-0.012827271595597267,-0.0009789615869522095,2.1402163776934144,0.00537225604057312
1746728660320542700,2.216542724609375,-0.16690114147470997,0.008691370487213135,-0.07639839591261931,-0.021150633692741394,-0.04790768641235068,0.9893603700846872,-0.11527690945804124,left,0.002321779727935791,-0.22036389805270376,-1.5897563320845365,-9.436530154928564,-0.11416713435446302,0.006913883611559868,0.0006117820739746094,2.143584977343678,0.005331933498382568
1746728660360542700,2.256542724609375,-0.16794120754872544,0.01293167658150196,-0.07696867841011636,-0.028912503272294998,-0.04750721894493938,0.9893604110695519,-0.11454837776828067,left,0.001326918601989746,-0.21993282993126498,-1.5997243299998343,-9.435781966909765,-0.11395099535081135,0.009741753339767456,-0.0012010782957077026,2.139459567976743,0.005766540765762329
1746728660400542700,2.296542724609375,-0.1689814914546621,0.017171982675790787,-0.07753891712451585,-0.0366743728518486,-0.047106720553307294,0.9893599472385337,-0.1138194471067531,left,0.0003305673599243164,-0.21950250762471696,-1.609694081480801,-9.435019165843725,-0.11373479560455091,0.01256962213665247,-0.0030137449502944946,2.135341026742011,0.006200447678565979
1746728660440542700,2.336542724609375,-0.16996947122498227,0.01775544323027134,-0.07807923812651268,-0.025945860892534256,-0.046655123691922096,0.9893490591256185,-0.11300526861892425,left,-0.0005702972412109375,-0.21934013819611164,-1.6190734658531845,-9.433765950912237,-0.11364604287875657,0.011687093414366245,-0.005163431167602539,2.133786929167807,0.0036220401525497437
1746728660480542700,2.376542724609375,-0.17036231899840415,0.010200336575508118,-0.07830282385291387,-0.014114896766841412,-0.04645677033939079,0.9893549605005069,-0.11262748843426025,left,-0.0005312561988830566,-0.2191006148463993,-1.6228659900039433,-9.433632679921388,-0.113522056712206,0.007021590601652861,-0.0045622289180755615,2.131494288185984,0.001550525426864624
1746728660520542700,2.416542724609375,-0.17075525667848,0.002645229920744896,-0.07852639970656682,-0.002283932641148567,-0.0462584959688027,0.9893607725853784,-0.11224980380713309,left,-0.0004924535751342773,-0.21886122786200268,-1.6266593909375369,-9.433496486321092,-0.11339805938440581,0.0023560873232781887,-0.003960937261581421,2.1292026701174676,-0.0005211532115936279
1746728660560542700,2.456542724609375,-0.17075525667848,-0.006499377079308033,-0.07852639970656682,0.012449190951883793,-0.0462584959688027,0.9893607725853784,-0.11224980380713309,left,-0.0015105009078979492,-0.21886122786200268,-1.6266593909375369,-9.433496486321092,-0.11339805938440581,-0.0027507608756422997,-0.002067655324935913,2.1292026701174676,-0.003175795078277588
1746728660600542700,2.496542724609375,-0.17020952722641983,-0.014644857496023178,-0.07822456807894623,0.016758589074015617,-0.046582308880062276,0.9893708322309963,-0.11283772007035692,left,-0.00044673681259155273,-0.21881621070185375,-1.6215272887460888,-9.434477314051986,-0.11338618855575316,-0.0014679895248264074,-0.00016380846500396729,2.128771731354296,-0.0013431459665298462
1746728660640542700,2.536542724609375,-0.16976491488776968,-0.013714060187339783,-0.07796985784512007,0.01436191238462925,-0.046975401921837696,0.9893813771778651,-0.1135635738142498,left,-0.0014669299125671387,-0.21862097085933904,-1.6174026100315153,-9.43560719486475,-0.11330764908888215,-0.0003178897313773632,0.0005609393119812012,2.1269027226120234,0.0007068663835525513
1746728660680542700,2.576542724609375,-0.16954782663259313,-0.011233923025429249,-0.07784602048181985,0.00638227816671133,-0.04723430476544984,0.9893947374883891,-0.11403377117674988,left,0.00014901161193847656,-0.21831065702442481,-1.615465504489094,-9.436607896339893,-0.11316751736751227,0.005210456904023886,0.0017338097095489502,2.1239318901076913,0.0002494603395462036
1746728660720542700,2.616542724609375,-0.169330675177072,-0.008753785863518715,-0.07772219159610491,-0.0015973541885614395,-0.04749325225407081,0.9894081372898853,-0.11450412820972772,left,0.001764833927154541,-0.21800051457006098,-1.613527229902893,-9.437607428771257,-0.11302739804148469,0.010738803073763847,0.0029065608978271484,2.120962518908083,-0.00020812451839447021
1746728660760542700,2.656542724609375,-0.1695656753769878,-0.006669914349913597,-0.07784163202689529,-0.011865433305501938,-0.04766692528747849,0.9894246495646754,-0.11482337385977016,left,0.001270890235900879,-0.2173573090606008,-1.6159749153159557,-9.43857072084546,-0.11272753883414056,0.018088538199663162,0.002568364143371582,2.1148037040174006,0.0008173435926437378
1746728660800542700,2.696542724609375,-0.16990648019213808,0.004127741791307926,-0.07803835283319871,-0.013320042751729488,-0.04766497393646899,0.9894527648217876,-0.11478619628128198,left,0.0014328956604003906,-0.21656863114224173,-1.6194729865647852,-9.439660269647836,-0.11234445988714183,0.02243686653673649,0.0019321292638778687,2.1072508044198153,0.0018243789672851562
1746728660840542700,2.736542724609375,-0.17018992116413273,0.003223010106012225,-0.07821327918873917,-0.006339204031974077,-0.047540798427678395,0.9894784442650071,-0.11451351056775891,left,-0.0011454224586486816,-0.21597970390301027,-1.622358478873223,-9.440422486191988,-0.11204949340354908,0.007149530574679375,0.001827821135520935,2.101609875923395,0.0012086480855941772
1746728660880542700,2.776542724609375,-0.17018992116413273,0.008564908057451248,-0.07821327918873917,-0.0162102859467268,-0.047540798427678395,0.9894784442650071,-0.11451351056775891,left,-0.00040590763092041016,-0.21597970390301027,-1.622358478873223,-9.440422486191988,-0.11204949340354908,-0.0006958860903978348,-0.00040553510189056396,2.101609875923395,0.0007199794054031372
1746728660920542700,2.816542724609375,-0.1704187340857609,0.014498166739940643,-0.07836011470779816,0.00584159791469574,-0.04721460267989953,0.9894818739604062,-0.11388456668554202,left,-0.002786695957183838,-0.21602858223765323,-1.624501043859869,-9.43994960798323,-0.1120544524512995,0.0016668261960148811,0.00026237964630126953,2.102078077957034,0.00012284517288208008
1746728660960542700,2.856542724609375,-0.1704187340857609,0.014124811626970768,-0.07836011470779816,-0.009763851761817932,-0.04721460267989953,0.9894818739604062,-0.11388456668554202,left,0.0030255913734436035,-0.21602858223765323,-1.624501043859869,-9.43994960798323,-0.1120544524512995,-0.003543107770383358,-0.00016529858112335205,2.102078077957034,0.0016207844018936157
1746728661000542700,2.896542724609375,-0.1708906453502299,0.010934848338365555,-0.07863052516405518,-0.01716635562479496,-0.04675174342942243,0.9894663553210155,-0.11303281370778999,left,0.0037180185317993164,-0.21635961855203287,-1.628837319498509,-9.43849590204358,-0.11219571691921648,-0.008197782561182976,0.00010149180889129639,2.105248816947639,0.0024009495973587036
1746728661040542700,2.936542724609375,-0.1717003058478488,0.006112664006650448,-0.07904864662533032,-0.017293887212872505,-0.04654977634626551,0.9894415265189463,-0.11271685460496089,left,0.0017400383949279785,-0.21636472108813362,-1.6364768744662403,-9.437163192135095,-0.11220467162003994,0.00021513551473617554,-0.0012522637844085693,2.1052977706559,0.0021809935569763184
1746728661080542700,2.976542724609375,-0.17250995527621937,0.0012904796749353409,-0.07946675043385253,-0.0174214169383049,-0.04634775431002662,0.9894164899539443,-0.11240080865780089,left,-0.00023853778839111328,-0.21637008246999997,-1.644115260390192,-9.435824052485824,-0.11221360214723028,0.008628053590655327,-0.002606138586997986,2.10534906245172,0.0019607990980148315
1746728661120542700,3.016542724609375,-0.1732489658930227,-0.0004013169091194868,-0.07984430686180903,-0.019172238186001778,-0.046273882235110295,0.9894003245603957,-0.11231485615210468,left,0.0005397796630859375,-0.21614998311993472,-1.6511678092502056,-9.435062420463561,-0.1121185226756131,0.011006494052708149,-0.005139514803886414,2.1032409842565656,0.002568542957305908
1746728661160542700,3.056542724609375,-0.17372942391959517,-0.00012834480730816722,-0.08009298453725694,0.0018750615417957306,-0.04627027637513038,0.9893993631138428,-0.11232830325109676,left,-0.0010047554969787598,-0.21578796779157783,-1.6558322939299046,-9.435017412278055,-0.11195127328725973,0.006678848061710596,-0.0031552761793136597,2.0997733081459997,0.0023006945848464966
1746728661200542700,3.096542724609375,-0.17372942391959517,-0.00441765645518899,-0.08009298453725694,0.0037791754584759474,-0.04627027637513038,0.9893993631138428,-0.11232830325109676,left,0.0003095865249633789,-0.21578796779157783,-1.6558322939299046,-9.435017412278055,-0.11195127328725973,-0.001344012562185526,-0.0023687779903411865,2.0997733081459997,0.0011553764343261719
1746728661240542700,3.136542724609375,-0.17359419744736618,-0.011863254010677338,-0.07999231330418931,0.01051394920796156,-0.046541530911896965,0.989386884631128,-0.1128710139008332,left,0.00006777048110961914,-0.21589204317639016,-1.654518580982834,-9.435026180106401,-0.11202128374375334,-0.005183124914765358,0.0014992058277130127,2.1007702102288603,-0.0008500516414642334
1746728661280543000,3.17654296875,-0.1734645265450317,-0.010694272816181183,-0.07989705121793367,0.00618482381105423,-0.0468601921728595,0.9893831564189033,-0.11349033230398878,left,0.00004225969314575195,-0.2157828736210857,-1.6533347780257464,-9.435466325089335,-0.11198906753226748,-0.000916704535484314,0.0012510418891906738,2.099724500568211,0.0005280822515487671
1746728661320542700,3.216542724609375,-0.1733348072252555,-0.009525291621685028,-0.07980177856135413,0.0018556984141469002,-0.04717889292479335,0.9893793835616701,-0.11410974769801596,left,0.000016689300537109375,-0.21567379445077706,-1.6521502444162963,-9.435906470072268,-0.11195684077657718,0.00334971584379673,0.0010028034448623657,2.098679521559924,0.0019061416387557983
1746728661360542700,3.256542724609375,-0.1733348072252555,-0.004346488509327173,-0.07980177856135413,0.0001248369226232171,-0.04717889292479335,0.9893793835616701,-0.11410974769801596,left,-0.0007226467132568359,-0.21567379445077706,-1.6521502444162963,-9.435906470072268,-0.11195684077657718,-0.00021749502047896385,0.0023019909858703613,2.098679521559924,0.001796826720237732
1746728661400542700,3.296542724609375,-0.1733348072252555,0.002612507436424494,-0.07980177856135413,-0.004986921790987253,-0.04717889292479335,0.9893793835616701,-0.11410974769801596,left,0.0007026195526123047,-0.21567379445077706,-1.6521502444162963,-9.435906470072268,-0.11195684077657718,-0.0052052997052669525,0.0011367648839950562,2.098679521559924,0.00251924991607666
1746728661440542700,3.336542724609375,-0.1737518200421407,0.0046110209077596664,-0.07999054452739059,-0.011377502232789993,-0.04720495676824967,0.9893437106723046,-0.11423878460869988,left,0.00023746490478515625,-0.2159865023024497,-1.65597141013965,-9.434569668510555,-0.11212635800511778,0.0012751915492117405,0.0003841817378997803,2.1016750501140953,0.0008513033390045166
1746728661480542700,3.376542724609375,-0.1737518200421407,6.011687219142914e-7,-0.07999054452739059,-0.008061796426773071,-0.04720495676824967,0.9893437106723046,-0.11423878460869988,left,-0.0007073283195495605,-0.2159865023024497,-1.65597141013965,-9.434569668510555,-0.11212635800511778,0.013114199042320251,0.000827103853225708,2.1016750501140953,0.0006978511810302734
1746728661520542700,3.416542724609375,-0.1742527571708967,-0.011596614494919777,-0.08026520592624656,-0.009108046069741249,-0.04725412749975308,0.9893695387848553,-0.1143077952188951,left,-0.0007303953170776367,-0.2150541188671832,-1.6610364384442566,-9.435664478009938,-0.11168022499698395,0.02363721653819084,0.002556413412094116,2.0927429711177945,-0.0014925450086593628
1746728661560542700,3.456542724609375,-0.17466933170963814,-0.012497669085860252,-0.08048356837102115,-0.015034282580018044,-0.04746603128415314,0.9893952789789633,-0.11468812280851372,left,0.004397153854370117,-0.2140394219188291,-1.6653350124210118,-9.43705856271684,-0.11120395646191597,0.020640354603528976,0.0010582208633422852,2.0830203262656926,0.0003956258296966553
1746728661600542700,3.496542724609375,-0.17465197629600757,-0.012859363108873367,-0.08047486392823294,-0.008326034061610699,-0.04767177927518876,0.9894177226306442,-0.11504610264638121,left,0.004484772682189941,-0.2134418324579525,-1.6653873271301387,-9.43831119312644,-0.11092263252349054,0.006838459521532059,-0.0001122504472732544,2.0772933269210156,0.00019247829914093018
1746728661640542700,3.536542724609375,-0.17463441674958416,-0.013221056200563908,-0.0804661587878636,-0.0016177850775420666,-0.04787751695815174,0.9894399980103646,-0.11540403819332568,left,0.004572093486785889,-0.21284426679868734,-1.6654368653602898,-9.439561485448479,-0.11064130920211918,-0.006963435560464859,-0.001283019781112671,2.071565889184922,-0.000010609626770019531
1746728661680542700,3.576542724609375,-0.17493731803926757,-0.012749701738357544,-0.08056309831591321,-0.0028794100508093834,-0.04819012572973201,0.9893898543268296,-0.11610893244974088,left,0.004379630088806152,-0.21326107798223481,-1.6681456859275698,-9.438205394664406,-0.11088294040187836,-0.010679537430405617,-0.0008450150489807129,2.0755609501704573,0.0006009787321090698
1746728661720542700,3.616542724609375,-0.1752405370045234,-0.012278348207473755,-0.08066002019120873,-0.0041410350240767,-0.04850272419323847,0.9893395423713334,-0.11681401267843129,left,0.0041869282722473145,-0.21367766940123695,-1.6708565523214638,-9.436846965792775,-0.1111245474280018,-0.014395639300346375,-0.000406801700592041,2.0795535269379615,0.0012128353118896484
1746728661760542700,3.656542724609375,-0.1758380394481151,0.00247760396450758,-0.08092707694545148,-0.018964692950248718,-0.048607940843419926,0.9892911244719074,-0.11712525701075177,left,0.0041255950927734375,-0.21401049097510247,-1.676373708307743,-9.435164711794256,-0.11131606700065086,-0.004718773066997528,0.00032483041286468506,2.0827431167595085,0.003173723816871643
1746728661800542700,3.696542724609375,-0.17659776312326722,0.01375106442719698,-0.08131704922558877,-0.02616928704082966,-0.048372322501802255,0.9892594474417835,-0.1167528645558534,left,0.0029783248901367188,-0.2142053661494884,-1.6834699501790105,-9.433488887536525,-0.11141567166240167,-0.00339846545830369,-0.0008169710636138916,2.084610518066585,0.003303617238998413
1746728661840542700,3.736542724609375,-0.1776040295257969,0.011945953592658043,-0.08184065280565696,-0.025279346853494644,-0.04796744075104209,0.9892170685183984,-0.11608056590615362,left,-0.0017834305763244629,-0.21455121924448872,-1.692834136982262,-9.431080072829127,-0.11158336172174473,-0.0009416528046131134,-0.0001379847526550293,2.0879246110506355,0.0000588148832321167
1746728661880542700,3.776542724609375,-0.17851588048282907,0.0007754312828183174,-0.08228025002248117,-0.020132893696427345,-0.04794380712281032,0.9891669585074128,-0.11615617426727616,left,-0.0012519359588623047,-0.2147656557679066,-1.7013536896549164,-9.429091529360413,-0.11171427059667248,0.0005162719171494246,-0.0011886060237884521,2.0899792054928836,0.0004043877124786377
1746728661920542700,3.816542724609375,-0.17942781565829816,-0.010395092889666557,-0.08271982958654743,-0.014986440539360046,-0.047920247322484885,0.9891166750704298,-0.11623216083776367,left,-0.0007211565971374512,-0.21498001857494486,-1.7098717810228465,-9.427094802585243,-0.11184515529796306,0.001974196871742606,-0.0022393614053726196,2.09203306928277,0.0007500201463699341
1746728661960542700,3.856542724609375,-0.1799724381120135,-0.011395451612770557,-0.08298384540523933,-0.003271740861237049,-0.04809340440139617,0.989108221248408,-0.11660016339591306,left,-0.0019342303276062012,-0.21452681820180028,-1.715175148127973,-9.427094218063354,-0.11164959683563103,0.016650600358843803,-0.002515941858291626,2.0876908022947607,0.0003496408462524414
1746728662000542700,3.896542724609375,-0.18001953629812376,-0.009999419562518597,-0.083014408783429,0.0036157756112515926,-0.048271032170816956,0.9891348365965211,-0.1168964967778862,left,-0.0030401945114135742,-0.21382049247300236,-1.7158828580059111,-9.42846199928522,-0.1113141016752428,0.015067139640450478,-0.0012229681015014648,2.080922331073135,-0.00024010241031646729
1746728662040542700,3.936542724609375,-0.18001953629812376,-0.0023391079157590866,-0.083014408783429,0.0012472551316022873,-0.048271032170816956,0.9891348365965211,-0.1168964967778862,left,-0.0009781122207641602,-0.21382049247300236,-1.7158828580059111,-9.42846199928522,-0.1113141016752428,0.006359570659697056,-0.0007439255714416504,2.080922331073135,0.00019277632236480713
1746728662080542700,3.976542724609375,-0.18001953629812376,0.005321203265339136,-0.083014408783429,-0.001121265348047018,-0.048271032170816956,0.9891348365965211,-0.1168964967778862,left,0.001083970069885254,-0.21382049247300236,-1.7158828580059111,-9.42846199928522,-0.1113141016752428,-0.0023479973897337914,-0.00026488304138183594,2.080922331073135,0.0006256550550460815
1746728662120542700,4.016542724609375,-0.18001953629812376,0.013391053304076195,-0.083014408783429,-0.012585604563355446,-0.048271032170816956,0.9891348365965211,-0.1168964967778862,left,0.0017039179801940918,-0.21382049247300236,-1.7158828580059111,-9.42846199928522,-0.1113141016752428,0.0031336285173892975,-0.000964626669883728,2.080922331073135,0.0010830461978912354
1746728662160542700,4.056542724609375,-0.18060318322439553,0.010060654953122139,-0.08332743457236774,-0.01685277372598648,-0.04800962064583704,0.9891198142430428,-0.11643705186405819,left,0.001438736915588379,-0.2138560972768784,-1.7213721030719578,-9.427385894486308,-0.1113266344875188,0.005148680880665779,-0.0015782564878463745,2.0812635457262396,0.0003867149353027344
1746728662200542700,4.096542724609375,-0.1811868276648177,0.006730256602168083,-0.08364045118613884,-0.021119944751262665,-0.047748198812783915,0.9891046236176042,-0.11597762230701057,left,0.0011731386184692383,-0.2138919770059354,-1.7268606174856422,-9.426306282556057,-0.11133915552150395,0.007163733243942261,-0.002191975712776184,2.081607390727848,-0.00030988454818725586
1746728662240542700,4.136542724609375,-0.1811868276648177,-0.000985186081379652,-0.08364045118613884,-0.011678161099553108,-0.047748198812783915,0.9891046236176042,-0.11597762230701057,left,0.001142263412475586,-0.2138919770059354,-1.7268606174856422,-9.426306282556057,-0.11133915552150395,0.005390040576457977,-0.002928897738456726,2.081607390727848,-0.0007405728101730347
1746728662280543000,4.17654296875,-0.18163262561339835,-0.008256087079644203,-0.08386261028723327,0.002213078550994396,-0.047970407862484424,0.9891138556123303,-0.11640362580435284,left,0.0000826716423034668,-0.21313616642573435,-1.7313463845975696,-9.427080189538001,-0.11099429220057655,0.0007481803186237812,-0.0034666359424591064,2.0743637032099067,0.0004361271858215332
1746728662320542700,4.216542724609375,-0.18207799862364366,-0.015526989474892616,-0.08408475173557335,0.0161043182015419,-0.048192556805066636,0.9891227957081433,-0.11682910673289329,left,-0.0009775757789611816,-0.21238016150656044,-1.7358282061867414,-9.42784766677916,-0.11064940470601986,-0.003893680404871702,-0.004004776477813721,2.0671169469520447,0.0016131401062011719
1746728662360542700,4.256542724609375,-0.18185866692846112,-0.016784673556685448,-0.08393840958783316,0.01861441880464554,-0.04859398404888479,0.9891205001653568,-0.11760216776385499,left,-0.0014566779136657715,-0.21223554701451194,-1.7338143821462988,-9.428522205039858,-0.11060513589917986,-0.011879175901412964,-0.00206013023853302,2.0657306071601806,0.0017781853675842285
1746728662400542700,4.296542724609375,-0.1810291881643289,-0.0036487095057964325,-0.08351078131329887,0.014806906692683697,-0.0487284978265419,0.9891408892055256,-0.1177998748322806,left,0.0010933876037597656,-0.21242599285790154,-1.7259221675917504,-9.429569668266177,-0.11068731074346264,-0.005960890557616949,-0.0012487024068832397,2.067556361282617,0.0019522011280059814
1746728662440542700,4.336542724609375,-0.18019971931902887,0.009487254545092583,-0.08308313538601045,0.010999394580721855,-0.04886300129612525,0.9891611099737332,-0.1179974314334994,left,0.0036426186561584473,-0.212616605223199,-1.7180293685153125,-9.430610117229818,-0.11076946141410968,-0.00004260474815964699,-0.00043736398220062256,2.069383576709777,0.0021260976791381836
1746728662480542700,4.376542724609375,-0.18019971931902887,0.008229635655879974,-0.08308313538601045,0.005331643857061863,-0.04886300129612525,0.9891611099737332,-0.1179974314334994,left,-0.0010364651679992676,-0.212616605223199,-1.7180293685153125,-9.430610117229818,-0.11076946141410968,-0.008945783600211143,0.0026163607835769653,2.069383576709777,0.002651691436767578
1746728662520542700,4.416542724609375,-0.17991759092343,0.0003887629136443138,-0.08293610068018954,-0.0053284140303730965,-0.048705466977889696,0.9891454247800385,-0.117713409274425,left,0.0004805326461791992,-0.2133017887679128,-1.715114503981918,-9.429697678560018,-0.11108927296932142,-0.0061386097222566605,0.002176344394683838,2.075951118531823,-0.0011700242757797241
1746728662560542700,4.456542724609375,-0.17991759092343,0.0010412961710244417,-0.08293610068018954,-0.00026699248701334,-0.048705466977889696,0.9891454247800385,-0.117713409274425,left,0.0000820159912109375,-0.2133017887679128,-1.715114503981918,-9.429697678560018,-0.11108927296932142,-0.0008767582476139069,0.0013826191425323486,2.075951118531823,-0.0006148964166641235
1746728662600542700,4.496542724609375,-0.17991759092343,0.0016938294284045696,-0.08293610068018954,0.0047944290563464165,-0.048705466977889696,0.9891454247800385,-0.117713409274425,left,-0.0003165006637573242,-0.2133017887679128,-1.715114503981918,-9.429697678560018,-0.11108927296932142,0.004385093227028847,0.0005888789892196655,2.075951118531823,-0.0000597536563873291
1746728662640542700,4.536542724609375,-0.17991759092343,0.0023463626857846975,-0.08293610068018954,0.009855850599706173,-0.048705466977889696,0.9891454247800385,-0.117713409274425,left,-0.0007150173187255859,-0.2133017887679128,-1.715114503981918,-9.429697678560018,-0.11108927296932142,0.0096469447016716,-0.00020484626293182373,2.075951118531823,0.0004953742027282715
1746728662680542700,4.576542724609375,-0.17991759092343,0.005482674576342106,-0.08293610068018954,0.007779681123793125,-0.048705466977889696,0.9891454247800385,-0.117713409274425,left,-0.0012815594673156738,-0.2133017887679128,-1.715114503981918,-9.429697678560018,-0.11108927296932142,0.0036896513774991035,0.0003256797790527344,2.075951118531823,-0.00021238625049591064
1746728662720542700,4.616542724609375,-0.17991759092343,0.0051073674112558365,-0.08293610068018954,0.004211945924907923,-0.048705466977889696,0.9891454247800385,-0.117713409274425,left,-0.000007867813110351562,-0.2133017887679128,-1.715114503981918,-9.429697678560018,-0.11108927296932142,-0.007636928930878639,0.00035563111305236816,2.075951118531823,-0.0005663186311721802
1746728662760542700,4.656542724609375,-0.17991759092343,0.000561075285077095,-0.08293610068018954,0.0021247698459774256,-0.048705466977889696,0.9891454247800385,-0.117713409274425,left,-0.001300036907196045,-0.2133017887679128,-1.715114503981918,-9.429697678560018,-0.11108927296932142,-0.001815609633922577,0.00141867995262146,2.075951118531823,-0.0028433501720428467
1746728662800542700,4.696542724609375,-0.17991759092343,-0.006911084521561861,-0.08293610068018954,0.0010758655844256282,-0.048705466977889696,0.9891454247800385,-0.117713409274425,left,-0.0004425644874572754,-0.2133017887679128,-1.715114503981918,-9.429697678560018,-0.11108927296932142,-0.007994662038981915,0.0007188171148300171,2.075951118531823,-0.001521289348602295
1746728662840542700,4.736542724609375,-0.17927742578154526,-0.007063126657158136,-0.08259151405097141,0.001431790180504322,-0.04889385655094243,0.989149887945265,-0.11804887108844589,left,-0.000020503997802734375,-0.21357682488673108,-1.708975708965957,-9.430231347045302,-0.11122340617030564,-0.002598757389932871,0.0008568465709686279,2.078587166123837,-0.0006635040044784546
1746728662880542700,4.776542724609375,-0.17927742578154526,-0.007420110050588846,-0.08259151405097141,-0.006286643911153078,-0.04889385655094243,0.989149887945265,-0.11804887108844589,left,0.0009404420852661133,-0.21357682488673108,-1.708975708965957,-9.430231347045302,-0.11122340617030564,0.000857214443385601,0.00024111568927764893,2.078587166123837,-0.00011056661605834961
1746728662920542700,4.816542724609375,-0.17927742578154526,-0.003653779858723283,-0.08259151405097141,-0.009883232414722443,-0.04889385655094243,0.989149887945265,-0.11804887108844589,left,0.0000540614128112793,-0.21357682488673108,-1.708975708965957,-9.430231347045302,-0.11122340617030564,-0.0008215386187657714,0.00018332898616790771,2.078587166123837,0.0005772709846496582
1746728662960542700,4.856542724609375,-0.17927742578154526,0.00011255033314228058,-0.08259151405097141,-0.013479821383953094,-0.04889385655094243,0.989149887945265,-0.11804887108844589,left,-0.0008323788642883301,-0.21357682488673108,-1.708975708965957,-9.430231347045302,-0.11122340617030564,-0.0025002919137477875,0.00012552738189697266,2.078587166123837,0.0012650936841964722
1746728663000542700,4.896542724609375,-0.17927742578154526,0.0036463686265051365,-0.08259151405097141,0.010040368884801865,-0.04889385655094243,0.989149887945265,-0.11804887108844589,left,-0.0023164749145507812,-0.21357682488673108,-1.708975708965957,-9.430231347045302,-0.11122340617030564,-0.011507929302752018,-0.00026501715183258057,2.078587166123837,0.0029978305101394653
1746728663040542700,4.936542724609375,-0.17925895190042462,-0.000959453172981739,-0.08251009769955783,-0.004389694891870022,-0.04917978327732052,0.9890825882725127,-0.11872294025954863,left,0.001277148723602295,-0.21459578259116588,-1.7084230435192584,-9.428173829993606,-0.11175414474113565,-0.01876864582300186,0.00024788081645965576,2.0883516042910517,0.002825796604156494
1746728663080542700,4.976542724609375,-0.17929037833053216,0.002722325501963496,-0.08247690808838751,-0.0030600891914218664,-0.04930915370091364,0.9890293549252495,-0.11907046004327525,left,0.0022028684616088867,-0.21545148236678827,-1.7083999549046158,-9.42635830500424,-0.1121919314764717,-0.012442940846085548,-0.00025644898414611816,2.096549816054851,0.002993941307067871
1746728663120542700,5.016542724609375,-0.17929037833053216,0.006530188489705324,-0.08247690808838751,-0.008929739706218243,-0.04930915370091364,0.9890293549252495,-0.11907046004327525,left,0.0024889111518859863,-0.21545148236678827,-1.7083999549046158,-9.42635830500424,-0.1121919314764717,-0.0012558335438370705,-0.0012645125389099121,2.096549816054851,0.003680303692817688
1746728663160542700,5.056542724609375,-0.17969353517328088,0.007863974198698997,-0.08269368389241198,-0.010682353749871254,-0.04910638174727596,0.9890175809958787,-0.11871352312355193,left,0.0023298263549804688,-0.2155279536772332,-1.7121714362673461,-9.425511332786083,-0.11222488674978852,0.0011035071220248938,-0.002074003219604492,2.0972823681131003,0.003804534673690796
1746728663200542700,5.096542724609375,-0.1800967020366229,0.009197760373353958,-0.08291045969643909,-0.012434967793524265,-0.048903570302666295,0.9890058517115159,-0.11835655755966408,left,0.0021705031394958496,-0.2156046216353484,-1.7159426253691314,-9.424662022480367,-0.11225784202310414,0.0034628480207175016,-0.002883508801460266,2.098016965997964,0.003928542137145996
1746728663240542700,5.136542724609375,-0.1800967020366229,0.002377703320235014,-0.08291045969643909,0.008241917006671429,-0.048903570302666295,0.9890058517115159,-0.11835655755966408,left,-0.002529919147491455,-0.2156046216353484,-1.7159426253691314,-9.424662022480367,-0.11225784202310414,0.00342907034792006,-0.0015128999948501587,2.098016965997964,0.002312898635864258
1746728663280543000,5.17654296875,-0.1800967020366229,-0.006736275274306536,-0.08291045969643909,0.0048088752664625645,-0.048903570302666295,0.9890058517115159,-0.11835655755966408,left,0.0006197690963745117,-0.2156046216353484,-1.7159426253691314,-9.424662022480367,-0.11225784202310414,0.006058905739337206,-0.0011152774095535278,2.098016965997964,0.0012902319431304932
1746728663320542700,5.216542724609375,-0.17984487213097622,-0.0054385606199502945,-0.0827783299642562,0.008999530225992203,-0.049069088963983674,0.9890215967473236,-0.11863932578602818,left,-0.00036662817001342773,-0.21536262978098614,-1.713659921259433,-9.425593165850639,-0.11214386531365624,0.003224023384973407,0.0005269795656204224,2.0956986060529945,0.0012744367122650146
1746728663360542700,5.256542724609375,-0.17959301949241863,-0.004140845499932766,-0.08264619813933735,0.013190184719860554,-0.0492346522703092,0.9890373812741033,-0.11892225018856473,left,-0.001353144645690918,-0.21512073839482618,-1.7113764864973724,-9.426522555655241,-0.11202989045534502,0.0003891410306096077,0.0021691620349884033,2.0933812690213323,0.0012585371732711792
1746728663400542700,5.296542724609375,-0.17959301949241863,-0.0015951052773743868,-0.08264619813933735,0.0026234323158860207,-0.0492346522703092,0.9890373812741033,-0.11892225018856473,left,0.00043004751205444336,-0.21512073839482618,-1.7113764864973724,-9.426522555655241,-0.11202989045534502,-0.003175170859321952,0.002912372350692749,2.0933812690213323,0.00025035440921783447
1746728663440542700,5.336542724609375,-0.17957851011065223,-0.0010614991188049316,-0.08261949783659693,-0.0037439484149217606,-0.04926047957872845,0.9890143906363303,-0.11901341449459991,left,0.00031453371047973633,-0.2155416264588553,-1.711082179725915,-9.425679675090313,-0.11224119058323141,-0.004449355415999889,0.002070680260658264,2.0974134471468626,0.00001621246337890625
1746728663480542700,5.376542724609375,-0.17957851011065223,-0.0005278927856124938,-0.08261949783659693,-0.010111329145729542,-0.04926047957872845,0.9890143906363303,-0.11901341449459991,left,0.0002849698066711426,-0.2155416264588553,-1.711082179725915,-9.425679675090313,-0.11224119058323141,-0.005723540671169758,0.0012589842081069946,2.0974134471468626,0.0001932382583618164
1746728663520542700,5.416542724609375,-0.17957851011065223,0.0005308297113515437,-0.08261949783659693,-0.009805608540773392,-0.04926047957872845,0.9890143906363303,-0.11901341449459991,left,0.0007363557815551758,-0.2155416264588553,-1.711082179725915,-9.425679675090313,-0.11224119058323141,0.0005409540608525276,0.0001232922077178955,2.0974134471468626,0.0010339170694351196
1746728663560542700,5.456542724609375,-0.17957851011065223,0.0005051272455602884,-0.08261949783659693,-0.010153722949326038,-0.04926047957872845,0.9890143906363303,-0.11901341449459991,left,0.0003592371940612793,-0.2155416264588553,-1.711082179725915,-9.425679675090313,-0.11224119058323141,0.00672182347625494,-0.0005166232585906982,2.0974134471468626,0.0005522370338439941
1746728663600542700,5.496542724609375,-0.18037032629165353,0.0023550891783088446,-0.08301480932033614,-0.0069029200822114944,-0.04912218253748657,0.9889770474390119,-0.11884043323987065,left,0.00009626150131225586,-0.21571536794146834,-1.7184795965008437,-9.423963518822193,-0.1123393151800873,0.001551604364067316,-0.0001382380723953247,2.099077727097273,0.00014778971672058105
1746728663640542700,5.536542724609375,-0.18037032629165353,-0.00015395786613225937,-0.08301480932033614,-0.009064874611794949,-0.04912218253748657,0.9889770474390119,-0.11884043323987065,left,-0.0002288222312927246,-0.21571536794146834,-1.7184795965008437,-9.423963518822193,-0.1123393151800873,-0.0003362894058227539,-0.0006244182586669922,2.099077727097273,-0.0024460256099700928
1746728663680542700,5.576542724609375,-0.1811209944723285,0.000172897067386657,-0.08337816118836827,-0.014407778158783913,-0.04902519772455736,0.9889296150971776,-0.11876401588073676,left,0.006952881813049316,-0.21606975048560584,-1.7254193326361476,-9.421938150474428,-0.11252959021470658,-0.0026005669496953487,-0.002206757664680481,2.1024724841021,-0.0031871050596237183
1746728663720542700,5.616542724609375,-0.1811209944723285,0.005086835939437151,-0.08337816118836827,0.010934758931398392,-0.04902519772455736,0.9889296150971776,-0.11876401588073676,left,-0.008627712726593018,-0.21606975048560584,-1.7254193326361476,-9.421938150474428,-0.11252959021470658,0.0033741192892193794,0.00039301812648773193,2.1024724841021,-0.001846909523010254
1746728663760542700,5.656542724609375,-0.1811209944723285,0.002659325487911701,-0.08337816118836827,0.006804747972637415,-0.04902519772455736,0.9889296150971776,-0.11876401588073676,left,-0.005796074867248535,-0.21606975048560584,-1.7254193326361476,-9.421938150474428,-0.11252959021470658,0.0003842755686491728,0.0007055401802062988,2.1024724841021,-0.00007201731204986572
1746728663800542700,5.696542724609375,-0.1811209944723285,0.0002318152692168951,-0.08337816118836827,0.002674737013876438,-0.04902519772455736,0.9889296150971776,-0.11876401588073676,left,-0.0029644370079040527,-0.21606975048560584,-1.7254193326361476,-9.421938150474428,-0.11252959021470658,-0.0026055683847516775,0.0010180622339248657,2.1024724841021,0.0017028898000717163
1746728663840542700,5.736542724609375,-0.1811209944723285,0.005123685114085674,-0.08337816118836827,-0.0039916737005114555,-0.04902519772455736,0.9889296150971776,-0.11876401588073676,left,-0.0012894868850708008,-0.21606975048560584,-1.7254193326361476,-9.421938150474428,-0.11252959021470658,0.0020324389915913343,-0.0006179362535476685,2.1024724841021,0.0019771456718444824
1746728663880542700,5.776542724609375,-0.1811209944723285,0.01001555472612381,-0.08337816118836827,-0.010658083483576775,-0.04902519772455736,0.9889296150971776,-0.11876401588073676,left,0.00038546323776245117,-0.21606975048560584,-1.7254193326361476,-9.421938150474428,-0.11252959021470658,0.0066704461351037025,-0.002253919839859009,2.1024724841021,0.0022514164447784424
1746728663920542700,5.816542724609375,-0.18155404924856958,0.008329054340720177,-0.08365236320267047,-0.004811713472008705,-0.048503162462110595,0.9889406923408508,-0.11774902940258639,left,-0.0016554594039916992,-0.2159824496139369,-1.7295324670433998,-9.421370579719543,-0.11245465239401525,0.004685521125793457,-0.001866653561592102,2.101636179408431,0.0004670768976211548
1746728663960542700,5.856542724609375,-0.18155404924856958,-0.0012723170220851898,-0.08365236320267047,0.0035929298028349876,-0.048503162462110595,0.9889406923408508,-0.11774902940258639,left,-0.0012464523315429688,-0.2159824496139369,-1.7295324670433998,-9.421370579719543,-0.11245465239401525,0.0004768921062350273,-0.0013061463832855225,2.101636179408431,-0.0006173700094223022
1746728664000542700,5.896542724609375,-0.18155404924856958,-0.010873688384890556,-0.08365236320267047,0.011997572146356106,-0.048503162462110595,0.9889406923408508,-0.11774902940258639,left,-0.0008373856544494629,-0.2159824496139369,-1.7295324670433998,-9.421370579719543,-0.11245465239401525,-0.0037317369133234024,-0.0007456392049789429,2.101636179408431,-0.0017018169164657593
1746728664040542700,5.936542724609375,-0.18155404924856958,-0.009697146713733673,-0.08365236320267047,0.009360072202980518,-0.048503162462110595,0.9889406923408508,-0.11774902940258639,left,0.0003077983856201172,-0.2159824496139369,-1.7295324670433998,-9.421370579719543,-0.11245465239401525,-0.010126693174242973,-0.0003209114074707031,2.101636179408431,-0.0007651746273040771
1746728664080542700,5.976542724609375,-0.18131465723224924,-0.001772773452103138,-0.08349649968472674,0.009119851514697075,-0.04870830116137283,0.9889201029703866,-0.11817524436663009,left,-0.0009446144104003906,-0.21637902209621349,-1.7271265749454496,-9.42096375248432,-0.11266251018818554,-0.009764593094587326,0.0004047304391860962,2.1054346949085594,0.0007406026124954224
1746728664120542700,6.016542724609375,-0.18131465723224924,0.0009102220647037029,-0.08349649968472674,0.005713202059268951,-0.04870830116137283,0.9889201029703866,-0.11817524436663009,left,0.0002785325050354004,-0.21637902209621349,-1.7271265749454496,-9.42096375248432,-0.11266251018818554,-0.006206572521477938,0.0005524754524230957,2.1054346949085594,0.0010016560554504395
1746728664333214000,6.2292138671875,-0.18132840507959289,0.004506005439907312,-0.08338759194687798,-0.008376776240766048,-0.048981473209172385,0.9887921038108645,-0.11893590579692873,left,0.001365138334222138,-0.21850156454817385,-1.726446337596327,-9.416523139688373,-0.1137427941784734,-0.009820674546062946,0.00022772920783609152,2.125759543926269,0.0013781266752630472
1746728664373105400,6.26910546875,-0.18175636330995992,-0.0000172473955899477,-0.08358726644016362,-0.01310083456337452,-0.04887328298299151,0.9887492426799429,-0.11881903690505848,left,0.0005252026603557169,-0.21904186901817638,-1.7302682339720428,-9.414652669641375,-0.1140151840296351,-0.004370657727122307,-0.0012376682134345174,2.130931831997633,-0.000315733632305637
1746728664413105200,6.309105224609375,-0.18175636330995992,0.0021371052134782076,-0.08358726644016362,-0.009308625012636185,-0.04887328298299151,0.9887492426799429,-0.11881903690505848,left,0.0006369352340698242,-0.21904186901817638,-1.7302682339720428,-9.414652669641375,-0.1140151840296351,0.001757191028445959,-0.0006433427333831787,2.130931831997633,0.0002654939889907837
1746728664453105200,6.349105224609375,-0.18175636330995992,0.00022777612321078777,-0.08358726644016362,-0.0010744603350758553,-0.04887328298299151,0.9887492426799429,-0.11881903690505848,left,-0.0007135868072509766,-0.21904186901817638,-1.7302682339720428,-9.414652669641375,-0.1140151840296351,0.001159036299213767,-0.00011132657527923584,2.130931831997633,0.00034271180629730225
1746728664493105200,6.389105224609375,-0.1819384579232348,0.0022573943715542555,-0.08369558674871853,-0.008584918454289436,-0.04871145313966309,0.9887502886865803,-0.11851064011981569,left,-0.000012755393981933594,-0.21902084114525455,-1.7319906738504767,-9.41438145148456,-0.11399633955806264,0.0027655051089823246,-0.00021779537200927734,2.130730610337108,-0.00014163553714752197
1746728664533105400,6.42910546875,-0.1819384579232348,0.002160078613087535,-0.08369558674871853,0.012439599260687828,-0.04871145313966309,0.9887502886865803,-0.11851064011981569,left,-0.0030735135078430176,-0.21902084114525455,-1.7319906738504767,-9.41438145148456,-0.11399633955806264,-0.004773521795868874,0.0014079362154006958,2.130730610337108,0.0005548447370529175
1746728664573105400,6.46910546875,-0.18148905506863944,-0.00035257451236248016,-0.08347035637146862,-0.00030344538390636444,-0.04862534587737911,0.9887529032636749,-0.1183237069590495,left,0.0009593367576599121,-0.21942150657641998,-1.7276054445035756,-9.414318323120474,-0.1141754352846564,-0.013747012242674828,0.0009001940488815308,2.1345658045858142,0.0005714446306228638
1746728664613105400,6.50910546875,-0.18160345834906302,0.0032375911250710487,-0.08351573328220677,-0.005897142458707094,-0.04858122338376901,0.9887288349539752,-0.118285719288329,left,0.001220405101776123,-0.21981168442225502,-1.7285319116987288,-9.41330067051053,-0.11436929293169897,-0.006723352707922459,0.00009879469871520996,2.1383001688085495,0.0012784749269485474
1746728664653105200,6.549105224609375,-0.18160345834906302,0.006827756762504578,-0.08351573328220677,-0.011490839533507824,-0.04858122338376901,0.9887288349539752,-0.118285719288329,left,0.0015851855278015137,-0.21981168442225502,-1.7285319116987288,-9.41330067051053,-0.11436929293169897,0.0003003068268299103,-0.000797078013420105,2.1383001688085495,0.0023663341999053955
1746728664693105200,6.589105224609375,-0.18200784099159525,0.011464325711131096,-0.08373053750342897,-0.015040254220366478,-0.04836912758955794,0.9887116783450403,-0.11792059838415987,left,-0.00006431341171264648,-0.21998702294589803,-1.7322703675746918,-9.412232164496183,-0.11445040543599587,0.00831021647900343,-0.0012132376432418823,2.1399783311538396,0.001443520188331604
1746728664733105200,6.629105224609375,-0.18244999946684445,0.010105356574058533,-0.08397333090705537,-0.01579708606004715,-0.0481122801605964,0.988700852344547,-0.11745862275322355,left,0.0005006194114685059,-0.22005245520760938,-1.7364065905965864,-9.411327909132838,-0.11447401405206602,0.002658857498317957,-0.0018526911735534668,2.1406045002281666,0.00039221346378326416
1746728664773105400,6.66910546875,-0.18292820180925823,0.00796217005699873,-0.08422738826891107,-0.007344348356127739,-0.04787158830312462,0.988681478254023,-0.11704455444281667,left,-0.0025222301483154297,-0.22023028185314705,-1.7408375587813556,-9.410122040474414,-0.114555876416237,-0.0022270996123552322,-0.0009312033653259277,2.1423061895795166,-0.0012743175029754639
1746728664813105400,6.70910546875,-0.18292820180925823,0.004193275235593319,-0.08422738826891107,-0.002703317441046238,-0.04787158830312462,0.988681478254023,-0.11704455444281667,left,0.0001493692398071289,-0.22023028185314705,-1.7408375587813556,-9.410122040474414,-0.114555876416237,-0.008257229812443256,-0.0014541596174240112,2.1423061895795166,-0.0007758438587188721
1746728664853105400,6.74910546875,-0.18316838901621602,0.0001937677152454853,-0.08433125921163698,-0.003131403587758541,-0.0478171682084845,0.9886464708764336,-0.11701088187444247,left,0.0004207491874694824,-0.2207246842547207,-1.7429045743137597,-9.408660735750198,-0.11480430767323255,-0.007524149026721716,-0.00065632164478302,2.14703730975464,-0.000030547380447387695
1746728665011401200,6.907401123046875,-0.18305704815541596,-0.0077491938136518,-0.08420357512547424,0.00280158594250679,-0.04814024215219533,0.9885865653430134,-0.11774010526181082,left,-0.000680844415910542,-0.22162614942742354,-1.7415039137355983,-9.406948086613417,-0.11527743644537268,-0.004003053996711969,0.00032320115133188665,2.1556623686283825,0.000621020095422864
1746728665051294200,6.947294189453125,-0.18307313202947034,-0.010168186388909817,-0.0841768436119416,-0.0005652402760460973,-0.04838292444691338,0.9885653651386329,-0.11824839125259642,left,0.002730276668444276,-0.22178319767115454,-1.7415936378456651,-9.40658685208559,-0.11537675960979275,-0.002629578346386552,0.00045545841567218304,2.1571647360153494,0.0027562533505260944
1746728665210863900,7.10686376953125,-0.183865834588977,0.005871144123375416,-0.08455495403405183,-0.00699864886701107,-0.04823716932249433,0.9885020876635044,-0.1181086912437261,left,-0.000682569167111069,-0.2224179094539401,-1.7487990391798316,-9.403855381295084,-0.11570334582938374,-0.00959294568747282,-0.00011386460391804576,2.1632363110139963,-0.0006890633376315236
1746728665250755800,7.146755859375,-0.18402351478431866,0.0004278382984921336,-0.08462860884656223,0.0005896785878576338,-0.048172294564579415,0.9884832176057009,-0.11802259520781846,left,-0.00204598275013268,-0.2226882300322293,-1.750174711447209,-9.4030043174237,-0.1158369574188951,-0.0061332047916948795,0.00009547194349579513,2.1658217974625527,-0.0007571065798401833
1746728665290755800,7.186755859375,-0.1841629332403068,-0.0004109032452106476,-0.08468081370764223,0.0015184828080236912,-0.04819851330263518,0.9884583450484772,-0.11812329672544619,left,-0.0012834668159484863,-0.2230048133233801,-1.751359975709021,-9.402085449013114,-0.11600084259520675,-0.006726064719259739,0.0006681680679321289,2.168849620851129,-0.0002193152904510498
1746728665330755800,7.226755859375,-0.18458417228082885,0.002247812459245324,-0.08488346353932386,-0.009213438257575035,-0.04816479957671873,0.9884318656210042,-0.11812090457234416,left,-0.0026924610137939453,-0.22317012471397643,-1.7552544989295302,-9.400994731166959,-0.1160924874804636,0.0002345372922718525,0.0006480515003204346,2.170430606432259,-0.00021173059940338135
1746728665370755800,7.266755859375,-0.18443995073726957,0.0024827898014336824,-0.08480733339224919,-0.007911097258329391,-0.04810309830052957,0.9884234420794524,-0.11801147197575035,left,-0.0006492137908935547,-0.22349674557776522,-1.753768644285947,-9.400549910008907,-0.11624559285674216,-0.0061942096799612045,0.00032907724380493164,2.1735541452802716,0.0001353919506072998
1746728665410755800,7.306755859375,-0.18443995073726957,0.0027177671436220407,-0.08480733339224919,-0.0066087571904063225,-0.04810309830052957,0.9884234420794524,-0.11801147197575035,left,0.0014392733573913574,-0.22349674557776522,-1.753768644285947,-9.400549910008907,-0.11624559285674216,-0.012622956186532974,0.00016161799430847168,2.1735541452802716,0.0008010268211364746
1746728665450755800,7.346755859375,-0.18424140759372504,0.0030966345220804214,-0.08469753281065208,-0.0018987618386745453,-0.04801473580818679,0.9884044062701582,-0.11786725262804226,left,0.002777397632598877,-0.2240821258729506,-1.751668749397248,-9.399645654645562,-0.11652365562431617,-0.008200261741876602,0.00020428001880645752,2.1791516730263827,0.0018208324909210205
1746728665490755800,7.386755859375,-0.18424140759372504,0.006501899100840092,-0.08469753281065208,-0.005636968649923801,-0.04801473580818679,0.9884044062701582,-0.11786725262804226,left,0.0030918121337890625,-0.2240821258729506,-1.751668749397248,-9.399645654645562,-0.11652365562431617,-0.005421939771622419,-0.00003600120544433594,2.1791516730263827,0.003135666251182556
1746728665530755800,7.426755859375,-0.1844424088314383,0.009415305219590664,-0.08480677331096537,-0.008443066850304604,-0.04775305612872126,0.9883808707341398,-0.11740995949496175,left,0.0018728375434875488,-0.22457194641997677,-1.75336210931167,-9.398242802110314,-0.11675086479461248,-0.005622308235615492,0.00026138126850128174,2.1838347162760794,0.0025601238012313843
1746728665570755800,7.466755859375,-0.18478741544665575,0.009784860536456108,-0.08498854885860437,-0.01317594014108181,-0.047488060672078475,0.988353526859071,-0.11695838797337264,left,0.002494335174560547,-0.22501444888036587,-1.7564267575792967,-9.396686804839968,-0.11695831665409469,-0.0045406399294734,-0.0009530931711196899,2.1880650473222136,0.0019899755716323853
1746728665769180400,7.665180419921875,-0.1853150756280294,-0.004933844320476055,-0.08534402796843175,0.007787097245454788,-0.04690926385164346,0.9883989060823065,-0.11577459287788049,left,-0.001365138334222138,-0.22426003868622205,-1.7616883313693106,-9.397378294235468,-0.11654800547826039,0.015953879803419113,-0.00022772920783609152,2.180852631725371,-0.0013781266752630472
1746728665809066800,7.705066650390625,-0.1850147360622472,-0.004820738919079304,-0.08520783426008645,0.006367181893438101,-0.04699752910594648,0.9884370339393601,-0.11586619030754643,left,-0.000680844415910542,-0.22374018544227164,-1.7590742033481597,-9.399020216223597,-0.11628825764713832,0.007117609027773142,0.00032320115133188665,2.1758820037059485,0.000621020095422864
1746728666008500700,7.904500732421875,-0.18493198023708565,0.004159790929406881,-0.08517166483036165,-0.009357362985610962,-0.047412445897630655,0.9884943372169668,-0.11656365801203147,left,-0.0009904031176120043,-0.2224062095750592,-1.7588285580240188,-9.402010630211233,-0.11565751473578982,0.014939873479306698,-0.0010686672758311033,2.1631243750721216,0.0025416763965040445
1746728666048500700,7.944500732421875,-0.18503451408133054,0.0025872825644910336,-0.08525605829389682,-0.006827731616795063,-0.04730190403645017,0.9885247552997556,-0.11629818522791623,left,-0.00037938356399536133,-0.22186380037704634,-1.7600081231974065,-9.402982105591892,-0.1153808579790613,0.014657565392553806,-0.0005138963460922241,2.1579358665183186,0.0013823658227920532
1746728666088501000,7.9845009765625,-0.1851372028127349,0.0010147738503292203,-0.08534044327984024,-0.004298099782317877,-0.047191441157212986,0.9885550840925275,-0.11603285820778522,left,0.00023126602172851562,-0.22132140209692833,-1.7611890035450457,-9.403950073841214,-0.11510418882699024,0.014375257305800915,0.0000410228967666626,2.152746773442626,0.00022307038307189941
1746728666128501000,8.0245009765625,-0.18527294923684137,-0.0012744696578010917,-0.08542375798633785,-0.008543342351913452,-0.047276278782632186,0.9885820631589987,-0.11615246532971685,left,0.0006108880043029785,-0.22063819558460512,-1.7627360868565738,-9.405154188933968,-0.11477520951033296,0.016377314925193787,-0.00004267692565917969,2.146209772889316,0.0001710355281829834
1746728666168501000,8.0645009765625,-0.18540862601998798,-0.0035637132823467255,-0.08550707408798788,-0.01278858445584774,-0.04736115074498715,0.9886089134444814,-0.11627204586175999,left,0.0009899735450744629,-0.21995498954113557,-1.7642820011243223,-9.406354212373495,-0.11444622895958781,0.018379373475909233,-0.0001265108585357666,2.139671749422699,0.00011910498142242432
1746728666208500700,8.104500732421876,-0.1849163314103251,-0.002160166623070836,-0.08528837613274742,-0.009786332026124,-0.04737573384188123,0.9886622380937501,-0.11618661352339366,left,0.00236433744430542,-0.2193701351665958,-1.7598808435559272,-9.408450307869911,-0.11414216426339627,0.013146266341209412,0.00035722553730010986,2.1340740755461156,0.0001738518476486206
1746728666248500700,8.144500732421875,-0.18442414994604595,-0.0007566199637949467,-0.08506965912959251,-0.006784079596400261,-0.04739039076668159,0.9887153893170216,-0.1161016451586769,left,0.0037380456924438477,-0.2187852057376914,-1.7554785169437526,-9.41054055814743,-0.1138380766276604,0.007913158275187016,0.0008408427238464355,2.1284749403648076,0.00022874772548675537
1746728666288500700,8.184500732421874,-0.18440332602989287,0.002975810319185257,-0.08507613330335981,-0.009326430037617683,-0.047358735648219755,0.9887356122462918,-0.11600259659006672,left,0.003629446029663086,-0.21845501140865273,-1.7554112969264386,-9.4112677033782,-0.11367033119337855,0.007959160022437572,0.0008964836597442627,2.125313992115855,0.0017505288124084473
1746728666328500700,8.224500732421875,-0.184382583504891,0.006708240136504173,-0.08508261595471503,-0.011868779547512531,-0.04732708568379487,0.9887559193115425,-0.11590359269273176,left,0.0035206079483032227,-0.21812487117244048,-1.7553446614310144,-9.4119930950433,-0.11350259815443779,0.008005162701010704,0.0009521692991256714,2.1221531899973747,0.0032722800970077515
1746728666368501000,8.2645009765625,-0.18463571622463967,0.014395484700798988,-0.08524276929700786,-0.017455294728279114,-0.04709928494471656,0.9887698317871118,-0.11544533157855129,left,0.001656174659729004,-0.21785639353078554,-1.7578316559411584,-9.412108245855569,-0.11335647739456192,0.007703703362494707,0.000005424022674560547,2.1195826088570056,0.001767486333847046
1746728666408501000,8.3045009765625,-0.18501490639558976,0.016234703361988068,-0.08547041164565357,-0.01576988957822323,-0.04674995688895379,0.9887726939117485,-0.11477563288118221,left,0.0007360577583312988,-0.21779001492471092,-1.761426465562731,-9.411579253545403,-0.11330402357248455,0.0008958466351032257,-0.00046181678771972656,2.118947087432444,0.001024976372718811
1746728666448501000,8.3445009765625,-0.18551111302802853,0.012073477730154991,-0.08574840349378851,-0.012149715796113014,-0.0464024003573353,0.9887610485024682,-0.11413951030979617,left,-0.0016420483589172363,-0.21789111107352774,-1.7660567557118831,-9.410493211874366,-0.11333827512775192,0.002517320681363344,-0.00010922551155090332,2.1199150556817647,-0.0017544031143188477
1746728666488500700,8.384500732421875,-0.1855997362793747,0.007534014992415905,-0.08580346262446777,-0.008511153981089592,-0.04630274198692611,0.9887623396668439,-0.11394705612224304,left,-0.0010873675346374512,-0.21788068214482867,-1.7668948139712213,-9.410358771839737,-0.11332691378017848,0.001590063562616706,-0.00007228553295135498,2.119815248569101,-0.001161813735961914
1746728666528500700,8.424500732421874,-0.1855997362793747,0.002994552254676819,-0.08580346262446777,-0.004872593097388744,-0.04630274198692611,0.9887623396668439,-0.11394705612224304,left,-0.0005189776420593262,-0.21788068214482867,-1.7668948139712213,-9.410358771839737,-0.11332691378017848,0.0006628065020777285,-0.00012080371379852295,2.119815248569101,-0.0005794018507003784
1746728666568500700,8.464500732421875,-0.1855997362793747,0.00023261085152626038,-0.08580346262446777,-0.0014264027122408152,-0.04630274198692611,0.9887623396668439,-0.11394705612224304,left,-0.0007006525993347168,-0.21788068214482867,-1.7668948139712213,-9.410358771839737,-0.11332691378017848,0.00191893195733428,-0.0004316568374633789,2.119815248569101,0.000044286251068115234
1746728666608501000,8.5045009765625,-0.1855997362793747,0.002371798735111952,-0.08580346262446777,0.0011105418670922518,-0.04630274198692611,0.9887623396668439,-0.11394705612224304,left,-0.000052928924560546875,-0.21788068214482867,-1.7668948139712213,-9.410358771839737,-0.11332691378017848,0.0022229370661079884,-0.00008559226989746094,2.119815248569101,0.0001583099365234375
1746728666648501000,8.5445009765625,-0.1855997362793747,0.0018533342517912388,-0.08580346262446777,-0.00009698059875518084,-0.04630274198692611,0.9887623396668439,-0.11394705612224304,left,0.0002503395080566406,-0.21788068214482867,-1.7668948139712213,-9.410358771839737,-0.11332691378017848,0.0007501757936552167,-0.00011619925498962402,2.119815248569101,-0.0004916787147521973
1746728666688501000,8.5845009765625,-0.1855997362793747,-0.001202872721478343,-0.08580346262446777,-0.0008255150751210749,-0.04630274198692611,0.9887623396668439,-0.11394705612224304,left,0.00015622377395629883,-0.21788068214482867,-1.7668948139712213,-9.410358771839737,-0.11332691378017848,0.0004627002344932407,0.0004478245973587036,2.119815248569101,-0.0005691498517990112
1746728666728500700,8.624500732421875,-0.1855997362793747,-0.004538232460618019,-0.08580346262446777,-0.004555228631943464,-0.04630274198692611,0.9887623396668439,-0.11394705612224304,left,0.0003839731216430664,-0.21788068214482867,-1.7668948139712213,-9.410358771839737,-0.11332691378017848,0.0059534539468586445,0.0001471787691116333,2.119815248569101,-0.0002212226390838623
1746728666768500700,8.664500732421875,-0.1858227672027744,-0.0008522805292159319,-0.08593155222567729,-0.0027551469393074512,-0.046309495782850096,0.9887795341076202,-0.1139349903767092,left,0.00018703937530517578,-0.21736444876488298,-1.7691954921290278,-9.411038570797443,-0.11307663963631434,0.0067733051255345345,0.00029668211936950684,2.114872093078494,0.0005683004856109619
1746728666808500700,8.704500732421875,-0.1858227672027744,0.001639014109969139,-0.08593155222567729,-0.002523308154195547,-0.046309495782850096,0.9887795341076202,-0.1139349903767092,left,-0.0003948807716369629,-0.21736444876488298,-1.7691954921290278,-9.411038570797443,-0.11307663963631434,0.0068372152745723724,-0.0005328208208084106,2.114872093078494,-0.00027905404567718506
1746728666848501000,8.7445009765625,-0.18593544467442694,0.000570023781619966,-0.08601725795574783,-0.0015232217265293002,-0.04621252203253629,0.9888060385430196,-0.11370137591738876,left,-0.0005435347557067871,-0.21685781170149754,-1.7704538216270505,-9.411890803712605,-0.11281901475803668,0.006473096087574959,-0.0003161430358886719,2.1100202691331504,-0.0004911422729492188
1746728666888501000,8.7845009765625,-0.18593544467442694,-0.003803260624408722,-0.08601725795574783,-0.00261918967589736,-0.04621252203253629,0.9888060385430196,-0.11370137591738876,left,-0.0008535385131835938,-0.21685781170149754,-1.7704538216270505,-9.411890803712605,-0.11281901475803668,0.004265247844159603,0.000516548752784729,2.1100202691331504,-0.0016055852174758911
1746728666928501000,8.8245009765625,-0.18593544467442694,-0.00466304924339056,-0.08601725795574783,-0.004120216704905033,-0.04621252203253629,0.9888060385430196,-0.11370137591738876,left,-0.0008019804954528809,-0.21685781170149754,-1.7704538216270505,-9.411890803712605,-0.11281901475803668,0.0015799000393599272,-0.00009490549564361572,2.1100202691331504,-0.0015354752540588379
1746728666968500700,8.864500732421876,-0.1862823671430047,-0.001532635884359479,-0.08619485321769607,-0.0026247354689985514,-0.04629064689191507,0.988810289058849,-0.11385477449353223,left,-0.0007398128509521484,-0.21641372964108846,-1.7738922716431318,-9.412195924139022,-0.1126143349331468,0.00042312825098633766,-0.00010468065738677979,2.1057671417333186,-0.0010957568883895874
1746728667008500700,8.904500732421875,-0.1862823671430047,-0.002157673006877303,-0.08619485321769607,-0.004056688863784075,-0.04629064689191507,0.988810289058849,-0.11385477449353223,left,-0.0012432336807250977,-0.21641372964108846,-1.7738922716431318,-9.412195924139022,-0.1126143349331468,-0.0004889713018201292,0.00044095516204833984,2.1057671417333186,-0.0020898431539535522
1746728667048500700,8.944500732421876,-0.1862823671430047,-0.0010456811869516969,-0.08619485321769607,-0.011501746252179146,-0.04629064689191507,0.988810289058849,-0.11385477449353223,left,0.003544449806213379,-0.21641372964108846,-1.7738922716431318,-9.412195924139022,-0.1126143349331468,-0.0034232952166348696,-0.00040268898010253906,2.1057671417333186,-0.002847343683242798
1746728667088501000,8.9845009765625,-0.18686683347220454,0.004008132964372635,-0.08648624478089205,0.0059649758040905,-0.04623323259220681,0.9887856837443914,-0.1138061400777402,left,-0.006491541862487793,-0.21642302458978513,-1.7793894077546895,-9.41113852404058,-0.11263034763435183,-0.001843130448833108,0.0007219761610031128,2.1058561351910234,-0.002795308828353882
1746728667128501000,9.0245009765625,-0.18686683347220454,0.0015499053988605738,-0.08648624478089205,0.007798764854669571,-0.04623323259220681,0.9887856837443914,-0.1138061400777402,left,0.000008702278137207031,-0.21642302458978513,-1.7793894077546895,-9.41113852404058,-0.11263034763435183,-0.011159395799040794,-0.0005961805582046509,2.1058561351910234,-0.0018102824687957764
1746728667168501000,9.0645009765625,-0.18659633784954227,-0.004689721390604973,-0.08632573716210865,0.0029953941702842712,-0.04630482666589934,0.988766730100266,-0.11397241266088373,left,-0.0007086992263793945,-0.2169472407831424,-1.7766386477418243,-9.410533543884753,-0.11289013914712333,-0.012277532368898392,0.000054463744163513184,2.1108767398320136,-0.00021204352378845215
1746728667208500700,9.104500732421876,-0.18659633784954227,-0.0015215885359793901,-0.08632573716210865,-0.0033491640351712704,-0.04630482666589934,0.988766730100266,-0.11397241266088373,left,0.002516508102416992,-0.2169472407831424,-1.7766386477418243,-9.410533543884753,-0.11289013914712333,-0.007553053088486195,0.00009006261825561523,2.1108767398320136,0.0033238381147384644
1746728667248500700,9.144500732421875,-0.18659633784954227,0.006593447178602219,-0.08632573716210865,-0.008434565737843513,-0.04630482666589934,0.988766730100266,-0.11397241266088373,left,0.0024185776710510254,-0.2169472407831424,-1.7766386477418243,-9.410533543884753,-0.11289013914712333,-0.0060203829780220985,-0.0017357617616653442,2.1108767398320136,0.004105716943740845
1746728667288500700,9.184500732421874,-0.18685852006141157,0.010290076024830341,-0.08644749022147495,-0.009153001941740513,-0.04613124557732629,0.9887269035186593,-0.11371812265664318,left,0.000624537467956543,-0.21761710387219502,-1.77884273365736,-9.40867593331933,-0.11321599698503962,-0.0057939146645367146,-0.0016146153211593628,2.1172914291799065,0.002593711018562317
1746728667328500700,9.224500732421875,-0.18719858456298522,0.00773274153470993,-0.08661505079370334,-0.011089658364653587,-0.04591685853959637,0.9886895766419205,-0.11338246170108414,left,0.0008500218391418457,-0.2182076133812018,-1.7818091822475195,-9.406840534585713,-0.11350087798642147,-0.005485205911099911,-0.0018376708030700684,2.122945363288373,0.001584663987159729
1746728667368501000,9.2645009765625,-0.1872769018976456,0.006215874571353197,-0.0866603333398135,-0.008536268956959248,-0.04577076177481076,0.9886793135380737,-0.1131209529759694,left,0.0009737610816955566,-0.2184578175223547,-1.7824470417596399,-9.406178271284698,-0.11361488406274105,-0.00277073890902102,-0.0015907138586044312,2.1253407339923083,0.0011657923460006714
1746728667408501000,9.3045009765625,-0.1872769018976456,0.004699007607996464,-0.0866603333398135,-0.0059828790836036205,-0.04577076177481076,0.9886793135380737,-0.1131209529759694,left,0.0011650323867797852,-0.2184578175223547,-1.7824470417596399,-9.406178271284698,-0.11361488406274105,-0.000056271906942129135,-0.0014088153839111328,2.1253407339923083,0.0009911954402923584
1746728667448501000,9.3445009765625,-0.1872769018976456,-0.00034222938120365143,-0.0866603333398135,-0.0008322237990796566,-0.04577076177481076,0.9886793135380737,-0.1131209529759694,left,-0.00013893842697143555,-0.2184578175223547,-1.7824470417596399,-9.406178271284698,-0.11361488406274105,0.003278588643297553,-0.0008736848831176758,2.1253407339923083,-0.00018198788166046143
1746728667603707100,9.49970703125,-0.18714231710323426,-0.011102037504315376,-0.0865287834031464,0.0012664785608649254,-0.04638186270801992,0.9886629069445704,-0.11433057769577204,left,0,-0.2183467663752641,-1.7812249526187776,-9.406649980449677,-0.11360933531238919,-0.008116381242871284,0,2.124277634805441,0
1746728667643589000,9.539589111328125,-0.18706264972873557,-0.0054536545649170876,-0.08647470600782509,-0.0002721729688346386,-0.04652445626812925,0.988661476963432,-0.11460688459309598,left,0.000838210922665894,-0.2183168190170904,-1.780487285993993,-9.406854563111066,-0.11360464895499482,0.0008373461896553636,0.001028331695124507,2.1239909268185495,0.00038377687451429665
1746728667683588900,9.5795888671875,-0.18706264972873557,-0.004544329363852739,-0.08647470600782509,-0.0019786227494478226,-0.04652445626812925,0.988661476963432,-0.11460688459309598,left,0.00011008977890014648,-0.2183168190170904,-1.780487285993993,-9.406854563111066,-0.11360464895499482,0.00011289701797068119,0.000489160418510437,2.1239909268185495,-0.00026763975620269775
1746728667723588900,9.6195888671875,-0.18706264972873557,-0.0036350039299577475,-0.08647470600782509,-0.00368507276289165,-0.04652445626812925,0.988661476963432,-0.11460688459309598,left,-0.0006180405616760254,-0.2183168190170904,-1.780487285993993,-9.406854563111066,-0.11360464895499482,-0.0006115521537140012,-0.000050008296966552734,2.1239909268185495,-0.000919044017791748
1746728667763588900,9.6595888671875,-0.18706264972873557,-0.001651883590966463,-0.08647470600782509,-0.0034565578680485487,-0.04652445626812925,0.988661476963432,-0.11460688459309598,left,-0.0006219148635864258,-0.2183168190170904,-1.780487285993993,-9.406854563111066,-0.11360464895499482,0.00017627386841922998,-0.00039640069007873535,2.1239909268185495,-0.0009406954050064087
1746728667803588900,9.6995888671875,-0.18742338756601687,-0.0010370429372414947,-0.08666812604136796,-0.0033322833478450775,-0.04644112536640256,0.9886597833116095,-0.11445955206188764,left,-0.0006523728370666504,-0.21811506803619435,-1.7839605150625109,-9.406632444792985,-0.11350702769302042,0.002736590802669525,-0.00025403499603271484,2.1220593742340803,-0.0008139461278915405
1746728667843588900,9.7395888671875,-0.18742338756601687,-0.00019981677178293467,-0.08666812604136796,-0.0022672745399177074,-0.04644112536640256,0.9886597833116095,-0.11445955206188764,left,-0.0006711483001708984,-0.21811506803619435,-1.7839605150625109,-9.406632444792985,-0.11350702769302042,0.0032013491727411747,-0.000415116548538208,2.1220593742340803,-0.0009619146585464478
1746728667883589000,9.779589111328125,-0.18742338756601687,-0.0037029339000582695,-0.08666812604136796,-0.0029708673246204853,-0.04644112536640256,0.9886597833116095,-0.11445955206188764,left,-0.0005921125411987305,-0.21811506803619435,-1.7839605150625109,-9.406632444792985,-0.11350702769302042,0.0005262589547783136,-0.00030969083309173584,2.1220593742340803,-0.0018517673015594482
1746728668042405600,9.938405517578126,-0.18690890472322172,0.005940570496022701,-0.08632331120617878,0.020794179290533066,-0.046936379965194445,0.988609260873176,-0.11549641194326896,left,0.0022616267669945955,-0.21905566674644342,-1.7787489178940652,-9.405583812522888,-0.11400427342231446,-0.0274411141872406,-0.0027250086423009634,2.131063933944702,0.002362029394134879
1746728668082287900,9.978287841796876,-0.186791293736952,-0.0021789846941828728,-0.08623520541786722,0.00427401065826416,-0.04698253015096426,0.9885775090923414,-0.1156407440641037,left,-0.001204322325065732,-0.21970112112682896,-1.7773869818910955,-9.404439318662881,-0.11432640961705268,-0.012802539393305779,0.0019979351200163364,2.1372420380577446,0.0022468373645097017
1746728668122287900,10.018287841796875,-0.18709336967380896,0.006365115754306316,-0.08639109931021471,-0.006636759266257286,-0.046827942202820494,0.9885582230998908,-0.11538657530816641,left,0.0000851750373840332,-0.21993725838630576,-1.7801337963812052,-9.403405883961915,-0.11443910069949301,-0.006393485236912966,0.0013294517993927002,2.139501945813745,0.002468198537826538
1746728668162287600,10.05828759765625,-0.1876942377286519,0.005384397227317095,-0.08669624352280751,-0.012269474565982819,-0.04661420945159812,0.9885233052340026,-0.11505591930464107,left,0.00040924549102783203,-0.22025791181939058,-1.785655628542602,-9.401659917077422,-0.11459712877556585,-0.00846745166927576,0.0002025514841079712,2.1425706857346,0.0018693804740905762
1746728668202287600,10.09828759765625,-0.18829502959875927,0.004403678700327873,-0.08700136938506796,-0.01790218986570835,-0.04640046639230185,0.9884882190961533,-0.11472542921545188,left,0.0007328987121582031,-0.22057874928619964,-1.7911749764859675,-9.3999098585397,-0.11475513329504941,-0.010541417635977268,-0.0009246021509170532,2.1456408869601784,0.0012704282999038696
1746728668242287600,10.13828759765625,-0.18881803258846297,0.0022454888094216585,-0.08725563519008535,-0.006957961246371269,-0.04628265388072613,0.9884495788297561,-0.11458481558194117,left,-0.002198517322540283,-0.2209455404891571,-1.7959430676706134,-9.398197793924808,-0.11494219105012363,-0.008801529183983803,-0.001341298222541809,2.1491506486468017,-0.00017204880714416504
1746728668282287600,10.17828759765625,-0.18881803258846297,0.00042542372830212116,-0.08725563519008535,-0.002820506226271391,-0.04628265388072613,0.9884495788297561,-0.11458481558194117,left,-0.0007341504096984863,-0.2209455404891571,-1.7959430676706134,-9.398197793924808,-0.11494219105012363,-0.004034408833831549,-0.0012632906436920166,2.1491506486468017,0.0006434023380279541
1746728668322287900,10.218287841796876,-0.18881803258846297,-0.003228298155590892,-0.08725563519008535,0.0030669881962239742,-0.04628265388072613,0.9884495788297561,-0.11458481558194117,left,-0.0013655424118041992,-0.2209455404891571,-1.7959430676706134,-9.398197793924808,-0.11494219105012363,0.00007922714576125145,-0.0006218105554580688,2.1491506486468017,0.00003577768802642822
1746728668362287900,10.258287841796875,-0.18865553796076046,-0.006253872998058796,-0.087167671330968,0.010909918695688248,-0.04638932332614992,0.9884572745416976,-0.11477234383096953,left,-0.001975715160369873,-0.22085227851574102,-1.7944534136347472,-9.398686454224586,-0.1149005549250366,0.00502416817471385,0.00036759674549102783,2.1482582298517228,-0.00020572543144226074
1746728668402287600,10.29828759765625,-0.18824828685517295,-0.007320305332541466,-0.08695884601937719,0.012731230817735195,-0.0465332483605717,0.9884782693760017,-0.11499968926212562,left,-0.0008156299591064453,-0.22068821629239635,-1.7906915768831968,-9.399762559023499,-0.11482000265524345,0.00036705611273646355,0.0013298243284225464,2.146688350186497,0.0002531111240386963
1746728668442287600,10.33828759765625,-0.1878118547819116,-0.007855778560042381,-0.0867267405973887,0.006980760954320431,-0.04670335319636347,0.988490988796307,-0.11529202961107131,left,-0.00008547306060791016,-0.22067690488807795,-1.7865936400450766,-9.400566861143707,-0.11481694044550399,-0.00415168609470129,0.0025115758180618286,2.1465800675064326,-0.0004951953887939453
1746728668482287600,10.37828759765625,-0.1878118547819116,-0.004182879347354174,-0.0867267405973887,0.0026977048255503178,-0.04670335319636347,0.988490988796307,-0.11529202961107131,left,-0.00028061866760253906,-0.22067690488807795,-1.7865936400450766,-9.400566861143707,-0.11481694044550399,-0.002865079091861844,0.0021180659532546997,2.1465800675064326,0.0008267015218734741
1746728668522287600,10.41828759765625,-0.1878118547819116,-0.000509980134665966,-0.0867267405973887,-0.0015853513032197952,-0.04670335319636347,0.988490988796307,-0.11529202961107131,left,-0.00047576427459716797,-0.22067690488807795,-1.7865936400450766,-9.400566861143707,-0.11481694044550399,-0.001578472089022398,0.0017245709896087646,2.1465800675064326,0.0021485984325408936
1746728668562287900,10.458287841796874,-0.1878118547819116,0.005185809917747974,-0.0867267405973887,-0.0070675392635166645,-0.04670335319636347,0.988490988796307,-0.11529202961107131,left,0.00013530254364013672,-0.22067690488807795,-1.7865936400450766,-9.400566861143707,-0.11481694044550399,0.004709389992058277,0.0008131265640258789,2.1465800675064326,0.0014185607433319092
1746728668602287900,10.498287841796875,-0.1878118547819116,0.009054336696863174,-0.0867267405973887,-0.01040334440767765,-0.04670335319636347,0.988490988796307,-0.11529202961107131,left,-0.0005936026573181152,-0.22067690488807795,-1.7865936400450766,-9.400566861143707,-0.11481694044550399,0.005267549771815538,0.0004171133041381836,2.1465800675064326,0.0012247711420059204
1746728668642287600,10.53828759765625,-0.18820789995707723,0.007331663742661476,-0.0869505817667178,-0.008548182435333729,-0.046507796807826046,0.9884929185075124,-0.11492184396550255,left,-0.0006234645843505859,-0.2204731801240853,-1.7903982930250464,-9.400288044202327,-0.11470953895639702,0.0055234129540622234,0.00023718178272247314,2.1446306870043275,0.0005766749382019043
1746728668682287600,10.57828759765625,-0.18860406230570861,0.005608991254121065,-0.08717443211121427,-0.00669301999732852,-0.04631220092831739,0.9884948928637264,-0.11455154480544616,left,-0.0006536245346069336,-0.22026968377445363,-1.7942039689183233,-9.400006889173389,-0.11460214924558737,0.005779276601970196,0.00005733966827392578,2.1426833523288367,-0.00007160007953643799
1746728668722287600,10.61828759765625,-0.18883855539242106,0.0048272255808115005,-0.08731161561017141,-0.00517101539298892,-0.04614348224334762,0.9884965297713417,-0.11422889921831723,left,0.00010991096496582031,-0.22018581011909957,-1.7964419571034609,-9.39976197450161,-0.11455208393870683,0.0018197325989603996,0.00010704994201660156,2.1418806576438247,-0.0011821389198303223
1746728668762287600,10.65828759765625,-0.18883855539242106,0.0017035671044141054,-0.08731161561017141,-0.001254684291779995,-0.04614348224334762,0.9884965297713417,-0.11422889921831723,left,0.0014204978942871094,-0.22018581011909957,-1.7964419571034609,-9.39976197450161,-0.11455208393870683,-0.002879607956856489,-0.0010194778442382812,2.1418806576438247,-0.0009567737579345703
1746728668802287600,10.69828759765625,-0.18883855539242106,0.0015309796435758471,-0.08731161561017141,0.0014517458621412516,-0.04614348224334762,0.9884965297713417,-0.11422889921831723,left,-0.004051804542541504,-0.22018581011909957,-1.7964419571034609,-9.39976197450161,-0.11455208393870683,-0.0008282826747745275,0.00011830031871795654,2.1418806576438247,-0.0014404058456420898
1746728668842287900,10.738287841796875,-0.18883855539242106,0.003968856763094664,-0.08731161561017141,0.012469962239265442,-0.04614348224334762,0.9884965297713417,-0.11422889921831723,left,-0.0013940930366516113,-0.22018581011909957,-1.7964419571034609,-9.39976197450161,-0.11455208393870683,-0.013166358694434166,-0.0005335211753845215,2.1418806576438247,0.0006271302700042725
1746728668882287600,10.77828759765625,-0.18860546428044572,0.0020327346865087748,-0.08717593112488611,0.0032030902802944183,-0.04610428943026878,0.9884722861640206,-0.1141909763369115,left,-0.0003205537796020508,-0.2208639096292143,-1.7939780512079595,-9.398751920676231,-0.11487980019353719,-0.01594710536301136,-0.00019888579845428467,2.148369581271708,0.000659063458442688
1746728668922287600,10.81828759765625,-0.18849138106769225,0.003961166366934776,-0.08710775076552596,-0.001342887058854103,-0.04603911072001915,0.9884525902163661,-0.1140976373730296,left,0.00125885009765625,-0.22137774769717494,-1.7926988250523805,-9.397871046188474,-0.11512675722405644,-0.008083664812147617,0.00013990700244903564,2.1532858487553894,0.0017446577548980713
1746728668962287600,10.85828759765625,-0.1888217790905155,0.0057409778237342834,-0.08730306666300024,-0.008668595924973488,-0.045799769283892226,0.9884573288086309,-0.11363540474001539,left,0.000595390796661377,-0.22121491591093692,-1.7958695640429854,-9.397622039863467,-0.11503380523674969,0.00010198261588811874,0.000053122639656066895,2.151727951788902,0.0009129494428634644
1746728669002287600,10.89828759765625,-0.18915225026654017,0.007520789746195078,-0.08749838325805251,-0.015994304791092873,-0.045560378048720776,0.9884619437739435,-0.11317304525941305,left,-0.00006818771362304688,-0.2210522584220337,-1.79904088755548,-9.39737186449468,-0.114940852632403,0.00828763097524643,-0.000033602118492126465,2.1501716622576117,0.0000810772180557251
1746728669042287600,10.93828759765625,-0.1897507703121572,0.00833706371486187,-0.08782131903745417,-0.017955323681235313,-0.04533555731696254,0.9884514360595522,-0.11277475785202354,left,-0.00019443035125732422,-0.220924105955629,-1.8047170334957539,-9.396564055243134,-0.11487373634035601,0.0029950132593512535,-0.0009673833847045898,2.1489454814635214,0.0003565847873687744
1746728669082287900,10.978287841796876,-0.1903541848733075,0.0039939237758517265,-0.08813912508369783,-0.008601613342761993,-0.045146468467437965,0.9884341790768512,-0.11245801025657728,left,-0.0032904744148254395,-0.22088208329981293,-1.8104037008300422,-9.395562184724211,-0.11485271664082584,0.0014347803080454469,-0.00031422078609466553,2.1485434765338898,-0.0010123252868652344
1746728669122287900,11.018287841796875,-0.1903541848733075,0.0008710501715540886,-0.08813912508369783,-0.005562543869018555,-0.045146468467437965,0.9884341790768512,-0.11245801025657728,left,-0.0017777681350708008,-0.22088208329981293,-1.8104037008300422,-9.395562184724211,-0.11485271664082584,-0.0017973693320527673,-0.0019816458225250244,2.1485434765338898,-0.0006584674119949341
1746728669162287600,11.05828759765625,-0.1903541848733075,-0.0038539241068065166,-0.08813912508369783,0.0012390571646392345,-0.045146468467437965,0.9884341790768512,-0.11245801025657728,left,-0.0015485286712646484,-0.22088208329981293,-1.8104037008300422,-9.395562184724211,-0.11485271664082584,0.0011688271770253778,-0.0009360462427139282,2.1485434765338898,-0.00037841498851776123
1746728669202287600,11.09828759765625,-0.1903541848733075,-0.0055597564205527306,-0.08813912508369783,0.0069037233479321,-0.045146468467437965,0.9884341790768512,-0.11245801025657728,left,-0.0011497139930725098,-0.22088208329981293,-1.8104037008300422,-9.395562184724211,-0.11485271664082584,0.002206549048423767,-0.00020548701286315918,2.1485434765338898,-0.00003732740879058838
1746728669242287600,11.13828759765625,-0.19006386132920025,-0.0068483115173876286,-0.08797440408101694,0.0074446010403335094,-0.04536182975675411,0.9884405369596302,-0.11285520178820442,left,-0.0007532238960266113,-0.22083443136662828,-1.8076953186541795,-9.396187623146176,-0.11484010309551831,-0.0027791373431682587,0.00001583993434906006,2.1480874033294617,0.00042666494846343994
1746728669282287600,11.17828759765625,-0.18977345607331442,-0.008136866614222527,-0.08780965555283633,0.007985478267073631,-0.045577220228967784,0.9884466819254399,-0.11325244532039626,left,-0.0003566741943359375,-0.22078680065658313,-1.8049857674345373,-9.39681247704625,-0.11482745421532416,-0.007764823734760284,0.00023706257343292236,2.147631768516451,0.000890582799911499
1746728669322287900,11.218287841796876,-0.189534757973389,-0.006502408068627119,-0.08766457046920725,0.002574379090219736,-0.04575979885410191,0.9884390022025206,-0.11361354326508372,left,0.000630795955657959,-0.2209783182834513,-1.8026652155324816,-9.396839365053177,-0.11493237444487864,-0.00692601315677166,0.0007130950689315796,2.1494642446406185,0.000986441969871521
1746728669362287900,11.258287841796875,-0.189534757973389,-0.0030769105069339275,-0.08766457046920725,0.001218184712342918,-0.04575979885410191,0.9884390022025206,-0.11361354326508372,left,0.00003892183303833008,-0.2209783182834513,-1.8026652155324816,-9.396839365053177,-0.11493237444487864,-0.0032773585990071297,0.0013148486614227295,2.1494642446406185,0.0014737993478775024
1746728669402287600,11.29828759765625,-0.189534757973389,0.002796085551381111,-0.08766457046920725,-0.003990072291344404,-0.04575979885410191,0.9884390022025206,-0.11361354326508372,left,-0.0002250075340270996,-0.2209783182834513,-1.8026652155324816,-9.396839365053177,-0.11493237444487864,0.0006067128852009773,0.0012628734111785889,2.1494642446406185,0.0010008066892623901
1746728669442287600,11.33828759765625,-0.189534757973389,0.005574656184762716,-0.08766457046920725,-0.006454148329794407,-0.04575979885410191,0.9884390022025206,-0.11361354326508372,left,-0.00042879581451416016,-0.2209783182834513,-1.8026652155324816,-9.396839365053177,-0.11493237444487864,0.0024443045258522034,0.00064125657081604,2.1494642446406185,0.000857427716255188
1746728669482287600,11.37828759765625,-0.1897923504091129,0.005744859576225281,-0.08781078755783835,-0.007270254660397768,-0.045589529504426074,0.9884360048070104,-0.11329681296441875,left,-0.0005699396133422852,-0.22095704885337314,-1.8050943423755466,-9.39641967833638,-0.1149138681745005,0.0016660175751894712,0.0002141892910003662,2.149260684892535,0.0008813738822937012
1746728669522287600,11.41828759765625,-0.1897923504091129,0.0059150634333491325,-0.08781078755783835,-0.00808636099100113,-0.045589529504426074,0.9884360048070104,-0.11329681296441875,left,-0.0006683468818664551,-0.22095704885337314,-1.8050943423755466,-9.39641967833638,-0.1149138681745005,0.0008877305663190782,-0.0004605799913406372,2.149260684892535,0.0008845627307891846
1746728669677364000,11.573364013671876,-0.19070113324836893,-0.006822242401540279,-0.08829174503536998,-0.004270466510206461,-0.04531798537942772,0.9884148047908982,-0.11283650159351064,left,-0.0005269274115562439,-0.2207949161790199,-1.8136989429831505,-9.39511677904427,-0.11483423641720039,-0.0002645145286805928,0.0008006024872884154,2.147709363797307,-0.000994349829852581
1746728669717242400,11.613242431640625,-0.1907383125536486,-0.0031719128601253033,-0.08829630204566657,-0.013826600275933743,-0.04541975892211621,0.9884059945298982,-0.11305130324535058,left,0.008178756572306156,-0.2208395520630857,-1.8140300746336577,-9.394955451002717,-0.1148665920452583,0.0021812203340232372,-0.0016930850688368082,2.148136503168195,-0.0009018240962177515
1746728669757242400,11.653242431640624,-0.19052040824245106,-0.004456365015357733,-0.08818369926981719,-0.00914996862411499,-0.04542005945419645,0.9884074540300075,-0.11304308636192664,left,0.004760682582855225,-0.22100162247740707,-1.8119168818719684,-9.395008642494679,-0.11494126793064038,-0.0016179208178073168,-0.0009489059448242188,2.149687239741534,-0.0004154592752456665
1746728669797242400,11.693242431640625,-0.19052040824245106,-0.005740817170590162,-0.08818369926981719,-0.004473336040973663,-0.04542005945419645,0.9884074540300075,-0.11304308636192664,left,0.0013372302055358887,-0.22100162247740707,-1.8119168818719684,-9.395008642494679,-0.11494126793064038,-0.005417061969637871,0.000010773539543151855,2.149687239741534,0.00022901594638824463
1746728669996358000,11.89235791015625,-0.19173119129746446,-0.0030553583055734634,-0.08881630744074481,-0.012626348063349724,-0.04469312203025439,0.9883244207670913,-0.11182419428928664,left,0.00021219439804553986,-0.2220890963124382,-1.8228442263387143,-9.390507239422202,-0.1154513844273946,-0.005780918523669243,-0.0035036681219935417,2.160090998725593,-0.0010152441682294011
1746728670036234500,11.932234375,-0.19162169290716347,-0.006684990134090185,-0.0887483365178665,0.012650786899030209,-0.044792047135880336,0.9883208098752656,-0.11201959492681969,left,-0.003190302988514304,-0.22216734482614908,-1.8217837575003504,-9.390541141691804,-0.11549622967697282,-0.002981864381581545,-0.001450596610084176,2.1608394790053365,0.0033999397419393063
1746728670076234200,11.972234130859375,-0.19137032642537127,-0.007530472241342068,-0.08861933959790047,0.012875896878540516,-0.04494474293076571,0.9883416052295578,-0.1122693946047057,left,-0.0021234750747680664,-0.22187548572267132,-1.8195431389667092,-9.391617246490716,-0.11535761805573004,0.0007241552229970694,-0.0009654611349105835,2.158047656329721,0.002263173460960388
1746728670116234200,12.012234130859374,-0.191118939856912,-0.008375954814255238,-0.08849034198035764,0.013101007789373398,-0.04509744387968729,0.9883624847198303,-0.11251928491747955,left,-0.0010567307472229004,-0.22158373503273168,-1.817301789780706,-9.39269218224585,-0.11521900705152985,0.004430174827575684,-0.00048038363456726074,2.155256564306468,0.001126319169998169
1746728670156234200,12.052234130859375,-0.1908100442459719,-0.009599898010492325,-0.08831538370828187,0.011505348607897758,-0.045329177417486155,0.9883700354089042,-0.11294532250965968,left,-0.000826418399810791,-0.22151628822421537,-1.8144278417795896,-9.393395946601032,-0.11519756401489233,-0.0010261181741952896,0.00040169060230255127,2.1546112521402536,0.0007525533437728882
1746728670196234200,12.092234130859374,-0.1905011023519006,-0.010823840275406837,-0.08814041626104115,0.00990968942642212,-0.04556086115623989,0.9883774624710256,-0.11337127693452087,left,-0.000596165657043457,-0.22144896480971607,-1.811553163126111,-9.394098541912436,-0.1151761091999628,-0.0064824107103049755,0.0012837052345275879,2.1539672551482916,0.00037866830825805664
1746728670236234500,12.132234375,-0.1902731857514269,-0.009962869808077812,-0.08799957164510767,0.0043047945946455,-0.04578585309114058,0.9883728428384899,-0.11380911295973566,left,0.0003936290740966797,-0.22153864455062336,-1.8093755268260836,-9.394321244752406,-0.11523444620561414,-0.005787251051515341,0.000750809907913208,2.154825187151879,0.0008830726146697998
1746728670276234500,12.172234375,-0.19009602030268258,-0.00990408007055521,-0.08788684427085539,0.005507679656147957,-0.04600013572841444,0.9883691748197678,-0.11422563861321174,left,-0.00041484832763671875,-0.2215738522462651,-1.8076967799589037,-9.394567328467964,-0.1152660816910709,-0.0019413833506405354,0.0011602193117141724,2.155162017890811,0.0009102523326873779
1746728670316234200,12.212234130859375,-0.18994719012275688,-0.006799047347158194,-0.08779590646053714,0.0056231156922876835,-0.04619052736943016,0.988372544134774,-0.11458370592148642,left,0.00014162063598632812,-0.22147697479723297,-1.8063380588263271,-9.395041375720501,-0.11523055767660258,0.0013914029113948345,0.0008518248796463013,2.1542351123042405,0.0014614760875701904
1746728670356234200,12.252234130859375,-0.18994719012275688,-0.0030326831620186567,-0.08779590646053714,0.004809901118278503,-0.04619052736943016,0.988372544134774,-0.11458370592148642,left,0.000010728836059570312,-0.22147697479723297,-1.8063380588263271,-9.395041375720501,-0.11523055767660258,0.003426928538829088,0.0005761533975601196,2.1542351123042405,0.0005936622619628906
1746728670396234200,12.292234130859375,-0.18994719012275688,-0.0032491940073668957,-0.08779590646053714,0.004969981033354998,-0.04619052736943016,0.988372544134774,-0.11458370592148642,left,-0.0006257891654968262,-0.22147697479723297,-1.8063380588263271,-9.395041375720501,-0.11523055767660258,0.004972824361175299,0.0013095736503601074,2.1542351123042405,-0.0009578615427017212
1746728670436234200,12.332234130859375,-0.18948089496303472,-0.006761147174984217,-0.08755912633671094,0.0074852146208286285,-0.046367442622032316,0.9884013144368099,-0.11485869006273206,left,-0.0004170536994934082,-0.22119439724535078,-1.8020714874230324,-9.396479884091018,-0.11509235093944958,0.0028845928609371185,0.0019809454679489136,2.15153169856444,-0.0012868940830230713
1746728670476234500,12.372234375,-0.18935132520580908,-0.013648593798279762,-0.08746321294700068,0.005787379574030638,-0.04674755100792348,0.9884053075000442,-0.11558327641844879,left,-0.0009673237800598145,-0.2209035518061808,-1.800971709487587,-9.397327440831065,-0.11497747334739779,0.0009299342054873705,0.0013442039489746094,2.148748789847642,-0.0011078566312789917
1746728670516234500,12.412234375,-0.18922156189411704,-0.020536039024591446,-0.08736729107969841,0.004089544527232647,-0.04712768857671341,0.9884090876463095,-0.11630792782041319,left,-0.0015175938606262207,-0.2206127932876798,-1.7998697395950556,-9.39817441304922,-0.11486258336000993,-0.0010247246827930212,0.0007072389125823975,2.1459666117832064,-0.0009288936853408813
1746728670674267100,12.57026708984375,-0.18926851165421366,0.009275730699300766,-0.08734614443071055,0.03383896127343178,-0.04788021847235242,0.9884294523355005,-0.11772633499930653,left,-0.012794200330972672,-0.21952973700653133,-1.8007472530819475,-9.400366954657434,-0.1143910548867699,0.007632354274392128,0.003558762837201357,2.1356017235048115,0.0010134278563782573
1746728670714144500,12.61014453125,-0.18873964646789132,-0.004731779918074608,-0.08707870384313382,-0.013393902219831944,-0.04786694761519384,0.9884395972109797,-0.11766631520516861,left,0.00749446265399456,-0.21980706590308255,-1.7956642507292329,-9.400735787969827,-0.11451267193088849,-0.007837582379579544,-0.002244015457108617,2.138256037405878,-0.002900970634073019
1746728670873653000,12.769653076171876,-0.19063825423634878,0.010150939226150513,-0.08809188302323981,-0.01253559347242117,-0.04663757583079097,0.9883346866367034,-0.11554003844426824,left,-0.001365138334222138,-0.22119361026883935,-1.8129457865282892,-9.3943896338135,-0.11514879290960997,-0.001741079380735755,-0.00022772920783609152,2.151524099779874,-0.0013781266752630472
1746728670913530000,12.809530029296875,-0.1916157303907446,-0.008642815053462982,-0.08856843599405662,-0.027199609205126762,-0.04656549339056012,0.9882808728370287,-0.11552950505479984,left,-0.0003130082623101771,-0.22140284233258903,-1.8220419700451194,-9.39217078872025,-0.1152743669618257,-0.0013520909706130624,-0.002266000024974346,2.153525941121578,-0.0006995105068199337
1746728670953530000,12.849530029296876,-0.19183730459190407,-0.006846204400062561,-0.08867990108908833,-0.01787611097097397,-0.046614512144152145,0.9882807836034451,-0.11563085642087374,left,-0.0003123283386230469,-0.221171827282247,-1.8242177066490053,-9.392254959872364,-0.11517000060614219,0.004243339877575636,-0.002119883894920349,2.1513157177262006,-0.0002616792917251587
1746728670993530000,12.889530029296875,-0.19183730459190407,-0.005049594212323427,-0.08867990108908833,-0.008552612736821175,-0.046614512144152145,0.9882807836034451,-0.11563085642087374,left,-0.00032025575637817383,-0.221171827282247,-1.8242177066490053,-9.392254959872364,-0.11517000060614219,0.0098387710750103,-0.002195611596107483,2.1513157177262006,-0.00004921853542327881
1746728671033530000,12.929530029296876,-0.19183730459190407,-0.005928806494921446,-0.08867990108908833,0.002823241986334324,-0.046614512144152145,0.9882807836034451,-0.11563085642087374,left,-0.0016072392463684082,-0.221171827282247,-1.8242177066490053,-9.392254959872364,-0.11517000060614219,0.007835282012820244,-0.0010011643171310425,2.1513157177262006,-0.0005312711000442505
1746728671192713700,13.088713623046875,-0.19181847400528007,-0.0027337262872606516,-0.0885891416181291,-0.005376420449465513,-0.0476793550055701,0.9882882237008435,-0.11767514278123294,left,0.0018920658621937037,-0.2201149431971615,-1.8244732888452708,-9.394515890541673,-0.11473856271825845,-0.001329589867964387,-0.0005728732794523239,2.141202466121316,0.0023724765051156282
1746728671232592600,13.128592529296874,-0.1919973308196577,0.005018917378038168,-0.08868521365868935,-0.005557839293032885,-0.047599916574228136,0.988283209121346,-0.11753601213011686,left,-0.0005269274115562439,-0.22012334210986564,-1.826150136016309,-9.394172191670537,-0.11474079804293176,0.00354759581387043,0.0008006024872884154,2.141282837881148,-0.000994349829852581
1746728671272592600,13.168592529296875,-0.19237459846540708,0.002652752446010709,-0.08887796326548018,-0.007018886040896177,-0.04752334190358569,0.9882691094556564,-0.11742496775918684,left,-0.0010244250297546387,-0.22012447094721282,-1.8296936538420616,-9.393480117753148,-0.11474538957651936,0.0013704670127481222,0.000045493245124816895,2.141293651536107,-0.0003766864538192749
1746728671312592400,13.20859228515625,-0.19237459846540708,0.0011002024402841926,-0.08887796326548018,-0.00773781118914485,-0.04752334190358569,0.9882691094556564,-0.11742496775918684,left,-0.0005394816398620605,-0.22012447094721282,-1.8296936538420616,-9.393480117753148,-0.11474538957651936,0.0024455415550619364,-0.0007111728191375732,2.141293651536107,-0.00005614757537841797
1746728671352592400,13.24859228515625,-0.19237459846540708,0.00017318240134045482,-0.08887796326548018,-0.0051528336480259895,-0.04752334190358569,0.9882691094556564,-0.11742496775918684,left,-0.00029796361923217773,-0.22012447094721282,-1.8296936538420616,-9.393480117753148,-0.11474538957651936,0.002940850332379341,-0.0012070834636688232,2.141293651536107,8.195638656616211e-7
1746728671392592400,13.28859228515625,-0.19278587382904655,-0.0017139052506536245,-0.08908365857566954,-0.003515993244946003,-0.04754000222700333,0.9882584613690688,-0.11748812738312116,left,-0.0006545186042785645,-0.21994691507266192,-1.8336296781167387,-9.393099594002962,-0.11467035236328288,0.002235392341390252,-0.0005854219198226929,2.139594446402788,0.0004170536994934082
1746728671432592600,13.328592529296875,-0.19319711796009215,-0.003600992728024721,-0.08928934401311589,-0.0018791528418660164,-0.04755666255042032,0.9882478132824811,-0.1175512163392354,left,-0.0010112524032592773,-0.2197693338333991,-1.8375652639999984,-9.392717901208997,-0.11459530398879435,0.0015299345832318068,0.00003619492053985596,2.137894802878052,0.0008332878351211548
1746728671472592600,13.368592529296874,-0.19366211734107086,-0.0013750703074038029,-0.08952363032742244,-0.007758432999253273,-0.04756082262217497,0.9882364530355259,-0.11759275035491945,left,-0.001878201961517334,-0.21956837740906665,-1.8420153752766548,-9.392283601444959,-0.1145090416824366,0.005786451511085033,0.00022952258586883545,2.135971433600038,0.00034336745738983154
1746728671512592600,13.408592529296875,-0.19366211734107086,-0.0011242498876526952,-0.08952363032742244,-0.006500555202364922,-0.04756082262217497,0.9882364530355259,-0.11759275035491945,left,-0.00040036439895629883,-0.21956837740906665,-1.8420153752766548,-9.392283601444959,-0.1145090416824366,0.002021278953179717,0.0010926425457000732,2.135971433600038,-0.00009174644947052002
1746728671552592600,13.448592529296874,-0.19366211734107086,-0.0008734294679015875,-0.08952363032742244,-0.00524267740547657,-0.04756082262217497,0.9882364530355259,-0.11759275035491945,left,0.0010774731636047363,-0.21956837740906665,-1.8420153752766548,-9.392283601444959,-0.1145090416824366,-0.001743893139064312,0.001955762505531311,2.135971433600038,-0.0005268603563308716
1746728671592592400,13.48859228515625,-0.19366211734107086,0.002555491868406534,-0.08952363032742244,-0.0072153606452047825,-0.04756082262217497,0.9882364530355259,-0.11759275035491945,left,0.000738978385925293,-0.21956837740906665,-1.8420153752766548,-9.392283601444959,-0.1145090416824366,0.002686592750251293,0.0020659416913986206,2.135971433600038,0.0004474818706512451
1746728671632592400,13.52859228515625,-0.19366211734107086,0.0059844134375452995,-0.08952363032742244,-0.009188043884932995,-0.04756082262217497,0.9882364530355259,-0.11759275035491945,left,0.000400543212890625,-0.21956837740906665,-1.8420153752766548,-9.392283601444959,-0.1145090416824366,0.007117078639566898,0.002176135778427124,2.135971433600038,0.0014218240976333618
1746728671672592600,13.568592529296875,-0.1938031187818826,0.006255765445530415,-0.08962252151659857,-0.01349246222525835,-0.0472759033716813,0.9882395499440105,-0.11703983975423168,left,0.00021266937255859375,-0.2196395520602363,-1.8433103835232554,-9.391874436122178,-0.1145227490814733,0.0018497365526854992,0.0011322349309921265,2.1366526938624677,0.0010447502136230469
1746728671712592600,13.608592529296875,-0.19394407830841132,0.006527117919176817,-0.0897214028330329,-0.01779688149690628,-0.046990939476178814,0.9882426073615228,-0.1164868529117959,left,0.00002485513687133789,-0.21971082078311777,-1.8446048072479664,-9.391465270799397,-0.11453644531926056,-0.0034176055341959,0.00008828938007354736,2.137334830907732,0.0006675869226455688
1746728671752592600,13.648592529296875,-0.19433502810001996,0.00897810235619545,-0.08992863116959232,-0.012141359969973564,-0.04673483680308313,0.9882184346008146,-0.11604774211106926,left,-0.0032789111137390137,-0.22003718164745065,-1.848141456941515,-9.390058326610923,-0.11468694585714508,-0.007000165991485119,0.0001484006643295288,2.1404582236252723,0.0021552741527557373
1746728671792592600,13.688592529296875,-0.19457805372046713,0.005855955183506012,-0.09005717897852629,-0.009728699922561646,-0.04661201652427283,0.9882069567412997,-0.11583823584432881,left,-0.0022205710411071777,-0.22014167556592446,-1.8503801757790148,-9.38938963356912,-0.11473475955421397,0.0004710056819021702,-0.00021167099475860596,2.1414583405785264,0.001528516411781311
1746728671832592400,13.72859228515625,-0.19457805372046713,0.0027338084764778614,-0.09005717897852629,-0.0073160408064723015,-0.04661201652427283,0.9882069567412997,-0.11583823584432881,left,-0.001094043254852295,-0.22014167556592446,-1.8503801757790148,-9.38938963356912,-0.11473475955421397,0.00794217735528946,-0.0008000284433364868,2.1414583405785264,0.0010037124156951904
1746728671872592400,13.76859228515625,-0.19483729200466948,0.0013707773759961128,-0.09021053185874688,-0.00510647427290678,-0.04647628290465332,0.9882162849781201,-0.11556430383778807,left,-0.0007721185684204102,-0.21985984848486412,-1.852931029305607,-9.389501277250051,-0.11458936230554091,0.012977789156138897,-0.001797497272491455,2.1387612104490397,0.0009586215019226074
1746728671912592400,13.80859228515625,-0.19483729200466948,0.0015296702040359378,-0.09021053185874688,-0.0007399478927254677,-0.04647628290465332,0.9882162849781201,-0.11556430383778807,left,-0.0010204911231994629,-0.21985984848486412,-1.852931029305607,-9.389501277250051,-0.11458936230554091,0.00781303085386753,-0.0024926215410232544,2.1387612104490397,0.00021263957023620605
1746728671952592600,13.848592529296875,-0.19483729200466948,-0.0018401768757030368,-0.09021053185874688,0.003851573448628187,-0.04647628290465332,0.9882162849781201,-0.11556430383778807,left,-0.0006608366966247559,-0.21985984848486412,-1.852931029305607,-9.389501277250051,-0.11458936230554091,0.0024139261804521084,-0.0019260793924331665,2.1387612104490397,-0.0008051395416259766
1746728671992592600,13.888592529296876,-0.19483729200466948,-0.006832767743617296,-0.09021053185874688,0.0076212831772863865,-0.04647628290465332,0.9882162849781201,-0.11556430383778807,left,-0.0007941722869873047,-0.21985984848486412,-1.852931029305607,-9.389501277250051,-0.11458936230554091,0.001949245110154152,-0.0010442882776260376,2.1387612104490397,-0.0018049925565719604
1746728672032592600,13.928592529296875,-0.1946275166702903,-0.0060403356328606606,-0.09010574443685834,0.006985282991081476,-0.04667398148944795,0.9882444999588049,-0.11588698858689656,left,-0.00039637088775634766,-0.21934908273266387,-1.8511723490700125,-9.390960243886708,-0.11434697390114226,0.004335873760282993,-0.0012728571891784668,2.133872561624646,-0.0007460415363311768
1746728672072592400,13.96859228515625,-0.19441761876276933,-0.005247903522104025,-0.09000094783980508,0.006349282804876566,-0.04687168007424194,0.9882727149394894,-0.1162097673827153,left,0.0000011324882507324219,-0.21883840903135465,-1.8494113307468592,-9.392416287913917,-0.11410457371844511,0.00672250147908926,-0.0015016496181488037,2.1289842050611973,0.0003128349781036377
1746728672112592400,14.00859228515625,-0.19416958954724503,-0.0006238236092031002,-0.08988854299078117,0.006253671832382679,-0.046959071164989395,0.9883055336638255,-0.11630965329539178,left,0.0000813603401184082,-0.21837237771247237,-1.8472730035439133,-9.39384719749987,-0.11387324040442391,0.007224379573017359,-0.0002489238977432251,2.1245228417381643,-0.000007644295692443848
1746728672269374700,14.165374755859375,-0.1938680074271399,0.002525199670344591,-0.08975533846148362,-0.0032934225164353848,-0.0468681825711576,0.9883286673093803,-0.11608222551724333,left,0,-0.2182878562203698,-1.8444744588665662,-9.394580187949538,-0.1138142471768533,-0.01195800956338644,0,2.1237135711818933,0
1746728672309374500,14.20537451171875,-0.19387324826536448,-0.00217164633795619,-0.08973876903441325,-0.010354161262512207,-0.046944838598276736,0.9883110081523719,-0.11626466219213206,left,0.00375974178314209,-0.21854573645402553,-1.844418198634684,-9.394033075460792,-0.11394982092161107,-0.008285251446068287,-0.0009062737226486206,2.126182445513457,-0.0007979422807693481
1746728672349374500,14.24537451171875,-0.19387324826536448,-0.001099252956919372,-0.08973876903441325,0.012153558433055878,-0.046944838598276736,0.9883110081523719,-0.11626466219213206,left,-0.0049664974212646484,-0.21854573645402553,-1.844418198634684,-9.394033075460792,-0.11394982092161107,-0.007772069424390793,0.0011130720376968384,2.126182445513457,0.0006823986768722534
1746728672389374500,14.28537451171875,-0.193500506321684,-0.0020215557888150215,-0.08952484781876782,0.010134213604032993,-0.04708871279016131,0.9883008434335888,-0.11655316579990567,left,-0.003934979438781738,-0.2189358078909495,-1.8407568996481596,-9.39390506516695,-0.11414650636551679,-0.009853756986558437,0.0012248754501342773,2.12991666360572,0.0005368143320083618
1746728672429374500,14.32537451171875,-0.19312785140601454,-0.002943858504295349,-0.08931091742795619,0.008114868775010109,-0.047232581828009004,0.9882905945788252,-0.11684154709798253,left,-0.002903759479522705,-0.2193259893911686,-1.8370963313139974,-9.39377413226366,-0.11434318003112787,-0.011935444548726082,0.0013367682695388794,2.133651466219872,0.000391155481338501
1746728672469374500,14.36537451171875,-0.19298797246174193,0.001192346215248108,-0.08921289393551991,0.0024261423386633396,-0.047341075520715585,0.9882687893579196,-0.11708935595639029,left,0.0005491375923156738,-0.21975658662840203,-1.835605946625769,-9.393128235575556,-0.114563437228066,-0.012158123776316643,0.00032483041286468506,2.13777278393358,0.0017731338739395142
1746728672509374700,14.405374755859375,-0.19303716549211739,0.007849443703889847,-0.08922390874742862,-0.00243990495800972,-0.047276725914675105,0.9882419486759146,-0.11701738659991008,left,0.00019299983978271484,-0.22026572921878873,-1.8358590446040033,-9.391968544146419,-0.11481265731618093,-0.01057196594774723,-0.0003015100955963135,2.1426455045364796,0.0010311603546142578
1746728672549374500,14.44537451171875,-0.19319504738730883,0.004995615221560001,-0.08929514340604516,-0.0038527792785316706,-0.04713983194214596,0.988211655711156,-0.11681440846104973,left,0.00025266408920288086,-0.22080517411642986,-1.8371197121895848,-9.390542895257472,-0.11507354442500244,-0.009128053672611713,-0.0009239614009857178,2.147807563474774,0.0006806850433349609
1746728672589374500,14.48537451171875,-0.19335283418054652,0.0021417872048914433,-0.08936636888949816,-0.005265653599053621,-0.04700289332460796,0.9881813232554252,-0.11661141564552892,left,0.0003120899200439453,-0.22134466778632053,-1.8383783339485524,-9.38911432375908,-0.1153344197555281,-0.007684141397476196,-0.0015465766191482544,2.152969330152124,0.00033020973205566406
1746728672629374500,14.52537451171875,-0.19335283418054652,-0.0045732795260846615,-0.08936636888949816,0.006035097409039736,-0.04700289332460796,0.9881813232554252,-0.11661141564552892,left,-0.0007080435752868652,-0.22134466778632053,-1.8383783339485524,-9.38911432375908,-0.1153344197555281,-0.005240196827799082,-0.0020180940628051758,2.152969330152124,0.0009140223264694214
1746728672669374500,14.56537451171875,-0.19320455960225533,-0.005019302945584059,-0.0892657697740303,0.0041597564704716206,-0.04713904567572701,0.9881650443275681,-0.11690167284348855,left,0.00026732683181762695,-0.22165429798162387,-1.8368581386439502,-9.388732630965112,-0.11549667569105779,-0.0017044241540133953,-0.0013409405946731567,2.1559316870890557,0.0013053566217422485
1746728672709374500,14.60537451171875,-0.19320455960225533,-0.00346967950463295,-0.0892657697740303,0.005965014919638634,-0.04713904567572701,0.9881650443275681,-0.11690167284348855,left,-0.00021755695343017578,-0.22165429798162387,-1.8368581386439502,-9.388732630965112,-0.11549667569105779,-0.0014796580653637648,-0.00030663609504699707,2.1559316870890557,0.001107141375541687
1746728672749374700,14.645374755859375,-0.1928122311637668,-0.002268168842419982,-0.08904580402282257,0.010127469897270203,-0.047293043905008963,0.988161606722314,-0.11719511894958802,left,-0.0004538297653198242,-0.22192200231593615,-1.833063860927522,-9.388885775700212,-0.11563259930735544,-0.0067357635125517845,0.000014677643775939941,2.158492623618245,0.0008591711521148682
1746728672789374500,14.68537451171875,-0.19254858180465254,-0.004863802343606949,-0.0888763092943446,0.0073201414197683334,-0.047463836040368655,0.9881372942027862,-0.11756368132762371,left,-0.00019443035125732422,-0.22244340978801205,-1.8303728682778775,-9.388262675365805,-0.11590004199500853,-0.010736781172454357,0.0006287693977355957,2.163480202772468,0.00036163628101348877
