time,seconds_elapsed,roll,rotationRateZ,quaternionY,rotationRateY,quaternionZ,quaternionW,yaw,devicelocation,accelerationZ,pitch,gravityX,gravityZ,quaternionX,rotationRateX,accelerationX,gravityY,accelerationY
1746575917181855000,0.21885498046875,-0.8009551957302874,0.0706033855676651,-0.3868454462557049,-0.010256289504468441,7.99551176619779e-18,0.919039075261111,-0.05911129534575669,right,-0.27882009744644165,-0.1394397049959725,-6.973039269968867,-6.759386582416296,-0.07561608827936513,0.08977609127759933,0.8682494759559631,1.3630093312896787,0.04884900152683258
1746575917221855000,0.25885498046875,-0.32387088367764855,0.10562338680028915,-0.16937471025666673,-0.02538936398923397,0.10489606125330926,0.9752581593785072,0.17749744243969748,right,-0.05151289701461792,-0.2243000123324559,-3.042676966576278,-9.063924338260293,-0.09581590367334274,0.12616175413131714,0.4634954333305359,2.181233886127919,-0.045159295201301575
1746575917261855200,0.298855224609375,0.16218227110867925,0.1406433880329132,0.058574461950583676,-0.040522441267967224,0.20330274516643365,0.971142422041895,0.42831069258674137,right,-0.01456683874130249,-0.19116785183608587,1.554655061956495,-9.501656414833665,-0.11008802331353079,0.16254740953445435,-0.009270548820495605,1.8633182755462825,-0.023313581943511963
1746575917301855000,0.33885498046875,0.1590412721870431,0.13660091161727905,0.05802985341058379,-0.03215234354138374,0.20680945299660794,0.971077508398317,0.4340071087033426,right,0.0037885308265686035,-0.17945548071589662,1.5281543007828293,-9.527388821983337,-0.10426359779684968,0.19064904749393463,-0.005486130714416504,1.7504263481207192,-0.012933418154716492
1746575917341855000,0.37885498046875,0.15790790608715985,0.12571193277835846,0.05795374440526764,-0.01114722341299057,0.2088570638786049,0.9709485148582837,0.437520100572471,right,0.003700435161590576,-0.17354227658420615,1.5189564104571938,-9.53916986066997,-0.10138570117960383,0.13344347476959229,-0.003513425588607788,1.6933385793730615,-0.008934751152992249
1746575917381855000,0.41885498046875,0.15675461880784772,0.11482296139001846,0.0578769059446909,0.009857898578047752,0.21090205727824066,0.9708074097548965,0.4410363013670571,right,0.003579854965209961,-0.16763302060400262,1.5094899323232471,-9.550632334926723,-0.09850652849520428,0.07623791694641113,-0.0015133023262023926,1.6362297678373754,-0.004933908581733704
1746575917421855000,0.45885498046875,0.15558143895464335,0.10393399000167847,0.05779934984637943,0.030863018706440926,0.2129444009027222,0.9706542431869507,0.44455595588463714,right,0.003426790237426758,-0.161727831089736,1.4997553047724068,-9.561775660231708,-0.09562613417616901,0.019032351672649384,0.0005141347646713257,1.5791032745145261,-0.0009312629699707031
1746575917461855000,0.49885498046875,0.15648948184050684,0.05981264263391495,0.05812079721848068,0.050932615995407104,0.21475437694010677,0.9702415215048548,0.4483236177423294,right,0.0018335580825805664,-0.16118884608587453,1.5085696026079356,-9.5612490060091,-0.09557163970013381,-0.026832185685634613,0.0049543678760528564,1.5738864166490734,-0.0006692558526992798
1746575917501855200,0.538855224609375,0.15952096689408346,0.042798399925231934,0.059307706464348464,0.05068344995379448,0.21568931704273095,0.9698517236882003,0.4506968266665608,right,0.0008757114410400391,-0.1626766731637611,1.5371737658016382,-9.554309562134742,-0.09668704521311947,-0.03311062604188919,0.003864601254463196,1.5882861134015023,-0.01350364089012146
1746575917541855000,0.57885498046875,0.16176473306678443,0.05655331909656525,0.06020202905695093,0.049549661576747894,0.21648354363315941,0.969547658856991,0.45264525336867695,right,0.005258679389953613,-0.1635421603680495,1.5583854806564748,-9.549476150628923,-0.0974060494232539,-0.04248913750052452,0.005676522850990295,1.5966609969064591,-0.01710370182991028
1746575917581855000,0.61885498046875,0.16447465755784713,0.06581834703683853,0.06125615823134788,0.048489127308130264,0.21778377657812187,0.9691047016993536,0.45569762323510116,right,0.006161749362945557,-0.16449779970451903,1.584007559299469,-9.543708088621496,-0.09825467017742341,-0.0841175764799118,0.004256710410118103,1.6059068180270493,-0.010777443647384644
1746575917621855000,0.65885498046875,0.16793194053824442,0.07527334988117218,0.06249630622378221,0.057733483612537384,0.21956668079011432,0.9684753321516307,0.4599302615115958,right,-0.0017244219779968262,-0.1664378060979154,1.616469566965103,-9.53508522170484,-0.09970034634713698,-0.12761284410953522,0.0017497837543487549,1.6246718703821301,-0.0044142454862594604
1746575917661855000,0.69885498046875,0.1702053674045133,0.08022305369377136,0.0631933434190561,0.061324454843997955,0.22074755469439372,0.9680159989656867,0.46283506732693597,right,-0.0030241012573242188,-0.16864165537955608,1.6375322287380694,-9.527833643141388,-0.10110524098155,-0.12692907452583313,0.0027237683534622192,1.6459816387839614,-0.004471078515052795
1746575917701855000,0.73885498046875,0.17248607982737904,0.08517275750637054,0.0638901158374756,0.06491542607545853,0.22192742361417037,0.9675526141051679,0.4657457614846326,right,-0.0043332576751708984,-0.1708389469489438,1.6586334689557551,-9.520488541075586,-0.10250971238037376,-0.12624530494213104,0.00369378924369812,1.667220095515251,-0.0045206546783447266
1746575917741855200,0.778855224609375,0.1761385753920403,0.09565741568803787,0.06506244820678149,0.05598584935069084,0.2241211077177396,0.9667665122363599,0.4709666374860588,right,-0.00994807481765747,-0.17356536662137995,1.6925930217027663,-9.509856087902188,-0.10439903053907666,-0.056293413043022156,0.012674331665039062,1.6935617206044493,-0.0037060976028442383
1746575917781855200,0.818855224609375,0.17870336318113272,0.08462298661470413,0.06617533755174898,0.012438520789146423,0.2263762861799095,0.9661713793372413,0.4757958151944252,right,-0.00850600004196167,-0.1725200596816823,1.717291994151473,-9.50722047870159,-0.1043430804691947,0.00344279408454895,0.010978937149047852,1.6834638126991688,-0.0013147294521331787
1746575917821855000,0.85885498046875,0.17937273459269323,0.06723516434431076,0.06653551245266885,-0.005748603492975235,0.22761988305711664,0.9659087001384287,0.47829027706132154,right,-0.0018496513366699219,-0.17114201335126022,1.7240676257662475,-9.50834276072979,-0.10383869643171877,0.028127755969762802,0.011380806565284729,1.6701488424435258,-0.001637980341911316
1746575917861855000,0.89885498046875,0.17950761119466674,0.046657126396894455,0.06670054958383967,-0.03440608084201813,0.22882325099807074,0.9656961100540491,0.4805971378449033,right,-0.004658818244934082,-0.16933781258332212,1.7258853427127003,-9.511059033951163,-0.10306293114224735,0.025046274065971375,0.0069389790296554565,1.6527113854303954,0.0011539161205291748
1746575917901855000,0.93885498046875,0.1787581608443569,0.03466493636369705,0.06634215804821118,-0.05159447714686394,0.22951936321692457,0.9655896956051926,0.48189542253586765,right,-0.0020241737365722656,-0.16876154654011957,1.7189258789636195,-9.51328547782898,-0.10274303848399255,0.002590896561741829,0.005652695894241333,1.64714074569121,0.0005810409784317017
1746575917941855000,0.97885498046875,0.17800799824380786,0.02267274633049965,0.06598370991458308,-0.06878287345170975,0.23021531518175622,0.9654825396320489,0.4831940099132095,right,0.0006095767021179199,-0.16818620959377908,1.7119563322119413,-9.515503738400339,-0.10242305820803213,-0.019864480942487717,0.004367455840110779,1.6415784353889524,0.000007331371307373047
1746575917981855000,1.01885498046875,0.17550857801105396,0.03728871792554855,0.06443550687638046,-0.06803766638040543,0.23115917598689936,0.9652838615182866,0.4851007400829981,right,0.0015082359313964844,-0.17017471790705924,1.6875944827631115,-9.516519637444615,-0.10315321278966406,-0.0633615031838417,0.0024153441190719604,1.660800583861768,0.00137387216091156
1746575918021855200,1.058855224609375,0.1737417390982464,0.0376739427447319,0.06303636666505863,-0.04941514879465103,0.23239009659649942,0.9649230213520804,0.4878191991777244,right,0.0057443976402282715,-0.17346620794022113,1.6698237021423876,-9.514051201504468,-0.10461747613659433,-0.08554704487323761,0.0028888285160064697,1.6926038353577255,0.009290218353271484
1746575918061855000,1.09885498046875,0.17311568488738138,0.04040589556097984,0.06231784706975388,-0.03311532735824585,0.23321145197755883,0.9646391379830259,0.48973083587587857,right,0.007522642612457275,-0.1760196142654326,1.6631171902410684,-9.510805935972929,-0.10583157540607022,-0.08948662877082825,0.0028986483812332153,1.7172629141874611,0.012027427554130554
1746575918101855000,1.13885498046875,0.1724942478027374,0.04313785210251808,0.06159914585101576,-0.016815507784485817,0.2340321195629474,0.9643524711060009,0.49164155521796044,right,0.009293198585510254,-0.17857414109095734,1.6564480877406895,-9.50748526711762,-0.10704536626185637,-0.09342622011899948,0.00290466845035553,1.7419215546257794,0.014764666557312012
1746575918141855000,1.17885498046875,0.17371314882723368,0.048563528805971146,0.06142158933280184,0.013730759732425213,0.23534923652455605,0.9637641731973272,0.4950207149513821,right,0.0019347071647644043,-0.1832343402512558,1.6666143847070634,-9.497360178944469,-0.10952978483092056,-0.07415367662906647,0.005186915397644043,1.7868765486396847,0.0123673677444458
1746575918181855000,1.21885498046875,0.17452713413701257,0.04586699604988098,0.0614166844587053,0.0005181469023227692,0.23622201105584653,0.9634107500080673,0.49717028172908123,right,0.00027614831924438477,-0.18545237498077996,1.6736521743893622,-9.492074347496033,-0.11075603831870998,-0.052624884992837906,0.005135059356689453,1.8082595284081995,0.008900254964828491
1746575918221855000,1.25885498046875,0.17490515606655013,0.04287499934434891,0.061267537923566685,-0.013150563463568687,0.23721234649881393,0.9630739620847761,0.49945015847851093,right,-0.0017011165618896484,-0.18707211633656357,1.6767283669643103,-9.488543835282325,-0.1116475664213147,-0.023310886695981026,0.004227593541145325,1.8238690393418073,0.007325693964958191
1746575918261855200,1.298855224609375,0.1746877328762322,0.036047615110874176,0.06102721139923124,-0.021533895283937454,0.23789959564022908,0.9628936152396254,0.5009002882075304,right,-0.0025964975357055664,-0.18750314470104945,1.6745285188324748,-9.488133500915765,-0.11187273483086066,-0.006267135962843895,0.0026618093252182007,1.8280220673680305,0.008942738175392151
1746575918301855000,1.33885498046875,0.17447086731563546,0.029220230877399445,0.06078683462486319,-0.029917225241661072,0.23858665223482978,0.9627125769689828,0.5023502863739758,right,-0.0034921765327453613,-0.18793442616900524,1.6723337852671742,-9.487719074895978,-0.1120978115309139,0.010776614770293236,0.0010954886674880981,1.8321771412208676,0.010559573769569397
1746575918341855000,1.37885498046875,0.173350770456243,0.01988893747329712,0.06026414169328727,-0.033338405191898346,0.23915606486573465,0.9626476011897287,0.5033403186279299,right,-0.0013239383697509766,-0.18737006957936964,1.6618837029233573,-9.490603105899691,-0.11172349659018078,0.014514805749058723,0.00024452805519104004,1.8267399186030029,0.003547355532646179
1746575918381855000,1.41885498046875,0.17216117234219885,0.021426493301987648,0.059693451732113136,-0.0262749046087265,0.23965982287921425,0.9625932784849265,0.5042056372567361,right,0.0005954504013061523,-0.18697678480750263,1.6507155354380607,-9.493280216154455,-0.11141853742408128,0.0044146813452243805,-0.0012274384498596191,1.8229504631921647,0.0017697662115097046
1746575918421855000,1.45885498046875,0.17152421474209206,0.02076663263142109,0.05934450914081357,-0.024299681186676025,0.2400332112535057,0.962526899698575,0.5049104564140843,right,-0.0010280609130859375,-0.18700130064444026,1.6446607654437422,-9.494286178326606,-0.111374872256007,-0.004673664458096027,-0.0006189197301864624,1.8231867561660706,0.00019903481006622314
1746575918461855000,1.49885498046875,0.1708872309911581,0.02010677196085453,0.05899554546109683,-0.02232445776462555,0.24040647830499237,0.962460159053081,0.5056150889985875,right,-0.002651989459991455,-0.18702622413002606,1.6386049725361167,-9.49528687980175,-0.11133116749553554,-0.013762010261416435,-0.000010311603546142578,1.8234268485322593,-0.0013720989227294922
1746575918501855200,1.538855224609375,0.16968089675185027,0.032479431480169296,0.058252864167348185,-0.02932627499103546,0.2412633176219652,0.9622728278014012,0.5073138763846758,right,-0.000029861927032470703,-0.1875537339718145,1.626986577065289,-9.496307455021142,-0.11148846825316859,-0.012642376124858856,0.0003075152635574341,1.828509558624029,-0.0018647611141204834
1746575918541855000,1.57885498046875,0.16921740435508034,0.0364714153110981,0.057925654187594273,-0.022555705159902573,0.24196653227285886,0.9621070978020239,0.5087427130233283,right,-0.0007001757621765137,-0.18774480549960196,1.6225260905250907,-9.496716035822033,-0.11156551379874013,-0.016944045200943947,0.00004774332046508789,1.8303503641851244,-0.0009610652923583984
1746575918581855000,1.61885498046875,0.16863490439059464,0.03236594423651695,0.05749129825866127,-0.01725606992840767,0.24278700588111327,0.9619031336226755,0.5104315077058782,right,0.0007634758949279785,-0.18820954319427302,1.616851113628596,-9.496819496196508,-0.11176626307537935,-0.019753653556108475,0.0005915611982345581,1.8348276557296515,0.00018233060836791992
1746575918621855000,1.65885498046875,0.16808689680449543,0.030840355902910233,0.05706824529149933,-0.01896761730313301,0.24361263938697322,0.9616939148090012,0.5121384980132063,right,0.0012589693069458008,-0.18870493248475825,1.6114942627705633,-9.496807221236825,-0.11198576988724335,-0.011374597437679768,0.00031350553035736084,1.8395996924370526,-0.0018190592527389526
1746575918661855000,1.69885498046875,0.16770792607098492,0.02491353452205658,0.056818233004253864,-0.013700378127396107,0.24408089705395378,0.9615858615584992,0.5130808711955582,right,0.0023436546325683594,-0.18882086270144885,1.6078594133995472,-9.49720644968748,-0.11202189284726163,-0.008399593643844128,0.0015148818492889404,1.8407164215072989,0.00012883543968200684
1746575918701855000,1.73885498046875,0.16732903742741165,0.018986711278557777,0.05656820366519028,-0.008433138951659203,0.24454903339812953,0.9614774464488552,0.5140230780918956,right,0.003428161144256592,-0.1889371310004635,1.6042252946808933,-9.497603924572466,-0.11205798247723212,-0.005424589850008488,0.0027161985635757446,1.8418363654479384,0.0020764172077178955
1746575918741855200,1.778855224609375,0.16721628679056913,0.012439011596143246,0.056391486573808915,-0.016091296449303627,0.24494366717295357,0.9613543443167019,0.5148924188960144,right,-0.005611419677734375,-0.1895043948094725,1.602980263055861,-9.496753445222973,-0.11234029456493716,-0.023797186091542244,-0.0014789551496505737,1.8473000376813113,0.0015693604946136475
1746575918781855200,1.818855224609375,0.16696844684584605,0.017084235325455666,0.05610884683206718,-0.009639449417591095,0.24526121896478287,0.9612385005748127,0.515626054668992,right,-0.0036805272102355957,-0.19044312352146986,1.600337639592588,-9.49543593288362,-0.11277985318047011,-0.023085162043571472,-0.002135172486305237,1.8563401070967316,0.0014116913080215454
1746575918821855000,1.85885498046875,0.16672123862352292,0.02172945998609066,0.05582617858887398,-0.003187604248523712,0.24557871401939244,0.9611221947761914,0.5163596244971296,right,-0.0017507076263427734,-0.19138197426706943,1.597700276826322,-9.494108483672141,-0.11321935038910876,-0.02237313613295555,-0.0027919262647628784,1.865379884251207,0.0012540817260742188
1746575918861855000,1.89885498046875,0.16638174589888557,0.02304127812385559,0.05546073265929495,-0.011475871317088604,0.2461813027042464,0.9609347897895042,0.5176796576031228,right,-0.002317488193511963,-0.19235742733245986,1.5941750253096223,-9.492851177087426,-0.11368105558264585,-0.02078196033835411,0.0003671497106552124,1.874770228409022,0.004653245210647583
1746575918901855000,1.93885498046875,0.16602316416918492,0.022279132157564163,0.055187774041184585,-0.016811635345220566,0.24666401032421179,0.9608095997421847,0.5186783184978319,right,-0.0006484389305114746,-0.19269260555456574,1.590667017188668,-9.492802077248692,-0.11382485801821932,-0.007904179394245148,-0.00014314055442810059,1.8779964969791472,0.0031777769327163696
1746575918941855000,1.97885498046875,0.1659135146243658,0.015503527596592903,0.05508659419741441,0.0019080787897109985,0.24714520288182942,0.9606933610952045,0.5196609002968743,right,0.00010985136032104492,-0.19263610180439758,1.5896435193598268,-9.493080894190072,-0.11381137976754972,0.003933544270694256,0.0004656761884689331,1.8774525993607938,0.0017691254615783691
1746575918981855000,2.01885498046875,0.16602450518646503,0.010243356227874756,0.05513156668630262,0.0024234247393906116,0.2473961906137601,0.9606320473936927,0.5201791151577384,right,0.000410616397857666,-0.19247511637907405,1.5907470966875552,-9.493202474743127,-0.11376237578295041,0.0018547333311289549,-0.00006665289402008057,1.8759030318312346,0.0018894970417022705
1746575919021855200,2.058855224609375,0.16602450518646503,0.0009623076766729355,0.05513156668630262,0.007030492182821035,0.2473961906137601,0.9606320473936927,0.5201791151577384,right,0.00020760297775268555,-0.19247511637907405,1.5907470966875552,-9.493202474743127,-0.11376237578295041,-0.0018075746484100819,0.00018610060214996338,1.8759030318312346,0.0007926225662231445
1746575919061855000,2.09885498046875,0.16602450518646503,-0.006774004083126783,0.05513156668630262,0.008568606339395046,0.2473961906137601,0.9606320473936927,0.5201791151577384,right,0.001204073429107666,-0.19247511637907405,1.5907470966875552,-9.493202474743127,-0.11376237578295041,-0.005287264473736286,0.000309675931930542,1.8759030318312346,-0.0005382895469665527
1746575919101855000,2.13885498046875,0.16680657406789642,-0.0106807891279459,0.0554150899786625,0.00666034035384655,0.2472768192603776,0.9605934673033525,0.5201032553687528,right,0.0012058019638061523,-0.1932089989726422,1.5979419766277074,-9.490595507115126,-0.11420799203469986,-0.014135844074189663,0.0012914687395095825,1.8829665404766798,-0.0008509457111358643
1746575919141855000,2.17885498046875,0.16727172592912876,-0.013071222230792046,0.05555843472689468,0.012289104983210564,0.2470234731040811,0.9606005715922002,0.5197162593386376,right,0.0005489587783813477,-0.19398702439848878,1.6021119557887316,-9.488403550028801,-0.11462679696999684,-0.015048718079924583,0.0023087263107299805,1.8904538274921476,-0.0012190937995910645
1746575919181855000,2.21885498046875,0.16788475114879714,-0.0037957364693284035,0.05581102746753804,0.014837595634162426,0.24684968641741237,0.9605981141561635,0.5194742011257845,right,-0.0007811188697814941,-0.19441146148722988,1.6077940930783747,-9.486627772527932,-0.11489871940518649,-0.0009563034400343895,0.002738267183303833,1.8945378819353877,-0.00008670985698699951
1746575919221855000,2.25885498046875,0.16788475114879714,-0.0031675209756940603,0.05581102746753804,0.0109947444871068,0.24684968641741237,0.9605981141561635,0.5194742011257845,right,-0.0028916597366333008,-0.19441146148722988,1.6077940930783747,-9.486627772527932,-0.11489871940518649,0.019647866487503052,0.0037319809198379517,1.8945378819353877,0.002723783254623413
1746575919261855200,2.298855224609375,0.16847518808770778,-0.011816257610917091,0.05629313037818232,-0.002077218145132065,0.24661485246064602,0.9606958657911733,0.5189163077341689,right,-0.0032477974891662598,-0.19314237381184987,1.6137969867549835,-9.488039392891526,-0.11434900146577087,0.028346562758088112,0.003005191683769226,1.8823253199636936,0.0024668872356414795
1746575919301855000,2.33885498046875,0.16822405611899496,-0.0031495429575443268,0.056353488016142976,-0.007380663882941008,0.2464128700374462,0.9608139419671103,0.5183418820040652,right,-0.00018513202667236328,-0.19201138961265074,1.6117695725806056,-9.490537054926156,-0.11376091906024248,0.02634367346763611,0.002276092767715454,1.8714391842901705,-0.004036769270896912
1746575919341855000,2.37885498046875,0.16808245723358184,0.013710344210267067,0.056384848502895345,-0.001970968209207058,0.24644807618368894,0.960847556001871,0.5183165473037826,right,0.0006065964698791504,-0.19126358743507865,1.6106594193816184,-9.492142736557126,-0.1133850347049217,0.01161385141313076,0.001403018832206726,1.8642400665663181,-0.00569838285446167
1746575919381855000,2.41885498046875,0.16833760964309472,0.021245047450065613,0.05650818162894025,0.0021185269579291344,0.24681381337264444,0.9607589423474474,0.5190715789792584,right,-0.0005221366882324219,-0.19093136185996487,1.6131849923364816,-9.49234147399962,-0.11327889037449179,-0.003316999413073063,0.001792222261428833,1.8610414166554807,-0.003598421812057495
1746575919421855000,2.45885498046875,0.16833760964309472,0.007462577894330025,0.05650818162894025,-0.0017858431674540043,0.24681381337264444,0.9607589423474474,0.5190715789792584,right,-0.0026015043258666992,-0.19093136185996487,1.6131849923364816,-9.49234147399962,-0.11327889037449179,-0.010880040936172009,-0.00003759562969207764,1.8610414166554807,-0.002598971128463745
1746575919461855000,2.49885498046875,0.16833760964309472,0.0013168174773454666,0.05650818162894025,-0.006969823502004147,0.24681381337264444,0.9607589423474474,0.5190715789792584,right,0.0009153485298156738,-0.19093136185996487,1.6131849923364816,-9.49234147399962,-0.11327889037449179,-0.0051477449014782906,0.0023761093616485596,1.8610414166554807,-0.004608526825904846
1746575919501855200,2.538855224609375,0.16858378951719521,-0.0032880972139537334,0.05651959067640804,0.01216843817383051,0.24706681362081828,0.9606566610427458,0.5196874463735244,right,-0.0017461776733398438,-0.19147935661403212,1.6153503536768257,-9.490936867898702,-0.11358878850778643,-0.017684005200862885,0.0019080787897109985,1.8663174573622643,0.0011323988437652588
1746575919541855000,2.57885498046875,0.1688377409187287,-0.031960293650627136,0.056475160672803344,0.006786444690078497,0.24684520820423095,0.9606346558531437,0.5194088088047816,right,0.00031250715255737305,-0.1928677434463185,1.6173235534459351,-9.487962820523977,-0.1142762729799717,-0.049489665776491165,0.0010223686695098877,1.8796821119785307,0.0061025917530059814
1746575919581855000,2.61885498046875,0.16910144812008016,-0.0429699569940567,0.05636067235194977,0.021476857364177704,0.24612784544083072,0.9606904263028762,0.5182076398603856,right,0.0027126073837280273,-0.19523251855626686,1.6190728813312947,-9.483128239974379,-0.11540580458922656,-0.052978359162807465,0.0011432468891143799,1.9024374030135571,-0.000023126602172851562
1746575919621855000,2.65885498046875,0.16956374915663827,-0.0446372888982296,0.05635307412262644,0.014129068702459335,0.2452913206184449,0.9607650502039711,0.5167860084854597,right,-0.0002779364585876465,-0.1976174233940866,1.6226865417838097,-9.477879817926883,-0.11656311046653835,-0.0484556183218956,0.0021320730447769165,1.9253756494000553,0.0011856257915496826
1746575919661855000,2.69885498046875,0.1696454498813823,-0.0382055938243866,0.056184321307672605,0.005762096494436264,0.24446347160387327,0.9608586691500737,0.5153225797779389,right,-0.002173125743865967,-0.1998667158326851,1.622725558619946,-9.473454402700066,-0.11760768643849451,-0.04726765304803848,0.00015686452388763428,1.9469994521871208,0.00016233325004577637
1746575919701855000,2.73885498046875,0.16964033117569974,-0.019951779395341873,0.05601191146588222,0.000965622253715992,0.24392243822078757,0.9609081116316304,0.5143880902205432,right,-0.0014247894287109375,-0.2015941119225401,1.622106842199713,-9.470133733844756,-0.11840702289599432,-0.028651176020503044,-0.001171901822090149,1.9635992893323302,0.0007611662149429321
1746575919741855200,2.778855224609375,0.16940917388012164,-0.006156959570944309,0.05579574388682243,0.003219747683033347,0.24368605322124665,0.9609268579191577,0.5139782873321523,right,0.0020182132720947266,-0.2025883575857406,1.6195878451161085,-9.46857949014008,-0.1188429236671453,-0.011014888063073158,-0.000005409121513366699,1.973151107662171,-0.004242435097694397
1746575919781855200,2.818855224609375,0.16940917388012164,0.027442824095487595,0.05579574388682243,0.01263538096100092,0.24368605322124665,0.9609268579191577,0.5139782873321523,right,-0.0015607476234436035,-0.2025883575857406,1.6195878451161085,-9.46857949014008,-0.1188429236671453,0.00969403050839901,-0.00008043646812438965,1.973151107662171,-0.00014428794384002686
1746575919821855000,2.85885498046875,0.17028884549102505,-0.01997874677181244,0.056272630228549794,0.0017966311424970627,0.24406091717155212,0.9608339864911746,0.5147799337002641,right,-0.0029990077018737793,-0.20180624871520395,1.6281773942850528,-9.468668921989202,-0.11859860935477455,0.019024202600121498,0.0022100508213043213,1.9656375171616671,0.013625010848045349
1746575919861855000,2.89885498046875,0.16979469914564713,-0.05873030424118042,0.056137017864399515,-0.005272839218378067,0.24328674967997121,0.9610526940505391,0.5131055342501534,right,0.0001246929168701172,-0.20178650430741815,1.6235048724293708,-9.469510633510351,-0.11848189627170991,-0.006163287907838821,0.0014042556285858154,1.9654476936779914,0.0056693702936172485
1746575919901855000,2.93885498046875,0.16882262982872592,-0.026115868240594864,0.05560422105856141,-0.027568411082029343,0.2424524418844255,0.9612387348551553,0.5113928425704461,right,-0.002085745334625244,-0.20307641735298362,1.6138718055568635,-9.468577152052521,-0.11893311712696927,-0.03008151240646839,0.004037603735923767,1.9778391193479299,-0.010899156332015991
1746575919941855000,2.97885498046875,0.16805356406705668,0.03517339751124382,0.05499266284002887,-0.019719485193490982,0.24266019469487055,0.9611345898023094,0.5119104182054819,right,-0.0009680986404418945,-0.20470563100465938,1.6060482723243534,-9.466626017984748,-0.11963361264580505,-0.0468025840818882,0.00576213002204895,1.9934853090301154,-0.007623687386512756
1746575919981855000,3.01885498046875,0.1675219259512791,0.049628693610429764,0.05440531164081752,-0.03355712816119194,0.24366487917715063,0.9608222975537497,0.5141058579149704,right,-0.002393484115600586,-0.20624672129873178,1.6005010134607554,-9.46443815255165,-0.12036614134117793,-0.04057886078953743,0.004775255918502808,2.0082804348409176,-0.0011760890483856201
1746575920021855200,3.058855224609375,0.16637653973106667,0.03481199964880943,0.05366388798994867,-0.04562965780496597,0.2446444300942137,0.9605922334997392,0.5160637196668149,right,-0.0019569993019104004,-0.20680899335409844,1.5894722544461488,-9.465150100213288,-0.12054807189876117,-0.008854899555444717,0.002049088478088379,2.0136771793179213,0.0033937692642211914
1746575920061855000,3.09885498046875,0.16483046383000163,0.018765313550829887,0.05290390976226377,-0.04675175994634628,0.24527684542525457,0.960515108007747,0.517146510920188,right,-0.00016748905181884766,-0.20644380599197282,1.5749571146205066,-9.468321131464839,-0.1202129605370613,0.0102012287825346,0.0007874965667724609,2.010172093806416,0.004801824688911438
1746575920101855000,3.13885498046875,0.1634407453681171,0.0256638266146183,0.05230195966213166,-0.03261107951402664,0.24577492679323218,0.9604903849757099,0.5179168027393392,right,0.0011234879493713379,-0.20559088963933922,1.5620757134765386,-9.472188912808894,-0.11965484794799493,0.024426069110631943,-0.00002123415470123291,2.0019846956975758,-0.00006142258644104004
1746575920141855000,3.17885498046875,0.16259549957846453,0.03802448511123657,0.051993007875262114,-0.02519914321601391,0.24642803323899667,0.9604234054740577,0.5190360523680552,right,0.00025910139083862305,-0.2043419968954684,1.5544723988659679,-9.47596550873816,-0.11898291876166733,0.026628661900758743,-0.000005200505256652832,1.9899936675220726,-0.000014081597328186035
1746575920181855000,3.21885498046875,0.16198963551336906,0.02311290055513382,0.0517532722420436,-0.01964564062654972,0.24710272786477136,0.9603240343874543,0.5202638871309343,right,0.0016837120056152344,-0.20339732157796256,1.5490334226824343,-9.478756600761413,-0.11848840629234939,0.008391885086894035,0.0017892122268676758,1.9809214494027196,0.005070939660072327
1746575920221855000,3.25885498046875,0.16127229338947718,-0.01175437867641449,0.051393483509207756,-0.013892008922994137,0.24728257535946263,0.96030784781106,0.5205487526034802,right,0.0029391050338745117,-0.2033857740606406,1.5422371866710483,-9.479888235139846,-0.11840156058797208,-0.002657911740243435,0.0034030377864837646,1.9808105363741515,0.005524292588233948
1746575920261855200,3.298855224609375,0.16032481366412168,-0.028116578236222267,0.05095197848422212,-0.02010607160627842,0.24685503383724988,0.960439096650291,0.5195775865888392,right,0.002773582935333252,-0.20372085229143527,1.5331484558083117,-9.480689614650606,-0.11841986422156119,0.0022998140193521976,0.001782447099685669,1.9840286216378211,-0.0006258338689804077
1746575920301855000,3.33885498046875,0.15946546353588198,-0.01924245059490204,0.050601086708522834,-0.0019036345183849335,0.24636189499236613,0.9605986222060346,0.5184489386865815,right,0.0061574578285217285,-0.20375878603202516,1.5249886763587592,-9.481928801056743,-0.11830338562048692,0.0054499367251992226,0.003540053963661194,1.9843929249055683,-0.001903340220451355
1746575920341855000,3.37885498046875,0.15946546353588198,-0.00457653496414423,0.050601086708522834,-0.0013642738340422511,0.24636189499236613,0.9605986222060346,0.5184489386865815,right,-0.003747403621673584,-0.20375878603202516,1.5249886763587592,-9.481928801056743,-0.11830338562048692,-0.004834568127989769,0.00020469725131988525,1.9843929249055683,-0.0006338506937026978
1746575920381855000,3.41885498046875,0.15946546353588198,0.009057216346263885,0.050601086708522834,0.005773607175797224,0.24636189499236613,0.9605986222060346,0.5184489386865815,right,0.0001736283302307129,-0.20375878603202516,1.5249886763587592,-9.481928801056743,-0.11830338562048692,-0.006234988570213318,0.0019197463989257812,1.9843929249055683,-0.0015263408422470093
1746575920421855000,3.45885498046875,0.16025954627495836,0.022047605365514755,0.05092982553639115,0.004264881368726492,0.24662379806171852,0.9604936407193138,0.5191034540513663,right,-0.0015257596969604492,-0.20386477333047212,1.532484146680683,-9.480507243821025,-0.11846855470935264,0.007346145808696747,0.00037673115730285645,1.9854108697764574,-0.0009374469518661499
1746575920461855000,3.49885498046875,0.1603788152197129,0.00182352215051651,0.051070014389671535,-0.008495647460222244,0.24694848270900083,0.9604521033041833,0.5196978145880221,right,-0.003143310546875,-0.20296528580974407,1.5338994203060865,-9.48208369935751,-0.11806833207066232,0.02666650153696537,-0.0000467449426651001,1.976771782377362,0.01310528814792633
1746575920501855200,3.538855224609375,0.15942615722350467,-0.05002293363213539,0.05078066791851389,-0.026684610173106194,0.24644143103677071,0.960658186681294,0.518448107084079,right,-0.0014433860778808594,-0.20224419716961828,1.5250914060808718,-9.484945518529415,-0.1175741878700617,0.015500483103096485,0.0015107393264770508,1.9698449057236314,0.012498930096626282
1746575920541855000,3.57885498046875,0.15775249900987515,-0.05508901923894882,0.05015896720259377,-0.03622322157025337,0.2453500665985005,0.9610189212841942,0.5159433106802904,right,-0.00022143125534057617,-0.20197362780372335,1.5092983552739023,-9.488010751318932,-0.11717575801957282,0.023810099810361862,-0.0003420114517211914,1.967245536880195,0.0027161985635757446
1746575920581855000,3.61885498046875,0.15640167873316393,-0.031094279140233994,0.04973059261020851,-0.011390767991542816,0.24446985821238973,0.9613363505131852,0.5138671341555399,right,0.0021457672119140625,-0.20120893339389723,1.4967143296413123,-9.491524312397837,-0.11659253406462414,0.03375418856739998,0.00020806491374969482,1.9598983889877795,-0.0014871954917907715
1746575920621855000,3.65885498046875,0.1557637564586677,0.006307661533355713,0.04959968031889007,-0.013187467120587826,0.24420856256175308,0.9614806554024677,0.5131390084635559,right,-0.0016194581985473633,-0.2001805948238064,1.4909709636837243,-9.494462703937291,-0.11600423498916612,0.026563063263893127,-0.002306699752807617,1.9500161696597933,-0.003912612795829773
1746575920661855000,3.69885498046875,0.15553725709159003,0.03474660590291023,0.049574013266990895,-0.009464355185627937,0.2446865175546573,0.9614202667423702,0.5139992438782499,right,-0.0003848075866699219,-0.1991552528467459,1.4891294274702667,-9.496770396357775,-0.11550699760286984,0.014086253941059113,-0.0005484819412231445,1.9401608383387325,-0.0009300857782363892
1746575920701855000,3.73885498046875,0.15555385811567776,0.03080143965780735,0.0495774095572066,-0.0015641683712601662,0.24532502881365872,0.9612839569860967,0.5152744511072492,right,0.0009481906890869141,-0.19862438439359284,1.4894465305954216,-9.497762330004573,-0.11528649033053306,0.0021928511559963226,-0.000304296612739563,1.935057377719879,0.000828087329864502
1746575920741855200,3.778855224609375,0.15555385811567776,0.00575760193169117,0.0495774095572066,0.0005877057556062937,0.24532502881365872,0.9612839569860967,0.5152744511072492,right,0.0011589527130126953,-0.19862438439359284,1.4894465305954216,-9.497762330004573,-0.11528649033053306,-0.0032445047982037067,-0.00005383789539337158,1.935057377719879,0.003394186496734619
1746575920781855200,3.818855224609375,0.15555385811567776,-0.02029292657971382,0.0495774095572066,0.01292050164192915,0.24532502881365872,0.9612839569860967,0.5152744511072492,right,0.0006347298622131348,-0.19862438439359284,1.4894465305954216,-9.497762330004573,-0.11528649033053306,-0.002386008156463504,0.001554727554321289,1.935057377719879,0.0019657015800476074
1746575920821855000,3.85885498046875,0.15600694596856202,-0.032100122421979904,0.04982849736120943,0.010482686571776867,0.2448127843385852,0.9613872006221215,0.5142822375156537,right,0.00003409385681152344,-0.19880838788595748,1.4936942511677742,-9.496734156000613,-0.11540544591645598,0.008180856704711914,0.0010680556297302246,1.936826287088543,0.0007037818431854248
1746575920861855000,3.89885498046875,0.15624850280001587,-0.0286298468708992,0.05005937363087405,0.011119773611426353,0.24413853436196767,0.9615624528085812,0.5128814456146739,right,-0.0005115270614624023,-0.1985465407283745,1.4960671177789568,-9.496873856732249,-0.11527461277453133,0.017715558409690857,0.0006753355264663696,1.9343090435706078,-0.0013490170240402222
1746575920901855000,3.93885498046875,0.15636603172782532,-0.011575225740671158,0.05026015844166566,0.0036975443363189697,0.2436836692959744,0.9617069370388656,0.5118797587127928,right,-0.0015604496002197266,-0.1978772612113824,1.4973844839878379,-9.49797451145053,-0.11494334217401413,0.020548108965158463,0.00005982816219329834,1.9278740420870482,-0.0031200051307678223
1746575920941855000,3.97885498046875,0.15627091751152106,0.003959478810429573,0.05032001058510409,-0.004773903638124466,0.2435741266997042,0.9617726957481103,0.5115699389368477,right,-0.0018118619918823242,-0.19719794490537937,1.4966846651554107,-9.499408928167819,-0.11459862613921312,0.01117060985416174,-0.00041997432708740234,1.9213418638393283,-0.0025531351566314697
1746575920981855000,4.01885498046875,0.15627091751152106,0.0072121769189834595,0.05032001058510409,-0.007099785842001438,0.2435741266997042,0.9617726957481103,0.5115699389368477,right,0.00001436471939086914,-0.19719794490537937,1.4966846651554107,-9.499408928167819,-0.11459862613921312,-0.00847128126770258,-0.00005276501178741455,1.9213418638393283,-0.0012468695640563965
1746575921021855200,4.058855224609375,0.15590576733212255,0.00370090757496655,0.05002830693367578,-0.003734193742275238,0.2438649382944757,0.9616821642429061,0.5121956086302054,right,0.0010334253311157227,-0.19781840775190918,1.4930303804315626,-9.498775306439398,-0.11486698113775617,-0.0279037207365036,0.0008077025413513184,1.9273082248978315,-0.0022352486848831177
1746575921061855000,4.09885498046875,0.1556799764043387,-0.002131546149030328,0.04977401850945325,-0.00036747707054018974,0.24392377144321892,0.9616237856216969,0.5123985807435556,right,0.0021945834159851074,-0.19885427131875427,1.4905752423644065,-9.49713455349505,-0.11534055532067974,-0.02169026993215084,0.001866757869720459,1.937267454984784,-0.002192571759223938
1746575921101855000,4.13885498046875,0.15561934738044012,-0.0006105195498093963,0.049654840523347135,-0.0029784173239022493,0.24392546131012305,0.9615918997978995,0.5124640766596443,right,0.0005326271057128906,-0.1995205641809221,1.4897991434253752,-9.495947389537095,-0.11565383858071723,-0.010648773983120918,0.001116141676902771,1.9436723535910247,-0.002515926957130432
1746575921141855000,4.17885498046875,0.15561934738044012,0.000993794878013432,0.049654840523347135,0.019038213416934013,0.24392546131012305,0.9615918997978995,0.5124640766596443,right,0.005114734172821045,-0.1995205641809221,1.4897991434253752,-9.495947389537095,-0.11565383858071723,-0.002702980302274227,0.0031900554895401,1.9436723535910247,-0.0015918463468551636
1746575921181855000,4.21885498046875,0.15654719585343088,0.0040511260740458965,0.050026712508695094,0.014315569773316383,0.24398063517011417,0.9615181851786547,0.5127375971036173,right,-0.001040816307067871,-0.1999713654493025,1.498472425355017,-9.493694642174244,-0.11598967579211762,-0.00796067900955677,0.0018462389707565308,1.948005268228799,-0.00003173947334289551
1746575921221855000,4.25885498046875,0.15722294032024914,0.011309467256069183,0.050241959234509144,0.007433844264596701,0.2442305896918307,0.9613996159954284,0.5133967762133194,right,-0.0017670989036560059,-0.20052150461007662,1.5047193569205701,-9.491620173987746,-0.11635206418574325,-0.019810285419225693,0.0012481063604354858,1.953292560981959,-0.0012040585279464722
1746575921261855200,4.298855224609375,0.15789917866780484,0.018567807972431183,0.050457199452713,0.0005521182902157307,0.24448052640754478,0.9612809644206147,0.5140565825541208,right,-0.0024940967559814453,-0.20107126915269888,1.5109686265736817,-9.489538691538572,-0.1167144390455201,-0.031659893691539764,0.0006497204303741455,1.9585754698209463,-0.0023759454488754272
1746575921301855000,4.33885498046875,0.1579688372771393,0.02567720040678978,0.05023091957915179,-0.017362691462039948,0.24501367508686564,0.961068939263018,0.5153249721157757,right,-0.0031389594078063965,-0.20249762178246805,1.5111885529346762,-9.486664597406984,-0.1174375007966267,-0.05026547610759735,0.002603486180305481,1.9722794393941758,0.0002350062131881714
1746575921341855000,4.37885498046875,0.15736802258491991,0.02418244257569313,0.04962883985887498,-0.027461856603622437,0.2456110943221312,0.9608476381395072,0.5166838495208483,right,-0.002546370029449463,-0.2042871627473385,1.5049329996712506,-9.484069904738664,-0.11825391217949417,-0.04561708867549896,0.0012888908386230469,1.9894671594299376,0.0019227415323257446
1746575921381855000,4.41885498046875,0.15640231087583772,0.029756709933280945,0.048941035965724015,-0.03784913942217827,0.2462472196703888,0.9606649727181754,0.5180065106696269,right,-0.0005103349685668945,-0.20540064945788872,1.4954275047011674,-9.483324639329314,-0.11870037856802033,-0.018824853003025055,-0.00037086009979248047,2.00015835705325,0.0002443641424179077
1746575921421855000,4.45885498046875,0.15578147163004483,0.026147156953811646,0.048565204545800225,-0.01193254068493843,0.24689046106242793,0.9605234149628871,0.519271152350519,right,0.00039309263229370117,-0.20542048601149754,1.4895334782265126,-9.484211943557858,-0.11866415293866366,0.00411871075630188,-0.001493602991104126,2.000348765058815,0.004524648189544678
1746575921461855000,4.49885498046875,0.15539898451614104,0.019939817488193512,0.048355157215873336,-0.01646537333726883,0.24739658411569326,0.9604209768158541,0.5202523427106781,right,-0.0012012720108032227,-0.20517808972059903,1.4859807541809975,-9.485259991306066,-0.11852475336744778,-0.000024210195988416672,-0.0034619271755218506,1.9980216372855006,0.005019843578338623
1746575921501855200,4.538855224609375,0.15514875708083492,0.016690779477357864,0.04818714103455834,-0.005426336079835892,0.2477979721067063,0.9603273319412827,0.5210574930368341,right,-0.00018107891082763672,-0.20517921276298026,1.483606864656508,-9.485629409140348,-0.11851374054866537,-0.0006962761399336159,-0.0015466362237930298,1.99803245094046,0.0010162293910980225
1746575921541855000,4.57885498046875,0.155444182881061,0.017481617629528046,0.048288335931734545,0.010142809711396694,0.24816197941442525,0.9602241295470287,0.5218471809082837,right,0.0014935135841369629,-0.20513249695928884,1.486423529512435,-9.485282787659763,-0.1185470827957856,-0.0017406938131898642,-0.0006412267684936523,1.9975839765205978,0.001805827021598816
1746575921581855000,4.61885498046875,0.15623268704537122,0.010292869992554188,0.048621166857513526,0.024932440370321274,0.24838957166088527,0.9601295815109882,0.5224276751953985,right,0.002306640148162842,-0.20521813565221603,1.4938755990840493,-9.483938387313485,-0.11869996986572844,-0.005336991511285305,-0.00014328956604003906,1.998406106558442,0.003732234239578247
1746575921621855000,4.65885498046875,0.15737804613032533,-0.0027514873072504997,0.04913515030452334,0.027070609852671623,0.24841219358475491,0.9600688523735098,0.5226354254027347,right,-0.0021666884422302246,-0.2053962610123412,1.5046813629977405,-9.481869764345884,-0.11893243280578511,-0.007632330991327763,0.002783074975013733,2.0001162714771925,0.0051530152559280396
1746575921661855000,4.69885498046875,0.15809462825082668,-0.018058408051729202,0.049455540788048806,0.012781711295247078,0.2481626564259144,0.9600859996898774,0.5222423479345984,right,-0.002027153968811035,-0.20575241740412786,1.5113633249796925,-9.48008521901667,-0.1191819282671541,-0.006871914491057396,0.0022988319396972656,2.003535432270914,0.005100816488265991
1746575921701855000,4.73885498046875,0.15814636453181566,-0.024169648066163063,0.04948607816913404,0.0036748982965946198,0.24767517679532605,0.9601891087895178,0.5212753746309169,right,0.001304328441619873,-0.20614667380790788,1.5117292356826364,-9.479225971838831,-0.11935286165798316,-0.003660154063254595,0.0016053766012191772,2.0073200653761623,0.0038015395402908325
1746575921741855200,4.778855224609375,0.15815277296148747,-0.019016651436686516,0.04951098551537814,0.005607260391116142,0.2471938424103182,0.960298306429587,0.5203029611275579,right,0.0007221102714538574,-0.20642199138328107,1.5117029321976005,-9.478670091521739,-0.1194612079771591,-0.0000010596122592687607,0.0010027438402175903,2.0099626888394355,0.0016995370388031006
1746575921781855200,4.818855224609375,0.15833685525314914,-0.0039007486775517464,0.049628702785515406,0.011640162207186222,0.24693682380705773,0.9603566546239254,0.5197916181456856,right,0.0006912946701049805,-0.20643126133074044,1.5134448074288664,-9.478373154401778,-0.11947569187735262,0.004539412446320057,0.0004941970109939575,2.0100516822971404,-0.00003693997859954834
1746575921821855000,4.85885498046875,0.15833685525314914,0.016682006418704987,0.049628702785515406,0.015017957426607609,0.24693682380705773,0.9603566546239254,0.5197916181456856,right,-0.000017702579498291016,-0.20643126133074044,1.5134448074288664,-9.478373154401778,-0.11947569187735262,0.00479723559692502,0.002129167318344116,2.0100516822971404,0.0001575946807861328
1746575921861855000,4.89885498046875,0.15951379361671944,0.014179544523358345,0.05020911433396379,0.010634133592247963,0.24728814616204153,0.9602446375109434,0.520617137981551,right,-0.00034928321838378906,-0.2059397835715821,1.5247558905161915,-9.477560084453225,-0.11940676571035115,0.0021837849635630846,0.0016082525253295898,2.0053340061254796,0.0036610066890716553
1746575921901855000,4.93885498046875,0.15951379361671944,0.0007169302552938461,0.05020911433396379,0.009224742650985718,0.24728814616204153,0.9602446375109434,0.520617137981551,right,-0.0015842914581298828,-0.2059397835715821,1.5247558905161915,-9.477560084453225,-0.11940676571035115,0.010343738831579685,0.0005549788475036621,2.0053340061254796,0.0010693669319152832
1746575921941855000,4.97885498046875,0.1600333343471648,-0.004096753895282745,0.05057995401685931,0.0018252860754728317,0.2472933654322321,0.9602699851495684,0.5205945723855951,right,-0.0004017949104309082,-0.20502723901942654,1.5299707025550304,-9.478568969234823,-0.11903423314813795,0.023859653621912003,0.00014081597328186035,1.9965733381733297,0.0002713203430175781
1746575921981855200,5.018855224609375,0.16050755627241917,-0.009593399241566658,0.050962190301341616,0.017787396907806396,0.24715035314632558,0.960340691788263,0.520246127959167,right,-0.0019720792770385742,-0.20400952826313556,1.5347893548831342,-9.47984322695434,-0.11859748138566176,0.02215930074453354,0.001032710075378418,1.9868010089606045,0.003118351101875305
1746575922021855200,5.058855224609375,0.16081230374825248,-0.015013990923762321,0.051223777104948874,0.005727464333176613,0.24686429550860042,0.9604328693263199,0.5196238999229981,right,0.00039905309677124023,-0.20341288144285546,1.5378677394151687,-9.480543484178185,-0.1183339663129479,0.012432867661118507,0.0007749199867248535,1.9810707947455346,0.002048969268798828
1746575922061855000,5.09885498046875,0.16103308446764775,-0.01052570715546608,0.051422699769845655,0.009270052425563335,0.2465233433591489,0.9605312185326614,0.5189000839732055,right,0.0012319684028625488,-0.2030310975592497,1.5400820544637739,-9.480949726891517,-0.11816007558131848,0.010301139205694199,-0.000001817941665649414,1.9774039428010581,-0.0006293505430221558
1746575922101855000,5.13885498046875,0.16103308446764775,0.0021434370428323746,0.051422699769845655,-0.0017965985462069511,0.2465233433591489,0.9605312185326614,0.5189000839732055,right,-0.0006328225135803223,-0.2030310975592497,1.5400820544637739,-9.480949726891517,-0.11816007558131848,0.006401163525879383,-0.00009165704250335693,1.9774039428010581,-0.0026858001947402954
1746575922141855000,5.17885498046875,0.16103308446764775,0.010366152040660381,0.051422699769845655,-0.0042903306894004345,0.2465233433591489,0.9605312185326614,0.5189000839732055,right,-0.0008638501167297363,-0.2030310975592497,1.5400820544637739,-9.480949726891517,-0.11816007558131848,-0.00006393855437636375,0.0007009357213973999,1.9774039428010581,-0.0013180375099182129
1746575922181855000,5.21885498046875,0.16103308446764775,0.012789932079613209,0.051422699769845655,-0.004490687046200037,0.2465233433591489,0.9605312185326614,0.5189000839732055,right,-0.00031495094299316406,-0.2030310975592497,1.5400820544637739,-9.480949726891517,-0.11816007558131848,0.0028388488572090864,0.000049620866775512695,1.9774039428010581,-0.0006841421127319336
1746575922221855000,5.25885498046875,0.16051358608000874,0.003073505125939846,0.05119865990078699,-0.0026510856114327908,0.24687316497796696,0.9604868789663291,0.5195141756524463,right,0.0029526352882385254,-0.20256091477695226,1.5353049031898378,-9.482665298637746,-0.11788692742840878,0.0027381726540625095,0.00015434622764587402,1.9728874882899223,0.0009458661079406738
1746575922261855200,5.298855224609375,0.16051358608000874,0.00019077840261161327,0.05119865990078699,0.001559537835419178,0.24687316497796696,0.9604868789663291,0.5195141756524463,right,-0.0027399063110351562,-0.20256091477695226,1.5353049031898378,-9.482665298637746,-0.11788692742840878,0.010673869401216507,-0.001286730170249939,1.9728874882899223,-0.00012618303298950195
1746575922301855000,5.33885498046875,0.16062628503922413,0.0005465324502438307,0.051382576903901404,0.008438285440206528,0.24691400905392397,0.9605226379140896,0.5195073954831775,right,0.001810312271118164,-0.20157516400215017,1.5366839364580809,-9.484407173869013,-0.11742930176747447,0.017160283401608467,0.0005386918783187866,1.9634172107636927,-0.0013617724180221558
1746575922341855000,5.37885498046875,0.16115288926952656,0.0021981243044137955,0.05175854122443166,0.013165478594601154,0.24693105046234262,0.9605448269412896,0.519506682587115,right,-0.0005386471748352051,-0.20063798131659746,1.5419728366464376,-9.485408459866047,-0.11704614406858808,0.021212344989180565,0.0003085881471633911,1.9544117742702363,-0.0013739466667175293
1746575922381855000,5.41885498046875,0.1618021347627017,-0.0021781311370432377,0.052194807356990225,0.0165972001850605,0.24688035754848076,0.9605768249020358,0.5193841518310784,right,-0.00037032365798950195,-0.1997443148524144,1.5484114913918077,-9.486125668224691,-0.11669575791816492,0.019170742481946945,0.0014325529336929321,1.9458229557536542,0.0000931471586227417
1746575922421855000,5.45885498046875,0.16241569819238885,-0.0064246696420013905,0.052592948002149024,0.01742164045572281,0.24671351545195802,0.9606268527076843,0.5190427454377458,right,-0.0000966191291809082,-0.19910747946409368,1.5544316284641622,-9.486394548293948,-0.11645796897263144,0.011970280669629574,0.0003743171691894531,1.9397015502639114,0.000024318695068359375
1746575922461855000,5.49885498046875,0.16300736513512024,-0.001492297276854515,0.05294571258200863,0.019872374832630157,0.24655652144640916,0.9606625923986211,0.5187454505641117,right,0.0007045865058898926,-0.19871644273709274,1.5601671033762394,-9.486220945292711,-0.11633606800071311,0.010372206568717957,-0.00036822259426116943,1.9359423438608645,-0.0028368979692459106
1746575922501855200,5.538855224609375,0.16378080639217835,0.009766676463186741,0.05335473262203043,0.018197443336248398,0.24660020502744895,0.9606370680462296,0.518892077941673,right,-0.0009367465972900391,-0.19836525106804834,1.5676144967727361,-9.48568201611042,-0.11626736396757378,0.006269875448197126,0.0007458627223968506,1.9325659992955624,-0.0015357136726379395
1746575922541855000,5.57885498046875,0.16445388054463655,0.01718444935977459,0.05369519455198302,0.007402442395687103,0.24687963237619995,0.960557707056942,0.5195113519994494,right,-0.002756655216217041,-0.19796000044343873,1.5741268012762069,-9.485396184906364,-0.11617317811821805,0.0063369316048920155,-0.0006729364395141602,1.928669722509384,0.0009192377328872681
1746575922581855000,5.61885498046875,0.16468825967349085,0.006848460994660854,0.05383270425187461,0.0005549779161810875,0.2471600242260421,0.9604979727594751,0.5200757940411626,right,-0.001953423023223877,-0.1975206503671581,1.5764887081019578,-9.485862048852443,-0.11600720992741752,0.0071390774101018906,-0.0005940347909927368,1.9244450905516743,0.005466371774673462
1746575922621855000,5.65885498046875,0.16468825967349085,-0.004041321575641632,0.05383270425187461,0.0016128100687637925,0.2471600242260421,0.9604979727594751,0.5200757940411626,right,-0.00008547306060791016,-0.1975206503671581,1.5764887081019578,-9.485862048852443,-0.11600720992741752,0.012680579908192158,-0.0004997551441192627,1.9244450905516743,0.0025007426738739014
1746575922661855000,5.69885498046875,0.16470718246994645,-0.006456186529248953,0.05396364712065903,0.0009937656577676535,0.24704277454199317,0.96056677691694,0.5197488730046502,right,0.0010972023010253906,-0.1967372077892173,1.5769149706900119,-9.487316923835873,-0.11562610165761979,0.011452225968241692,-0.001293674111366272,1.916910895654559,0.0024140477180480957
1746575922701855000,5.73885498046875,0.16470718246994645,-0.00453212670981884,0.05396364712065903,0.012468570843338966,0.24704277454199317,0.96056677691694,0.5197488730046502,right,0.0012611746788024902,-0.1967372077892173,1.5769149706900119,-9.487316923835873,-0.11562610165761979,0.010743990540504456,0.00017665326595306396,1.916910895654559,0.00023128092288970947
1746575922741855200,5.778855224609375,0.1654273726142828,0.004527918063104153,0.054437918845482595,0.01396818459033966,0.24691278893862703,0.9606127634144038,0.5194717716417637,right,0.0009469985961914062,-0.19588135149368083,1.5840167655192314,-9.487793309175968,-0.11529825159065317,0.01558919157832861,0.000254705548286438,1.908679073882103,-0.002543017268180847
1746575922781855200,5.818855224609375,0.16609526189175688,0.006942766718566418,0.054851018503046765,0.022057346999645233,0.2469556597078732,0.9606106132075317,0.5195602991134235,right,0.0012968182563781738,-0.19513935644476132,1.590586937689781,-9.48812707117498,-0.11502828736093107,0.01430931780487299,0.002822086215019226,1.9015411848261952,0.0007748007774353027
1746575922821855000,5.85885498046875,0.1668512807636805,0.00008273869752883911,0.05524571990544498,0.00725630484521389,0.24695568601558407,0.9605919797454763,0.5196216915286902,right,-0.003610551357269287,-0.1948719126120005,1.5978440692111848,-9.487423306819796,-0.11499542340320829,0.001526922918856144,0.003057926893234253,1.8989681194677948,0.0004471093416213989
1746575922861855000,5.89885498046875,0.1668512807636805,-0.00542058190330863,0.05524571990544498,0.009304548613727093,0.24695568601558407,0.9605919797454763,0.5196216915286902,right,0.0013800263404846191,-0.1948719126120005,1.5978440692111848,-9.487423306819796,-0.11499542340320829,0.0000795579981058836,0.003346189856529236,1.8989681194677948,-0.0006364434957504272
1746575922901855000,5.93885498046875,0.1668512807636805,-0.004359859507530928,0.05524571990544498,0.004180157091468573,0.24695568601558407,0.9605919797454763,0.5196216915286902,right,-0.0007755756378173828,-0.1948719126120005,1.5978440692111848,-9.487423306819796,-0.11499542340320829,0.005071534775197506,0.0022827088832855225,1.8989681194677948,0.0011461228132247925
1746575922941855000,5.97885498046875,0.1668512807636805,0.00159154599532485,0.05524571990544498,-0.0011581270955502987,0.24695568601558407,0.9605919797454763,0.5196216915286902,right,-0.0008969902992248535,-0.1948719126120005,1.5978440692111848,-9.487423306819796,-0.11499542340320829,0.0041178385727107525,0.0021530240774154663,1.8989681194677948,0.0010235458612442017
1746575922981855200,6.018855224609375,0.1668512807636805,0.001423482783138752,0.05524571990544498,-0.0012194812297821045,0.24695568601558407,0.9605919797454763,0.5196216915286902,right,0.0005390644073486328,-0.1948719126120005,1.5978440692111848,-9.487423306819796,-0.11499542340320829,0.0015796511434018612,0.002531081438064575,1.8989681194677948,0.00043629109859466553
1746575923021855200,6.058855224609375,0.16725698139326417,0.0033641341142356396,0.05548271263045037,0.007905298843979836,0.2469744402151314,0.9605869780593409,0.5196717758411395,right,0.00002372264862060547,-0.1945291215070121,1.601801282404363,-9.48741570803523,-0.11488297680375388,0.004632442258298397,0.0015109777450561523,1.8956701008357106,-0.00003866851329803467
1746575923061855000,6.09885498046875,0.16725698139326417,0.005304785445332527,0.05548271263045037,0.017030078917741776,0.2469744402151314,0.9605869780593409,0.5196717758411395,right,-0.0004908442497253418,-0.1945291215070121,1.601801282404363,-9.48741570803523,-0.11488297680375388,0.007685232907533646,0.000894397497177124,1.8956701008357106,-0.0008499324321746826
1746575923101855000,6.13885498046875,0.16791623485729704,0.0008358168415725231,0.05588747244075829,0.004905978217720985,0.24700499027802492,0.9605856794994105,0.5197374228723077,right,-0.0002461075782775879,-0.19382945100977916,1.6082767620287834,-9.487662960794568,-0.11463163150958654,0.012527965009212494,0.0009090155363082886,1.8889375777103006,-0.000007167458534240723
1746575923141855000,6.17885498046875,0.16791623485729704,-0.00158899393863976,0.05588747244075829,0.004890380892902613,0.24700499027802492,0.9605856794994105,0.5197374228723077,right,0.00012636184692382812,-0.19382945100977916,1.6082767620287834,-9.487662960794568,-0.11463163150958654,0.01406148262321949,0.002063438296318054,1.8889375777103006,-0.0006061345338821411
1746575923181855000,6.21885498046875,0.1684098186108128,-0.0030932025983929634,0.056259889750883835,0.006380602717399597,0.24687144188913773,0.9606429140912442,0.5194201588776202,right,-0.0006895065307617188,-0.19293693946716858,1.613241544829309,-9.488526299625635,-0.11425685876648667,0.006236148066818714,0.0019755810499191284,1.8803481746718287,-0.00022174417972564697
1746575923221855000,6.25885498046875,0.1684098186108128,-0.0008389262948185205,0.056259889750883835,0.0036431103944778442,0.24687144188913773,0.9606429140912442,0.5194201588776202,right,-0.0004189610481262207,-0.19293693946716858,1.613241544829309,-9.488526299625635,-0.11425685876648667,0.0010600630193948746,0.0027374476194381714,1.8803481746718287,-0.0017346739768981934
1746575923261855200,6.298855224609375,0.1684098186108128,-0.002212784718722105,0.056259889750883835,0.0027981200255453587,0.24687144188913773,0.9606429140912442,0.5194201588776202,right,-0.0002993345260620117,-0.19293693946716858,1.613241544829309,-9.488526299625635,-0.11425685876648667,-0.0006552941631525755,0.0024337023496627808,1.8803481746718287,-0.00012573599815368652
1746575923301855000,6.33885498046875,0.1684098186108128,-0.0012859901180490851,0.056259889750883835,-0.0017240573652088642,0.24687144188913773,0.9606429140912442,0.5194201588776202,right,-0.0012836456298828125,-0.19293693946716858,1.613241544829309,-9.488526299625635,-0.11425685876648667,0.005093558691442013,0.0024863630533218384,1.8803481746718287,-0.0007786750793457031
1746575923341855000,6.37885498046875,0.1684098186108128,0.002474564593285322,0.056259889750883835,-0.0033220122568309307,0.24687144188913773,0.9606429140912442,0.5194201588776202,right,-0.0007692575454711914,-0.19293693946716858,1.613241544829309,-9.488526299625635,-0.11425685876648667,0.0011557675898075104,0.0016177892684936523,1.8803481746718287,-0.0006043016910552979
1746575923381855000,6.41885498046875,0.1684098186108128,0.006235119886696339,0.056259889750883835,-0.0049199676141142845,0.24687144188913773,0.9606429140912442,0.5194201588776202,right,-0.0002548694610595703,-0.19293693946716858,1.613241544829309,-9.488526299625635,-0.11425685876648667,-0.0027820239774882793,0.0007492005825042725,1.8803481746718287,-0.0004299283027648926
1746575923421855000,6.45885498046875,0.1684098186108128,0.009995674714446068,0.056259889750883835,-0.006517922505736351,0.24687144188913773,0.9606429140912442,0.5194201588776202,right,0.0002595186233520508,-0.19293693946716858,1.613241544829309,-9.488526299625635,-0.11425685876648667,-0.006719815079122782,-0.00011937320232391357,1.8803481746718287,-0.0002555549144744873
1746575923461855000,6.49885498046875,0.16821633662111582,0.005741325207054615,0.05614582808577143,-0.00428070779889822,0.24703471636123475,0.9606081024561373,0.5197394824326105,right,0.00021582841873168945,-0.19295893204658643,1.6113986934415996,-9.48879751778245,-0.11425246396160499,-0.007242477498948574,-0.0004538595676422119,1.8805599177263677,-0.00027643144130706787
1746575923501855200,6.538855224609375,0.16821633662111582,0.001486975234001875,0.05614582808577143,-0.002043492393568158,0.24703471636123475,0.9606081024561373,0.5197394824326105,right,0.00014454126358032227,-0.19295893204658643,1.6113986934415996,-9.48879751778245,-0.11425246396160499,-0.007765139918774366,-0.0009762793779373169,1.8805599177263677,-0.0002757161855697632
1746575923541855000,6.57885498046875,0.16821633662111582,-0.0006652027368545532,0.05614582808577143,-0.000529979937709868,0.24703471636123475,0.9606081024561373,0.5197394824326105,right,-0.0009295344352722168,-0.19295893204658643,1.6113986934415996,-9.48879751778245,-0.11425246396160499,-0.008377286605536938,-0.0009614527225494385,1.8805599177263677,0.0011145174503326416
1746575923581855000,6.61885498046875,0.16821633662111582,-0.005883048754185438,0.05614582808577143,0.004816977307200432,0.24703471636123475,0.9606081024561373,0.5197394824326105,right,0.001183927059173584,-0.19295893204658643,1.6113986934415996,-9.48879751778245,-0.11425246396160499,-0.006440671160817146,-0.00006534159183502197,1.8805599177263677,0.00254860520362854
1746575923621855000,6.65885498046875,0.168175383299941,-0.0016378257423639297,0.056085332343314816,0.008336605504155159,0.24695449716995693,0.9606124167741213,0.5196080377595761,right,0.003418266773223877,-0.19332702869279406,1.6108941049203276,-9.48818026266694,-0.11441974214686962,-0.0017787721008062363,0.0015372931957244873,1.8841025587692857,0.0007766038179397583
1746575923661855000,6.69885498046875,0.168175383299941,0.0026073968037962914,0.056085332343314816,0.011856233701109886,0.24695449716995693,0.9606124167741213,0.5196080377595761,right,0.005715489387512207,-0.19332702869279406,1.6108941049203276,-9.48818026266694,-0.11441974214686962,0.002883127424865961,0.0030884593725204468,1.8841025587692857,-0.0006341487169265747
1746575923701855000,6.73885498046875,0.16880199626655779,0.004591078497469425,0.05632837829584553,0.00829160027205944,0.24687325466300786,0.9605836637152168,0.5195642091265722,right,-0.0039643049240112305,-0.1937871913330398,1.616693438848853,-9.48631329975128,-0.11471593683933021,-0.006260689813643694,0.0008392333984375,1.8885308966055512,-0.0006991922855377197
1746575923741855200,6.778855224609375,0.1689624353931031,0.008846304379403591,0.05633766857151032,-0.0015314733609557152,0.2469914450251386,0.960527592223202,0.519871573899058,right,-0.0012087225914001465,-0.19416873385130062,1.6180940994270145,-9.4853429934144,-0.11492683943641795,-0.0036919668782502413,0.0008936673402786255,1.892202424725145,0.000027507543563842773
1746575923781855200,6.818855224609375,0.16866086364877905,0.007453068159520626,0.05612595985868403,-0.004236153792589903,0.24732362228342888,0.9604445065533065,0.5205505066389643,right,0.00016099214553833008,-0.19438057584935337,1.6151660831511019,-9.485434763351082,-0.1150099579384469,-0.008505718782544136,-0.0005410909652709961,1.8942407986849545,0.0036309808492660522
1746575923821855000,6.85885498046875,0.16835944856539217,0.006059831473976374,0.05591424385545388,-0.006940834224224091,0.24765578173571667,0.9603613384918236,0.5212294928570772,right,0.0015305876731872559,-0.19459264611058502,1.6122396743103862,-9.485524779722095,-0.11509306341120198,-0.0133194699883461,-0.0019760429859161377,1.896281218471378,0.007234230637550354
1746575923861855000,6.89885498046875,0.16835944856539217,-0.0058735390193760395,0.05591424385545388,0.005672289989888668,0.24765578173571667,0.9603613384918236,0.5212294928570772,right,0.0004925727844238281,-0.19459264611058502,1.6122396743103862,-9.485524779722095,-0.11509306341120198,-0.003006567247211933,-0.0024558305740356445,1.896281218471378,0.007996201515197754
1746575923901855000,6.93885498046875,0.16845055082835994,-0.02878708578646183,0.05595417265024297,0.005277365446090698,0.24732546995272217,0.9604271180188231,0.5205867121776959,right,0.00003230571746826172,-0.19490280140221397,1.6130051057249306,-9.484797634491324,-0.11523464796532092,0.003843681886792183,-0.001916155219078064,1.8992653488487004,0.00811856985092163
1746575923941855000,6.97885498046875,0.16857152224931185,-0.025593450292944908,0.05610384513197562,0.019608335569500923,0.24670761506350455,0.9605873796272781,0.5193000317477598,right,0.0009873509407043457,-0.19476988442197501,1.6141949000313878,-9.484851410505176,-0.1151499966745506,0.01759907603263855,0.0008776634931564331,1.8979865610845386,-0.0014668703079223633
1746575923981855200,7.018855224609375,0.16898937479218082,0.0011907722800970078,0.05643503684699913,0.008023172616958618,0.2463942547276614,0.9606845090332724,0.5186208456475719,right,-0.003169119358062744,-0.19407286769829823,1.6183800767615437,-9.48547801797092,-0.11484906149957713,0.02201949432492256,0.0011346489191055298,1.8912799030527472,-0.0048303306102752686
1746575924021855200,7.058855224609375,0.16901405215321566,0.020583316683769226,0.056540558897780716,-0.0015881313011050224,0.24660835717657534,0.9606713976006523,0.518973779770266,right,-0.00039958953857421875,-0.1932043062390312,1.6188899259798228,-9.487053888985514,-0.11444668362388438,0.019898956641554832,0.0014945417642593384,1.8829213861607015,-0.004629358649253845
1746575924061855000,7.09885498046875,0.16916361170897895,0.022533759474754333,0.0566879747461458,0.00030867604073137045,0.24707520807462424,0.9605921506046103,0.5198576927931554,right,-0.00011181831359863281,-0.1922439517253323,1.6206123658582567,-9.488589427989721,-0.11403089954266726,0.014182673767209053,0.0004185289144515991,1.8736779031276702,-0.0012970119714736938
1746575924101855000,7.13885498046875,0.16952942429109896,0.01274989265948534,0.056905158641760316,0.00790489837527275,0.24743974407077307,0.9605135416345483,0.5205902920561991,right,0.0004609823226928711,-0.19161091395781463,1.6242831633254884,-9.489163428485393,-0.11379421521847395,0.00546453520655632,-0.00027899444103240967,1.8675839701667427,0.0010741055011749268
1746575924141855000,7.17885498046875,0.16996264908910202,-0.0058985864743590355,0.057140710698867093,0.011575205251574516,0.24750167993141645,0.960492265475187,0.5207403336356472,right,-0.00020360946655273438,-0.19133706277003001,1.628480322754383,-9.48896235295534,-0.11372115044877779,0.00129803828895092,0.0012654662132263184,1.8649474841833114,0.0028440654277801514
1746575924181855000,7.21885498046875,0.17034657396767008,-0.024312343448400497,0.05734723786243012,0.017554303631186485,0.24715982910781362,0.9605581240433873,0.5200866630538806,right,0.00009888410568237305,-0.19145142020438816,1.632087115074694,-9.488126486653089,-0.113804598537039,-0.000769524835050106,0.0019314587116241455,1.866048431162536,0.002895072102546692
1746575924221855000,7.25885498046875,0.17084051064172232,-0.026255004107952118,0.05763813312894403,0.015103096142411232,0.24663725729991703,0.9606692482661383,0.5190611666451146,right,0.000027954578399658203,-0.19148729815917848,1.6367621211484074,-9.487253210949897,-0.11385325447988201,0.005072606261819601,0.000544622540473938,1.8663938835993408,0.0008164495229721069
1746575924261855200,7.298855224609375,0.1711591229509415,-0.029957178980112076,0.057870837334797864,0.01752425730228424,0.24603683837635956,0.9608130213543654,0.5178403630017485,right,0.001142263412475586,-0.1914097292099349,1.639809379889816,-9.4868732717216,-0.1138201594651718,0.006639806553721428,0.001877322793006897,1.8656470107547938,0.0023712366819381714
1746575924301855000,7.33885498046875,0.1716029205085279,-0.024603160098195076,0.05816877176504841,0.02036438137292862,0.24541495901934762,0.9609578534018262,0.5165872034197021,right,0.0026528239250183105,-0.19130719999846427,1.6440521320261061,-9.486333173495531,-0.1137892686400674,0.010442689061164856,0.0023456960916519165,1.8646598994135855,-0.0013369917869567871
1746575924341855000,7.37885498046875,0.17225601777913307,-0.007972313091158867,0.05857229197379695,0.01444311998784542,0.24503001736417945,0.9610447962398447,0.5158239065682614,right,-0.0007253885269165039,-0.19095249603997408,1.6503605845205485,-9.485908810603618,-0.11367737726844492,0.013343282975256443,0.0021621286869049072,1.8612448302730917,-0.005621731281280518
1746575924381855000,7.41885498046875,0.17225601777913307,0.017076054587960243,0.05857229197379695,0.0017390372231602669,0.24503001736417945,0.9610447962398447,0.5158239065682614,right,-0.0027785301208496094,-0.19095249603997408,1.6503605845205485,-9.485908810603618,-0.11367737726844492,0.009341446682810783,0.0023955106735229492,1.8612448302730917,-0.005207672715187073
1746575924421855000,7.45885498046875,0.17247941116170762,0.023388836532831192,0.05873119452501371,-0.010789420455694199,0.2455474310744602,0.9609433244922011,0.5168341765760951,right,-0.0013875365257263184,-0.19011841419261752,1.6527454338304697,-9.487065579423307,-0.1133353857705402,0.009569261223077774,0.0014153122901916504,1.8532133533783255,-0.0017497390508651733
1746575924461855000,7.49885498046875,0.1722563068802661,0.007068615406751633,0.05864003784623217,-0.011443081311881542,0.24591947431988453,0.9608787024850286,0.5175348574138723,right,0.0004755854606628418,-0.18969239825248155,1.6507640507549046,-9.488211242327093,-0.11312472314555314,0.0025980090722441673,0.0002669990062713623,1.8491105942346155,0.0025870203971862793
1746575924501855200,7.538855224609375,0.1722563068802661,-0.014895850792527199,0.05864003784623217,-0.005438204854726791,0.24591947431988453,0.9608787024850286,0.5175348574138723,right,0.002900838851928711,-0.18969239825248155,1.6507640507549046,-9.488211242327093,-0.11312472314555314,-0.005888761952519417,-0.000528872013092041,1.8491105942346155,0.004969760775566101
1746575924541855000,7.57885498046875,0.1723197632765139,-0.015007227659225464,0.05867357097501346,0.006558995693922043,0.24547160391774878,0.960972949623943,0.5166501735299898,right,0.002696394920349121,-0.19005213531520873,1.6512519804023205,-9.487450779348611,-0.11327867400168706,-0.0034090038388967514,0.0011753588914871216,1.8525750554747877,0.0015700459480285645
1746575924581855000,7.61885498046875,0.17238290795006592,-0.015118604525923729,0.05870708874019294,0.018556196242570877,0.24502366561081573,0.9610670820784776,0.5157654768674639,right,0.002491891384124756,-0.19041195682877685,1.6517365490488707,-9.48668914732635,-0.11343259930384797,-0.000929245725274086,0.002879917621612549,1.85604010123685,-0.0018297284841537476
1746575924621855000,7.65885498046875,0.1732729028062697,-0.0050456952303647995,0.05912350689140375,0.01885385811328888,0.2447470421562091,0.961084994988722,0.5153259615757394,right,-0.0038988590240478516,-0.19068968761235994,1.660090097504854,-9.484707033598422,-0.11366150453301155,-0.006408032961189747,0.0019239038228988647,1.858714288882166,-0.001708880066871643
1746575924661855000,7.69885498046875,0.17345934578423566,-0.004230190068483353,0.05916650362999454,-0.0007338430732488632,0.24467272621766267,0.9610765205272277,0.5152377163810263,right,-0.002045929431915283,-0.191085720223669,1.6617312888406217,-9.483671260809897,-0.11387117473240634,-0.007712288293987513,0.003243878483772278,1.862527563560009,-0.00010803341865539551
1746575924701855000,7.73885498046875,0.17345934578423566,0.0005581299774348736,0.05916650362999454,-0.011180154979228973,0.24467272621766267,0.9610765205272277,0.5152377163810263,right,-0.0006833076477050781,-0.191085720223669,1.6617312888406217,-9.483671260809897,-0.11387117473240634,-0.01015594694763422,0.0012130141258239746,1.862527563560009,0.0005802065134048462
1746575924741855200,7.778855224609375,0.1728008417996565,0.0038800828624516726,0.05874272466022123,-0.008460457436740398,0.2447762622906355,0.9610436236487977,0.5154564610449657,right,-0.00019311904907226562,-0.1918135811133732,1.655252302084863,-9.48342576161623,-0.11414527473472298,-0.012426985427737236,-0.00027623772621154785,1.8695349581040441,0.0020358413457870483
1746575924781855200,7.818855224609375,0.1728008417996565,0.001027408754453063,0.05874272466022123,-0.005151399876922369,0.2447762622906355,0.9610436236487977,0.5154564610449657,right,-0.0001308917999267578,-0.1918135811133732,1.655252302084863,-9.48342576161623,-0.11414527473472298,-0.008619477972388268,-0.00009620189666748047,1.8695349581040441,0.0022249817848205566
1746575924821855000,7.85885498046875,0.1725173922552222,-0.0010965124238282442,0.058538517784108464,0.0007216311059892178,0.24471080899923345,0.961044833082762,0.5153499861626593,right,0.0015584826469421387,-0.1923818687679397,1.6523814228236675,-9.48284650042355,-0.11437935608069756,-0.006567761301994324,0.0011308938264846802,1.8750054984696207,-0.00012373924255371094
1746575924861855000,7.89885498046875,0.17223390025963511,-0.0032204333692789078,0.058334310907995526,0.006594662554562092,0.24464540580662644,0.9610460748095185,0.5152435605721637,right,0.0032474398612976074,-0.19295016760313236,1.649510251301527,-9.482263147577642,-0.11461343742667256,-0.00451604463160038,0.0023580342531204224,1.880475454313308,-0.002472415566444397
1746575924901855000,7.93885498046875,0.17223390025963511,0.0015099500305950642,0.058334310907995526,-0.0028816675767302513,0.24464540580662644,0.9610460748095185,0.5152435605721637,right,-0.0039250850677490234,-0.19295016760313236,1.649510251301527,-9.482263147577642,-0.11461343742667256,-0.015623570419847965,0.0006841868162155151,1.880475454313308,-0.0003033578395843506
1746575924941855000,7.97885498046875,0.1718681304367093,0.005693147890269756,0.05798918171733729,-0.010979614220559597,0.24480021398705093,0.9609672995670047,0.5156470981379847,right,-0.0007583498954772949,-0.19407143647335545,1.6456801716193556,-9.480782553631066,-0.11511682799205546,-0.02248512953519821,0.001078099012374878,1.8912661667883395,-0.00031216442584991455
1746575924981855200,8.018855224609375,0.1715395714104078,0.007042595651000738,0.05764898871908889,-0.010875591076910496,0.24502273750578454,0.9608678532892556,0.5161994701526176,right,-0.0005934238433837891,-0.19522433731019603,1.642191744981706,-9.479167519649863,-0.11564401961210763,-0.032669153064489365,-0.00025779008865356445,1.9023587848193941,-0.0007973462343215942
1746575925021855200,8.058855224609376,0.1713704858380495,0.009375076740980148,0.057347652937949634,-0.007024523802101612,0.24528787171533828,0.9607387162971446,0.5168850692818199,right,-0.00017005205154418945,-0.1966044999577008,1.6401396347574888,-9.476849305835366,-0.11630307985738753,-0.03655445575714111,-0.00038507580757141113,1.9156345921084283,0.0007003545761108398
1746575925061855000,8.09885498046875,0.17147125764482468,0.0049416725523769855,0.05720042668176325,0.004794817417860031,0.2454997701025167,0.9606182384194566,0.5174761697022419,right,0.0016693472862243652,-0.19783623633870134,1.6406908388994632,-9.474351643800736,-0.11692137893445662,-0.027306044474244118,0.0008640885353088379,1.9274796359419821,0.002594292163848877
1746575925101855000,8.13885498046875,0.17173765532101143,0.0012126145884394646,0.05723746837028339,0.0018244346138089895,0.24556944090960744,0.960559328661631,0.5177193344778297,right,0.0009713172912597656,-0.19842169972815765,1.6430216199345886,-9.472800907227397,-0.11724095750162991,-0.006623208522796631,-0.0004507303237915039,1.9331087278701364,0.0031017661094665527
1746575925141855000,8.17885498046875,0.17173765532101143,0.012018675915896893,0.05723746837028339,-0.001629178412258625,0.24556944090960744,0.960559328661631,0.5177193344778297,right,-0.0003018379211425781,-0.19842169972815765,1.6430216199345886,-9.472800907227397,-0.11724095750162991,-0.0010502035729587078,-0.0000553131103515625,1.9331087278701364,0.0007994472980499268
1746575925181855000,8.21885498046875,0.17173765532101143,0.022824738174676895,0.05723746837028339,-0.005082791671156883,0.24556944090960744,0.960559328661631,0.5177193344778297,right,-0.0015750527381896973,-0.19842169972815765,1.6430216199345886,-9.472800907227397,-0.11724095750162991,0.004522800911217928,0.0003401041030883789,1.9331087278701364,-0.0015028715133666992
1746575925221855000,8.25885498046875,0.17185966175885445,0.03653353452682495,0.05734841926955943,-0.008064741268754005,0.24634027150651408,0.9604103771502077,0.5192194050036744,right,-0.00045740604400634766,-0.19735343461251822,1.6445295402795075,-9.474629291698337,-0.11678824149254921,0.021905168890953064,-0.0002110302448272705,1.9228370708331464,0.000490531325340271
1746575925261855200,8.298855224609374,0.1718495866869234,0.0230095274746418,0.057456405911822855,-0.004806211218237877,0.24699023779956777,0.9603135043027159,0.5204161435911824,right,0.0010967254638671875,-0.19596519763518225,1.6448888751111923,-9.477267238986492,-0.116157739721418,0.029993699863553047,0.0009915083646774292,1.9094855679593978,0.002039611339569092
1746575925301855000,8.33885498046875,0.1719688809244876,-0.002819906920194626,0.05768231155167284,0.0019450397230684757,0.24716676298278173,0.960331626102062,0.52064349023703,right,0.0006937384605407715,-0.19458406702967554,1.6464692761704325,-9.479660271602869,-0.11551882837488488,0.03111952170729637,0.0008562356233596802,1.8961986547544598,0.0012996196746826172
1746575925341855000,8.37885498046875,0.17212432550983514,-0.018230587244033813,0.057908665410083555,0.01110132411122322,0.2468992262036472,0.9604368764819394,0.5200071589730901,right,0.0014279484748840332,-0.19370979048232903,1.6482260567098854,-9.481033898043632,-0.11510169578639792,0.015905125066637993,0.0022304654121398926,1.887786069587618,-0.0005059689283370972
1746575925381855000,8.41885498046875,0.17233143560165953,-0.014671732671558857,0.058091239179278505,0.006891306955367327,0.2465323545172559,0.960536601525092,0.519235086186196,right,-0.002106308937072754,-0.1934152194517912,1.6502848889358341,-9.481239649748801,-0.11496401418605683,0.006275465711951256,0.00170232355594635,1.8849512845531105,-0.0023691952228546143
1746575925421855000,8.45885498046875,0.17233143560165953,-0.0053996676579117775,0.058091239179278505,0.00417766347527504,0.2465323545172559,0.960536601525092,0.519235086186196,right,-0.0024556517601013184,-0.1934152194517912,1.6502848889358341,-9.481239649748801,-0.11496401418605683,0.00830389279872179,0.00026263296604156494,1.8849512845531105,-0.0030278563499450684
1746575925461855000,8.49885498046875,0.17205908959559765,-0.002696275943890214,0.05806257585887549,-0.0058739399537444115,0.24626273682266225,0.9606419997794117,0.5185859022653789,right,-0.00024306774139404297,-0.19292080858145566,1.6478620457030833,-9.482605677405,-0.11467520128890211,0.011986209079623222,0.0012319386005401611,1.8801929841101168,-0.004104360938072205
1746575925501855200,8.538855224609375,0.17217041285799442,0.003593271365389228,0.0582011803039869,0.007703322917222977,0.2462570704453796,0.9606690531626251,0.5185182094426786,right,-0.0029574036598205566,-0.19230109196579215,1.6491170142002403,-9.483568384957312,-0.11439057947418504,0.004066102206707001,-0.0006988793611526489,1.8742279382258653,0.0005002319812774658
1746575925541855000,8.57885498046875,0.17217041285799442,-0.014134787023067474,0.0582011803039869,0.00734119163826108,0.2462570704453796,0.9606690531626251,0.5185182094426786,right,0.004075169563293457,-0.19230109196579215,1.6491170142002403,-9.483568384957312,-0.11439057947418504,-0.023693252354860306,0.0018642693758010864,1.8742279382258653,0.005815431475639343
1746575925581855000,8.61885498046875,0.17288279401427228,-0.02070068009197712,0.0584216880792978,0.02672921121120453,0.24570406313984947,0.9607139686065785,0.5176008570324931,right,0.0021541714668273926,-0.19363156593635567,1.6554421255685388,-9.479926229062675,-0.11508771310023927,-0.016524426639080048,0.0028546303510665894,1.8870333515241742,-0.004707738757133484
1746575925621855000,8.65885498046875,0.1739122713728124,0.007580462843179703,0.05885952847217741,0.01551468949764967,0.24549583019512167,0.9606949808593441,0.5173518469145192,right,-0.004287600517272949,-0.19417413593650718,1.665023169992864,-9.477207033231855,-0.11546630251788645,-0.006562620401382446,0.002597600221633911,1.8922543010428547,-0.006955072283744812
1746575925661855000,8.69885498046875,0.17444449990540759,0.034427691251039505,0.059023620099068155,-0.0032794075086712837,0.2459085771853159,0.9605521392158285,0.518306558448638,right,-0.0049620866775512695,-0.19445176571822828,1.669975677833706,-9.475801842609048,-0.11569256977803065,-0.010001873597502708,0.0032620280981063843,1.8949257122091947,-0.004807814955711365
1746575925701855000,8.73885498046875,0.1740185413762543,0.035222865641117096,0.05869238086309532,-0.02979842945933342,0.24667307672260405,0.9603615223120954,0.519877943361083,right,-0.002055346965789795,-0.19472389451339775,1.6658499762058256,-9.47600408718288,-0.11581644521515827,-0.015511858277022839,0.001073390245437622,1.8975440780140458,0.00015313923358917236
1746575925741855200,8.778855224609375,0.1729827371541802,0.007724922150373459,0.05812471802545201,-0.019762054085731506,0.24692926712670354,0.9603244818314401,0.5203245755682411,right,-0.0023288726806640625,-0.19506164727990907,1.6559233332142234,-9.477092466941475,-0.11586313052127345,-0.010552839376032352,-0.0002647489309310913,1.900793581329286,0.0021980702877044678
1746575925781855200,8.818855224609376,0.1719470635108559,-0.019773025065660477,0.05755703331659695,-0.009725679643452168,0.24718545421159074,0.9602872264688151,0.5207711586587641,right,-0.0026037096977233887,-0.19539989264340776,1.6459971286140382,-9.478168571740389,-0.11590977673956741,-0.005593820475041866,-0.0016029328107833862,1.9040476146891712,0.004242539405822754
1746575925821855000,8.85885498046875,0.17116989039003525,-0.02600022777915001,0.05717046624143425,-0.002971217967569828,0.24680105483009082,0.9603964313147695,0.5199296403460607,right,0.0009902119636535645,-0.19587247615877287,1.6384771083727478,-9.47855727879703,-0.11601556257822317,-0.00505899079144001,-0.0014158934354782104,1.9085937336862087,-0.0016154199838638306
1746575925861855000,8.89885498046875,0.17116989039003525,-0.004536876454949379,0.05717046624143425,0.013483366928994656,0.24680105483009082,0.9603964313147695,0.5199296403460607,right,0.002597987651824951,-0.19587247615877287,1.6384771083727478,-9.47855727879703,-0.11601556257822317,-0.001359831541776657,-0.00018174946308135986,1.9085937336862087,-0.006246894598007202
1746575925901855000,8.93885498046875,0.171936995172898,0.00933751929551363,0.05749021328624975,0.017069099470973015,0.24663710596657296,0.9603822320558122,0.5197321328922178,right,-0.00018525123596191406,-0.19632951692164938,1.645598192424327,-9.476437217903136,-0.11632301962616924,-0.010268457233905792,0.00010579824447631836,1.912989776688069,-0.0028274059295654297
1746575925941855000,8.97885498046875,0.17262874845865267,0.006810125429183245,0.05771623635302885,0.007411661557853222,0.2467324929706247,0.9602948680148498,0.5200876788630374,right,-0.0006421804428100586,-0.1969790788881201,1.651939378144592,-9.474070488771796,-0.11672907675861852,-0.023647936061024666,0.00044655799865722656,1.9192370005145667,-0.0001926124095916748
1746575925981855200,9.018855224609375,0.17293961943690975,-0.00615766691043973,0.05771184829405467,0.004404876381158829,0.2467336409045099,0.960225757511943,0.5202513363965255,right,-0.001362621784210205,-0.19807394459538535,1.6545219419836996,-9.471480472278595,-0.11729544228323364,-0.031132573261857033,0.0003496110439300537,1.929765262661129,0.003080308437347412
1746575926021855200,9.058855224609376,0.17293670879437895,-0.004966925363987684,0.05758972318249384,0.002875923179090023,0.2465820625348412,0.9602139298320075,0.5200491012378069,right,-0.0016421079635620117,-0.19908162538889257,1.654158807759732,-9.469564994046092,-0.11777082028227379,-0.024645302444696426,-0.0001942664384841919,1.9394529823303222,0.0025785863399505615
1746575926061855000,9.09885498046875,0.17293354213825257,-0.003776183817535639,0.057467570474904896,0.0013469700934365392,0.24643041294116286,0.9602017725857224,0.5198467650343965,right,-0.0019224882125854492,-0.2000892511909384,1.6537917280130088,-9.467640747985243,-0.11824614515506866,-0.01815802976489067,-0.0007376968860626221,1.949138217781484,0.0020771175622940063
1746575926101855000,9.13885498046875,0.17290485094549407,0.004737047012895346,0.05735981854944058,0.0012563607888296247,0.24641615355264415,0.9601713069911568,0.5198920689684967,right,0.000008821487426757812,-0.2007831908203744,1.6532869933612644,-9.466353046262263,-0.11857551823614089,-0.01203035470098257,-0.0003290623426437378,1.955807320281863,-0.0009441226720809937
1746575926141855000,9.17885498046875,0.17290485094549407,0.013314561918377876,0.05735981854944058,0.003761946689337492,0.24641615355264415,0.9601713069911568,0.5198920689684967,right,-0.0008492469787597656,-0.2007831908203744,1.6532869933612644,-9.466353046262263,-0.11857551823614089,-0.005634860601276159,0.0003346055746078491,1.955807320281863,-0.000978037714958191
1746575926181855000,9.21885498046875,0.1733729521175183,0.011249512434005737,0.057472490010713924,0.0002585458569228649,0.2468087173340037,0.9600276528445073,0.52081689155927,right,-0.0008402466773986816,-0.2012171088284669,1.657571538812667,-9.464741519412398,-0.11886712504686237,-0.010382379405200481,0.0005142241716384888,1.9599768610514698,0.00035418570041656494
1746575926221855000,9.25885498046875,0.1733729521175183,-0.0027128225192427635,0.057472490010713924,0.0022049862891435623,0.2468087173340037,0.9600276528445073,0.52081689155927,right,0.000023186206817626953,-0.2012171088284669,1.657571538812667,-9.464741519412398,-0.11886712504686237,-0.0150794368237257,0.0017614662647247314,1.9599768610514698,0.0026796162128448486
1746575926261855200,9.298855224609374,0.17343805007512023,-0.006180361844599247,0.05734509926017354,-0.001313567627221346,0.24683916254940125,0.9599596273943947,0.5210149318567024,right,0.0005894899368286133,-0.20233089035832227,1.6578098776131867,-9.462477666133642,-0.11941296424674903,-0.013539542444050312,0.0007281303405761719,1.9706777032859621,-0.0016716867685317993
1746575926301855000,9.33885498046875,0.17381447806063996,-0.006621732376515865,0.05740603150529466,0.006268863100558519,0.24674804335156103,0.9599186930345679,0.5209773626510716,right,-0.00118178129196167,-0.20325591397306658,1.6610557276666162,-9.460053069335222,-0.1199002260036698,-0.024551481008529663,0.0010551512241363525,1.979563312792033,-0.0010727643966674805
1746575926341855000,9.37885498046875,0.17419097158235947,-0.007063102908432484,0.05746695880839407,0.013851294293999672,0.2466568707357133,0.9598775114999789,0.5209401654047342,right,-0.0029540657997131348,-0.20418097465281745,1.6642992396324872,-9.457619704708456,-0.12038747321759154,-0.03556342050433159,0.0013824552297592163,1.9884474609933793,-0.000473707914352417
1746575926381855000,9.41885498046875,0.17464745821277886,-0.004131220746785402,0.057492321403565166,0.011285075917840004,0.2465668290518995,0.9598046511758858,0.5209763121995421,right,0.0007905364036560059,-0.20563292719980167,1.668112806571275,-9.454005605864523,-0.1211382919942732,-0.03819911554455757,0.0025959014892578125,2.0023883080624043,-0.0014504939317703247
1746575926421855000,9.45885498046875,0.17519017045461843,-0.0005253572016954422,0.05755484774315991,0.014655672013759613,0.24652590997137586,0.9597158710108922,0.5211244011340841,right,0.00023734569549560547,-0.20706445794781936,1.6727420738071201,-9.45026700385809,-0.12189309585954668,-0.03264402598142624,0.0013951361179351807,2.0161289563842115,-0.0022662878036499023
1746575926461855000,9.49885498046875,0.17575789293946856,0.005235253367573023,0.05762793553563011,0.010506190359592438,0.24657344173464352,0.959606595515895,0.5214525637034837,right,0.0005472302436828613,-0.20842196117099773,1.677626923239231,-9.446611988481878,-0.12262072190992425,-0.03426205366849899,0.0006472468376159668,2.029155318956822,-0.0011186003684997559
1746575926501855200,9.538855224609375,0.17638769287776176,-0.00010981829836964607,0.05772010952956992,0.012512408196926117,0.24666073032440433,0.9594819581831228,0.5218766196030454,right,-0.0015813708305358887,-0.20981336005015086,1.6830789050348103,-9.442765249925852,-0.12337487083433013,-0.034136414527893066,0.0008232742547988892,2.0425030224382876,0.0034262388944625854
1746575926541855000,9.57885498046875,0.1767428307450769,-0.022999774664640427,0.05771589733019805,0.0028064576908946037,0.24645830679378258,0.9594419660383176,0.5216656571115318,right,-0.002592623233795166,-0.21123235887393124,1.6859209965929387,-9.439304295817017,-0.12408991862647943,-0.025553889572620392,0.0003183335065841675,2.0561114226825534,0.004108130931854248
1746575926581855000,9.61885498046875,0.1763758317629324,-0.03867180645465851,0.057496466957549265,0.0018866346217691898,0.24589688449781416,0.9595564844999914,0.5205474747102172,right,0.001954495906829834,-0.21208658878163494,1.6821479077950119,-9.438189612573385,-0.12442029257491907,-0.0047745294868946075,0.0011708587408065796,2.0643015972703695,0.0016010105609893799
1746575926621855000,9.65885498046875,0.17614199730615934,-0.033204346895217896,0.05745601620027994,-0.0020068662706762552,0.24512760140814377,0.9597521022219627,0.5189389195004565,right,-0.0032047629356384277,-0.21230159569568968,1.679863011728227,-9.438145188909768,-0.12444801516088748,0.0059245675802230835,0.00007683038711547852,2.0663627675838767,-0.0006155073642730713
1746575926661855000,9.69885498046875,0.17590411273215883,-0.012262847274541855,0.057440342759751545,0.00363890896551311,0.24466024210428486,0.9598958370453008,0.5179040200561844,right,-0.0017091035842895508,-0.21204184378937374,1.6777116789132356,-9.4390728251487,-0.12426514283389374,0.014529550448060036,-0.0007867366075515747,2.063872704333812,-0.0024829059839248657
1746575926701855000,9.73885498046875,0.1759335591499456,0.004451286047697067,0.05754015746251086,0.004129260778427124,0.24457482125899843,0.95994551649389,0.5176671443866616,right,-0.0005202293395996094,-0.21150119010123453,1.6781847032524644,-9.440120872896909,-0.12400371588570273,0.013512218371033669,-0.00023950636386871338,2.058689018085599,-0.0007559210062026978
1746575926741855200,9.778855224609375,0.1759335591499456,0.00041478266939520836,0.05754015746251086,0.0057651931419968605,0.24457482125899843,0.95994551649389,0.5176671443866616,right,0.0005422830581665039,-0.21150119010123453,1.6781847032524644,-9.440120872896909,-0.12400371588570273,0.002453426830470562,0.0009713172912597656,2.058689018085599,0.0017195194959640503
1746575926781855200,9.818855224609376,0.1759335591499456,-0.006929399445652962,0.05754015746251086,0.008649058640003204,0.24457482125899843,0.95994551649389,0.5176671443866616,right,0.0006672143936157227,-0.21150119010123453,1.6781847032524644,-9.440120872896909,-0.12400371588570273,0.0001462036743760109,0.0009024292230606079,2.058689018085599,-0.00008685886859893799
1746575926821855000,9.85885498046875,0.17648463714040255,-0.005386320874094963,0.05785658569498976,0.00607806071639061,0.24435243128885947,0.9599883175322307,0.5172518371644126,right,-0.0003782510757446289,-0.21130170174798005,1.6834588442631064,-9.43959889484942,-0.12396381176850976,0.001238319673575461,0.000989869236946106,2.056776316332072,-0.000293046236038208
1746575926861855000,9.89885498046875,0.17648463714040255,0.0017111464403569698,0.05785658569498976,0.006533157080411911,0.24435243128885947,0.9599883175322307,0.5172518371644126,right,-0.0002929568290710449,-0.21130170174798005,1.6834588442631064,-9.43959889484942,-0.12396381176850976,0.002285575494170189,0.0019282996654510498,2.056776316332072,0.00022019445896148682
1746575926901855000,9.93885498046875,0.17648463714040255,0.004526158794760704,0.05785658569498976,0.0035834398586302996,0.24435243128885947,0.9599883175322307,0.5172518371644126,right,-0.0006058216094970703,-0.21130170174798005,1.6834588442631064,-9.43959889484942,-0.12396381176850976,-0.0005946934688836336,0.0014706701040267944,2.056776316332072,0.000619247555732727
1746575926941855000,9.97885498046875,0.1769265787571047,0.0036941191647201777,0.05802924042533486,0.0011894477065652609,0.2445022044936824,0.9599239544615832,0.5176349099963526,right,-0.0009781122207641602,-0.21142144897249582,1.687587030109018,-9.43861105285585,-0.12408611282659884,-0.006698913872241974,0.0007994174957275391,2.057924463453889,0.0015353858470916748
1746575926981855200,10.018855224609375,0.1769265787571047,0.0028620795346796513,0.05802924042533486,-0.0012045444454997778,0.2445022044936824,0.9599239544615832,0.5176349099963526,right,-0.0012497305870056152,-0.21142144897249582,1.687587030109018,-9.43861105285585,-0.12408611282659884,-0.012803135439753532,0.0005491375923156738,2.057924463453889,0.0025686174631118774
1746575927021855200,10.058855224609376,0.17653435404196804,-0.004825599957257509,0.05770253087488131,-0.015548991970717907,0.24449326978557334,0.9598881986188506,0.5176855540718561,right,-0.0008649230003356934,-0.21245222624389856,1.6835114512331784,-9.437178974226116,-0.12453189078808172,-0.01993263140320778,0.0010725706815719604,2.0678068289123472,0.001767486333847046
1746575927061855000,10.09885498046875,0.17614204295134245,-0.012513279914855957,0.05737579372839898,-0.029893437400460243,0.2444841491690747,0.9598521811145658,0.517735558330207,right,-0.0004813671112060547,-0.21348301992807434,1.6794345571830869,-9.43573520515859,-0.12497761562331856,-0.027062127366662025,0.0015961527824401855,2.07768700241372,0.0009665936231613159
1746575927101855000,10.13885498046875,0.17496853108059013,0.004876298829913139,0.056695181469976375,-0.03214048594236374,0.24453273876884346,0.9598445692308664,0.5177849684434498,right,0.0004261136054992676,-0.21435372608142383,1.6680448559015988,-9.435914653378724,-0.1252513444025931,-0.013628213666379452,0.0012922883033752441,2.086031198519468,-0.003968760371208191
1746575927141855000,10.17885498046875,0.17394996253033804,0.020765604451298714,0.05616260332031223,-0.02974887378513813,0.24489267584669294,0.9597957582136027,0.5184063741330965,right,-0.0008099675178527832,-0.21439068146615697,1.6584195339441299,-9.437532609969377,-0.12516189891028656,0.0028115110471844673,-0.00004844367504119873,2.086385272654146,-0.00036513805389404297
1746575927181855000,10.21885498046875,0.1729793003285255,0.009219425730407238,0.05570042823381817,-0.024439409375190735,0.24529553286059624,0.9597544020898687,0.519079341093523,right,0.0033092498779296875,-0.21404311416931138,1.6493828255295753,-9.439851992827654,-0.12489581075509423,0.006437940523028374,0.0006194710731506348,2.083054666926712,0.004119619727134705
1746575927221855000,10.25885498046875,0.17281102138364293,-0.004292263649404049,0.055658135579464335,0.005975862964987755,0.2453411466534991,0.9597671391024568,0.5191169288688644,right,0.0004451870918273926,-0.21373295987911115,1.64790530032292,-9.440765600541233,-0.12472809337983275,0.0063438406214118,0.0005999654531478882,2.0800823731176554,0.001913517713546753
1746575927261855200,10.298855224609374,0.17281102138364293,0.00020261947065591812,0.055658135579464335,0.001806261483579874,0.2453411466534991,0.9597671391024568,0.5191169288688644,right,0.00044041872024536133,-0.21373295987911115,1.64790530032292,-9.440765600541233,-0.12472809337983275,0.010879699140787125,0.0023462921380996704,2.0800823731176554,-0.0035737156867980957
1746575927301855000,10.33885498046875,0.17281102138364293,0.01716122403740883,0.055658135579464335,0.0030616787262260914,0.2453411466534991,0.9597671391024568,0.5191169288688644,right,-0.0009532570838928223,-0.21373295987911115,1.64790530032292,-9.440765600541233,-0.12472809337983275,0.0169618409126997,0.001379355788230896,2.0800823731176554,-0.0037828683853149414
1746575927341855000,10.37885498046875,0.17278577728604122,0.01781337708234787,0.055721982068144445,-0.002896268852055073,0.2458983161948918,0.9596834217842312,0.5201523286113977,right,-0.0003464818000793457,-0.21266670536912125,1.6480473391421138,-9.442986199200153,-0.12424470067554744,0.013765811920166016,0.0006071627140045166,2.0698627385288475,-0.0002295076847076416
1746575927381855000,10.41885498046875,0.1727594399032351,0.01846553198993206,0.055785804091971876,-0.008854216895997524,0.24645534660747734,0.9595992602152756,0.5211875571987202,right,0.0002595186233520508,-0.21160052381489372,1.6481771030016243,-9.445198614552616,-0.12376125282671664,0.010569783858954906,-0.00016376376152038574,2.059641496504843,0.0033240467309951782
1746575927421855000,10.45885498046875,0.17267805356996052,0.004453492350876331,0.055802266069502025,-0.00022804923355579376,0.24676561393649682,0.9595598468312972,0.52174570945841,right,0.0029065608978271484,-0.21091914957744023,1.647649133604765,-9.446713110768794,-0.12344145601651973,0.01084806490689516,-0.0014254003763198853,2.0531080030828712,0.006590843200683594
1746575927461855000,10.49885498046875,0.17267805356996052,-0.008268282748758793,0.055802266069502025,0.005564259830862284,0.24676561393649682,0.9595598468312972,0.52174570945841,right,0.004472553730010986,-0.21091914957744023,1.647649133604765,-9.446713110768794,-0.12344145601651973,0.014217856340110302,-0.0003494173288345337,2.0531080030828712,0.00558847188949585
1746575927501855200,10.538855224609375,0.17345570403593427,-0.006843070033937693,0.0563454290741067,0.02457105554640293,0.24649229349270244,0.959650306558297,0.5211596729057526,right,-0.000012278556823730469,-0.20990514560581763,1.6553532782413065,-9.447474742791057,-0.12303677435693369,0.024797633290290833,-0.000776246190071106,2.043383458534628,0.0030238181352615356
1746575927541855000,10.57885498046875,0.17376552364561734,-0.001439973246306181,0.05664813272191448,0.01350595522671938,0.24639222893809823,0.9597174233979356,0.5208721697060639,right,-0.00006979703903198242,-0.20887172564499923,1.6586444287411868,-9.44903600075841,-0.12257337099069732,0.023989545181393623,-0.00008730590343475342,2.033470405676961,0.0019161701202392578
1746575927581855000,10.61885498046875,0.1740755914931013,0.003963123075664043,0.056950818412479044,0.0024408558383584023,0.24629211096548678,0.9597842930628119,0.5205844844260444,right,-0.0001284480094909668,-0.2078384006159272,1.6619371866762638,-9.450585568287968,-0.12210992601376489,0.023181457072496414,0.000601455569267273,2.023556037645042,0.0008086413145065308
1746575927621855000,10.65885498046875,0.17421125542956956,0.004054028075188398,0.057101705268748644,0.00360456807538867,0.24634178818996647,0.959801067575409,0.5206282901386957,right,-0.0007218122482299805,-0.207167595777858,1.6634543132409452,-9.451694990834593,-0.12180751237964407,0.0067827701568603516,0.0012227892875671387,2.0171188442043957,0.001099228858947754
1746575927661855000,10.69885498046875,0.17421125542956956,0.00013249926269054413,0.057101705268748644,0.011399118229746819,0.24634178818996647,0.959801067575409,0.5206282901386957,right,0.0003274083137512207,-0.207167595777858,1.6634543132409452,-9.451694990834593,-0.12180751237964407,-0.00006536440923810005,0.003297358751296997,2.0171188442043957,0.0012256205081939697
1746575927701855000,10.73885498046875,0.17502438626902259,-0.007755047641694546,0.05753886853897017,0.016746701672673225,0.24627877134596252,0.9597983871145115,0.520562711263948,right,-0.0007919669151306152,-0.20684188177792556,1.6712534426845609,-9.450985381260514,-0.12175022119377582,0.02145881950855255,0.003322988748550415,2.013992821138352,0.0016488581895828247
1746575927741855200,10.778855224609375,0.17545922177033657,-0.01654808223247528,0.057959951784526564,0.010678807273507118,0.24597074344385195,0.9599249792071419,0.519829309767416,right,-0.0012492537498474121,-0.20556801694285234,1.675809498553723,-9.452776356330514,-0.12117413348038374,0.046885907649993896,0.003958597779273987,2.0017652077279986,0.0019909143447875977
1746575927781855200,10.818855224609376,0.1755116747870768,-0.011540716513991356,0.05832108021272299,0.004162404220551252,0.2455722035393789,0.9601323624422187,0.5187679987736016,right,-0.0022638440132141113,-0.20350070960115013,1.6770242811709641,-9.456742921873927,-0.12016213405134056,0.062015824019908905,0.0015566200017929077,1.9819144059628246,-0.0012646913528442383
1746575927821855000,10.85885498046875,0.17523056962932881,0.0004900544881820679,0.05850446653263141,-0.002630307339131832,0.24559734922041776,0.9602574950406905,0.5185205637650988,right,-0.0009995102882385254,-0.20118956814992012,1.6751599486038087,-9.46169908297658,-0.1190160612734544,0.049930639564991,0.0006830096244812012,1.9597122187659144,-0.001127973198890686
1746575927861855000,10.89885498046875,0.17495015041577391,0.012520825490355492,0.05868776512243415,-0.00942301843315363,0.24562212761383018,0.9603813271797657,0.5182738342571814,right,0.0002595186233520508,-0.1988783459863138,1.6732905014701187,-9.466603221631049,-0.11786981457383253,0.03784545511007309,-0.00019006431102752686,1.9374989256531,-0.0009900778532028198
1746575927901855000,10.93885498046875,0.17472279804679028,0.0027223657816648483,0.05871558444015507,-0.0025242920964956284,0.2457675718417181,0.9604102624039135,0.5184225049475012,right,0.0015884041786193848,-0.19776758032700797,1.671511362968385,-9.469097376534343,-0.11731532851370051,0.007290171459317207,-0.0003215372562408447,1.926819418467581,-0.0008998513221740723
1746575927941855000,10.97885498046875,0.17462969347291687,-0.007696659304201603,0.05865663161650466,-0.0019621015526354313,0.2456991457832806,0.9604234548201054,0.5182878373385272,right,0.001070261001586914,-0.19793637421213375,1.670573205335438,-9.46893254136145,-0.11738061267604417,-0.010185342282056808,0.0003911703824996948,1.9284424896247683,-0.003607705235481262
1746575927981855200,11.018855224609375,0.17462969347291687,-0.000859538558870554,0.05865663161650466,-0.0009302663384005427,0.2456991457832806,0.9604234548201054,0.5182878373385272,right,0.00039762258529663086,-0.19793637421213375,1.670573205335438,-9.46893254136145,-0.11738061267604417,-0.007127264514565468,0.0012559890747070312,1.9284424896247683,-0.004354923963546753
1746575928021855200,11.058855224609376,0.17462969347291687,0.00846436619758606,0.05865663161650466,-0.000635370728559792,0.2456991457832806,0.9604234548201054,0.5182878373385272,right,-0.0011751651763916016,-0.19793637421213375,1.670573205335438,-9.46893254136145,-0.11738061267604417,-0.009209576062858105,0.0008946508169174194,1.9284424896247683,-0.0031652748584747314
1746575928061855000,11.09885498046875,0.17454689985666677,0.02380310744047165,0.0585064319344149,-0.009382041171193123,0.2460134664658187,0.9603199948507231,0.5189920366032935,right,-0.005076050758361816,-0.19846254088466964,1.6696126897402106,-9.468069787052274,-0.11764257006136894,-0.0005321921780705452,-0.0016588866710662842,1.9335013804495333,-0.006120949983596802
1746575928101855000,11.13885498046875,0.1740267228882443,0.023493878543376923,0.05821316120688509,-0.015052849426865578,0.24655515250116067,0.9602111215089534,0.5200408810027548,right,-0.0011429190635681152,-0.1983244769774173,1.6647336855269967,-9.469200252386926,-0.11754312838091316,-0.000544693844858557,-0.0006037354469299316,1.9321740773685276,-0.0014697909355163574
1746575928141855000,11.17885498046875,0.1740267228882443,-0.0012738164514303207,0.05821316120688509,0.006997093558311462,0.24655515250116067,0.9602111215089534,0.5200408810027548,right,-0.0021882057189941406,-0.1983244769774173,1.6647336855269967,-9.469200252386926,-0.11754312838091316,-0.01555603090673685,-0.002236694097518921,1.9321740773685276,0.004921168088912964
1746575928181855000,11.21885498046875,0.17412073891131558,-0.0329032763838768,0.05813955206451833,0.0030131125822663307,0.24640193777782757,0.9601961116403124,0.5198456395836216,right,0.0004919767379760742,-0.19931435223395763,1.665291757801175,-9.467155010294913,-0.1180220881559389,-0.023544978350400925,-0.00029234588146209717,1.9416900937326251,0.005178213119506836
1746575928221855000,11.25885498046875,0.17422904107152148,-0.04577041044831276,0.05811197735799234,0.018849801272153854,0.24561087089651207,0.9603290408092239,0.5183564602274229,right,0.002267181873321533,-0.20059042576390737,1.6658862165629862,-9.464526999878883,-0.11860196336242304,-0.01947057619690895,0.0019576698541641235,1.9539548242829738,0.0008392333984375
1746575928261855200,11.298855224609374,0.17466187078929665,-0.01650005206465721,0.05825265243122431,0.014020532369613647,0.24494957501656836,0.9604245675971779,0.5171533379284271,right,-0.002539217472076416,-0.20164820578370404,1.669622480481863,-9.461763964906334,-0.11912561602868843,-0.01489090546965599,0.0023578405380249023,1.964119075422734,-0.006592079997062683
1746575928301855000,11.33885498046875,0.1749739741687462,0.027501344680786133,0.058314587185711524,-0.0061929840594530106,0.24506972078404654,0.9603538008405574,0.5175009062964232,right,-0.004171431064605713,-0.2021612051745216,1.6723998362407086,-9.460249468690156,-0.1194191500727891,-0.009820247069001198,0.002215281128883362,1.9690476178660987,-0.006071791052818298
1746575928341855000,11.37885498046875,0.17485114545097455,0.047418154776096344,0.058130633778723434,-0.026492055505514145,0.245932404261656,0.960131659335164,0.5192977502383836,right,-0.003648996353149414,-0.20229562845812638,1.6711916294947267,-9.460193939110637,-0.11952063286467769,-0.0110951978713274,-0.0003933459520339966,1.9703389728508889,0.0001767575740814209
1746575928381855000,11.41885498046875,0.17406782059703074,0.03465927392244339,0.05763824308803919,-0.030045894905924797,0.24693343580676527,0.959910406408388,0.5212837629688205,right,0.0033738017082214355,-0.20227836014766565,1.6637867600657046,-9.461533663281799,-0.11947332538828051,-0.005793347489088774,-0.000278279185295105,1.9701731147646904,0.004953980445861816
1746575928421855000,11.45885498046875,0.1735867030907859,0.005012990906834602,0.057360275713780634,-0.01571434549987316,0.24696259216012495,0.9599066493721431,0.5213231991608152,right,0.00415349006652832,-0.20261709737337472,1.6591190605156123,-9.461675117579102,-0.11957686826942263,-0.009364415891468525,0.00036644935607910156,1.9734271481245755,0.0037129372358322144
1746575928461855000,11.49885498046875,0.1735867030907859,-0.024633288383483887,0.057360275713780634,-0.0013827979564666748,0.24696259216012495,0.9599066493721431,0.5213231991608152,right,0.0049187541007995605,-0.20261709737337472,1.6591190605156123,-9.461675117579102,-0.11957686826942263,-0.012935484759509563,0.0005352050065994263,1.9734271481245755,0.002803713083267212
1746575928501855200,11.538855224609375,0.17339585143582753,-0.02341296337544918,0.057197437622800266,0.013489794917404652,0.246514680159781,0.9599821483598739,0.5204716909951308,right,-0.000028789043426513672,-0.20354409017553032,1.656996953795105,-9.460185755804181,-0.1199717810539226,-0.012855497188866138,0.0022402405738830566,1.9823310239396987,-0.0018717944622039795
1746575928541855000,11.57885498046875,0.17364154401747411,-0.010019097477197647,0.05722963701186582,0.0061783757992088795,0.2462155450955416,0.9600026409956004,0.5199790489314212,right,-0.00182265043258667,-0.20441979480320427,1.6590205685772001,-9.458064525866508,-0.12040629477147288,-0.019334811717271805,0.003434896469116211,1.9907406864970922,-0.0011751502752304077
1746575928581855000,11.61885498046875,0.17373208735036305,0.009077509865164757,0.0571525675842218,-0.0007631401531398296,0.2462709036216546,0.9599419517815261,0.5201987386562879,right,-0.001259922981262207,-0.2052344355982902,1.6595960303775965,-9.456313882806896,-0.1208128832959007,-0.017358634620904922,0.0024220049381256104,1.9985626122944056,-0.00043073296546936035
1746575928621855000,11.65885498046875,0.17365838554820412,0.022566011175513268,0.05702997899682163,-0.005919223185628653,0.24665021042033777,0.9598327263949615,0.5210127189293411,right,-0.0010802745819091797,-0.20552281897583582,1.658799473172426,-9.455867892605065,-0.12096478374570944,-0.0017423415556550026,0.002393394708633423,2.001331200224906,-0.001081511378288269
1746575928661855000,11.69885498046875,0.17347907136701707,0.01799216866493225,0.05695199319424499,-0.0121560487896204,0.24715145726244447,0.9597378531670816,0.5219772081819063,right,-0.0016917586326599121,-0.20502032794366146,1.65727723204121,-9.457155009806156,-0.12073015439499649,0.013193197548389435,0.0022194087505340576,1.9965069949388503,0.003105059266090393
1746575928701855000,11.73885498046875,0.17298387087405698,0.0014319289475679398,0.056765597680548625,-0.011738759465515614,0.24737815262528193,0.9597297386779206,0.5223251292666395,right,0.00156325101852417,-0.20447400129870671,1.6527813819266854,-9.459047107163071,-0.12041790257193614,0.010360575281083584,0.0012711435556411743,1.991261203239858,0.004639744758605957
1746575928741855200,11.778855224609375,0.172400120664565,-0.00694693997502327,0.05652509650749709,-0.009476788341999054,0.24728221279900298,0.9597888062031904,0.5220330655635405,right,0.0029202699661254883,-0.20430712446380064,1.6473162483885884,-9.4603377314955,-0.12025772966129132,0.003974188584834337,0.0002915710210800171,1.9896587364792822,0.0009555965662002563
1746575928781855200,11.818855224609376,0.172400120664565,0.001676277257502079,0.05652509650749709,-0.0015024291351437569,0.24728221279900298,0.9597888062031904,0.5220330655635405,right,-0.00003069639205932617,-0.20430712446380064,1.6473162483885884,-9.4603377314955,-0.12025772966129132,0.000013708602637052536,-0.000012263655662536621,1.9896587364792822,-0.0006243288516998291
1746575928821855000,11.85885498046875,0.172400120664565,0.014401977881789207,0.05652509650749709,-0.0006801823037676513,0.24728221279900298,0.9597888062031904,0.5220330655635405,right,-0.0014462471008300781,-0.20430712446380064,1.6473162483885884,-9.4603377314955,-0.12025772966129132,0.0024292171001434326,-0.0007769167423248291,1.9896587364792822,0.0009111911058425903
1746575928861855000,11.89885498046875,0.1723509791129698,0.008334316313266754,0.05651056773006948,-0.003585526719689369,0.24759448625288563,0.9597283479731497,0.5226386327855322,right,-0.0011339187622070312,-0.2039633680767205,1.6469686039946971,-9.461091764733196,-0.12010457714143319,0.002535181352868676,-0.000414922833442688,1.9863576491072772,0.004678890109062195
1746575928901855000,11.93885498046875,0.1723509791129698,-0.0021941661834716797,0.05651056773006948,-0.0015966510400176048,0.24759448625288563,0.9597283479731497,0.5226386327855322,right,-0.0007633566856384277,-0.2039633680767205,1.6469686039946971,-9.461091764733196,-0.12010457714143319,0.014259318821132183,0.0010771900415420532,1.9863576491072772,0.0035523921251296997
1746575928941855000,11.97885498046875,0.17199928833282513,-0.05976307392120361,0.05651118997426413,-0.009481362998485565,0.24720180170614311,0.9598888018457689,0.5216803977634024,right,-0.0015837550163269043,-0.2031159968415907,1.6439286517769098,-9.463325807395577,-0.11962926395547002,0.01590370200574398,0.000907406210899353,1.978219350837171,0.007249191403388977
1746575928981855200,12.018855224609375,0.17098316383418832,-0.07267903536558151,0.05621304715952306,-0.007657832466065884,0.24581642490549088,0.9602923360819283,0.5186601283879185,right,0.0015783905982971191,-0.20304633236792713,1.634335332392901,-9.465126719337702,-0.11938562083302354,0.008885247632861137,0.003215879201889038,1.9775502194039523,-0.0011172592639923096
1746575929021855200,12.058855224609376,0.17057555322143106,-0.04515616595745087,0.05606214103244142,-0.004636043682694435,0.24518696818811478,0.9604571747624593,0.5173283040696102,right,0.0009287595748901367,-0.2033109147153925,1.63038820220232,-9.46527635694146,-0.11942467171246925,0.012581821531057358,0.002324044704437256,1.980091574449837,-0.000994861125946045
1746575929061855000,12.09885498046875,0.17016756361645163,-0.01763329654932022,0.0559112088749192,-0.001614254666492343,0.24455739014793398,0.960621651583848,0.5159963009338474,right,0.0002790689468383789,-0.20357498219149148,1.6264377110108732,-9.465424825501442,-0.11946366845651948,0.016278395429253578,0.0014325380325317383,1.9826276687987148,-0.0008719712495803833
1746575929101855000,12.13885498046875,0.16975921575465072,0.009889572858810425,0.055760252252543954,0.0014075341168791056,0.24392777317653597,0.960785748740092,0.5146642918084429,right,-0.0003707408905029297,-0.20383851788850213,1.6224841510795056,-9.465573294061421,-0.11950261005602505,0.0199749693274498,0.0005413740873336792,1.9851586485810577,-0.0007485151290893555
1746575929141855000,12.17885498046875,0.16968421561961608,0.026672175154089928,0.05580972951164502,-0.0007988144643604755,0.2440816036038903,0.9607892419027564,0.5148903527642691,right,-0.0011450648307800293,-0.20307893498620058,1.6220283701360225,-9.467178391170501,-0.11913653494136281,0.026392195373773575,0.00035671889781951904,1.9778633770063518,0.0008020699024200439
1746575929181855000,12.21885498046875,0.1697544479176695,0.021857380867004395,0.05597730341030147,-0.0034507731907069683,0.24452613686469046,0.9607443982925407,0.515670299663277,right,-0.0017481446266174316,-0.20169757849087358,1.6231532825127244,-9.469747949397563,-0.11850634341091004,0.03441482037305832,-0.0011291652917861938,1.9645934149362145,0.00328710675239563
1746575929221855000,12.25885498046875,0.169603865724234,0.012019895948469639,0.05608763422973775,0.0021750605665147305,0.2447408141285586,0.960773851296482,0.5159297281227647,right,0.0015169382095336914,-0.20018080691519627,1.6222284227527677,-9.472918396127223,-0.11776985634228457,0.033244963735342026,0.0004995912313461304,1.9500182154864072,0.003524079918861389
1746575929261855200,12.298855224609374,0.16945287881616808,0.0021824119612574577,0.056197917930315505,0.007800893392413855,0.24495531665161482,0.9608026952665187,0.5161892255816848,right,0.004779815673828125,-0.19866403127775178,1.6212949412949382,-9.476067800068854,-0.11703327554586714,0.03207510709762573,0.0021292418241500854,1.9354384859919547,0.0037615150213241577
1746575929301855000,12.33885498046875,0.16996975102891512,-0.006025852635502815,0.056638053346894576,0.016407929360866547,0.24490179850495375,0.9608637197889917,0.5159875526166169,right,-0.00038552284240722656,-0.19728499864260957,1.6266425859332083,-9.477850591832398,-0.11643130935494024,0.03139226511120796,0.0010279864072799683,1.9221790453158318,0.0013395100831985474
1746575929341855000,12.37885498046875,0.1702450997593544,0.0007054531015455723,0.05692728474302059,0.006533753126859665,0.2448860305023364,0.9609132657339363,0.5158607496072546,right,-0.0006300806999206543,-0.1961389341422934,1.629624378222972,-9.479566748100519,-0.1159132458945801,0.024779554456472397,0.0015720576047897339,1.9111567160420118,0.0002413243055343628
1746575929381855000,12.41885498046875,0.17052050397173948,0.007436757441610098,0.05721648854311909,-0.003340423107147217,0.24487017346970683,0.9609623997209438,0.5157336126026671,right,-0.0008759498596191406,-0.19499286767027393,1.6326057321213185,-9.481270044887065,-0.11539512930797442,0.01816684380173683,0.002116173505783081,1.9001319025501608,-0.0008565932512283325
1746575929421855000,12.45885498046875,0.17040466525256698,0.010392887517809868,0.057229881517405955,-0.009014615789055824,0.24505266562283887,0.9609536618932384,0.5160265078643832,right,-0.001204073429107666,-0.19433432158685743,1.6317193046756089,-9.482690433079004,-0.1150742791414213,0.0057228924706578255,0.0005503743886947632,1.893795685265958,-0.0003257244825363159
1746575929461855000,12.49885498046875,0.17007902113929524,0.0054958779364824295,0.05704255272409599,-0.005293671973049641,0.24525460377404368,0.960912995434448,0.5164150321138011,right,-0.00039374828338623047,-0.1943995278142521,1.628610232744366,-9.483099598401784,-0.11507665449966119,-0.01102513913065195,0.000179976224899292,1.8944231695145368,-0.00010651350021362305
1746575929501855200,12.538855224609375,0.17007902113929524,-0.0026476243510842323,0.05704255272409599,0.0029891207814216614,0.24525460377404368,0.960912995434448,0.5164150321138011,right,0.0013492703437805176,-0.1943995278142521,1.628610232744366,-9.483099598401784,-0.11507665449966119,-0.012957113794982433,-0.00011269748210906982,1.8944231695145368,0.0018088370561599731
1746575929541855000,12.57885498046875,0.1704170952171075,-0.014605464413762093,0.05710219420884886,0.00998254306614399,0.2451594398185984,0.9608820766151458,0.5163480566048978,right,0.00013172626495361328,-0.19521613145990796,1.6315533004589378,-9.48102045404017,-0.11550681139323389,-0.009588981047272682,0.0009259730577468872,1.9022797282338142,0.003850966691970825
1746575929581855000,12.61885498046875,0.17074689599487158,-0.01823853701353073,0.057233342684680714,0.009147212840616703,0.2447907788788403,0.9609366106481346,0.5156767466981323,right,-0.0015420913696289062,-0.19572270542465559,1.6345160957872866,-9.479531092265248,-0.11577032208611318,-0.003189115785062313,0.0017622709274291992,1.9071530333586035,0.0002839416265487671
1746575929621855000,12.65885498046875,0.17074689599487158,-0.0006220713257789612,0.057233342684680714,0.004493162967264652,0.2447907788788403,0.9609366106481346,0.5156767466981323,right,-0.0013767480850219727,-0.19572270542465559,1.6345160957872866,-9.479531092265248,-0.11577032208611318,0.006374220363795757,0.0015362203121185303,1.9071530333586035,-0.0025368481874465942
1746575929661855000,12.69885498046875,0.17074689599487158,0.022544007748365402,0.057233342684680714,-0.002323480788618326,0.2447907788788403,0.9609366106481346,0.5156767466981323,right,-0.0014004111289978027,-0.19572270542465559,1.6345160957872866,-9.479531092265248,-0.11577032208611318,0.014236935414373875,0.0012610703706741333,1.9071530333586035,-0.0030557066202163696
1746575929701855000,12.73885498046875,0.17102669135413118,0.033515628427267075,0.05744558928027603,-0.010049384087324142,0.24535600443308697,0.9608339043671079,0.5167668885778927,right,-0.0013742446899414062,-0.194644399801887,1.6375173234298823,-9.48109410379827,-0.11532008887388577,0.015024441294372082,-0.000019252300262451172,1.896779231121391,-0.00017184019088745117
1746575929741855200,12.778855224609375,0.17099820177852737,0.023622574284672737,0.05748027969969367,-0.007532727904617786,0.2459425570307396,0.9607279257206383,0.517888447958185,right,0.0012745857238769531,-0.19378115257487116,1.6375253606058655,-9.482751223355532,-0.11493594176235673,0.009898379445075989,0.0003012716770172119,1.8884727366775274,0.001996859908103943
1746575929781855200,12.818855224609376,0.17099820177852737,0.007576553151011467,0.05748027969969367,-0.0020731990225613117,0.2459425570307396,0.9607279257206383,0.517888447958185,right,0.0007970929145812988,-0.19378115257487116,1.6375253606058655,-9.482751223355532,-0.11493594176235673,0.004488365724682808,0.0000619739294052124,1.8884727366775274,0.0006807148456573486
1746575929821855000,12.85885498046875,0.17099820177852737,-0.006834299303591251,0.05748027969969367,0.008048485964536667,0.2459425570307396,0.9607279257206383,0.517888447958185,right,0.00204312801361084,-0.19378115257487116,1.6375253606058655,-9.482751223355532,-0.11493594176235673,-0.0016254889778792858,0.0013136565685272217,1.8884727366775274,-0.0026541054248809814
1746575929861855000,12.89885498046875,0.17099820177852737,-0.002543135080486536,0.05748027969969367,0.0022624856792390347,0.2459425570307396,0.9607279257206383,0.517888447958185,right,0.00044018030166625977,-0.19378115257487116,1.6375253606058655,-9.482751223355532,-0.11493594176235673,-0.004644839093089104,0.0007020831108093262,1.8884727366775274,-0.0053756386041641235
1746575929901855000,12.93885498046875,0.17099820177852737,0.00013973843306303024,0.05748027969969367,0.010179968550801277,0.2459425570307396,0.9607279257206383,0.517888447958185,right,0.004279613494873047,-0.19378115257487116,1.6375253606058655,-9.482751223355532,-0.11493594176235673,-0.017085164785385132,0.004577994346618652,1.8884727366775274,-0.001194283366203308
1746575929941855000,12.97885498046875,0.17141901148067135,0.0012066108174622059,0.057512629117595714,0.0038972743786871433,0.24601863546103128,0.9606332215345474,0.518225155307,right,0.003135979175567627,-0.19492901992865974,1.641144720146805,-9.47991863027811,-0.11554631452405169,-0.01683475822210312,0.004247501492500305,1.8995175700441003,0.00007700920104980469
1746575929981855200,13.018855224609375,0.1718403472087232,0.0022734832018613815,0.05754496473748443,-0.002385420724749565,0.24609461037452057,0.9605382378809016,0.5185624628153235,right,0.001990795135498047,-0.19607680256130358,1.6447649564705789,-9.477072008675336,-0.11615666072262334,-0.016584351658821106,0.003916949033737183,1.9105590424098073,0.0013486593961715698
1746575930021855200,13.058855224609376,0.1718403472087232,0.00460096588358283,0.05754496473748443,-0.006272339262068272,0.24609461037452057,0.9605382378809016,0.5185624628153235,right,-0.0003533363342285156,-0.19607680256130358,1.6447649564705789,-9.477072008675336,-0.11615666072262334,-0.004405616782605648,0.0021062642335891724,1.9105590424098073,0.002192586660385132
1746575930061855000,13.09885498046875,0.17149821635758292,0.009428053162992,0.05728760830268681,-0.011696165427565575,0.24630631183705565,0.9604735134208441,0.5190186054327083,right,-0.0005721449851989746,-0.19658381451022156,1.6413569015927612,-9.476678625443578,-0.11637004286163727,-0.0010880709160119295,0.000482708215713501,1.9154357085354625,0.0011423230171203613
