time,seconds_elapsed,roll,rotationRateZ,quaternionY,rotationRateY,quaternionZ,quaternionW,yaw,devicelocation,accelerationZ,pitch,gravityX,gravityZ,quaternionX,rotationRateX,accelerationX,gravityY,accelerationY
1746738806449808100,0.49480810546875,0.18058924893657735,-0.07779760658740997,0.08719607772150484,0.015013955533504486,1.0361655326888085e-17,0.985129107073379,-0.026994865592097832,right,-0.06802839040756226,0.29598928648582307,1.684770803644508,-9.22765768738985,0.14804468624068934,0.004467057064175606,-0.10695123672485352,-2.860465419209003,0.3066374957561493
1746738806489808100,0.53480810546875,0.09243090726769701,-0.00988883525133133,0.0461775022955985,-0.0030456967651844025,0.000632626900439493,0.9986738539608938,-0.0008386710009188903,right,-0.007241427898406982,0.045520329878313594,0.904209916768223,-9.754673144525288,0.02275326655304276,-0.025154775008559227,-0.023186616599559784,-0.446247720255889,0.06000031530857086
1746738806529808400,0.574808349609375,0.0705156114763406,0.02759157121181488,0.035254200025877286,0.0025343974120914936,0.001548317388295307,0.9993737190481395,0.002911545004709141,right,-0.005011320114135742,0.005302354729746489,0.6909393604010343,-9.78214099716544,0.0025982074588605636,-0.0788271427154541,-0.0018424168229103088,-0.05199796219482086,0.025250501930713654
1746738806569808100,0.61480810546875,0.06623323118362517,0.020544353872537613,0.03309632776459339,-0.027392392978072166,0.0024994671346382927,0.9994353925580823,0.005341416504261786,right,-0.002315521240234375,-0.010252920375466337,0.64901730434224,-9.784633398503065,-0.005212036308604701,-0.11431103944778442,-0.0004051029682159424,0.10054519028072245,0.022392507642507553
1746738806609385200,0.65438525390625,0.06611128263019048,0.01006679330021143,0.033016471455705916,-0.04272634908556938,0.00305262422733825,0.9994051132419408,0.006728731292927191,right,0.0024374776985496283,-0.01874490303704897,0.6477442887317388,-9.783507609343529,-0.009478328072140049,-0.08343479037284851,-0.0054854340851306915,0.18381410545939578,0.01963396929204464
1746738806649385200,0.69438525390625,0.0647134234496093,0.013787724077701569,0.03230272788288726,-0.02078889310359955,0.00353068320540742,0.9994015869756462,0.007824934302002725,right,0.0072438716888427734,-0.02345943218619948,0.6340045902580023,-9.7834298679322,-0.011849781987054133,-0.05275716260075569,-0.0048432908952236176,0.2300375119739212,0.024204071611166
1746738806689385200,0.73438525390625,0.0633205637858756,0.017508653923869133,0.031588779472474106,0.0011485684663057327,0.004008713596185749,0.9993916663869278,0.008914664418252529,right,0.012025773525238037,-0.028175485773681397,0.6203014974676072,-9.7831124725461,-0.014221160596028232,-0.02207953669130802,-0.0042048729956150055,0.276270745762717,0.028773175552487373
1746738806729385200,0.77438525390625,0.06327745509265387,-0.006892658770084381,0.03155772279352655,0.046536825597286224,0.0041029359472041565,0.9993699605083474,0.00919668806734239,right,0.009105563163757324,-0.031141650312693434,0.6198251851927489,-9.782278359809517,-0.015707684284505426,-0.040942706167697906,0.001720234751701355,0.3053460883984342,0.03650518134236336
1746738806769385200,0.81438525390625,0.0646937267266674,-0.056510645896196365,0.03226273352124488,0.07618334889411926,0.003354236093853924,0.9993018020406957,0.007905193486345583,right,0.0010755062103271484,-0.03683542077538695,0.6335562619686126,-9.779497204658389,-0.01853470338131822,-0.04185277596116066,0.0068635493516922,0.36115057586990296,0.02731482684612274
1746738806809385200,0.85438525390625,0.06609952988590045,-0.055524714291095734,0.0329748710479301,0.04158398136496544,0.002367105457531066,0.9992441781352936,0.006083942945508478,right,-0.0062073469161987305,-0.040710873861863624,0.6472063824627549,-9.777126383873819,-0.020443321136955833,-0.011625947430729866,0.0024090632796287537,0.3991272187711671,0.015170909464359283
1746738806849385200,0.89438525390625,0.06693547541067464,0.004717614501714706,0.0334038552303102,-0.012532465159893036,0.0014511342878722024,0.9991892944199008,0.0044022440212940495,right,-0.0039847493171691895,-0.0447240983086798,0.6552668662562966,-9.774905200693011,-0.022421245478994857,0.012358017265796661,0.002144463360309601,0.43844756789896633,0.0029584355652332306
1746738806889385200,0.93438525390625,0.06681465844183444,0.04585399478673935,0.03333070419195155,-0.012709240429103374,0.001952778883716155,0.9991821182164512,0.005428430219074458,right,-0.0005456209182739258,-0.04546469576133492,0.654064066337794,-9.774657947933674,-0.022808259205125154,0.00902546662837267,0.0007605552673339844,0.4457029823873192,0.007241908460855484
1746738806929385200,0.97438525390625,0.06696393464604562,0.054083216935396194,0.03337724362449928,0.009733638726174831,0.0031393048633603982,0.9991728937919336,0.007817829555760745,right,-0.0013955235481262207,-0.04579189137908506,0.6555133883632719,-9.774414202305675,-0.023011759299475645,-0.0026769889518618584,0.002895556390285492,0.44890831776726986,0.01689830794930458
1746738806969385200,1.01438525390625,0.06750796736143182,-0.0015818886458873749,0.03362842070679137,0.004732438828796148,0.003880255037457142,0.9991485951985343,0.00935038002656204,right,-0.00028973817825317383,-0.04688055105658085,0.6607975393112748,-9.7735625539124,-0.023582255247464746,-0.01535036414861679,0.002213217318058014,0.4595729561772197,0.016843192279338837
1746738807009385500,1.054385498046875,0.06795352538599614,-0.02023979462683201,0.03385432923724766,0.012244738638401031,0.0036007757700850405,0.9991297023545089,0.008837140098410832,right,0.0012072324752807617,-0.04792713226011781,0.6651191288374364,-9.77278163266778,-0.024097266734716204,0.005281556397676468,0.002917475998401642,0.46982488560043273,0.007235072553157806
1746738807049385200,1.09438525390625,0.0684918251639921,-0.021758999675512314,0.03413285811215938,0.013455276377499104,0.0031207077024544075,0.9991144576399993,0.00791123643444449,right,-0.000019609928131103516,-0.04857023161992107,0.6703589291870594,-9.772118784844874,-0.02440369774663865,0.014835843816399574,0.004224404692649841,0.47612420494034885,0.0046552978456020355
1746738807089385200,1.13438525390625,0.06943490951410473,-0.010831279680132866,0.03461420697927238,0.018216419965028763,0.002666342022892163,0.9990966944710932,0.0070326018687102984,right,-0.001903831958770752,-0.0487965697167051,0.6795670486457646,-9.771374688479304,-0.024503030568125774,0.017615387216210365,0.003293082118034363,0.4783411868700757,-0.000002730637788772583
1746738807129385200,1.17438525390625,0.0705786226793316,-0.0039342064410448074,0.03519164268720019,0.009787230752408504,0.0024169380229687783,0.9990789792238752,0.006556712737305901,right,-0.003426790237426758,-0.04866454168114358,0.6907466873731464,-9.77065397298932,-0.024430224641656888,0.007760263048112392,0.005716279149055481,0.47704796872176225,0.0029161348938941956
1746738807169385200,1.21438525390625,0.07090649006439413,-0.013888628222048283,0.035359111555360284,0.0018662549555301666,0.0022546702090121373,0.9990727123990484,0.0062425482033594,right,-0.002682924270629883,-0.04873922790337244,0.6939476023063064,-9.770391522660852,-0.024462373502263823,-0.003727366216480732,0.005518868565559387,0.47777953439932314,0.003984600305557251
1746738807209385200,1.25438525390625,0.07085805098904276,-0.021203014999628067,0.03534391629823284,-0.013306429609656334,0.0018695644531306328,0.9990718724897677,0.005477463611425749,right,-0.002675950527191162,-0.04893710952642205,0.6934676367696374,-9.770330732384323,-0.024547650630240687,0.004829598590731621,0.004272088408470154,0.47971777245290576,-6.556510925292969e-7
1746738807249385500,1.294385498046875,0.07013073457629129,-0.010743196122348309,0.034991280623311756,-0.02871134504675865,0.0014355260211469738,0.999084195814882,0.0045941052984769075,right,-0.0021029114723205566,-0.049033404891194315,0.6863580970253795,-9.770786074936389,-0.02457962049139782,0.0010281158611178398,0.0007089078426361084,0.48066097158715126,-0.0006575994193553925
1746738807289385200,1.33438525390625,0.06886379226522067,-0.007013809867203236,0.034365060555287257,-0.03536658361554146,0.001190934947570826,0.9991083021690593,0.004068163579113708,right,0.00222700834274292,-0.048883996422527165,0.6739834763597696,-9.771719556394219,-0.024495033477220488,0.012112760916352272,0.0015331506729125977,0.47919754797108466,-0.003209363669157028
1746738807329385200,1.37438525390625,0.06803194337342558,0.008226837031543255,0.03394894744246237,-0.03402100130915642,0.0012507281527645681,0.9991267045434291,0.004155451928744139,right,0.0012290477752685547,-0.04853161006437822,0.6658660747472196,-9.77244436353743,-0.024319979975029056,0.014008885249495506,0.00037810206413269043,0.4757459096798673,-0.0007469840347766876
1746738807369385200,1.41438525390625,0.06701521723622944,0.009941933676600456,0.03343583838185758,-0.021223004907369614,0.001520003597640127,0.9991500383938593,0.004651518981785534,right,0.0005752444267272949,-0.047989632209597614,0.6559469574749469,-9.773372584298253,-0.024056877152408958,0.007707946468144655,0.00020609050989151,0.4704370992146432,0.004894524812698364
1746738807409385200,1.45438525390625,0.06590388188996324,-0.0003611873835325241,0.032878981234485634,-0.024223318323493004,0.0016475922759715909,0.9991748274263673,0.004862114431492418,right,-0.0007031559944152832,-0.04744341311818719,0.6451018844641745,-9.774350489419698,-0.02378660766331254,0.012518474832177162,-0.002052024006843567,0.46508660503216087,0.0029280371963977814
1746738807449385200,1.49438525390625,0.06525350549325235,-0.0004806367796845734,0.03255604134082555,-0.018126241862773895,0.0015967112310757744,0.9991891394707731,0.004734972460890235,right,-0.000803828239440918,-0.04714323075578823,0.6387538306117058,-9.77490636973679,-0.02363403159116062,0.015714701265096664,-0.0016218125820159912,0.46214613113347436,0.0030514970421791077
1746738807489385200,1.53438525390625,0.06441006377548132,0.006414533592760563,0.032134152427207845,-0.02104536071419716,0.0016413577267295832,0.9992046295788397,0.004799215822331561,right,-0.004924416542053223,-0.04698299188596093,0.630513825532794,-9.775515441545844,-0.0235543324281543,0.003987327218055725,-0.004466533660888672,0.4605764706639573,0.00583764910697937
1746738807529385200,1.57438525390625,0.06346334909852155,0.008656099438667297,0.03165983874949059,-0.008888281881809235,0.0017247696401048878,0.9992218132076918,0.004937845632454177,right,-0.0004487037658691406,-0.046794061750757156,0.6212644242156297,-9.776194655981659,-0.023461356371660014,0.013944873586297035,-0.0018320940434932709,0.4587257282307371,0.003888338804244995
1746738807569385200,1.61438525390625,0.06273346611546958,0.0016910582780838013,0.03129456811468613,-0.02415868267416954,0.0017982903839361716,0.9992384943415954,0.005053472770169358,right,-0.0031948089599609375,-0.04633629781361585,0.6141418788593263,-9.776853996673227,-0.02323382867103022,0.021312251687049866,-0.0028452761471271515,0.4542414589561522,0.0062279775738716125
1746738807609385200,1.65438525390625,0.061588071753938635,-0.00027052126824855804,0.030726134688841215,-0.018015071749687195,0.0017410885141303934,0.9992693994294907,0.004877250394252801,right,-0.00015729665756225586,-0.04519881553503265,0.6029745150916278,-9.77806044985354,-0.022661767328104612,0.0376887246966362,-0.002026505768299103,0.4430982432490214,0.0021766722202301025
1746738807649385200,1.69438525390625,0.061041644398608395,-0.002395504852756858,0.03045608869326852,-0.014598960056900978,0.0016978585619552243,0.999288838829714,0.004748170027034635,right,-0.0001754164695739746,-0.044212462091561634,0.597657813580893,-9.77882032831013,-0.022166503841755204,0.04083416238427162,-0.0024150609970092773,0.43343511003181334,0.0030273422598838806
1746738807689385200,1.73438525390625,0.060496375731159596,-0.0033542332239449024,0.030189124603532447,-0.009223973378539085,0.0015805043716167887,0.9993140364827315,0.004454462820987766,right,-0.0006877779960632324,-0.0426702371428526,0.592365333195962,-9.779799986997245,-0.021391032355552442,0.04005878046154976,-0.004538275301456451,0.41832529224865134,0.0017803944647312164
1746738807729385200,1.77438525390625,0.06025316199469752,-0.0008852866012603045,0.03007206084948535,0.003159991465508938,0.0014807747538358347,0.9993318016405096,0.0042092033097713534,right,-0.00019288063049316406,-0.04132968598997218,0.5900199756462127,-9.780494983524083,-0.020717333649990878,0.03650977835059166,-0.0021440647542476654,0.4051905739307403,0.001068253070116043
1746738807769385200,1.81438525390625,0.06024221506283134,-0.0014490436296910048,0.03006972661563767,0.004015146754682064,0.001430580692428032,0.9993450521836513,0.004069911264275158,right,-0.0013166069984436035,-0.04005001712733152,0.5899436590069904,-9.781011116352676,-0.020075821413497563,0.020885881036520004,-0.002323925495147705,0.3926517026141286,0.0004497319459915161
1746738807809385200,1.85438525390625,0.060192811780264435,0.006672264076769352,0.030045397639599767,0.0014376735780388117,0.0014634841984616077,0.9993519634762336,0.004116094754226181,right,-0.0007863044738769531,-0.03943056891003427,0.589474945516698,-9.781281165465712,-0.019766956738735932,0.024078868329524994,-0.0010721012949943542,0.3865817715832963,-0.002396978437900543
1746738807849385200,1.89438525390625,0.060061414187959516,0.013137886300683022,0.029975993248620478,0.001177705591544509,0.0017184174071379907,0.9993606309860787,0.004601750767407448,right,-0.00017625093460083008,-0.038701260031247346,0.58820649648346,-9.781637139296532,-0.019409721098149837,0.008855262771248817,-0.0009353049099445343,0.37943515123166144,-0.000876106321811676
1746738807889385200,1.93438525390625,0.05985593605608673,-0.000018497928977012634,0.029871721550267585,0.004616450052708387,0.0018661707564269325,0.9993700676937559,0.004872842036001606,right,0.0019215941429138184,-0.0380137912283225,0.5862120347306132,-9.782015909481048,-0.01907007688850461,0.014211587607860565,0.0006466545164585114,0.372698353789933,-0.0016894079744815826
1746738807929385200,1.97438525390625,0.06000687830036576,-0.0038530498277395964,0.02994939165503199,0.005059722810983658,0.0017848220381244347,0.9993717653863874,0.004700527270554133,right,0.0006337165832519531,-0.037601419248670734,0.587697706711106,-9.782079622367023,-0.018861583488414078,0.013074836693704128,0.0002132505178451538,0.3686572617055848,-0.0005570836365222931
1746738807969385200,2.01438525390625,0.06023415324799169,-0.012630322948098183,0.03006815263169392,0.009885063394904137,0.0015453367581333404,0.9993728946749811,0.004212182610823214,right,-0.0017492175102233887,-0.03715849559795276,0.589930689927563,-9.782108263939618,-0.018633122885083994,0.006837727501988411,0.001576356589794159,0.3643166752180084,0.0023970678448677063
1746738808009385500,2.054385498046875,0.06047480572323269,-0.023434141650795937,0.03019747764743638,0.0009593861177563667,0.0010688622128566985,0.9993715098324392,0.0032579131094720762,right,-0.002148568630218506,-0.036986536269340474,0.5922885416327044,-9.782028184440732,-0.01853297668242208,0.0013893572613596916,-0.0016911551356315613,0.362631498610042,0.0013985559344291687
1746738808049385200,2.09438525390625,0.06040172569414324,-0.015507682226598263,0.030165350869249433,0.00023756141308695078,0.0008365267681065126,0.9993733630572249,0.0027899021207634564,right,-0.0012074112892150879,-0.03693053530720172,0.5915748769380151,-9.782091897326707,-0.018497896174752088,0.006702076643705368,-0.0004254542291164398,0.36208270562086253,-0.0014579370617866516
1746738808089385200,2.13438525390625,0.060302580869696414,-0.00010358355939388275,0.030118130337610165,-0.005015929229557514,0.0007254501339785854,0.9993768565799213,0.0025595108965811224,right,-0.0036649703979492188,-0.03672301162465891,0.5906095390371978,-9.782225168317556,-0.01839068833674112,0.0016387999057769775,-0.0009151473641395569,0.36004897130355235,-0.0004805848002433777
1746738808129385200,2.17438525390625,0.06009593111864473,0.01093530934303999,0.03001407133329833,-0.007250756956636906,0.0007930083400702504,0.9993829892759015,0.0026808009208148043,right,-0.002919316291809082,-0.03638701067148397,0.5885952766053378,-9.782467160379886,-0.018224537000887293,0.011476767249405384,0.00022684410214424133,0.3567561403032392,-0.001184958964586258
1746738808169385200,2.21438525390625,0.05957177848153343,0.018407104536890984,0.02974906579814934,-0.017892466858029366,0.0010082410401180452,0.9993957715668066,0.0030849498228651866,right,-0.00240325927734375,-0.03581627889637343,0.5834797236898913,-9.782976278945803,-0.017945148113902628,0.017910730093717575,0.0007950104773044586,0.3511628138082102,-0.0006812326610088348
1746738808209385200,2.25438525390625,0.05864969192657423,0.021664712578058243,0.029281855733221417,-0.022050628438591957,0.001449682506522149,0.9994167297338916,0.003925651679891235,right,-0.002694547176361084,-0.03492597531129575,0.5744768079470842,-9.783817990466952,-0.017512101259636124,0.02188103273510933,0.0010780468583106995,0.3424373632999137,0.0009882636368274689
1746738808249385500,2.294385498046875,0.05758471772093355,0.017790650948882103,0.02874367690113445,-0.02201063185930252,0.0019241962878935024,0.999442185727951,0.004820086427982743,right,-0.00018870830535888672,-0.03366141477902634,0.5640814514651894,-9.784849087080358,-0.016892260336469112,0.030641984194517136,0.000059388577938079834,0.3300435630097985,0.0007466264069080353
1746738808289385200,2.33438525390625,0.05692129056316088,0.009544558823108673,0.028410266847233325,-0.01105990819633007,0.002205076165958695,0.9994637044841225,0.005327155236931342,right,-0.000024080276489257812,-0.032125707534020345,0.5576179545395076,-9.785715348520874,-0.01613138892904548,0.03660013526678085,-0.0007044672966003418,0.31499157636109737,-0.00017122551798820496
1746738808329385200,2.37438525390625,0.0566356509901284,0.0006484389305114746,0.02826830806490206,-0.0003946349024772644,0.0023414431988215746,0.9994800299162647,0.005549883033107754,right,-0.0006834268569946289,-0.03052038388092012,0.5548506817832589,-9.786366505905985,-0.015331983732213008,0.028190262615680695,-0.0003016628324985504,0.29925642975382505,0.0005519390106201172
1746738808369385200,2.41438525390625,0.05669098463269965,-0.002553921192884445,0.028297443519052546,-0.00005118604167364538,0.0023055622913259618,0.9994832655982281,0.005464101056564975,right,-0.0016332268714904785,-0.029998043616640848,0.5554009726097807,-9.7864904245466,-0.015069800952991515,0.012095872312784195,-0.00028122588992118835,0.2941363650600426,0.0005340576171875
1746738808409385200,2.45438525390625,0.05661217043934956,-0.002345091663300991,0.02825952972439709,-0.007543544750660658,0.0022236889916336182,0.9994855023509897,0.005295376315004721,right,-0.0024254322052001953,-0.02986736187227687,0.5546318148681894,-9.786572842133044,-0.015002019655994719,0.0021331431344151497,0.00014518573880195618,0.2928553853387944,-0.0023786742240190506
1746738808449385200,2.49438525390625,0.056193971629689594,0.001836111769080162,0.028049643443287964,-0.011689875274896622,0.0022785751914882585,0.9994908138467374,0.005400774768610175,right,-0.00005543231964111328,-0.029932988218267703,0.5505379696832969,-9.786784439057111,-0.015035828510612958,-0.009417318738996983,0.0000033080577850341797,0.2934986882110126,-0.00005432218313217163
1746738808489385200,2.53438525390625,0.05574470494598619,-0.0039126090705394745,0.027824364922961656,-0.013858988881111145,0.0022945002942699657,0.999494656605924,0.005434834688669473,right,0.0025554895401000977,-0.030253616007607873,0.5461357526689767,-9.78693641474843,-0.015196022785269546,-0.008779545314610004,0.0016303248703479767,0.296641534547694,-0.0018578357994556427
1746738808529385200,2.57438525390625,0.05549773026774269,-0.004056521225720644,0.027701056642070006,-0.004495830275118351,0.0022232282487476846,0.9994939521007034,0.005304269186932066,right,-0.0020188093185424805,-0.03082221236237643,0.5437091831091792,-9.78690075891316,-0.015478084606588668,-0.01483106892555952,0.0012965835630893707,0.30221496903216466,0.0013301558792591095
1746738808569385200,2.61438525390625,0.05526209877994486,-0.012921907007694244,0.027584551042299767,-0.0075545962899923325,0.0020831090375969937,0.9994931209099458,0.005035789987768491,right,-0.0017393827438354492,-0.031384017242772365,0.5413935996431857,-9.786857504293321,-0.015754880204079426,-0.01944507285952568,0.002634882926940918,0.3077217314885929,0.0033599361777305603
1746738808609385200,2.65438525390625,0.05488510816767533,-0.018107840791344643,0.02740061390371587,-0.015032636001706123,0.0017506604663929716,0.9994946563707229,0.004379425429129297,right,-0.0014402270317077637,-0.03192282066297194,0.5376948181904853,-9.786894329172373,-0.016014761642530156,-0.007365173660218716,-0.0003566034138202667,0.3130029232945293,-0.0003489293158054352
1746738808649385200,2.69438525390625,0.054097482410406975,-0.007082927972078323,0.027012233523578937,-0.016188818961381912,0.0014195516187056865,0.9995048654915403,0.003707647642104052,right,-0.0009068846702575684,-0.03204787250143376,0.5299841342153028,-9.787275437444448,-0.01606749428190881,0.0035513220354914665,-0.0002979263663291931,0.3142286656972021,0.0003525838255882263
1746738808689385200,2.73438525390625,0.05346167206364694,0.01209845021367073,0.0266938251614251,-0.009997657500207424,0.0014745332195318192,0.9995141796894801,0.003804666648781698,right,-0.00017148256301879883,-0.0319441267245705,0.5237628850802779,-9.78764310171306,-0.016016489180511503,0.0023080562241375446,-0.0020245835185050964,0.31321178027223795,0.00044824182987213135
1746738808729385200,2.77438525390625,0.053141557790207565,0.018855426460504532,0.026530624235651206,-0.008489315398037434,0.0017091721382751412,0.9995207327374814,0.004260131189588783,right,-0.00006121397018432617,-0.031609305968507556,0.5206352545790374,-9.787914319869875,-0.015854965420201185,0.014264725148677826,-0.0007233619689941406,0.3099299455899745,0.00016019120812416077
1746738808769385200,2.81438525390625,0.05280765143705963,0.011290743947029114,0.026359608743885796,-0.007686637341976166,0.002050482697188586,0.9995304047551796,0.004917957566033606,right,-0.0027205944061279297,-0.030859819437462882,0.5173791023273021,-9.78831705545187,-0.015488784159351706,0.01577617973089218,-0.0012210719287395477,0.30258358314884826,0.0022673290222883224
1746738808809385200,2.85438525390625,0.052184138818663954,0.0000940496101975441,0.026047247223227935,-0.008920380845665932,0.002177558264629297,0.9995434781078685,0.005144841488141825,right,-0.00027817487716674805,-0.030181752451258814,0.5112864480080083,-9.788840202543138,-0.015152221906901806,0.01084281224757433,-0.0006143823266029358,0.29593713087169454,0.001340297982096672
1746738808849385200,2.89438525390625,0.051887295262556185,0.0003845672763418406,0.025900162469023977,-0.008090062998235226,0.002144318412833545,0.9995507198355345,0.0050623503403816475,right,-0.0010459423065185547,-0.02973994134297078,0.5083874020982534,-9.789121357572078,-0.014930024735101157,0.015038435347378254,-0.001074962317943573,0.2916063716583885,-0.0013116691261529922
1746738808889385200,2.93438525390625,0.05148974864227156,0.00934560876339674,0.025702128880358766,-0.0032313354313373566,0.00219624632500632,0.9995617853355949,0.005138923084281608,right,-0.0006031990051269531,-0.028910448581840716,0.5045080033816397,-9.789560918033123,-0.014516020067468865,0.02237040176987648,-0.00010971352458000183,0.28347532511297613,-0.00225936621427536
1746738808929385200,2.97438525390625,0.051327510341064295,0.007842368446290493,0.025620592751175886,-0.0035601421259343624,0.002301406530907144,0.9995680930078472,0.005330997366917793,right,-0.0025246143341064453,-0.028288767495835237,0.5029286983009428,-9.789816354098916,-0.014207597065922804,0.017003322020173073,-0.0010617636144161224,0.2773812094889581,-0.0018024928867816925
1746738808969385200,3.01438525390625,0.0511006627276892,0.0007398743182420731,0.025506796634572285,-0.003164408029988408,0.0024049889316480584,0.9995748605517056,0.005519908230668292,right,0.0006023645401000977,-0.02769807635905053,0.5007161733506247,-9.790092248430847,-0.01391452663310282,0.006391902454197407,-0.0004931315779685974,0.27159078951925036,-0.0016334671527147293
1746738809009385500,3.054385498046875,0.051165055311405264,-0.0015462394803762436,0.025539224045914438,0.003614118555560708,0.0024084483279600785,0.9995752167843462,0.0055233078285544975,right,-0.001239180564880371,-0.027525654857320773,0.5013489548288286,-9.79010686147809,-0.013828473571604907,-0.0015663336962461472,-0.0020855776965618134,0.26990055314367634,-0.002508159726858139
1746738809049385200,3.09438525390625,0.05120801230011077,-0.0006350265466608107,0.025560777283799165,0.0010687662288546562,0.002394363005300203,0.9995742716121592,0.005497307599638538,right,-0.0016241073608398438,-0.02758757632827998,0.5017686415456235,-9.79006828303337,-0.013859140556701045,-0.0016921537462621927,-0.0024496465921401978,0.2705075608598068,-0.003128422424197197
1746738809089385200,3.13438525390625,0.051208492228795456,-0.00034212981699965894,0.025560640338797472,0.002681129612028599,0.0024066438377500807,0.9995734088595941,0.005524940077005112,right,0.0004958510398864746,-0.027706638886096785,0.5017717102855443,-9.790036134329437,-0.013919000155912154,-0.004481908865272999,-0.0028309226036071777,0.27167472320934755,-0.0028912145644426346
1746738809129385200,3.17438525390625,0.05109063227760694,-0.006915617734193802,0.025502722249660426,0.005389639642089605,0.0023225601189562238,0.9995742903755818,0.0053580190699934254,right,0.0031449198722839355,-0.027822285179904826,0.5006162201074883,-9.790063606858252,-0.013974528634533544,0.005362749099731445,-0.0014130622148513794,0.27280838514808564,-0.006241012364625931
1746738809169385200,3.21438525390625,0.05164150079574577,-0.002424206119030714,0.02577946123833616,0.014848772436380386,0.002222397576832154,0.9995677656183058,0.0051641120950026405,right,-0.0011729001998901367,-0.02777600781296309,0.5060098593119532,-9.789798818442225,-0.013949539877163564,-0.002183131407946348,-0.0022905096411705017,0.27235474136276167,0.000045260414481163025
1746738809209385200,3.25438525390625,0.0520088327153507,-0.00841359794139862,0.025963995177994414,0.007465329486876726,0.0021044696316318405,0.9995604743794364,0.00494402494106855,right,-0.0007968544960021973,-0.028188569594495658,0.5096000292910262,-9.789499543234705,-0.014153279497283643,-0.014331009238958359,-0.0008678510785102844,0.276398993518576,-0.0012459028512239456
1746738809249385500,3.294385498046875,0.05214143539759455,0.0000403672456741333,0.02603034507985105,0.007121739909052849,0.0020241894104282157,0.9995541407609263,0.004802664884506207,right,-0.0007152557373046875,-0.028854720551455968,0.5108884251337498,-9.789245276212691,-0.01448450673465515,-0.020616408437490463,-0.0007326491177082062,0.2829290528744459,-0.0011500734835863113
1746738809289385200,3.33438525390625,0.052441830092697816,0.00817622896283865,0.02617767265893299,0.011522222310304642,0.0021120685381489984,0.9995433027965513,0.0050069375638367815,right,0.00015234947204589844,-0.02977166970502535,0.5138152358332648,-9.788828512105345,-0.014945750655616447,-0.024475568905472755,-0.0024077482521533966,0.2919173921026289,-0.003412047401070595
1746738809329385200,3.37438525390625,0.052883528325852996,0.011143256910145283,0.026394105101619277,0.0187953170388937,0.002313088901623069,0.9995316378682166,0.0054347779535523465,right,0.001132667064666748,-0.030489291728396407,0.5181276922049001,-9.7883889516443,-0.015310506851234201,-0.016402695327997208,-0.0013060234487056732,0.29895165638728066,-0.001254471018910408
1746738809369385200,3.41438525390625,0.05368418635046325,-0.001196674071252346,0.026790745240022864,0.02294939011335373,0.002447537579901375,0.9995150309371507,0.00573567267588456,right,-0.0018671751022338867,-0.03121825523876909,0.5259528328726067,-9.787750653740764,-0.015679767911852223,-0.02530766651034355,-0.0017339028418064117,0.30609696156466376,0.004290297627449036
1746738809409385200,3.45438525390625,0.05465064664904993,-0.010764608159661293,0.027274133071383422,0.026923682540655136,0.0023105255988342638,0.9994951252933337,0.005501463703916275,right,-0.0015780329704284668,-0.03212378669437266,0.5353966973159462,-9.786956873014569,-0.016130292370190747,-0.019404936581850052,-0.0005365870893001556,0.314972725530155,0.001367129385471344
1746738809449385200,3.49438525390625,0.05559158947862289,-0.012833663262426853,0.027747226426560224,0.022826626896858215,0.002070558954454708,0.9994784974002193,0.005050903508456831,right,-0.0029515624046325684,-0.03264223394910977,0.5445963046746328,-9.786284672841429,-0.016384215407686663,-0.0038496358320116997,-0.00007573142647743225,0.32005430311076344,0.0014090649783611298
1746738809489385200,3.53438525390625,0.05625669708503416,-0.010592854581773281,0.028084056426423663,0.014382743276655674,0.0017992381861714893,0.9994702312360999,0.004517208722534639,right,-0.001766204833984375,-0.032583006869498665,0.5511061614926904,-9.785939220404625,-0.016347811402233372,0.009889665059745312,0.0005752705037593842,0.3194737998090684,0.0005372278392314911
1746738809529385200,3.57438525390625,0.05666336210815413,-0.009448349475860596,0.028291993723135955,0.009020209312438965,0.0015572469747289713,0.9994693371045231,0.004023952542173352,right,-0.0015813708305358887,-0.0320308295776745,0.5550956329876556,-9.78588895152211,-0.016065259221283393,0.01706775091588497,0.0012072771787643433,0.31406160203460604,0.0006344430148601532
1746738809569385200,3.61438525390625,0.0569282123989315,-0.00885236356407404,0.028428705682948897,0.004867239855229855,0.0013379936757344712,0.9994710093296152,0.0035710962610116972,right,-0.0014761090278625488,-0.03138618333348036,0.5576988012233749,-9.785941558492183,-0.015736877358864997,0.013437418267130852,0.0005832388997077942,0.30774295693971215,0.0002684183418750763
1746738809609385200,3.65438525390625,0.05712552394122468,-0.003674415871500969,0.028530097875216216,0.004822736606001854,0.0011904559495099266,0.999471401406004,0.0032678788673779304,right,-0.0013911724090576172,-0.03099830743768464,0.5596364547550678,-9.785949741798639,-0.015538849300025684,0.003136124461889267,0.0005754977464675903,0.30394104390610005,-0.0005621295422315598
1746738809649385200,3.69438525390625,0.05739337935811646,-0.0005417619831860065,0.028664479946283107,0.005976637825369835,0.0011478920590353569,0.9994669860157377,0.0031892649993980134,right,-0.001342177391052246,-0.03108166635319469,0.5622562087994069,-9.785774385231733,-0.015579538883054125,-0.004543893970549107,0.00010816380381584167,0.3047581324426457,-0.0011672340333461761
1746738809689385200,3.73438525390625,0.05776343767196061,-0.003916690591722727,0.02884906550203112,0.003488395595923066,0.0011488855431195063,0.9994598851184627,0.003203591669311238,right,-0.001771390438079834,-0.03130889172164969,0.565873449448496,-9.785496152812241,-0.015693509021741978,-0.009187360294163227,-0.0003807544708251953,0.3069853435054421,0.00036661699414253235
1746738809729385200,3.77438525390625,0.05795580052259243,-0.01404409296810627,0.02894701595581988,0.0008177708368748426,0.0010099718569833384,0.9994550773550128,0.002936808987970032,right,-0.0015496611595153809,-0.03159070233203438,0.5677507876276969,-9.785300337979196,-0.015830586192521173,-0.0031390399672091007,0.0010389722883701324,0.30974761129301037,-0.00010215118527412415
1746738809769385200,3.81438525390625,0.058255066969028005,-0.0148549135774374,0.029100860710080872,0.0041622621938586235,0.0007273213000537895,0.9994499085005037,0.0023799300841697473,right,-0.0018709897994995117,-0.03172764924477072,0.5706766850117594,-9.785087572011351,-0.01589107043836415,-0.004440562799572945,0.00006677582859992981,0.3110899292800575,0.0008780956268310547
1746738809809385200,3.85438525390625,0.0584900433402491,-0.008852573111653328,0.029221823500834285,0.0068217855878174305,0.0004890334184688379,0.9994447466086213,0.001913641319651682,right,-0.0016321539878845215,-0.03196048575620658,0.5729716640811413,-9.784880651262402,-0.016000697343247623,-0.008750969544053078,0.0009619072079658508,0.3133721219331026,0.000798150897026062
1746738809849385200,3.89438525390625,0.05865256449964769,-0.0062683396972715855,0.029305264870783797,0.000384635291993618,0.00033479996601536773,0.9994404162604089,0.0016150487701796256,right,-0.0022086501121520996,-0.032214154110263384,0.5745572527721524,-9.784707632783055,-0.01612312498210053,-0.005175224971026182,0.000006034970283508301,0.3158584588561207,0.00010521337389945984
1746738809889385200,3.93438525390625,0.058574190539193806,-0.0014446130953729153,0.02926695050883504,-0.002358582802116871,0.0002783750547123178,0.9994407985326892,0.001503375587958438,right,-0.0014028549194335938,-0.03229958961169175,0.5737887891503051,-9.784725752961634,-0.016164173088699406,-0.0013291151262819767,0.00015038996934890747,0.31669585952833296,-0.00029452890157699585
1746738809929385200,3.97438525390625,0.058416975715543655,0.0065850443206727505,0.02918753941642245,-0.002975684590637684,0.00033312411763749075,0.9994433353974904,0.0016097365118018959,right,-0.0005563497543334961,-0.032277165777436646,0.5722509120585396,-9.784822783595324,-0.016154496506929312,0.0014192108064889908,-0.0021226145327091217,0.3164760792978108,-0.0026855040341615677
1746738809969385200,4.01438525390625,0.05821638218399742,0.009564538486301899,0.029085499603505285,0.0006406886968761683,0.00046602015779769986,0.9994490054150974,0.0018623313163388378,right,0.00011581182479858398,-0.03193038392587634,0.5702944807611405,-9.785046070957183,-0.01598484120759677,0.009859688580036163,-0.001340080052614212,0.3130770845092833,-0.0018066968768835068
1746738810009385500,4.054385498046875,0.05802198578209555,0.0018610800616443157,0.028987380842875856,-0.0020394267048686743,0.0005532005377872903,0.9994548973163974,0.0020218931887661276,right,-0.0010693073272705078,-0.03152448000665832,0.568399606925249,-9.785282802322506,-0.015784269281725872,0.006849220488220453,-0.001076970249414444,0.3090984997345134,0.00005687028169631958
1746738810049385200,4.09438525390625,0.057809022641450346,-0.004072337877005339,0.028882507055205387,-0.0012083454057574272,0.00047726122678415475,0.9994608614798317,0.0018563011263693931,right,0.0006695389747619629,-0.03116952735880501,0.5663219969335943,-9.785512519425152,-0.015604437720777365,0.012181238271296024,-0.001183144748210907,0.30561933411555364,-0.002169933170080185
1746738810089385200,4.13438525390625,0.05777657923040999,-0.0035557770170271397,0.028868650759901034,0.003463330678641796,0.0003585807946427235,0.9994659227414481,0.0016012713630453928,right,-0.0003337264060974121,-0.03058027811843956,0.5660147941479459,-9.785709503301977,-0.015306282547517458,0.015124063938856125,-0.0016628019511699677,0.29984352719308804,-0.0023517757654190063
1746738810129385200,4.17438525390625,0.05800360911425624,-0.005598100367933512,0.028984118422428033,0.007366424426436424,0.0002475793971265067,0.9994659256204513,0.0013700649634497864,right,-0.0015566349029541016,-0.03014743907496603,0.5682439049068838,-9.785708918780088,-0.015086669578407128,0.0046763429418206215,-0.0005024410784244537,0.295600775056798,-0.0018579531461000443
1746738810169385200,4.21438525390625,0.05821818943215141,-0.007824238389730453,0.029093729863143226,0.005325098522007465,0.00009173680082270047,0.999463402900954,0.0010593165315783007,right,-0.0017704963684082031,-0.030074142780367654,0.5703449688393623,-9.785608381015061,-0.015045547131946998,-0.0019561154767870903,0.00019999966025352478,0.2948823063228279,-0.0019287634640932083
1746738810209385200,4.25438525390625,0.05829436772460235,-0.005862491670995951,0.02913429010083099,0.0010453397408127785,-0.00008076602590256687,0.9994612180221466,0.0007197106759102101,right,-0.001532912254333496,-0.03022635889107108,0.5710878230959177,-9.78552011820972,-0.01511666976306108,-0.005853431299328804,0.00039114058017730713,0.29637437151148915,-0.0016177687793970108
1746738810249385500,4.294385498046875,0.058209991187526615,-0.0012327670119702816,0.029093600832472786,-0.0024530701339244843,-0.000185591624751161,0.9994608124264353,0.0005147835292996022,right,-0.0006516575813293457,-0.030436302150923085,0.5702584961323067,-9.785506089684366,-0.015218607737217634,-0.0025813255924731493,-0.00015491992235183716,0.29843225388936695,-0.002498149871826172
1746738810289385200,4.33438525390625,0.05804415381844101,0.006183061748743057,0.02901031950290906,-0.006470663007348776,-0.00015015677595778932,0.999464743254062,0.000577500759092854,right,-0.0028280019760131836,-0.030241180645819838,0.56863907823693,-9.785658649897576,-0.015122023794420477,0.00900142639875412,-0.0006715655326843262,0.2965196434673853,-0.0012073703110218048
1746738810329385200,4.37438525390625,0.05767459126924856,0.0034626347478479147,0.0288245406789661,-0.011586204171180725,-0.00005259425615245846,0.9994741412733075,0.0007514802430712353,right,-0.002775251865386963,-0.02969847629578423,0.5650318109925836,-9.786026898688077,-0.014853350165926388,0.016985628753900528,-0.0012423545122146606,0.29119992801565675,-0.0010652132332324982
1746738810369385200,4.41438525390625,0.057312384060728826,-0.0005265355575829744,0.028644616076705213,-0.0039361706003546715,-0.00008838221961724039,0.9994857081034306,0.0006493991196457874,right,-0.002111196517944336,-0.02882347993841735,0.5615015910398214,-9.786481656718253,-0.01441462617401451,0.017388932406902313,-0.0016402490437030792,0.2826228182031773,0.0005529355257749557
1746738810409385200,4.45438525390625,0.05708402208813455,-0.001665212563239038,0.028531900662987303,-0.0020379777997732162,-0.00015960298211891422,0.9994937094066565,0.000484439697663744,right,-0.0006404519081115723,-0.028152745063993203,0.5592773756517097,-9.786796714016795,-0.014077086490742866,0.011733398772776127,-0.0006450861692428589,0.27604782372703773,-0.00004273839294910431
1746738810449385200,4.49438525390625,0.05705450334439292,-0.00018906919285655022,0.028517996433390265,0.0010165267158299685,-0.00020695908842548947,0.9994966599733149,0.0003789784630345054,right,-0.001313328742980957,-0.027792333786681785,0.5589941382635385,-9.786911864829063,-0.013895470118297967,0.00476826960220933,-0.000793851912021637,0.27251477249637246,-0.001467246562242508
1746738810489385200,4.53438525390625,0.057031981483482944,0.0027651130221784115,0.02850680109742329,-0.00004618056118488312,-0.0002127414431552387,0.9994965574802468,0.0003685353968906873,right,-0.0009133815765380859,-0.027842828581129683,0.5587729332609102,-9.786910695785284,-0.013920559283388385,-0.006289009470492601,-0.0013315826654434204,0.2730097712053917,-0.002322312444448471
1746738810529385200,4.57438525390625,0.05712186594940737,0.008851626887917519,0.02854980574683951,0.006401057820767164,-0.0000890218707594444,0.9994930379930471,0.0006267091157816495,right,0.0006328821182250977,-0.028170334779888517,0.5596474876057356,-9.786770995053649,-0.014087905016884748,-0.012404793873429298,-0.0017170794308185577,0.27622025768449526,-0.0011484548449516296
1746738810569385200,4.61438525390625,0.05728782620692567,0.006212273146957159,0.028629687744440465,0.00618866179138422,0.00009909492514330991,0.9994865142545559,0.0010222547936385275,right,0.0006369948387145996,-0.02875588252996347,0.5612623389238491,-9.786514389944076,-0.014386183982268375,-0.015080993995070457,-0.0005111359059810638,0.28196018957598135,-0.0000021867454051971436
1746738810609385200,4.65438525390625,0.05755238047912204,0.0015078280121088028,0.028759537747254982,0.0038020082283765078,0.000232348068598862,0.9994786973280935,0.001308694841633483,right,-0.0022743940353393555,-0.029311144762023587,0.5638422724144533,-9.78620810047388,-0.0146678025196078,-0.008761539123952389,-0.001425132155418396,0.2874031478148885,0.001299738883972168
1746738810649385200,4.69438525390625,0.05764675890131156,-0.004364145919680595,0.0288072338971773,0.0034653835464268923,0.00018239688958711267,0.9994754375636474,0.0012176870374471535,right,-0.0014699101448059082,-0.029573339247557805,0.5647615426838397,-9.786078921136259,-0.014797530936615748,-0.0017108027823269367,-0.0008301548659801483,0.2899732905638404,0.0009343437850475311
1746738810689385200,4.73438525390625,0.057828030552485366,-0.00502189202234149,0.028900323261217352,0.003850145498290658,0.000021847932771276593,0.9994743496197444,0.0008927948678426774,right,-0.001389920711517334,-0.029355256787020965,0.5665391102829948,-9.78603917364776,-0.014683870450595937,0.011455023661255836,-0.002246420830488205,0.28783556614909317,-0.00040939822793006897
1746738810729385200,4.77438525390625,0.05807065105478242,-0.0018444187007844448,0.02902375144640828,0.006443984806537628,-0.00009695089204787749,0.9994765103218218,0.000635614719245113,right,-0.0013069510459899902,-0.02856273411451473,0.5689264438109473,-9.786126267409324,-0.014284088970254388,0.024543190374970436,-0.0009584799408912659,0.2800668318437412,-0.0017453581094741821
1746738810769385200,4.81438525390625,0.058299053328471385,-0.00008071877527981997,0.02913902436026012,0.0022720573469996452,-0.00013913042431234197,0.9994803636576226,0.0005247853499221064,right,-0.002356410026550293,-0.027544613214246085,0.5711779125321657,-9.786275905013083,-0.013773668325700088,0.02217993140220642,-0.0004788637161254883,0.2700863945719786,-0.002116471529006958
1746738810809385200,4.85438525390625,0.058323428727004564,0.0022089164704084396,0.029151350576719234,-0.0007558513898402452,-0.00012175458857637705,0.9994849319358247,0.0005387507402148566,right,-0.0024875402450561523,-0.026819979455886312,0.5714277225747704,-9.786454768711328,-0.013411740774905194,0.011548049747943878,-0.00010403245687484741,0.2629827913781628,-0.0026036016643047333
1746738810849385200,4.89438525390625,0.05837960314392481,0.005228642374277115,0.0291782867907876,0.0017133525107055902,-0.00002633317862879297,0.999485827947657,0.00072285831802263,right,-0.0025344491004943848,-0.026560158606540544,0.5719814474673941,-9.7864904245466,-0.013284580173483848,-0.0008262228220701218,-0.0008480995893478394,0.2604357189775444,-0.003249630331993103
1746738810889385200,4.93438525390625,0.05848293020048666,0.006699811201542616,0.02922789883687266,0.002491503255441785,0.00011710005438399434,0.9994832062453314,0.0010161846877050906,right,-0.0018849968910217285,-0.02672896239929779,0.5729900765206665,-9.786386964172124,-0.01337322369592065,-0.007711827289313078,-0.0010386891663074493,0.2620905369798653,-0.0026661809533834457
1746738810929385200,4.97438525390625,0.058647022855219715,0.0031868782825767994,0.029307513909476404,0.0010041985660791397,0.00027099714581881013,0.9994778555829109,0.0013390192539947372,right,-0.0009344816207885742,-0.027161292459247408,0.5745892188129946,-9.786178874379395,-0.01359401676229238,-0.014706574380397797,-0.0012537315487861633,0.2663287042725831,-0.0008377861231565475
1746738810969385200,5.01438525390625,0.058681273339738535,-0.006289308425039053,0.029324169181581653,-0.0005665166536346078,0.0002773043770502296,0.9994740053845224,0.0013667487225563538,right,-0.000041425228118896484,-0.027660047561717013,0.5749165510712191,-9.786025729644297,-0.01384367375828598,-0.006760044023394585,-0.0001694299280643463,0.2712179924177937,-0.0013647209852933884
1746738811009385500,5.054385498046875,0.05886124067420569,-0.007508181035518646,0.029415785372427058,0.0030143498443067074,0.00014217895182117273,0.99946966628287,0.00110629878787106,right,-0.0007687807083129883,-0.02791308521025623,0.5766736604042351,-9.78585329568684,-0.01396631944050625,-0.005908370483666658,-0.00036931782960891724,0.27369848412191494,-0.00004137121140956879
1746738811049385200,5.09438525390625,0.05907555902179871,-0.006686358246952295,0.029524408538431298,0.0048840963281691074,0.000018222852254256966,0.9994643977246795,0.0008701597532990216,right,-0.0003788471221923828,-0.02821460470193084,0.5787660295736045,-9.785646374937892,-0.014113527963024097,-0.008858723565936089,0.000283949077129364,0.2766542103886604,0.00018565170466899872
1746738811089385200,5.13438525390625,0.05922820777778557,-0.004534178879112005,0.0296021844200833,-0.0002556745894253254,-0.0001018201110028135,0.9994597539506344,0.0006417776717000744,right,-0.0030396580696105957,-0.02854124074426209,0.580254404967837,-9.785467511239647,-0.014273380010178667,-0.0064545562490820885,0.000150337815284729,0.27985612996881826,-0.00005508586764335632
1746738811129385200,5.17438525390625,0.05906509917081353,-0.0012837967369705439,0.029521537700086108,-0.003760070540010929,-0.00017037802458061492,0.9994604796589153,0.000509304961734806,right,-0.002145528793334961,-0.02877973671217086,0.5786543493600562,-9.785494983768462,-0.014390616190069368,-0.002585252281278372,0.00036671385169029236,0.282194016598165,-0.0007150992751121521
1746738811169385200,5.21438525390625,0.05881304219878887,0.008973660878837109,0.029394471677240495,-0.007214109413325787,-0.0000943479303478282,0.999463761456059,0.0006596405500000177,right,-0.002054274082183838,-0.02884170566260347,0.5761867902027443,-9.785622994062305,-0.01442381489577178,0.0013270634226500988,0.0006181672215461731,0.2828014809720218,-0.0013775136321783066
1746738811209385200,5.25438525390625,0.05842023506161228,0.010098636150360107,0.029196220126561943,-0.003405059454962611,0.00005391140270995459,0.9994710782174262,0.0009441725083714211,right,-0.00023412704467773438,-0.028620139680613232,0.5723465544527396,-9.785910578832029,-0.014317263049192668,0.010670861229300499,0.0001237429678440094,0.2806295437604189,-0.0014859195798635483
1746738811249385500,5.294385498046875,0.05807329729701587,0.002361695747822523,0.029021738427246195,-0.007969612255692482,0.00015919212528100934,0.9994797983409041,0.001134574275790701,right,-0.0016783475875854492,-0.02809350492324308,0.5689599076891317,-9.786254862225055,-0.014056837235237808,0.012344551272690296,-0.0010968558490276337,0.27546710122963414,0.0018198639154434204
1746738811289385200,5.33438525390625,0.057774867504972786,-0.0025184061378240585,0.028873781389372015,-0.0017917309887707233,0.00009848705829014422,0.9994873759323329,0.0009956632992550434,right,-0.00039082765579223633,-0.02763537847507942,0.5660465775256976,-9.786549461257458,-0.013825861673823497,0.012727775610983372,-0.0005555823445320129,0.27097616475224495,-0.00029087066650390625
1746738811329385200,5.37438525390625,0.057673517521837914,-0.001989386510103941,0.028824758429821403,0.001256616786122322,0.000008181371625903277,0.9994930037322726,0.0007958054042709079,right,-0.0011414289474487305,-0.02702005398025527,0.5650642154248431,-9.786770995053649,-0.013515471262130119,0.016255801543593407,-0.001384235918521881,0.2649441363126971,-0.002650076523423195
1746738811369385200,5.41438525390625,0.05769966160232998,0.0010891477577388287,0.0288383453930617,0.0033526355400681496,-0.000003031924637271656,0.9994969294796302,0.0007550768539735569,right,-0.0022343993186950684,-0.02637410070250221,0.5653298440910876,-9.786925308832526,-0.013192070706874804,0.015509562566876411,-0.0008551999926567078,0.25861175495339556,-0.0034110210835933685
1746738811409385200,5.45438525390625,0.05775298402279967,0.0027890163473784924,0.028864345916471558,-0.0006469101645052433,0.00006792150476824394,0.9994993480600057,0.0008836115799987471,right,-0.0013655424118041992,-0.02588440651751801,0.5658589459991082,-9.787020585900544,-0.012949201641813906,0.007409689016640186,-0.0008983239531517029,0.2538111314723268,-0.0030521638691425323
1746738811449385200,5.49438525390625,0.05770640311201648,0.0014229732332751155,0.028840210034925495,-0.002708578947931528,0.00013811737047053366,0.9995006488191721,0.0010211005628853436,right,-0.0009210109710693359,-0.02580233136504173,0.5654042610341683,-9.78706734765172,-0.01291016425591457,-0.005334895104169846,-0.00016559287905693054,0.2530065188248642,-0.003326551988720894
1746738811489385200,5.53438525390625,0.05765338401380875,0.0036540431901812553,0.02881255045369026,-0.004719587042927742,0.0002060301486903718,0.99949847642588,0.00116897793873326,right,-0.0014394521713256836,-0.026241576517491903,0.5648788854531943,-9.786985514587164,-0.013131804600618068,-0.01761769875884056,-0.001024976372718811,0.25731260025464,-0.003253389149904251
1746738811529385200,5.57438525390625,0.0575515169768118,0.005445077084004879,0.028759259575185277,-0.005482320673763752,0.0003438601219977499,0.9994947385651339,0.0014658145701592793,right,-0.0020291805267333984,-0.027018740204701266,0.563870256399922,-9.786840553158521,-0.013524449039604664,-0.021397968754172325,-0.0012916810810565948,0.2649312585648149,-0.0035626720637083054
1746738811569385200,5.61438525390625,0.057382102364730826,0.0027194705326110125,0.028672268476699868,-0.005449437070637941,0.0004698130675728092,0.9994918988775644,0.001737687532114258,right,-0.0006208419799804688,-0.027789628997584512,0.5622003138937056,-9.78672890947759,-0.013913566263257189,-0.020137697458267212,-0.0016940459609031677,0.272488268081937,-0.0017834566533565521
1746738811609385200,5.65438525390625,0.05709111999856115,-0.007229577749967575,0.028526892094325143,-0.0035429177805781364,0.00043663626346856566,0.9994921780489578,0.0016829424088968096,right,0.0011991262435913086,-0.0283389901499304,0.5593439015492797,-9.786741184437274,-0.01418725904521239,-0.007232167758047581,-0.00024091824889183044,0.2778735413168557,-0.0020926520228385925
1746738811649385200,5.69438525390625,0.05712821631423151,-0.01082006935030222,0.0285476998695312,0.0014362595975399017,0.0002615690742640722,0.9994896890519457,0.0013413133921251568,right,-0.0005373954772949219,-0.028624379691679216,0.5597024326633662,-9.786641231194137,-0.014325012871246951,-0.006122204475104809,-0.0010098889470100403,0.28067111787982285,-0.00028919801115989685
1746738811689385200,5.73438525390625,0.057186779787554584,-0.011071654967963696,0.02858004782076501,0.0026740264147520065,0.00003180260937210315,0.9994866031379789,0.0008916081395516183,right,-0.00022459030151367188,-0.028946788299882634,0.5602703687444329,-9.786517312553524,-0.014479715745922711,-0.00836715754121542,-0.0001957342028617859,0.283831554672122,-0.0007920823991298676
1746738811729385200,5.77438525390625,0.057254104247925784,-0.007379394024610519,0.02861642498879876,-0.0011174480896443129,-0.0001683235121566352,0.9994834469376347,0.0005006114775573296,right,-0.0014781951904296875,-0.0292431080111901,0.560924375673756,-9.78639514747858,-0.014622206463257507,-0.007428721059113741,-0.0011831000447273254,0.28673622660506515,-0.0017236396670341492
1746738811769385200,5.81438525390625,0.057097987471761126,0.0037227915599942207,0.02853930336342631,-0.003127175383269787,-0.000238338417884495,0.9994836313340114,0.00036626038345797515,right,-0.0013678669929504395,-0.029524443558320162,0.5593919419420883,-9.786401577219367,-0.014760897238045311,-0.006729209795594215,-0.0016622766852378845,0.28949400088060645,-0.00213644839823246
1746738811809385200,5.85438525390625,0.05708246767176519,0.015243242494761944,0.028528440903765703,0.0008695125579833984,-0.00004176075958524033,0.9994813909811688,0.0007689124388193492,right,-0.0009663105010986328,-0.029857940975018874,0.5592345228906721,-9.786313314414024,-0.014933305576137286,-0.011813756078481674,-0.0025024116039276123,0.292763049146533,-0.00219661183655262
1746738811849385200,5.89438525390625,0.057098413819787815,0.013468005694448948,0.028531934528582714,0.006617708131670952,0.00023993301043741407,0.9994785356321875,0.00134270553680637,right,-0.00012576580047607422,-0.03020361510415908,0.5593847450163215,-9.786202839776873,-0.015114238821702163,-0.008343782275915146,-0.0013533607125282288,0.2961514312095009,-0.000714518129825592
1746738811889385200,5.93438525390625,0.05723250929467901,0.003582852892577648,0.02859638368315129,0.003939524292945862,0.00039363639869198616,0.999474628461824,0.0016598081445399037,right,-0.001558065414428711,-0.030465765585842457,0.5606925762118772,-9.786049695041775,-0.01524979485523625,-0.005514885764569044,-0.0012275688350200653,0.2987210625017993,0.0008882619440555573
1746738811929385200,5.97438525390625,0.05737991639480691,-0.003477746620774269,0.028670947488522204,0.005730906035751104,0.0003219316667069846,0.9994709078469036,0.001524786389340256,right,-0.00034236907958984375,-0.03068222022460977,0.5621313768433407,-9.785902395525573,-0.015356058064642039,-0.0022418429143726826,-0.00015714019536972046,0.3008427673635073,-0.0005324017256498337
1746738811969385200,6.01438525390625,0.057614765627914226,-0.0025077247992157936,0.02878998340867603,0.005434960592538118,0.0002113177123428601,0.999467597037838,0.001306962113907026,right,-0.0011601448059082031,-0.030679209894911887,0.5644296438483521,-9.785770878100395,-0.015351455746357715,0.003251435235142708,-0.0010203272104263306,0.3008132490080781,-0.0019062459468841553
1746738812009385500,6.054385498046875,0.05787871787085825,0.0000353341456502676,0.02892274936645816,0.006875326856970787,0.00016494242126860833,0.9994655219457033,0.0012113536202871457,right,-0.0008484721183776855,-0.030442218405265103,0.5670167011994868,-9.785692552167177,-0.015231669920152567,0.007446690462529659,-0.000977843999862671,0.2984902494206093,-0.002326907590031624
1746738812049385200,6.09438525390625,0.0581006613937178,0.000713287154212594,0.029033742504753476,0.0035927926655858755,0.00017076859938013167,0.9994643349621697,0.001218738973856723,right,-0.0017948150634765625,-0.030178847314797544,0.5691930953904986,-9.785644621372223,-0.01510017997069804,0.002372747752815485,-0.0006358511745929718,0.2959086536958814,-0.002052251249551773
1746738812089385200,6.13438525390625,0.058189259963223716,-0.00030583771876990795,0.02907810707791615,-0.0001174581702798605,0.00016148324769598227,0.9994626054858236,0.0012031365343508767,right,-0.0011283159255981445,-0.030235169246959372,0.5700591376353055,-9.785577401354908,-0.01512810678857573,-0.00468612601980567,-0.000039715319871902466,0.29646071635438126,-0.0028440970927476883
1746738812129385200,6.17438525390625,0.05822160877365615,0.002667137188836932,0.02909392848075245,-0.00010840688628377393,0.00016784660081210737,0.9994596576151636,0.0012258722832952965,right,-0.0015554428100585938,-0.030561743627956415,0.5703699936827644,-9.785461666020751,-0.01529163918909677,-0.013256041333079338,-0.00003971904516220093,0.29966185048324984,-0.002609783783555031
1746738812169385200,6.21438525390625,0.058191289130707535,0.007111018523573875,0.02907685112635812,-0.0029794671572744846,0.00026108915233344446,0.9994552904083106,0.0014301585574328492,right,-0.0024245381355285645,-0.03118563069263819,0.5700623159730807,-9.785290401107073,-0.015606380616149591,-0.01716257631778717,-0.0006691887974739075,0.30577717329207804,-0.003596169874072075
1746738812209385200,6.25438525390625,0.05806977178011212,0.009342363104224205,0.02901249503364075,-0.005740084685385227,0.0004627560706574544,0.9994526914407191,0.001847557833193513,right,-0.001943826675415039,-0.03172744507573335,0.5688635346425697,-9.785192785951494,-0.01588317989511875,-0.015112433582544327,-0.0013627484440803528,0.3110879199860617,-0.0006717052310705185
1746738812249385500,6.294385498046875,0.05775482749927972,-0.002937900833785534,0.02885259726926836,-0.011162878945469856,0.0005932775732820642,0.9994533230228353,0.0021176705918102626,right,-0.0009208917617797852,-0.032209518387448885,0.5657730212813243,-9.7852208430022,-0.016127909038296234,-0.005899881012737751,-0.0015809014439582825,0.31581304881181566,-0.000734914094209671
1746738812289385200,6.33438525390625,0.057666240667819765,-0.005188991315662861,0.028808900124900828,-0.0011423928663134575,0.0005559252504337941,0.9994543136985855,0.0020427157856064727,right,-0.0008363127708435059,-0.03225179911381132,0.5649054081339389,-9.78525766788125,-0.01614793136646705,0.0018406198360025883,-0.0021206997334957123,0.31622743829898536,0.00019481778144836426
1746738812329385200,6.37438525390625,0.05770895176946559,-0.006244216579943895,0.028831859201094,0.0025273377541452646,0.00046042465309708517,0.9994544709097365,0.0018498400046802574,right,-0.0007776021957397461,-0.03216660312427554,0.5653248756550252,-9.785260590490699,-0.016102587494795047,-0.000548115698620677,-0.0011671148240566254,0.31539241224694997,0.00040188804268836975
1746738812369385200,6.41438525390625,0.05779846229604227,-0.007347489707171917,0.028879000838746,0.0018960274755954742,0.00031021237019373957,0.999453119512868,0.001550713682470908,right,-0.0016925930976867676,-0.032167306090084107,0.5662007451741025,-9.785209737086296,-0.016098642123741125,-0.0017486957367509604,-0.002282988280057907,0.31539928037915377,-0.0022086240351200104
1746738812409385200,6.45438525390625,0.05770789567943437,0.002174905501306057,0.02883422934473772,0.00045429461169987917,0.0002781262054308142,0.9994540794222143,0.0014864468196645816,right,-0.0011484026908874512,-0.032215769251922675,0.5653136601412668,-9.785245392921567,-0.01612191933597529,-0.00606708787381649,-0.0014165118336677551,0.3158743140123784,-0.0016153696924448013
1746738812449385200,6.49438525390625,0.05772172261081518,0.009448609314858913,0.028838095323243475,0.0026526637375354767,0.00044516145233767276,0.9994507302033796,0.0018318058937613114,right,-0.0006148219108581543,-0.032592556445285824,0.5654420357612893,-9.785117967149615,-0.016315192239161756,-0.01602696068584919,-0.0017263516783714294,0.3195673963766545,0.0003182850778102875
1746738812489385200,6.53438525390625,0.05781585857365913,0.006529997102916241,0.028880906428976255,0.004647239111363888,0.0006727680624001212,0.9994454400400398,0.002302584627290464,right,0.00007718801498413086,-0.033068735584926894,0.5663543283006176,-9.784911630922556,-0.01655996810166675,-0.00920029729604721,-0.0006897598505020142,0.32423458447009323,-0.00015414133667945862
1746738812529385200,6.57438525390625,0.05803478279314331,-0.0054923659190535545,0.028989357532042594,0.0035242661833763123,0.000715039267267989,0.9994405917596016,0.002396687895418746,right,-0.0018745660781860352,-0.0332713938676888,0.5684926189709455,-9.784721661308406,-0.016662677625562654,-0.0040600779466331005,-0.0008801110088825226,0.32622089944910254,0.0023211687803268433
1746738812569385200,6.61438525390625,0.05817151108201269,-0.01631801202893257,0.029061875210840457,0.004059061408042908,0.0004655152082360776,0.9994391776474943,0.0018980869361165348,right,-0.000531315803527832,-0.03321807475565403,0.5698315028918907,-9.784661455553769,-0.016628837601001235,0.0066981506533920765,-0.0002813860774040222,0.3256983003471047,0.0008131079375743866
1746738812609385200,6.65438525390625,0.05831987354788593,-0.014269279316067696,0.02914222407152655,0.0027503762394189835,0.00011981162152892733,0.9994421502623438,0.0011908319331810384,right,-0.00193709135055542,-0.032603677623380824,0.5712947073122486,-9.78477485280037,-0.016311541789735724,0.021563788875937462,-0.0003236904740333557,0.3196763731764629,-0.0017368197441101074
1746738812649385200,6.69438525390625,0.05837295786961153,-0.003867032937705517,0.029172854662297822,0.0004904982633888721,-0.0000813875403953305,0.9994514152216311,0.0007524220003533217,right,-0.0022416114807128906,-0.031348475913873824,0.5718371070932596,-9.785137256371975,-0.015677897182620238,0.036266595125198364,-0.0002005547285079956,0.3073733564423397,-0.003275800496339798
1746738812689385200,6.73438525390625,0.05831107894685234,0.002716925460845232,0.029143357290794793,-0.003473184537142515,-0.00010874978318434809,0.9994644689582298,0.0006498469468884512,right,-0.001752018928527832,-0.029742312034261087,0.5712596359988674,-9.785652804678678,-0.014873759623498729,0.04025094956159592,-0.00026428326964378357,0.2916296246698126,-0.002474898472428322
1746738812729385200,6.77438525390625,0.05808500352306613,0.0031429447699338198,0.02903065289953775,-0.007994277402758598,-0.00005949068398338626,0.9994795806299911,0.0006975538228665293,right,-0.0018205642700195312,-0.02810755365970559,0.5690742182511836,-9.786244340831042,-0.014057515157805163,0.036654163151979446,0.00014210864901542664,0.27560481093358247,-0.0030831675976514816
1746738812769385200,6.81438525390625,0.05769501502298999,0.006129079032689333,0.028835458384224907,-0.009069864638149738,0.00002757645362864053,0.9994951888869,0.0008241757982614091,right,-0.0007163882255554199,-0.026648268139761948,0.5652802693283185,-9.786856919771433,-0.013330081500513466,0.030052676796913147,-0.00015342235565185547,0.2612994779337197,-0.004710095003247261
1746738812809385200,6.85438525390625,0.05714388376402122,0.011572007089853287,0.028558663415742508,-0.016786927357316017,0.00020186808984734805,0.9995119859366911,0.0011261179875781291,right,0.0005641579627990723,-0.02526778517722661,0.5599063942702487,-9.787517429506778,-0.012644484025841288,0.04008382186293602,-0.000009261071681976318,0.2477661339533515,-0.006111042574048042
1746738812849385200,6.89438525390625,0.05650274717062349,0.0063887485302984715,0.02823721059191036,-0.0075129372999072075,0.0003847580958899676,0.9995315739593833,0.0014352076420901165,right,0.003458261489868164,-0.023543038043685436,0.5536544577360153,-9.788286660313606,-0.011786817357134083,0.04342558607459068,0.0024307146668434143,0.23085717606004327,-0.00208987295627594
1746738812889385200,6.93438525390625,0.05613124822060391,-0.0017998781986534595,0.028051438535322663,-0.005836133845150471,0.0004790752730325405,0.9995445320738736,0.0015814563839773748,right,0.0009247064590454102,-0.02218658261536507,0.550035134727694,-9.788795194357633,-0.011110880628571516,0.021877199411392212,0.0008873715996742249,0.21755837148791177,-0.0003947429358959198
1746738812929385200,6.97438525390625,0.05583776843677516,-0.0097410399466753,0.027907066261213958,0.003863968886435032,0.00031609432512863436,0.9995528647159795,0.0012306697755226916,right,0.002791464328765869,-0.021419913020470308,0.5471714523922652,-9.7891201885283,-0.010722753338361264,0.019593166187405586,0.0021606571972370148,0.21004169398117808,-0.00398908369243145
1746738812969385200,7.01438525390625,0.055924450582907195,-0.010472038760781288,0.027953431072213764,0.003558389376848936,0.00006133709003475245,0.9995551926576551,0.000703197656003293,right,-0.00044977664947509766,-0.020752878813950024,0.5480277038954198,-9.78921020489931,-0.010382027182808519,0.01745188795030117,0.0009075775742530823,0.20350177081841975,-0.0016924366354942322
1746738813009385500,7.054385498046875,0.05600319742284154,-0.012074578553438187,0.027995962300836518,0.0005918359383940697,-0.00022207180728169335,0.999557866767595,0.00011600894438619098,right,-0.00019097328186035156,-0.020005416108447794,0.5488069446396082,-9.789316003361344,-0.010000245185935135,0.024277284741401672,0.001190032809972763,0.19617318149600177,-0.0012638475745916367
1746738813049385200,7.09438525390625,0.05571936987093362,-0.010001098737120628,0.02785710390548458,-0.013315542601048946,-0.0004988622651993739,0.9995683886444526,-0.0004789210766186199,right,-0.002576589584350586,-0.018632104891273434,0.5460429232863709,-9.789731598424911,-0.009305632994359882,0.04311802610754967,0.0011933110654354095,0.18270811697887257,-0.0008576065301895142
1746738813089385200,7.13438525390625,0.05493684143128823,0.0004194304347038269,0.027467338257337326,-0.02241256646811962,-0.0006276953486302853,0.9995878768315674,-0.0007986623316210036,right,-0.002329409122467041,-0.016641650301427835,0.5384009206332266,-9.79049907566607,-0.008306623319662424,0.05455317348241806,0.000436931848526001,0.16319146080520003,-0.00014336034655570984
1746738813129385200,7.17438525390625,0.053873999994615306,0.009184255264699459,0.026935458460502486,-0.03056076169013977,-0.0005293701161398461,0.9996110095859164,-0.0006701686922810199,right,-0.0022435784339904785,-0.014436740099961352,0.528012943740189,-9.791401577463745,-0.0072066638074884315,0.05298031121492386,-0.0002193264663219452,0.14157129301363602,0.0008528660982847214
1746738813169385200,7.21438525390625,0.05268431660968324,0.011878395453095436,0.02633955169372507,-0.03203997015953064,-0.00031290401001067715,0.9996343170037901,-0.000304342870539558,right,-0.002558887004852295,-0.012209154960136357,0.5163792411023751,-9.792313431611657,-0.006098414154633452,0.05441119149327278,-0.0016018189489841461,0.11972808445538394,0.0012318892404437065
1746738813209385200,7.25438525390625,0.05141081217994832,0.013282272033393383,0.0257020380059455,-0.03487657755613327,-0.00008269799280828401,0.9996572415769758,0.00008978932592495612,right,-0.0015827417373657227,-0.009927236148995032,0.5039209972739219,-9.793210672712325,-0.004963112189010866,0.05384014546871185,-0.0023007914423942566,0.0973514814064838,0.00028814002871513367
1746738813249385200,7.29438525390625,0.050218605634313365,0.022084413096308708,0.025105168824244514,-0.027258146554231644,0.000248508132399305,0.9996773680109906,0.000688854710218529,right,-0.0006868839263916016,-0.007632107580190978,0.4922550363343209,-9.794001530829071,-0.0038234891618064443,0.05522998049855232,-0.0031269416213035583,0.07484482680370565,-0.0015361160039901733
1746738813289385200,7.33438525390625,0.04933104922177639,0.025404099375009537,0.024660856419785267,-0.01946612447500229,0.0007115309812712759,0.9996919358027715,0.0015551399498832817,right,-0.0013135671615600586,-0.0053359046206200725,0.48356929678190497,-9.79458020749986,-0.002686314170645067,0.05295303836464882,-0.0029158256947994232,0.05232724438153673,-0.0025925098452717066
1746738813329385200,7.37438525390625,0.04869209583664071,0.02395438402891159,0.02434163158039129,-0.011939005926251411,0.001186002418383645,0.9997016130977546,0.002450752512278776,right,-0.0015992522239685059,-0.003204854706228885,0.4773152778884396,-9.79497651334107,-0.0016317807459259408,0.050124939531087875,-0.0016022101044654846,0.03142897482346743,-0.003344050608575344
1746738813369385200,7.41438525390625,0.04817641442889996,0.017025504261255264,0.024084832937148217,-0.01296350359916687,0.0015688804671039767,0.9997084162610932,0.0031694150181388026,right,-0.0020946264266967773,-0.0012759682436490887,0.4722661412727088,-9.795263513588905,-0.0006759672737217077,0.04078597575426102,-0.002031385898590088,0.012513108970981556,-0.0038102148100733757
1746738813409385200,7.45438525390625,0.04764638499746251,0.01425761915743351,0.023821095641061482,-0.011736772023141384,0.0018757594274065976,0.9997144302093741,0.0037475639678880243,right,-0.002292633056640625,0.00021075331175370786,0.46707467357683924,-9.795520703220367,0.00006071134770374593,0.027768535539507866,-0.0024097710847854614,-0.0020666476375234195,-0.0048927003517746925
1746738813449385200,7.49438525390625,0.04711425042299168,0.013750598765909672,0.02355618939759885,-0.01381204929202795,0.0021561099055651765,0.9997200307698668,0.004284791429494938,right,-0.001650989055633545,0.0012150884419559358,0.46186176123414185,-9.795760357195139,0.000556910255915625,0.01715647429227829,-0.003979500383138657,-0.011915808656468288,-0.005995078943669796
1746738813489385200,7.53438525390625,0.04665453264923818,0.017290346324443817,0.023327402206801448,-0.0047283899039030075,0.0024542779936925483,0.999724436020165,0.004865179732662736,right,0.002597987651824951,0.0019166849241668523,0.4573579104762524,-9.795961432725191,0.0009013383217984005,0.01313856802880764,-0.004610735923051834,-0.018796113071980654,-0.006654635071754456
1746738813529385200,7.57438525390625,0.046610315264685266,0.012994840741157532,0.023305954910265055,0.003974532708525658,0.0027794579276601674,0.9997239698142979,0.0055095047752011465,right,0.0012958645820617676,0.0021850172298455276,0.4569245240276679,-9.795976045772433,0.0010280135872399677,-0.002988651394844055,-0.004533182829618454,-0.0214275472793146,-0.004240128211677074
1746738813569385200,7.61438525390625,0.046794237212914966,-0.0027976147830486298,0.02339763328066244,0.011087857186794281,0.002846417390207447,0.9997217577894582,0.005648764570298034,right,0.00033730268478393555,0.0019502716401558432,0.4587264223504811,-9.795896550795435,0.0009087886350124724,-0.007895134389400482,-0.0026745833456516266,-0.019125485448597462,-0.003453503828495741
1746738813609385200,7.65438525390625,0.047199393363558426,-0.010887077078223228,0.023599244900832875,0.008839316666126251,0.0026719955958736216,0.9997177285507285,0.005313001433509163,right,-0.0008729100227355957,0.0013762816903364762,0.4626956913076341,-9.795719440662861,0.0006252600425451925,-0.017692139372229576,-0.0020641162991523743,-0.01349657390024513,-0.0024582380428910255
1746738813649385200,7.69438525390625,0.0475766110112677,-0.013365117833018303,0.023786651124475994,0.008164444006979465,0.0024006889913424654,0.9997141530160661,0.004789657970495136,right,-0.0009984374046325684,0.0005498996031046894,0.466391148292087,-9.79555168288052,0.00021790772446573375,-0.018160194158554077,-0.0019674375653266907,-0.0053925369468779535,-0.003998266998678446
1746738813689385200,7.73438525390625,0.04785922626706355,-0.008635086938738823,0.023927050019890424,0.0038087554275989532,0.00218445423901346,0.9997112774639904,0.004375039031722367,right,-0.001467287540435791,-0.00020372597812360143,0.46915955355949696,-9.79542074997723,-0.0001541750480110637,-0.017593033611774445,-0.0023546218872070312,0.0019980061303307593,-0.003783175488933921
1746738813729385200,7.77438525390625,0.048009802512480174,0.0014257589355111122,0.024001576419922076,0.003574054455384612,0.0020990261055923143,0.9997095819879145,0.0042211969084456884,right,-0.001710057258605957,-0.0009134452533400917,0.47063433881979433,-9.795345931175351,-0.0005072498131196502,-0.015801694244146347,-0.0016191713511943817,0.008957974343493698,-0.0032689296640455723
1746738813769385200,7.81438525390625,0.048182241557298736,0.0029442552477121353,0.02408708932235527,-0.0008685335051268339,0.0021899330676905067,0.9997071170553063,0.004416865854914338,right,-0.003051459789276123,-0.0014825765349871446,0.4723230956243351,-9.795258252891898,-0.0007942697374019127,-0.011964461766183376,-0.0025655850768089294,0.014539242220437154,-0.00014381390064954758
1746738813809385200,7.85438525390625,0.04846727069765476,-0.00026200967840850353,0.024229030738610203,0.004308243282139301,0.00226781005522925,0.9997032980293606,0.004582668150763363,right,-0.004089534282684326,-0.0018858631861991015,0.475114699104242,-9.795116798594593,-0.0009981740339204822,-0.009018350392580032,-0.0022439397871494293,0.01849412874249974,0.002083722036331892
1746738813849385200,7.89438525390625,0.048685854751338374,-0.008144018240272999,0.024337888817153243,0.004601678811013699,0.0021829356808899135,0.9997006305470151,0.004423542348161671,right,-0.0020441412925720215,-0.00231524049368152,0.4772552913295105,-9.795003401347994,-0.00121110982781812,-0.01004155445843935,-0.0016648024320602417,0.022704871455463578,0.0023091633338481188
1746738813889385200,7.93438525390625,0.04903844899941491,-0.009208761155605316,0.024514178210911324,0.008438130840659142,0.001990969056378826,0.9996965800141542,0.0040443379124851,right,-0.0013102293014526367,-0.002495381522103907,0.480708719719015,-9.794830382868646,-0.0012968899387594142,0.004446572624146938,-0.0015796981751918793,0.024471447303146123,0.0003615568857640028
1746738813929385200,7.97438525390625,0.04943985160066297,-0.0060852402821183205,0.024715471810356417,0.009677746333181858,0.0018109605858704736,0.9996922234952543,0.003673763553160046,right,-0.00021660327911376953,-0.0020518483858527376,0.4846408350035548,-9.794646842995286,-0.0010710118506494072,0.018414169549942017,-0.0007903315126895905,0.02012188292467035,-0.0009892649250105023
1746738813969385200,8.01438525390625,0.04982575129449297,-0.0037439712323248386,0.024909261278875855,0.007948656566441059,0.0016906865421421025,0.9996879949530334,0.003411626771807079,right,-0.001156449317932129,-0.0011719307060562487,0.48842126685772086,-9.794472655472159,-0.000628274996687303,0.02510717511177063,-0.0002315118908882141,0.011492849987064254,-0.0008576242835260928
1746738814009385500,8.054385498046875,0.05005813240682091,-0.0024456754326820374,0.025026290311409925,0.0033489237539470196,0.0016045799214199842,0.9996854085369077,0.003214296958249048,right,-0.0011599063873291016,-0.0001649958304390971,0.4906976142918691,-9.794365687966346,-0.000122693196018596,0.023388005793094635,0.00030154362320899963,0.0016181930537313746,-0.0026092070620507
1746738814049385200,8.09438525390625,0.0501513729191196,0.0025052898563444614,0.025073531969290255,-0.00022662081755697727,0.0015937729602426268,0.9996841878487952,0.0031726291547353536,right,-0.002587556838989258,0.0006347578214340982,0.49161078361403193,-9.794317757171392,0.00027750501158837636,0.015501182526350021,0.0005657188594341278,-0.006224711742234649,-0.0035276133567094803
1746738814089385200,8.13438525390625,0.05010009493598745,0.00644089188426733,0.02504831863966571,-0.004415147937834263,0.0016844236510327449,0.9996845818092407,0.00334209841251473,right,-0.0025138258934020996,0.0011098609762822938,0.49110831398461013,-9.79433938448131,0.0005129001719237322,0.009498357772827148,0.000058125704526901245,-0.010883880925999255,-0.004996714182198048
1746738814129385200,8.17438525390625,0.049999431213786985,0.007592205423861742,0.024998393152149967,-0.006162595935165882,0.0018881280423241973,0.999685447645733,0.003741860863386101,right,-0.001860201358795166,0.0014228646537335357,0.4901221890240907,-9.794384392666815,0.0006644409211448696,0.0020418628118932247,-0.001522596925497055,-0.013953396023344248,-0.0039220587350428104
1746738814169385200,8.21438525390625,0.04975406057027647,-0.0017240210436284542,0.024875991727668568,-0.00895719788968563,0.002010723068566608,0.9996882037349616,0.003983115047898483,right,-0.0015347599983215332,0.0015906811448032755,0.48771881767679004,-9.794501881566642,0.0007455539675199071,0.0057610259391367435,-0.0006127506494522095,-0.015599111695535248,-0.003438542364165187
1746738814209385200,8.25438525390625,0.04971378627914514,-0.005909372121095657,0.024856040529772867,-0.003037502057850361,0.0019635649127451352,0.9996887345936594,0.00388315906808804,right,-0.0024899840354919434,0.0018175676310696063,0.4873241558033973,-9.794517663657665,0.000860244630506207,0.0010141138918697834,-0.0010646171867847443,-0.01782410568507039,-0.0024875218514353037
1746738814249385200,8.29438525390625,0.04977222721523394,-0.005187764298170805,0.02488510300297338,0.001412542536854744,0.0018741943531337133,0.9996881273905035,0.003706349583852069,right,-0.0011262297630310059,0.0017356850297492999,0.48789662192910904,-9.79449077565074,0.0008214587500892846,-0.008568087592720985,-0.0003947801887989044,-0.017021113030891863,-0.002709354739636183
1746738814289385200,8.33438525390625,0.049859813242016084,-0.003885975107550621,0.024928525837770714,-0.0009594024159014225,0.0017936826076807497,0.9996873294584695,0.003553530404964326,right,-0.0018846988677978516,0.0014017354256379564,0.48875473659578705,-9.7944533662498,0.0006563588441458289,-0.011168776080012321,-0.0005255304276943207,-0.013746189863316249,-0.003093845210969448
1746738814329385200,8.37438525390625,0.04981304710585234,-0.001817881129682064,0.02490462472910818,-0.0027823885902762413,0.0017373138556184024,0.9996881873564789,0.003455114800870503,right,-0.002565741539001465,0.0008266291968373063,0.48829698289092627,-9.794482592344284,0.0003701628231854945,-0.017623208463191986,-0.001825030893087387,-0.008106326521042501,-0.004238647408783436
1746738814369385200,8.41438525390625,0.04976923714085489,0.006919370964169502,0.02488207695885035,-0.001312976237386465,0.0017937074649044518,0.9996887261412942,0.0035867179586480578,right,-0.0024785995483398438,0.00007270948172438515,0.48786805342175066,-9.794507142263651,-0.00000827900339058856,-0.02164974808692932,-0.0024800971150398254,-0.0007129000070559414,-0.005955560132861137
1746738814409385200,8.45438525390625,0.04967868113989256,0.009446844458580017,0.024836135254919157,0.0052113900892436504,0.0019088884081008253,0.999689595766895,0.0038346538276316567,right,-0.00040781497955322266,-0.0006317958406088277,0.4869810049215331,-9.794549227839708,-0.0003634201171213529,-0.017373312264680862,-0.0010821036994457245,0.006195937738899374,-0.004349041264504194
1746738814449385200,8.49438525390625,0.0496969673141047,-0.0004514213651418686,0.024844441988349068,0.0010729031637310982,0.0020000491467158914,0.9996890270893243,0.004036522007359465,right,-0.002067267894744873,-0.0014156843076098206,0.48715972248930484,-9.794532276704906,-0.0007577676675831704,-0.02332240529358387,-0.0012404806911945343,0.013883254538226173,-0.0005577034316956997
1746738814489385200,8.53438525390625,0.049779688546458825,-0.006171954330056906,0.024884967515491976,0.004624122753739357,0.0018968867278175408,0.9996877775980498,0.0038529697651748123,right,-0.00015485286712646484,-0.0023304303353106144,0.4879691026434302,-9.794475578081608,-0.001212796739873515,-0.015396013855934143,-0.001114826649427414,0.022853833205788394,-0.0028059124015271664
1746738814529385200,8.57438525390625,0.049895282919152524,-0.00593167869374156,0.024942614027015676,0.00455155223608017,0.0017551544219064257,0.9996863166176811,0.003577814355267605,right,-0.0010350346565246582,-0.0026613495647268767,0.48910088315233585,-9.794410696151852,-0.0013748826286875515,-0.0018702112138271332,-0.0011911578476428986,0.026099032521957995,-0.003654581494629383
1746738814569385200,8.61438525390625,0.05007517639913974,-0.0022634100168943405,0.025032678430502824,0.00493853772059083,0.0016794156298300985,0.9996842525141897,0.0034253378961947916,right,-0.0007455945014953613,-0.0026134945108142876,0.49086288785617793,-9.794324186912178,-0.0013492120495418559,0.0034223184920847416,-0.0012312904000282288,0.02562973679306451,-0.004027775023132563
1746738814609385200,8.65438525390625,0.05026897750218894,0.0017677564173936844,0.02512974688273726,0.002865755930542946,0.0016916424645475703,0.9996819993240506,0.003443968888483238,right,-0.0020340681076049805,-0.002371182624721777,0.4927613418886438,-9.794234755063057,-0.0012284914094107117,0.005913683213293552,-0.0012439340353012085,0.02325347493168665,-0.004280081484466791
1746738814649385200,8.69438525390625,0.050347523451914296,0.0015815990045666695,0.02516909875614423,0.0008374000899493694,0.0017390899836674557,0.9996810407439843,0.003534849061767805,right,-0.002000570297241211,-0.0022067049826641734,0.49353082842379803,-9.794199683749675,-0.0011474889256199402,-0.00021369010210037231,-0.0001585744321346283,0.02164050504340557,-0.003096766537055373
1746738814689385200,8.73438525390625,0.05035931512695451,0.001587584731169045,0.025174671238007963,-0.002946508349850774,0.0017875199235575963,0.9996805422585984,0.00363895151225853,right,-0.0019940733909606934,-0.002492503730231834,0.4936459792360663,-9.794186824268102,-0.0012916634330007288,-0.012988554313778877,-0.0013116896152496338,0.02444322585565969,-0.002490311861038208
1746738814729385200,8.77438525390625,0.05027078418094282,0.002936557400971651,0.025129775963789076,-0.00264373910613358,0.0018432578528782338,0.9996812214862849,0.0037650542271784053,right,-0.00016200542449951172,-0.003077371020963984,0.49277807382773603,-9.794214881318807,-0.0015855091650114706,-0.01453675888478756,-0.0009779594838619232,0.030178794382570776,-0.0028804887551814318
1746738814769385200,8.81438525390625,0.05013207297890815,-0.0007205312140285969,0.025059542447447257,-0.002982578007504344,0.0018963980678661219,0.9996821523495092,0.00389132491751699,right,-0.0007755160331726074,-0.0038820311716298793,0.4914181471187621,-9.794255797851084,-0.001989165830145256,-0.02289387211203575,-0.0013920627534389496,0.03806976682810345,-0.00183616834692657
1746738814809385200,8.85438525390625,0.04984581508051165,-0.011164123192429543,0.024916029600219266,-0.00002315058372914791,0.001766271725916705,0.9996852154407878,0.003648240925470563,right,0.0008345246315002441,-0.004596777405438872,0.48861295350491996,-9.794366272488237,-0.002343126667130302,-0.01186098251491785,-0.0005821473896503448,0.0450789720200235,-0.0035256959963589907
1746738814849385200,8.89438525390625,0.04971849471444821,-0.011063977144658566,0.02485257357781667,-0.0011226061033084989,0.0015416169953260067,0.9996866426277441,0.0032084122743490963,right,-0.00034618377685546875,-0.004995681384347093,0.48736499927043914,-9.794409527108073,-0.0025369384206501084,-0.007539760787039995,-0.0005683153867721558,0.04899083910097833,-0.0010836422443389893
1746738814889385200,8.93438525390625,0.049606528112762095,-0.006729952525347471,0.024796832924307982,-0.0014357918407768011,0.0013425728693871254,0.9996878264162757,0.0028189724094568823,right,-0.0004559159278869629,-0.0053606936894550605,0.4862674132920801,-9.794445767465234,-0.00271447294908765,-0.005476414691656828,-0.000760003924369812,0.0525703369889874,-0.0019303737208247185
1746738814929385200,8.97438525390625,0.04941274567762473,-0.00227300263941288,0.024700229081426207,-0.0056346505880355835,0.001208115015424388,0.9996902324223021,0.002553206254359111,right,-0.001912832260131836,-0.005512783576429472,0.4843690323248505,-9.794531692183018,-0.002787081891996167,-0.0015311059542000294,-0.002231709659099579,0.0540618085226044,-0.0030276495963335037
1746738814969385200,9.01438525390625,0.04909327953180759,0.00482544070109725,0.024540486048007338,-0.006342256907373667,0.0012298974132891125,0.9996941006651356,0.002595912030555675,right,-0.0012373924255371094,-0.005513531223553355,0.48123997705150395,-9.794686005961895,-0.0027877867070434646,0.000980624696239829,-0.002314835786819458,0.05406914244568906,-0.002420653123408556
1746738815009385500,9.054385498046875,0.048845969985630656,0.01122328545898199,0.02441629498936822,-0.009077351540327072,0.0014299944299702306,0.9996968364042975,0.0029960269482804925,right,-0.003447234630584717,-0.005533557958566258,0.4788175722101703,-9.794803494861721,-0.0028025296501888856,-0.000012341770343482494,-0.003703668713569641,0.05426553266746923,-0.0016868915408849716
1746738815049385200,9.09438525390625,0.04864448524640172,0.010398972779512405,0.024315122912107228,-0.0032019787468016148,0.001643092428024703,0.9996992256603228,0.003418132669608413,right,-0.0023087263107299805,-0.005383391153713184,0.476844445506297,-9.794907539758086,-0.002732456422701508,0.007312432397156954,-0.003339342772960663,0.05279292109794914,-0.0023242298047989607
1746738815089385200,9.13438525390625,0.048540192649883046,0.004387808032333851,0.02426296784113761,-0.0027865758165717125,0.00179114620306983,0.9997006736580454,0.003704763075393458,right,-0.001853346824645996,-0.0050011530374152536,0.47582387028690426,-9.79497651334107,-0.0025447863391556648,0.009603966027498245,-0.0023593977093696594,0.049044496383820656,-0.000709479209035635
1746738815129385200,9.17438525390625,0.048578718287086244,-0.0002468833699822426,0.02428257529025746,0.003384765237569809,0.001811759144892919,0.9997006473408344,0.0037362507010621744,right,-0.0004170536994934082,-0.004595835538130121,0.47620216554738576,-9.794977682384848,-0.002342605122666855,0.010235828347504139,-0.00225989893078804,0.045069733834220096,-0.002777888672426343
1746738815169385200,9.21438525390625,0.04877792830493724,-0.0002506906748749316,0.024382669818124952,0.004921293817460537,0.0017930446737691274,0.9996988650092439,0.003687337139910685,right,-0.0011536478996276855,-0.004106430570201572,0.47815443212632086,-9.794903448104858,-0.002097560379697316,0.012327572330832481,-0.002205200493335724,0.04027035702874418,-0.0038472465239465237
1746738815209385200,9.25438525390625,0.04902576893787073,0.0018042935989797115,0.024507072966517583,0.007317199371755123,0.0017970788083206484,0.9996963550862856,0.00368253778539897,right,-0.0007762312889099121,-0.0035603697158755553,0.4805829744474962,-9.79480524842739,-0.0018247763224650446,0.011528358794748783,-0.0009668916463851929,0.03491536705094622,-0.004567943513393402
1746738815249385200,9.29438525390625,0.04924878849415064,0.002926596673205495,0.024618803287717362,0.005181541666388512,0.0018355823245033193,0.9996938377403339,0.003751802969121595,right,-0.0024064183235168457,-0.003228589555645053,0.48276795380376275,-9.794708802315592,-0.0016599900397791818,0.0037475046701729298,-0.00004487857222557068,0.03166173326657153,-0.0044737309217453
1746738815289385200,9.33438525390625,0.04938754002462806,0.0034644678235054016,0.024688075740944247,0.0038126464933156967,0.0019059990961352307,0.9996920433514545,0.003892040835851851,right,-0.0010315775871276855,-0.003193388521080367,0.4841270402625203,-9.794642751342058,-0.0016442533555656388,-0.004282186273485422,-0.0005351454019546509,0.03131653199151624,-0.004731148947030306
1746738815329385200,9.37438525390625,0.04949392434442556,0.0023436436895281076,0.02474082822108698,0.0018465830944478512,0.0019940023227900685,0.9996903222971228,0.004074788836650786,right,-0.0007518529891967773,-0.0034564486412765297,0.48516858520470557,-9.79458254558742,-0.0017781047877936994,-0.010918356478214264,-0.0004529617726802826,0.03389625541956629,-0.004341178573668003
1746738815369385200,9.41438525390625,0.04952275076364125,0.003288368694484234,0.024754717279013964,0.0004169917665421963,0.0020742373741518797,0.9996894727126332,0.004243817771349257,right,-0.0009490251541137695,-0.0037979006460799438,0.4854503247555345,-9.794556242102384,-0.0019508987250067768,-0.008335491642355919,-0.0007284097373485565,0.03724473473040853,-0.004703473765403032
1746738815409385200,9.45438525390625,0.04948803057127637,0.001650175778195262,0.02473677714369402,-0.0014446575660258532,0.002157136658598895,0.9996893935080898,0.004418677442806541,right,-0.0010619163513183594,-0.004164608803700096,0.48510954849384724,-9.794559164711833,-0.0021363225470631595,-0.00771437119692564,-0.0020768381655216217,0.040840886925696394,-0.004636527970433235
1746738815449385200,9.49438525390625,0.04949279546138682,-0.003920304588973522,0.024739123439479843,0.007673222571611404,0.0021116770469299245,0.9996893167215555,0.004330626598776421,right,0.001377880573272705,-0.004281203284174815,0.4851559814514592,-9.794551565927266,-0.002193517631395988,-0.001984329428523779,-0.0012058168649673462,0.041984275674005034,-0.004186995327472687
1746738815489385200,9.53438525390625,0.04984724228903691,-0.0037177903577685356,0.02491624135520553,0.010708346962928772,0.0020417478863800098,0.9996848500479795,0.004196086290972929,right,-0.0018551349639892578,-0.004465066567237773,0.4886272012259811,-9.794371533185243,-0.002284118388281451,-0.009648446924984455,-0.0007147006690502167,0.04378734304059762,-0.0018172278068959713
1746738815529385200,9.57438525390625,0.050224479072630175,-0.005652125459164381,0.025104205441576273,0.009011023677885532,0.0019637364047053263,0.9996794324790387,0.004058929578898069,right,-0.0022544264793395996,-0.00518371293737806,0.49232028359025715,-9.79415233747661,-0.002641989839397392,-0.02195172756910324,0.0002452470362186432,0.050834772767499085,-0.002253966173157096
1746738815569385200,9.61438525390625,0.05039186025018752,-0.004058512393385172,0.025187128623582418,0.0011149188503623009,0.0018564528345190667,0.9996760178875276,0.0038696969221519565,right,-0.002046942710876465,-0.006173992763569497,0.49395683528352524,-9.794014974832534,-0.003134751089644829,-0.024680448696017265,-0.0005366429686546326,0.06054594637751579,-0.003390420461073518
1746738815609385200,9.65438525390625,0.050361804706900076,0.003743988461792469,0.025171074618395007,0.00021791289327666163,0.0018519964841935397,0.9996747779813189,0.003885687667118961,right,-0.0012317299842834473,-0.007166363603608424,0.49365920404382047,-9.793964705950021,-0.003630948737952229,-0.023834312334656715,-0.0009163357317447662,0.07027756455393973,-0.0039013205096125603
1746738815649385200,9.69438525390625,0.05028536957959395,0.004167018923908472,0.025131342815346527,-0.004629333037883043,0.002002562821686783,0.9996737981493244,0.00420818291498895,right,-0.0009344220161437988,-0.008022725951305239,0.4929073992958292,-9.793938986986875,-0.0040629723863680545,-0.01708594523370266,-0.0024358369410037994,0.07867536771018058,-0.002392645925283432
1746738815689385200,9.73438525390625,0.050297621252802745,0.0027059647254645824,0.025136437179664226,-0.0016099426429718733,0.0021598003242108603,0.999672730429774,0.004530728639348173,right,-0.0019248127937316895,-0.008337391706089776,0.4930261303046718,-9.793907422804832,-0.004224319733885875,-0.005158546380698681,-0.003136608749628067,0.08176108616529963,-0.0005345810204744339
1746738815729385200,9.77438525390625,0.050326529570432224,-0.004507174715399742,0.0251508821017552,0.00065444759093225,0.0021561390257008955,0.9996723564864506,0.004523920107071983,right,-0.0009180903434753418,-0.008353050203687767,0.4933091850297525,-9.7938922252357,-0.004232091949493751,-0.002112854737788439,-0.0019722767174243927,0.08191463275919668,-0.00046317465603351593
1746738815769385200,9.81438525390625,0.050546578755907325,-0.003889202605932951,0.02526140865800379,0.006223432719707489,0.0020508889764862073,0.9996699692797417,0.004312259882446793,right,-0.0010554790496826172,-0.008273082823101944,0.49546464603058993,-9.793789933905005,-0.0041896852942776225,0.0018695457838475704,-0.0022141113877296448,0.0811304509784095,-0.0023900149390101433
1746738815809385200,9.85438525390625,0.050963537625030884,0.001275043934583664,0.025469953238429176,0.01126138772815466,0.002020936870474075,0.9996647421611159,0.004253818790191587,right,-0.001853644847869873,-0.008262715639982451,0.4995482620824128,-9.793583013156056,-0.0041841867594839995,-0.0038317618891596794,-0.001401454210281372,0.08102878070222214,-0.0029416559264063835
1746738815849385200,9.89438525390625,0.051489166802523176,0.0023589124903082848,0.02573208471042945,0.012449327856302261,0.0020670736228877913,0.9996572372007984,0.0043568452904688805,right,-0.0026126503944396973,-0.008593512804060023,0.504694575462304,-9.793291921254992,-0.004351385123928739,-0.012705991975963116,-0.0011544153094291687,0.08427268539373763,-0.0028984113596379757
1746738815889385200,9.93438525390625,0.05198946532591894,0.00024097017012536526,0.02598126247437291,0.008541656658053398,0.002106770291058469,0.9996494048908495,0.004453436376100003,right,-0.0026289820671081543,-0.009169901568028788,0.5095914806583896,-9.792987969872355,-0.00464125027997307,-0.016139527782797813,-0.0016458779573440552,0.08992490246915258,-0.0027385810390114784
1746738815929385200,9.97438525390625,0.05227463887221883,0.0029788396786898375,0.02612303132572295,0.0042542037554085255,0.0021300417241668207,0.9996443593073541,0.004515071388000435,right,-0.0022452473640441895,-0.0096957020408271,0.5123816228335722,-9.79279390860498,-0.004905162687882551,-0.007778025232255459,-0.002664133906364441,0.09508101572385057,-0.003382386639714241
1746738815969385200,10.01438525390625,0.05247158467111177,0.004158214665949345,0.026220751250461184,0.004806715529412031,0.0021928924451657577,0.9996408938735516,0.004650047789228835,right,-0.0005864500999450684,-0.010010459841309535,0.5143086453733966,-9.7926623911798,-0.005064464293449299,-0.004921226762235165,-0.00333220511674881,0.09816758356234058,-0.0044794888235628605
1746738816009385500,10.054385498046875,0.05273825157176173,0.0031649721786379814,0.026353676217756902,0.00863635167479515,0.0022736689200320466,0.9996373071825612,0.00481197394400408,right,0.0002639293670654297,-0.009971181071100857,0.51692021611128,-9.792528535667062,-0.00504725805981764,0.008154744282364845,-0.0021445564925670624,0.0977824110365007,-0.005903031211346388
1746738816049385200,10.09438525390625,0.05315359566271012,-0.005774210207164288,0.026561715794142026,0.00640726275742054,0.002285063362612977,0.9996327330647329,0.00482679666917618,right,-0.0017487406730651855,-0.009592466399461373,0.5209893652463331,-9.792349087446928,-0.004858639266669443,0.0027898275293409824,-0.0017519965767860413,0.09406866947668605,-0.0012951288372278214
1746738816089385200,10.13438525390625,0.053485386665250996,-0.01584632694721222,0.026728226873523296,0.004507964942604303,0.002065565003881688,0.9996279963815853,0.00439765859063459,right,-0.0020756125450134277,-0.009906711418009875,0.5242367496697232,-9.792145673829317,-0.00501034744401895,-0.01506180688738823,-0.0007672011852264404,0.09715021408018655,-0.0045831287279725075
1746738816129385200,10.17438525390625,0.053894454061780325,-0.011387839913368225,0.0269329612312329,0.0035550370812416077,0.0018114517790768377,0.999620738108057,0.00391521011162106,right,-0.0044838786125183105,-0.010793795127349983,0.528237509743683,-9.791840553402901,-0.005447646614415353,-0.030123788863420486,-0.0011583715677261353,0.10584906884250231,-0.004311335738748312
1746738816169385200,10.21438525390625,0.05410336860925863,0.000032951124012470245,0.027036521621377072,0.004562259651720524,0.0017214010532375507,0.9996146076312042,0.0037694627339425676,right,-0.0016603469848632812,-0.012023403661122829,0.530275701040402,-9.791592716121674,-0.006060433328983802,-0.03341517597436905,-0.0004644133150577545,0.11790662291557527,-0.0047563593834638596
1746738816209385200,10.25438525390625,0.05437598215593278,0.004270236007869244,0.027171079001132484,0.002214372856542468,0.0017878551602049473,0.9996072615844919,0.003934538806080479,right,-0.00619661808013916,-0.013143090179343547,0.5329375041281804,-9.791309807527064,-0.006622534773239204,-0.02710062637925148,-0.004169013351202011,0.12888612682782113,-0.002366260625422001
1746738816249385200,10.29438525390625,0.053995618157058535,-0.007692141458392143,0.026980460630548056,-0.018790435045957565,0.0017280455705049583,0.9996097708434526,0.0038340772063640265,right,-0.007499635219573975,-0.013947164167507572,0.5292074507543817,-9.791405084595084,-0.007022719934042801,-0.008809162303805351,-0.006177026778459549,0.1367706786657218,-0.004415507428348064
1746738816289385200,10.33438525390625,0.05301930545883633,-0.005585236940532923,0.026493924570918027,-0.026134461164474487,0.0015749553104489182,0.9996241531371381,0.003512591252961646,right,-0.002361893653869629,-0.013633103540286596,0.5196499698687345,-9.791959795868395,-0.0068606459157778965,0.021102773025631905,-0.0068777091801166534,0.1336910885572899,-0.005765113979578018
1746738816329385200,10.37438525390625,0.0521588077394202,0.005243088584393263,0.02606514131338996,-0.011116345413029194,0.00156523970484678,0.999639339843088,0.0034565799437025575,right,0.001867055892944336,-0.012457945932637436,0.5112316490808502,-9.792553085586428,-0.006271872052823732,0.031846579164266586,-0.004297655075788498,0.12216770529299974,-0.0054136305116117
1746738816369385200,10.41438525390625,0.05183991700609586,0.005230939015746117,0.025905993264854894,-0.002168940380215645,0.001698835025209624,0.9996461401650479,0.003696225868133496,right,0.001859903335571289,-0.01146942602863975,0.5081148687671869,-9.792831902527809,-0.005780642829769214,0.015054184943437576,-0.0035553500056266785,0.1124743322011549,-0.00046391692012548447
1746738816409385200,10.45438525390625,0.05211551338194351,-0.002746586687862873,0.026043965372372316,0.01740167662501335,0.0017103000861150336,0.9996433186635952,0.0037136424972866663,right,0.009959101676940918,-0.01119653420367021,0.5108153233649209,-9.792721427890658,-0.005644706491562855,0.003377125598490238,-0.0024116411805152893,0.10979834532439708,-0.0020240163430571556
1746738816449385200,10.49438525390625,0.05367933982190579,0.002290001604706049,0.026825955105638562,0.05126802623271942,0.0016991970818349424,0.9996235696178741,0.003692063452484605,right,0.0048454999923706055,-0.010891333571036046,0.5261305640596896,-9.791944013777375,-0.0054932095198748305,0.009248382411897182,-0.004402577877044678,0.10680553845027461,-0.0024158861488103867
1746738816489385200,10.53438525390625,0.05633213596755049,-0.0015018696431070566,0.02815163103374516,0.07430215924978256,0.001726359461887263,0.9995870294284439,0.0037612338742213165,right,0.00007927417755126953,-0.010899914450274563,0.5521046710107476,-9.790512519669532,-0.00550072077964304,-0.014367190189659595,-0.00298125296831131,0.1068896822029259,0.0006933053955435753
1746738816529385200,10.57438525390625,0.059756981766600215,-0.006957663223147392,0.029862781791234666,0.08625834435224533,0.001644072490081043,0.9995350424389243,0.003641101195214363,right,-0.0023430585861206055,-0.011758328072520953,0.5856266725907102,-9.788469031143189,-0.00593088275014546,-0.025065451860427856,-0.0003999285399913788,0.11530729973791166,-0.0020841648802161217
1746738816569385200,10.61438525390625,0.06317032456115942,-0.007473050616681576,0.03156845223207086,0.07939928025007248,0.0014906864561007999,0.9994798146687947,0.0033853711717920874,right,-0.005338847637176514,-0.01273730371797277,0.6190271666828543,-9.786295778757333,-0.006418877323207013,-0.02345026098191738,0.004238925874233246,0.1249070579958614,-0.0023932866752147675
1746738816609385200,10.65438525390625,0.06584914727798336,-0.009969336912035942,0.03290731995376702,0.04934141784906387,0.0012956325037111179,0.9994333900527687,0.0030465949493316408,right,-0.008149147033691406,-0.013779726123944892,0.6452317944541573,-9.784467394286393,-0.006936210941321988,-0.02415030635893345,0.004913635551929474,0.1351288297428284,-0.00409553200006485
1746738816649385200,10.69438525390625,0.06718769302009252,-0.0017734160646796227,0.03357675009018636,0.021543249487876892,0.0011267741935345646,0.9994090897192498,0.0027397155765182227,right,-0.0028010010719299316,-0.014426606662348856,0.6583221621736883,-9.78350585577786,-0.0072551736921665,-0.006137767806649208,0.009400799870491028,0.14147193342554382,-0.009002579376101494
1746738816689385200,10.73438525390625,0.06749325151378988,0.004793375730514526,0.033728712933272585,-0.0034940876066684723,0.0011815948003867343,0.9994027115937526,0.0028628337708317513,right,-0.008020460605621338,-0.014758065793535526,0.6613083383776247,-9.783256849452853,-0.007423052415140558,-0.022269638255238533,0.010161280632019043,0.14472208519475532,0.00021017808467149734
1746738816729385200,10.77438525390625,0.06682542010438294,-0.00038310373201966286,0.033392785007147055,-0.025083867833018303,0.0012222188165477855,0.9994063233702928,0.0030032498539533325,right,-0.008185803890228271,-0.016674533391250298,0.6547548981461674,-9.783401226359604,-0.008382670237556037,-0.06816404312849045,0.0046032145619392395,0.1635138976925984,0.0005383659154176712
1746738816769385200,10.81438525390625,0.06551707647680567,0.009553186595439911,0.03273553473801176,-0.037223756313323975,0.001288611108834944,0.9994156926846504,0.0032139742352110343,right,-0.005017876625061035,-0.019384254437001713,0.6419228891018778,-9.783771813237667,-0.009739394434667715,-0.06914971768856049,-0.00008162856101989746,0.19008284699795766,0.00036103278398513794
1746738816809385200,10.85438525390625,0.06389532474594031,0.026060355827212334,0.03191831083101866,-0.04763957858085632,0.0016193954614141923,0.9994269488545067,0.003949600787167873,right,-0.004222452640533447,-0.02218270615076178,0.6260188522011041,-9.78423066292107,-0.011148520513022715,-0.07070805877447128,-0.013070706278085709,0.21752035929877309,-0.0006128717213869095
1746738816849385200,10.89438525390625,0.06216974972035721,0.07389150559902191,0.03104093526737189,-0.0266314297914505,0.0026430350042445216,0.9994403006869691,0.006041315941863245,right,0.00861668586730957,-0.024192458276464702,0.6091060766492039,-9.784840319252014,-0.012183910840938107,-0.02668595314025879,-0.010406281799077988,0.23722398941190911,-0.01181840617209673
1746738816889385200,10.93438525390625,0.06205931175558813,0.12888383865356445,0.030960674878111428,0.007715240120887756,0.004814851918352862,0.9994368544062652,0.010370658143518322,right,0.002481997013092041,-0.023697769634577266,0.6080326752640307,-9.785023274603486,-0.012003606666876523,0.03093603625893593,-0.007502119988203049,0.23237415649425236,-0.008843581192195415
1746738816929385200,10.97438525390625,0.06266306043790826,0.13397856056690216,0.03123951795337467,0.017923932522535324,0.007507890026850703,0.9994235016593592,0.015696420492402427,right,0.0014083385467529297,-0.02144862422377927,0.6139714176632464,-9.785151284897326,-0.01096435365279696,0.057642050087451935,0.0010645166039466858,0.21032319606998934,-0.0009676031768321991
1746738816969385200,11.01438525390625,0.06355745650041239,0.10276848822832108,0.03167472372484329,0.017778737470507622,0.009823801322227025,0.9994022357673338,0.020259165772236416,right,-0.002524077892303467,-0.018887690794944127,0.6227551742300391,-9.785103938624262,-0.009760284442014119,0.05428547412157059,0.0045017823576927185,0.18521412671674042,-0.0008226260542869568
1746738817009385500,11.054385498046875,0.06388362650853481,0.06196479871869087,0.03183391905909994,-0.01402278058230877,0.011470210851333216,0.9993884406543051,0.023493022461366662,right,-0.010577678680419922,-0.01688622526702431,0.6259691678404807,-9.785250653618574,-0.008813242972836508,0.03405597433447838,0.0019065812230110168,0.1655895897218026,-0.00021146796643733978
1746738817049385200,11.09438525390625,0.06256246543626531,0.022268280386924744,0.031174625418460916,-0.05810851603746414,0.012269678434666212,0.9994047620825103,0.025043279173944,right,-0.011925458908081055,-0.015676233095996184,0.6130527684483676,-9.786261876487732,-0.008225194099831967,0.025698252022266388,-0.0016506388783454895,0.15372518360065296,-0.007122350856661797
1746738817089385200,11.13438525390625,0.05936906513510095,-0.006254855543375015,0.029586907592252108,-0.0892246812582016,0.012392383644094994,0.9994570523023596,0.025221687660056627,right,-0.002468287944793701,-0.014303623382376182,0.5818102195750922,-9.78837083146572,-0.007522304352037276,0.0393228679895401,-0.0014242418110370636,0.1402660008350387,-0.010619199834764004
1746738817129385200,11.17438525390625,0.05597633866782512,-0.008700055070221424,0.027903255170925897,-0.08456674963235855,0.012181307870440085,0.9995139064246649,0.024729144322671582,right,-0.002152740955352783,-0.012712213564932899,0.5486094493061304,-9.79049907566607,-0.006699090118802938,0.04068503901362419,-0.006405346095561981,0.12466101994607597,-0.014788361266255379
1746738817169385200,11.21438525390625,0.05324747112049397,-0.0038319858722388744,0.02654783434400895,-0.048109546303749084,0.01204560597911595,0.999556322611781,0.02440780617595355,right,0.0056008100509643555,-0.011530931654269633,0.5218979314586147,-9.792100081121921,-0.006087823844860085,0.009515125304460526,-0.0033234618604183197,0.11307745832661166,-0.010004449635744095
1746738817209385200,11.25438525390625,0.05218973079056149,0.008802151307463646,0.026017787631505408,-0.02217218279838562,0.012130100664098652,0.9995688854402559,0.024574218298751515,right,-0.0015880465507507324,-0.011675638007685703,0.5115392902579158,-9.792630242475866,-0.00615593866680583,-0.021255772560834885,-0.008198052644729614,0.11449644914590754,-0.0063868192955851555
1746738817249385200,11.29438525390625,0.05202087603373092,-0.0002482067793607712,0.025924433307412637,0.01730675995349884,0.012222140000176454,0.9995658731780607,0.024791819148930624,right,0.005153656005859375,-0.012997210697057561,0.5098774579929187,-9.792556592717766,-0.0068182344163104265,-0.046078767627477646,-0.0020257681608200073,0.12745566476644016,-0.0058435495011508465
1746738817289385200,11.33438525390625,0.052865765718782376,-0.002567264949902892,0.026335338912460576,0.02639983966946602,0.012186119299411593,0.9995489621686325,0.024773701851994234,right,0.0002047419548034668,-0.014813983069470188,0.5181378117401153,-9.791875040194391,-0.007731133237284904,-0.04131142422556877,-0.00045046955347061157,0.1452703849935904,-0.007813622243702412
1746738817329385200,11.37438525390625,0.05371248448603524,-0.0007708849152550101,0.026747363501933068,0.015225082635879517,0.012139843198888048,0.9995311999850607,0.024736060009186538,right,-0.003766655921936035,-0.016609324114864727,0.5264137283826247,-9.791156662791966,-0.008633036195061023,-0.04766358807682991,0.0005345754325389862,0.1628745038105175,-0.005583399906754494
1746738817369385200,11.41438525390625,0.054095533398295675,-0.004785742145031691,0.026926425262491758,0.006748901680111885,0.012117258178468149,0.9995177506070531,0.024747285182393646,right,-0.0013807415962219238,-0.018564453598837256,0.5301459371808916,-9.790617149087787,-0.009612603758198458,-0.04828859865665436,0.0023808814585208893,0.1820447942319326,-0.0036763539537787437
1746738817409385200,11.45438525390625,0.054834990401598366,0.0005055218935012817,0.027283311029692406,0.0160524919629097,0.012095620769343075,0.9994981245062016,0.02476588776947636,right,-0.005505621433258057,-0.02055346734865957,0.5373646363880485,-9.789842073062061,-0.010611344287653734,-0.05663368105888367,-0.001378435641527176,0.2015466364289634,0.001201121136546135
1746738817449385200,11.49438525390625,0.0552737753738648,-0.007218339946120977,0.02748623830491611,0.008671419695019722,0.012113908317672716,0.9994784196444553,0.024875947407174297,right,-0.002627134323120117,-0.02303036313604499,0.5416309885956346,-9.789076349386573,-0.011853311882972716,-0.07003409415483475,-0.0020484142005443573,0.22583090886324642,0.0074528660625219345
1746738817489385200,11.53438525390625,0.05584548897652889,-0.02049449272453785,0.027756725168481804,0.010629167780280113,0.011879884785063643,0.9994563127662842,0.024492516907873796,right,-0.0008981227874755859,-0.025811173574732477,0.5471902666905895,-9.788100197830795,-0.013241099562704327,-0.061230868101119995,-0.006365817040205002,0.2530932107276283,0.003158513456583023
1746738817529385200,11.57438525390625,0.056124521403047314,-0.026403145864605904,0.02788969626475326,0.004979223944246769,0.011413445991155537,0.9994443663076712,0.02361959194102196,right,-0.0013885498046875,-0.027822117612702268,0.5498917807342484,-9.787419229829311,-0.014235491447101617,-0.032898612320423126,-0.006324343383312225,0.2728067411802709,-0.0011836569756269455
1746738817569385200,11.61438525390625,0.056224045396780824,-0.03438335657119751,0.027941669763392418,0.004746498540043831,0.010826773557862228,0.99944232458897,0.022475698622112447,right,-0.0013086795806884766,-0.028836450932795098,0.5508500313071534,-9.787083129742742,-0.014726958319331037,-0.014953894540667534,-0.0072103701531887054,0.2827499699804932,-0.0024655647575855255
1746738817609385200,11.65438525390625,0.05632913392144017,-0.04124562442302704,0.02800390719034262,0.008629278279840946,0.010087369538691108,0.9994470906712272,0.02100339529294609,right,-0.002192556858062744,-0.029040440458958636,0.5518752827016636,-9.786967394408583,-0.014808853097785107,0.0029526501893997192,-0.004156898707151413,0.28474958283249285,-0.005919262766838074
1746738817649385200,11.69438525390625,0.05653000003145903,-0.045390017330646515,0.02811741756831381,-0.0019524293020367622,0.009276245736248632,0.9994536864131064,0.019377040050731046,right,-0.004433572292327881,-0.028822623608903905,0.5538446465458721,-9.78691829456985,-0.014678159489205837,0.0014315315056592226,-0.0037571974098682404,0.28261441570101303,-0.00024606287479400635
1746738817689385200,11.73438525390625,0.05613289458193551,-0.049091894179582596,0.027933765401742795,-0.014570813626050949,0.008287339576333272,0.9994683106632817,0.01739090092570415,right,0.0005267858505249023,-0.028771765405862335,0.5499589642189443,-9.787151518803835,-0.014623169560924118,0.014071195386350155,-0.001248978078365326,0.28211587332803756,-0.0024977978318929672
1746738817729385200,11.77438525390625,0.05540860063743314,-0.028663409873843193,0.027588237963677067,-0.015382830984890461,0.00744246513409042,0.9994916448603355,0.015663854918131454,right,-0.0026673078536987305,-0.02784351655928875,0.542884313124977,-9.787805014276504,-0.014132468327768521,0.04161076620221138,-0.00164128839969635,0.27301651147343214,-0.007738059386610985
1746738817769385200,11.81438525390625,0.05506137529089408,-0.01780092343688011,0.027428635468159043,-0.009467334486544132,0.006957059158842586,0.99951174015808,0.014639540730862126,right,-0.0042912960052490234,-0.026102821014362686,0.5395110372995957,-9.788452664530277,-0.013247219170181417,0.04753820225596428,-0.001943044364452362,0.255952326485794,-0.0012175869196653366
1746738817809385200,11.85438525390625,0.05539626639605417,0.0007314588874578476,0.02760392615099467,-0.0006412109360098839,0.006872845874555506,0.9995185622125909,0.01442750552540881,right,-0.007434070110321045,-0.024377262409747774,0.5428127091934905,-9.788697579202056,-0.012383103280331728,0.03567170724272728,-0.005067232996225357,0.23903576980791985,-0.0015262924134731293
1746738817849385200,11.89438525390625,0.055435870779289353,-0.005724188406020403,0.02762920731659558,-0.007596470415592194,0.006776559993842542,0.9995252271130618,0.01420457786843465,right,-0.0052367448806762695,-0.02327140633710844,0.5432147141231224,-9.78893431056738,-0.011827499318578193,0.02800227329134941,-0.007854234427213669,0.22819411259694022,-0.0036352183669805527
1746738817889385200,11.93438525390625,0.05880517437804247,-0.2768917679786682,0.02936568772242359,0.2138013243675232,0.003970722709484613,0.9995314701147389,0.008388150896009219,right,-0.0036431550979614258,-0.01506296289059242,0.576284113097377,-9.788588273608683,-0.007651384547420757,0.5299135446548462,-0.002913881093263626,0.14771177766318433,-0.021177096292376518
1746738817929385200,11.97438525390625,0.06535452020251459,-0.17091184854507446,0.03267129460854297,0.19003432989120483,-0.0004004616015897615,0.9994658735779945,-0.0008250577865016352,right,-0.002924501895904541,0.0007252248149486786,0.6404526704188436,-9.785711841389537,0.000375896751039903,0.36979469656944275,-0.003535620868206024,-0.007111889819081989,-0.012726891785860062
1746738817969385200,12.01438525390625,0.06697427568475997,-0.010488763451576233,0.033480319872279674,0.04212251305580139,0.0011352474410710252,0.9994385454909648,0.0023029627437562,right,0.005104720592498779,-0.0009311619043603439,0.6563021275881677,-9.784659701988101,-0.0005038722336977102,0.05908787250518799,-0.0029562339186668396,0.009131715483692824,-0.02053300105035305
1746738818009385500,12.054385498046875,0.06501864664461074,0.03557673841714859,0.03248918567828477,-0.006053227931261063,0.0034452333843163663,0.9994579877505875,0.007148319888292965,right,-0.002771914005279541,-0.007814798000533727,0.6371465415455401,-9.785630008324981,-0.004021471742956867,-0.06541954725980759,-0.0005197525024414062,0.07663635442955419,-0.013249972835183144
1746738818049385200,12.09438525390625,0.06358577282403345,-0.0004399232566356659,0.031749443190877524,0.006750196218490601,0.004827580582681095,0.9994564380803904,0.010123523760185169,right,0.00165635347366333,-0.0145637577083564,0.6230773188564926,-9.785793674454093,-0.007438937957658216,-0.10507364571094513,0.003254607319831848,0.14281678129639475,-0.00026877131313085556
1746738818089385200,12.13438525390625,0.06387275352347466,-0.02341311052441597,0.03187284431148655,0.029925305396318436,0.005300061404664023,0.9994263713664626,0.011243116828997054,right,0.0005470514297485352,-0.01993878190568819,0.6258275674127042,-9.784707048261165,-0.01014347702325444,-0.0904109999537468,0.002592034637928009,0.19551986868642268,0.005061959847807884
1746738818129385200,12.17438525390625,0.06464985503029179,-0.05067136511206627,0.03225285758127281,0.02121633291244507,0.0048954008296573795,0.9993931460442641,0.0105755705915362,right,-0.0008547306060791016,-0.024086493190454004,0.6333732335519046,-9.783324653992056,-0.012207380892192308,-0.07265806198120117,0.00033577531576156616,0.23618512961715457,0.0031435061246156693
1746738818169385200,12.21438525390625,0.06552170587427568,-0.057173941284418106,0.03269375202455701,0.019536694511771202,0.003926642778114225,0.999367368353924,0.008730149404499996,right,-0.0027484893798828125,-0.026603995995642414,0.6418616604339331,-9.78214450429678,-0.013437306472314252,-0.03278140723705292,-0.004221752285957336,0.26086547043062747,-0.0025505907833576202
1746738818209385200,12.25438525390625,0.06631253751481547,-0.042128272354602814,0.03310071922017187,0.01965421251952648,0.00295561066814104,0.999354025247453,0.006815518685895674,right,-0.002557992935180664,-0.027147462238553452,0.6495879438370465,-9.78149100882411,-0.013678732863600654,0.016336936503648758,-0.006255775690078735,0.26619313172679393,-0.005545452237129211
1746738818249385200,12.29438525390625,0.06697394340926874,-0.04366480931639671,0.03344388710884204,0.0071445610374212265,0.002171559339031138,0.9993526887108556,0.00521682014343955,right,-0.004447638988494873,-0.02599579673337625,0.6560774519868194,-9.781358322355151,-0.013077525074723265,0.046357445418834686,-0.00498247891664505,0.2549031462264247,-0.00331231951713562
1746738818289385200,12.33438525390625,0.06742345351468883,-0.057048406451940536,0.03368385915899264,0.008205829188227654,0.001180553657908515,0.9993592896906196,0.0031718223623853218,right,-0.0031340718269348145,-0.023993343098373934,0.6605072511278093,-9.781552383622527,-0.012043002219466624,0.05845657363533974,-0.0028642863035202026,0.23527190549606455,-0.0030382219702005386
1746738818329385200,12.37438525390625,0.06794676845351177,-0.06128506734967232,0.03396093824386641,0.007965554483234882,-0.000010877979274471906,0.9993638959104889,0.0007175862559377402,right,-0.005392193794250488,-0.021753571811692567,0.6656601038463413,-9.781706112879514,-0.010882481042182948,0.053433142602443695,-0.006155055016279221,0.21331300726942717,-0.003395708277821541
1746738818369385200,12.41438525390625,0.06826713449061698,-0.0615968257188797,0.03413454125823578,0.016520000994205475,-0.0012746910450667517,0.9993672428128757,-0.0018713906121835314,right,0.0012053251266479492,-0.01990175008647087,0.6688195907905697,-9.781869779008627,-0.009912979681452765,0.047207701951265335,-0.0014853477478027344,0.195156770995073,-0.004730492830276489
1746738818409385200,12.45438525390625,0.06945894257107967,-0.04682765528559685,0.03474044316899078,0.038672544062137604,-0.002428737429837625,0.9993511623169702,-0.004216998908542939,right,-0.0003247261047363281,-0.01852439058605085,0.6804952694065869,-9.781324420085548,-0.009183248600116089,0.02975715883076191,-0.0029388293623924255,0.18165197725575416,-0.006068520247936249
1746738818449385200,12.49438525390625,0.07127038171865076,-0.03566838055849075,0.03565280334803822,0.05239022895693779,-0.0033048272966708443,0.9993196165175123,-0.005975549585993459,right,0.0006454586982727051,-0.017911881770567045,0.6982201650589704,-9.78018518692255,-0.0088436527131812,0.00669054314494133,-0.0012846961617469788,0.1756463253664784,-0.004383080638945103
1746738818489385200,12.53438525390625,0.07356332711603168,-0.03754762187600136,0.03680567379996848,0.056787099689245224,-0.004057080063792367,0.9992734319538494,-0.0074453381010140835,right,-0.001544177532196045,-0.018333958169193462,0.7206382600288838,-9.778483643701671,-0.00902369830307288,-0.02249215543270111,-0.0010455921292304993,0.17978479514438658,-0.0011934470385313034
1746738818529385200,12.57438525390625,0.0758381563228305,-0.03459281101822853,0.03795093235635554,0.05479990318417549,-0.004779488054762824,0.9992220129617111,-0.008824178692284456,right,-0.0023388266563415527,-0.019562395767984037,0.7428634627752005,-9.776591546344756,-0.009606661869733135,-0.030062450096011162,-0.001501917839050293,0.19182948973588645,-0.004661169834434986
1746738818569385200,12.61438525390625,0.07802518138148858,-0.02454049326479435,0.039051188863664245,0.057519666850566864,-0.005414840245467553,0.9991729161141476,-0.010045230700627808,right,-0.0000464320182800293,-0.02032365162931657,0.7642316833660006,-9.77479472605586,-0.009957906345481951,-0.0016152802854776382,0.000057116150856018066,0.1992933776094578,-0.00894547626376152
1746738818609385200,12.65438525390625,0.08010947485009665,-0.010224745608866215,0.040095080214713606,0.0422699898481369,-0.0057640222980810795,0.9991314039849583,-0.010736511070620649,right,-0.0057836174964904785,-0.019996925682465833,0.7846087740276009,-9.7732451585263,-0.00977517823973811,0.012782447040081024,-0.002571985125541687,0.19608994192564858,-0.004937987774610519
1746738818649385200,12.69438525390625,0.08123452072942873,0.007559505291283131,0.04065664625166582,0.017489159479737282,-0.005801759843697675,0.9991101060909283,-0.010814805345444585,right,-0.007232487201690674,-0.019657934416595718,0.7956089645348489,-9.772422151705623,-0.00960099795070696,0.007508533075451851,-0.003148682415485382,0.1927662225967273,-0.0070110466331243515
1746738818689385200,12.73438525390625,0.08155348320064959,0.006225292570888996,0.04081347929300214,0.015131229534745216,-0.005671951969313034,0.9991070502578346,-0.01057441995793286,right,-0.0020661354064941406,-0.01910507876287614,0.7987344761442393,-9.772272514101862,-0.009328796324830316,0.01849946565926075,-0.00040259212255477905,0.18734558578748256,-0.0019890666007995605
1746738818729385200,12.77438525390625,0.08203028583005598,-0.014657950960099697,0.04105053700447906,0.01332278735935688,-0.005776943587327986,0.9991008893393545,-0.010817053548521437,right,-0.0036254525184631348,-0.018204511871098807,0.8034073633261024,-9.772054487437009,-0.008872583987839286,0.028180353343486786,0.0004873201251029968,0.17851557892616837,0.001201467588543892
1746738818769385200,12.81438525390625,0.0823544429682481,-0.03150315582752228,0.04121359188772625,0.007353357970714569,-0.0063333573387236025,0.9990971819214131,-0.011987382456775266,right,-0.001772165298461914,-0.016761708295416847,0.8065953457124531,-9.772040458911658,-0.008126778310672624,0.05063306540250778,0.0018025040626525879,0.16436866962471977,-0.005478951148688793
1746738818809385200,12.85438525390625,0.08238698397186577,-0.026681557297706604,0.04122842990523474,-0.005536428652703762,-0.007009167757163242,0.9991008836167048,-0.013433825740977406,right,-0.0034219026565551758,-0.014481547152697604,0.8069421133235096,-9.772361945950985,-0.006957799385462112,0.060406964272260666,0.0013575032353401184,0.14201065254528075,-0.008871089667081833
1746738818849385200,12.89438525390625,0.081979765772085,-0.0041570235043764114,0.04102010507461413,-0.011600455269217491,-0.007383715363737279,0.9991141185693597,-0.014280055856693306,right,-0.0038886666297912598,-0.012195952169733383,0.8029870190221816,-9.772987968894839,-0.005800082321056942,0.048562102019786835,0.00023349374532699585,0.11959862198997288,-0.009682999923825264
1746738818889385200,12.93438525390625,0.08169282561345631,0.019635727629065514,0.04087102943490094,-0.00191537756472826,-0.0072756664744966695,0.9991252326358886,-0.01412874618732642,right,0.0002372264862060547,-0.010645291661448517,0.8001968768469989,-9.773390704476833,-0.005029581036982614,0.028596187010407448,-0.002957545220851898,0.10439282388589344,-0.010229356586933136
1746738818929385200,12.97438525390625,0.08144066579632663,0.020001158118247986,0.040738502387672126,-0.008766939863562584,-0.0068772692860492165,0.9991367579506929,-0.013391520166349986,right,-0.0030261874198913574,-0.009196217100040236,0.7977438576716929,-9.773733234304188,-0.004321604679290023,0.03747133910655975,-0.006861470639705658,0.09018295975029468,-0.007856076583266258
1746738818969385200,13.01438525390625,0.0812160737891867,-0.00366298109292984,0.04062119234253645,-0.0014911014586687088,-0.006692261472580924,0.9991455297242112,-0.013078766170807334,right,-0.0002161860466003418,-0.0078020266711199895,0.7955581841956824,-9.774027833336591,-0.0036322297507193416,0.02535618096590042,-0.00626758486032486,0.07651111604811157,0.0005535748787224293
1746738819009385500,13.054385498046875,0.08169232023818619,-0.038035452365875244,0.040858198145878884,0.01381461787968874,-0.007132598507477061,0.9991342099605094,-0.013989054583698451,right,-0.0034245848655700684,-0.007053259958882475,0.8002174081783742,-9.773702254644036,-0.003237979025644446,0.01503800880163908,-0.007272250950336456,0.06916842513510492,0.0009545581415295601
