time,seconds_elapsed,roll,rotationRateZ,quaternionY,rotationRateY,quaternionZ,quaternionW,yaw,devicelocation,accelerationZ,pitch,gravityX,gravityZ,quaternionX,rotationRateX,accelerationX,gravityY,accelerationY
1746738742507569200,0.557569091796875,0.07220113489031377,0.014367419295012951,0.03589503123886571,-0.06603962928056717,-1.1208462276582334e-17,0.9975279890257228,0.004368644750095575,right,0.009113132953643799,-0.12081362051911507,0.7022792311914264,-9.709804659751057,-0.060409300981996525,0.19095544517040253,-0.014098327606916428,1.181896100553125,-0.014559522271156311
1746738742547569200,0.597569091796875,0.0711523232298168,0.030348889529705048,0.03536481834385722,-0.02126355841755867,0.00038100575262550284,0.9976705280401508,0.004919525811732284,right,0.009500324726104736,-0.11663084550479236,0.6924404856789856,-9.715382167622446,-0.05833266275176354,0.09368688613176346,-0.006496459245681763,1.1411658846274018,0.007712103426456451
1746738742587569000,0.63756884765625,0.0600386940775166,-0.011944539844989777,0.02985469116324736,0.05340712144970894,0.0005744896480236732,0.9981162482806409,0.0043719056779302325,right,0.0006289482116699219,-0.10715461623559351,0.5850493841594084,-9.732835406726599,-0.05359294386920648,-0.08489689975976944,0.01006503775715828,1.0488172712758184,0.01954999566078186
1746738742627569200,0.677569091796875,0.06349727930511105,-0.03562579303979874,0.0315897879419831,0.031095337122678757,-0.00024266892987593268,0.9977366239193833,0.0032892974919779805,right,-0.008924365043640137,-0.11874637520754065,0.6178946555215865,-9.71796692341864,-0.05936044115585903,-0.054546184837818146,0.0074727460741996765,1.161768600738421,-0.014116056263446808
1746738742667569200,0.717569091796875,0.06568204280093701,-0.008505823090672493,0.032688811741404936,0.003756122663617134,-0.0005423451238299939,0.9976474123807225,0.002878093585086525,right,-0.0037292838096618652,-0.1205540659238429,0.6389857396714389,-9.714482588434219,-0.060255162090495064,-0.0263466015458107,0.006198309361934662,1.1793692854892461,-0.015520825982093811
1746738742707569200,0.757569091796875,0.06655583531180727,0.004245772026479244,0.033118249863128495,0.005303968209773302,-0.00039370404760594814,0.997677410380597,0.0031793883070019295,right,-0.001628100872039795,-0.11907237714344057,0.6475894634962082,-9.71565338577926,-0.05952080558264579,-0.020380282774567604,0.003707997500896454,1.1649429929908364,-0.009171262383460999
1746738742747569200,0.797569091796875,0.06742901994027717,0.01699736714363098,0.03354765990690127,0.00685181375592947,-0.00024504890999720334,0.9977066747181559,0.003479353189624716,right,0.00047028064727783203,-0.11759042140138666,0.6561883650153875,-9.716796126073598,-0.05878640133986529,-0.014413964934647083,0.0012181773781776428,1.1505116589911282,-0.002821192145347595
1746738742787569200,0.837569091796875,0.06921042764134236,0.007810376118868589,0.034415613133178216,0.03073974885046482,0.0001589573394557268,0.9977343091458898,0.00432494551768891,right,0.0001780986785888672,-0.11559684747050233,0.6736541713401675,-9.717880414178968,-0.057806228199222175,-0.03543410450220108,0.0035154223442077637,1.1310940610114484,0.0026088133454322815
1746738742827569000,0.87756884765625,0.07042564042163811,0.005759293679147959,0.035017579601523484,0.04636407271027565,0.0002158616552171086,0.9977230203795918,0.004497382521829037,right,0.003356039524078369,-0.11525631732721892,0.6854900089539587,-9.717438515630365,-0.05763945728101353,0.01843646541237831,0.008764684200286865,1.127776826222241,0.00014450401067733765
1746738742867569200,0.917569091796875,0.07472335744500207,-0.007047979161143303,0.03718502189888667,0.06786847859621048,-0.00002958862064771021,0.9977933384926627,0.004056351701981934,right,-0.003960609436035156,-0.10999511420154429,0.727679264581576,-9.72018518399,-0.05500700386791059,0.15281277894973755,0.010675758123397827,1.0765089957997203,0.006308414041996002
1746738742907569200,0.957569091796875,0.07657176107386675,-0.010396083816885948,0.03812803807343782,0.017459876835346222,-0.0002541923376520181,0.9978606985268413,0.003562465312442524,right,-0.015215158462524414,-0.10620442226420085,0.7459516380488872,-9.722821962234377,-0.05310635941033653,0.14055858552455902,0.0049470216035842896,1.0395520148023962,0.006891608238220215
1746738742947569200,0.997569091796875,0.07652033017028322,-0.016927193850278854,0.038128836998286994,-0.08484730869531631,-0.0005533187854956802,0.9979616035721419,0.0028124473780140047,right,-0.021713197231292725,-0.10235224022791214,0.7457521699540317,-9.726781513515114,-0.05117002094727226,0.08173180371522903,-0.0073715075850486755,1.0019802629075945,0.002992294728755951
1746738742987569200,1.037569091796875,0.07397272402505277,-0.02917938120663166,0.03688624374890673,-0.09891492128372192,-0.0009853332264837449,0.9980433442352715,0.0017658517412482131,right,-0.01260608434677124,-0.10099668577201297,0.721069491053,-9.72999521486461,-0.050474953562737936,0.07853249460458755,-0.010459892451763153,0.9887554551534354,-0.0000860169529914856
1746738743027569200,1.077569091796875,0.0683749078358732,-0.06952895224094391,0.03415662157034931,-0.14380516111850739,-0.002020427888737397,0.9982133026168286,-0.0006908123310515322,right,-0.0031090378761291504,-0.09808491277311183,0.6667856007449329,-9.736710202333331,-0.04898236315503986,0.07306955009698868,-0.019821733236312866,0.9603420652914791,0.0047680288553237915
1746738743067569000,1.11756884765625,0.061918555394830356,-0.07531214505434036,0.031031616283074357,-0.09753391891717911,-0.0038362474470895512,0.9983699664354124,-0.004718376509486793,right,0.00859755277633667,-0.09571915131882704,0.6040474050201475,-9.74305226483643,-0.047745307811642074,0.03698629140853882,-0.013504106551408768,0.9372507472351193,-0.0002699345350265503
1746738743107569200,1.157569091796875,0.059226277117534476,-0.021137449890375137,0.02973592536100781,-0.019189268350601196,-0.004783552479055191,0.9984137270192402,-0.006753702612529591,right,0.0073645710945129395,-0.09541564705046453,0.5778310502784326,-9.744926826536656,-0.047568680193694986,0.03347845748066902,-0.008454184979200363,0.9342879519067704,-0.004529103636741638
1746738743147569200,1.197569091796875,0.059244038188873534,0.010439738631248474,0.029744173402088413,0.02354162558913231,-0.004777591913765307,0.9984393957298705,-0.006773174371329594,right,0.003315150737762451,-0.0943210501160181,0.5780643475776538,-9.745931619665026,-0.04702190626390285,0.050173625349998474,-0.004236944019794464,0.9236018688499927,-0.0011675134301185608
1746738743187569200,1.237569091796875,0.05926182485997221,0.042016927152872086,0.02975241643749868,0.06627251952886581,-0.004771648583684224,0.9984647635764408,-0.006792700618495146,right,-0.0007355809211730957,-0.09322645783012713,0.5782972064854577,-9.746924722355603,-0.04647511986996649,0.06686879694461823,-0.000019650906324386597,0.912914762879908,0.0021941959857940674
1746738743227569200,1.277569091796875,0.06265424976638916,0.05105523765087128,0.03139983351605428,0.08315099030733109,-0.0038424676868056033,0.9984975602531743,-0.004883244199619175,right,-0.005131661891937256,-0.08971175780989721,0.6115566846717149,-9.748048757949471,-0.04474230470693433,0.07839293777942657,0.0027213506400585175,0.8785914183218032,-0.0022460520267486572
1746738743267569200,1.317569091796875,0.06458621593014724,0.05037439614534378,0.0323352342057404,0.057498909533023834,-0.003208878223819746,0.9985191485341337,-0.0036004791934804953,right,-0.006921350955963135,-0.08744869249513039,0.6305151407070457,-9.748808636406064,-0.04362948783970561,0.08513054996728897,0.003067389130592346,0.85648531191051,-0.006589196622371674
1746738743307569200,1.357569091796875,0.06650128759532058,0.03970888629555702,0.033251818378573314,0.02337002009153366,-0.002256600840278008,0.998574092010517,-0.001739720513122272,right,-0.005823254585266113,-0.0835255357179466,0.6494019197456539,-9.750860892760754,-0.041698647384669586,0.0873110368847847,0.005119122564792633,0.818152804776281,-0.0047636330127716064
1746738743347569200,1.397569091796875,0.06735710992238059,0.018589608371257782,0.0336672160723326,0.021262062713503838,-0.0019255893478534296,0.9986097420453488,-0.001121644827877853,right,-0.003480970859527588,-0.08113048702608383,0.657876683428511,-9.75222867398262,-0.040512250275656615,0.062440574169158936,0.003558248281478882,0.7947449681166558,-0.005741648375988007
1746738743387569200,1.437569091796875,0.06821126414178479,-0.0025296714156866074,0.03408255074852556,0.019154107198119164,-0.0015945961393857603,0.9986436299907363,-0.0005057869984843943,right,-0.001145005226135254,-0.07873491973653476,0.6663342037156224,-9.75353449588418,-0.03932579051472834,0.03757011145353317,0.0019991323351860046,0.771327486845851,-0.006718680262565613
1746738743427569200,1.477569091796875,0.06962989386700931,-0.011706464923918247,0.03480203574339706,0.03097056970000267,-0.0018549423548408677,0.9986539159809268,-0.0010341449736660107,right,-0.001676023006439209,-0.07693053045599244,0.6802659176301211,-9.753951844513416,-0.03841448827422066,0.05018751323223114,0.001581542193889618,0.7536861047584563,-0.017325684428215027
1746738743467569200,1.517569091796875,0.07047252514623169,-0.015772178769111633,0.035233839335007726,0.02199973724782467,-0.0021086540135085634,0.99867700300905,-0.0015811065272967211,right,-0.004753172397613525,-0.07490734300216291,0.6885906053178013,-9.7548765581429,-0.03739383116391679,0.09812936186790466,-0.0013393983244895935,0.7339025230105966,-0.022426996380090714
1746738743507569200,1.557569091796875,0.07033075788753584,-0.0433773398399353,0.03519136489075425,-0.023942111060023308,-0.0027855287468954277,0.9987804063066299,-0.0031423475297344843,right,-0.004013121128082275,-0.06920225259347541,0.6874907543171197,-9.758991592246293,-0.03451758659375784,0.12463013827800751,0.005140393972396851,0.6780999717678874,-0.005479194223880768
1746738743547569200,1.597569091796875,0.06978819921102988,-0.029655801132321358,0.03495224480026654,0.00019102729856967926,-0.0037091264683012186,0.9988540412404366,-0.005150047728192897,right,-0.008012831211090088,-0.06519588782438984,0.6823797679789364,-9.761994865715502,-0.0324824371092001,0.014424636960029602,0.007850997149944305,0.6388995957579463,-0.0015897229313850403
1746738743587569000,1.63756884765625,0.06957068013082127,0.004723730962723494,0.034855301832528274,-0.01008753664791584,-0.004060813666616557,0.9988493246268452,-0.0058460504853113755,right,-0.0016083717346191406,-0.0656353377418823,0.6802367646008729,-9.761862179246544,-0.03269018577868125,-0.02615240402519703,-0.0007407143712043762,0.6431999233003706,-0.01612112671136856
1746738743627569200,1.677569091796875,0.06982269076531117,0.03748674690723419,0.03497066586251726,-0.0018446799367666245,-0.0037419269866262998,0.9988377596897949,-0.00518146591324766,right,-0.0036228299140930176,-0.06614699424395087,0.6826737824894488,-9.761361243987082,-0.03295683004236911,-0.009076442569494247,-0.0030799731612205505,0.6482067186117172,-0.01617228239774704
1746738743666802700,1.716802734375,0.06989525888605412,0.041378602385520935,0.034969379580137516,0.002094459719955921,-0.002602345222533565,0.9988451377908426,-0.0029080714232715766,right,0.0032503909897059202,-0.06583724354662832,0.6833961054146289,-9.761511466112733,-0.032841771054257035,-0.00019490171689540148,0.0003635822213254869,0.6451756803527474,0.004118169192224741
1746738743706802700,1.756802734375,0.06980240980812831,0.015136027708649635,0.034917512332147446,-0.003787335939705372,-0.002421438760830671,0.9988605344089558,-0.0025771706518455313,right,-0.003463923931121826,-0.06502642504031514,0.6825260445818304,-9.762093065392971,-0.032442720770790495,-0.0009758577216416597,0.0009756907820701599,0.6372413071569055,0.0057664066553115845
1746738743746802700,1.796802734375,0.069709292465752,-0.011106546968221664,0.034865639697285095,-0.009669131599366665,-0.0022405203628177855,0.9988756240637602,-0.0022461884906287482,right,-0.010178923606872559,-0.06421562045219477,0.6816527688786387,-9.762668819454312,-0.032043659846398585,-0.001756813726387918,0.0015881359577178955,0.6293066417001187,0.007414683699607849
1746738743786802400,1.836802490234375,0.06819577476383547,-0.015413317829370499,0.03412120966623904,-0.03902694955468178,-0.0025936183744902407,0.9988733336996486,-0.0029441359750415155,right,0.0014590620994567871,-0.06590597349618889,0.66680262494497,-9.762614458918572,-0.0328776809564203,-0.06334806978702545,-0.0012431591749191284,0.645848245852068,-0.0021340176463127136
1746738743826802400,1.876802490234375,0.06765913687503251,0.00472642295062542,0.03384480111646322,-0.023685352876782417,-0.002359059399948742,0.9988520589895329,-0.0024292587772572743,right,0.000851750373840332,-0.06776680402938873,0.6614811376612633,-9.761754627218842,-0.03381645134851802,-0.05545195937156677,-0.0013277530670166016,0.6640560296505689,-0.0009227544069290161
1746738743866802700,1.916802734375,0.06712338872772676,0.024866163730621338,0.03356836220150634,-0.008343754336237907,-0.002124498824706849,0.9988296269677167,-0.0019153175288088636,right,0.00024062395095825195,-0.06962789493057783,0.6561671030316502,-9.760857970640062,-0.034755184944986105,-0.04755584895610809,-0.0014131143689155579,0.6822640326447784,0.0002884864807128906
1746738743906802700,1.956802734375,0.06709712968090895,0.030827200040221214,0.03353227675460778,0.006034912541508675,-0.0015011268932970075,0.998808899247402,-0.0006254139290076739,right,0.002118825912475586,-0.0708980594498123,0.6558521918635815,-9.760002230593562,-0.03541118164003785,-0.022219421342015266,-0.00007867813110351562,0.6946893605843186,0.001451149582862854
1746738743946802700,1.996802734375,0.06738029845655645,0.012760281562805176,0.03365203486038218,0.005516055505722761,-0.0009090435875118074,0.9987984888355789,0.0005823301364491428,right,-0.0004597902297973633,-0.0712575934856006,0.6585990063536912,-9.759566761785745,-0.0356108483341424,0.0016007348895072937,0.0005468577146530151,0.6982062826640903,0.0010367855429649353
1746738743986802700,2.036802734375,0.06742195176092046,-0.003119919914752245,0.03366629681092385,-0.006611785851418972,-0.0007344822792311965,0.9987943865052747,0.0009401240094258529,right,-0.003948688507080078,-0.07145812951249378,0.658996115912497,-9.759399004003406,-0.035716999108500715,-0.017040260136127472,0.003100380301475525,0.7001678650606423,0.0034450292587280273
1746738744026802400,2.076802490234375,0.06715779632895684,-0.016638657078146935,0.033536421140724644,-0.016783108934760094,-0.0008289815177654773,0.9987794961923034,0.0007775673659118848,right,-0.006202638149261475,-0.0725328348415913,0.6563672287136316,-9.758816820201277,-0.036251069602863256,-0.03254105523228645,-0.0006412938237190247,0.7106798336595297,0.0016578808426856995
1746738744066802400,2.116802490234375,0.06696041103033484,-0.008062289096415043,0.03345207924418974,-0.0006730607128702104,-0.0012530188908530205,0.9987628699823682,-0.0000429750348792605,right,-0.0015000104904174805,-0.07359966757468034,0.654389864226058,-9.758183782994747,-0.03677019263531647,-0.014490975998342037,-0.004249062389135361,0.7211139147166162,-0.00012067705392837524
1746738744106802700,2.156802734375,0.06691110468059032,0.00028613582253456116,0.033427925444742025,-0.005218180827796459,-0.0012785332550345487,0.9987560258722961,-0.00008198234829776514,right,-0.002077937126159668,-0.0740150074803695,0.6538886367056519,-9.75791665649116,-0.03697698347457863,-0.010754428803920746,-0.0048636943101882935,0.725175976523757,0.001237615942955017
1746738744146802700,2.196802734375,0.06684165408509665,0.009759888984262943,0.03338316928740227,-0.0025305941235274076,-0.001023373793455538,0.9987481639983378,0.0004431328641136176,right,-0.0024094581604003906,-0.0745153563741294,0.6531866259161383,-9.75759867658317,-0.037235658120514534,-0.010224809870123863,-0.003254994750022888,0.7300691553927957,0.0009879469871520996
1746738744186802700,2.236802734375,0.06666526564095047,0.009690526872873306,0.03328803401974452,-0.0007978829089552164,-0.0008437035025402671,0.9987451247451229,0.0008073187712027254,right,-0.0008549094200134277,-0.07484425736920274,0.6514494268599897,-9.757473588898778,-0.0374060554798576,-0.006330518983304501,-0.0013509318232536316,0.7332856332212686,0.0002667531371116638
1746738744226802700,2.276802734375,0.06682067076180259,-0.0025204189587384462,0.033358235636009634,-0.0015303515829145908,-0.000665360728992218,0.9987352993958772,0.0011835205138825261,right,-0.00642704963684082,-0.0752403442927434,0.6529463874194771,-9.757081374710797,-0.03761005707566615,-0.011003462597727776,-0.0031221285462379456,0.7371589675232768,0.0015728920698165894
1746738744266802400,2.316802490234375,0.06689179605601793,-0.0008686130167916417,0.03339719076227424,0.006280592642724514,-0.0007619837683565495,0.9987322402339713,0.000996014329143399,right,-0.007214009761810303,-0.07533912072846895,0.6536354656621813,-9.756962716767191,-0.037656226109189325,-0.003561209887266159,-0.0027806907892227173,0.7381248899459838,-0.0027219057083129883
1746738744305864200,2.3558642578125,0.06685270791458896,-0.008249661885201931,0.03338378581978574,-0.0018684158567339182,-0.0009352171584978475,0.9987267482006675,0.0006581357672612451,right,-0.001839325181208551,-0.0756530422013708,0.6532385752990841,-9.756756380540132,-0.03780736602250365,-0.01000567153096199,-0.0021543048787862062,0.7411946527801454,-0.004842220805585384
1746738744345864000,2.395864013671875,0.06650551991770094,-0.0067452676594257355,0.033219085022369046,-0.005723468493670225,-0.0011715190197006343,0.998724760602393,0.00018502873368727774,right,-0.0021842122077941895,-0.0760510039545701,0.6498314702693373,-9.756687406957148,-0.03799839780754007,-0.012346189469099045,-0.002286963164806366,0.7450861072607338,-0.004558265209197998
1746738744385864000,2.435864013671875,0.06615812829166846,-0.005240872967988253,0.03305437807567867,-0.009578521363437176,-0.0014078161063793095,0.9987226502187951,-0.0002882222791823692,right,-0.002529442310333252,-0.076448796368587,0.6464223924782126,-9.756616095286606,-0.038189422598099126,-0.014686708338558674,-0.002419397234916687,0.7489757351104169,-0.004274114966392517
1746738744425864000,2.475864013671875,0.06533871956146706,-0.0067863985896110535,0.03264802403108775,-0.03235853835940361,-0.0014545288031201338,0.9987434387681342,-0.0004258525869264741,right,-0.0032601356506347656,-0.07605843809751278,0.638446518228203,-9.757433256888389,-0.03799281667902656,0.020175311714410782,-0.00111350417137146,0.7451588071707635,-0.002994447946548462
1746738744465864000,2.515864013671875,0.06437827277566473,0.003992481157183647,0.03217431777231239,-0.01666378043591976,-0.0015630305085367804,0.9987787295531464,-0.0007136038687077693,right,0.00018543004989624023,-0.07500391213417994,0.6291249284576624,-9.758820911854505,-0.03746226632277675,0.04000753536820412,0.0033167749643325806,0.7348468911886215,-0.004503019154071808
1746738744505864000,2.555864013671875,0.06416288580134748,0.04235279560089111,0.032052642548510084,-0.0008043557172641158,-0.001109869644617286,0.9988239758963028,0.0001139463609595031,right,-0.006624996662139893,-0.07276688248514816,0.627126813443005,-9.760572139436006,-0.03635852548636962,0.03369791805744171,0.003966175019741058,0.7129689675100147,-0.004871353507041931
1746738744545864000,2.595864013671875,0.06392519708733417,0.06806879490613937,0.031891570230575116,0.005731301382184029,0.0000972577641655909,0.9988429284813555,0.0024965603608122877,right,-0.0031480789184570312,-0.07196045819330012,0.6248433786809444,-9.76129168588221,-0.03599393361198703,0.04219522699713707,0.004326462745666504,0.7050813560653477,-0.00873766839504242
1746738744585864200,2.6358642578125,0.06368561221506969,0.09378479421138763,0.03173045160246766,0.012266959995031357,0.0013043719257024725,0.9988603614979862,0.004879203518173107,right,0.00032824277877807617,-0.07115462194835616,0.6225406546965241,-9.762004802587628,-0.035629290190609585,0.05069253593683243,0.00468870997428894,0.697199005317688,-0.012604523450136185
1746738744625864000,2.675864013671875,0.0636275212099088,0.0802873969078064,0.031623361211348074,-0.020267054438591003,0.0036105779173389576,0.9988768926246943,0.009456070133905774,right,-0.003173649311065674,-0.06994360121544296,0.6220267868902534,-9.76287632472515,-0.03509688946625994,-0.017538772895932198,-0.001035645604133606,0.68535250017941,0.009192831814289093
1746738744665864000,2.715864013671875,0.06380876604078597,0.07248212397098541,0.031664845140505306,-0.014528954401612282,0.004887469539084181,0.9988514817707557,0.012050429337361621,right,-0.001650691032409668,-0.07091855314115644,0.6237533184219152,-9.76209248087108,-0.03562523785450261,-0.03038981556892395,-0.0037288442254066467,0.6948898515924811,0.008079171180725098
1746738744705864000,2.755864013671875,0.0639925455080305,0.06467685103416443,0.03170626354926027,-0.008790855295956135,0.006164335452899096,0.9988241276990116,0.014645113140708453,right,-0.00012892484664916992,-0.0718930299316626,0.625503815351054,-9.761296946579217,-0.0361535173587565,-0.043240856379270554,-0.006424490362405777,0.7044217961780727,0.006966054439544678
1746738744745864000,2.795864013671875,0.06410478101578793,0.051180172711610794,0.031696252385750176,0.011083015240728855,0.007636751213888396,0.9987708065041133,0.017670918837388683,right,0.006683707237243652,-0.07416028709890139,0.6264954567369073,-9.759607678318023,-0.03733411156029501,-0.0491250678896904,-0.00439298152923584,0.7265967300418764,-0.0038518384099006653
1746738744785864000,2.835864013671875,0.06449609382394873,0.05324266478419304,0.03183620724050979,0.0021373056806623936,0.008914005201239946,0.9987319841959097,0.020281773706396455,right,-0.003419220447540283,-0.07534129540877581,0.6302586817279457,-9.758498840293287,-0.03796695024359041,-0.010200673714280128,-0.008688487112522125,0.7381461519297212,-0.008207380771636963
1746738744825864200,2.8758642578125,0.06428440787864517,0.051334019750356674,0.03169951435382396,-0.018412329256534576,0.009671401638490187,0.9987216581583371,0.021801859003474762,right,-0.0015980005264282227,-0.07569189622927992,0.6281763224959374,-9.758373168087005,-0.03816518712347406,-0.010209496133029461,-0.006959877908229828,0.7415745920084417,-0.005188509821891785
1746738744864936400,2.9149365234375,0.06374712265045696,0.044137176126241684,0.0313869010276989,0.002234090119600296,0.01081682630853618,0.9987160621635561,0.024079202979081973,right,0.002859631786122918,-0.07581868857442635,0.6229271697960793,-9.758615160149334,-0.038261666839833716,-0.0002078954130411148,0.0028947540558874607,0.742814436001703,-0.001586313359439373
1746738744904936200,2.954936279296875,0.06441699523933789,0.019607748836278915,0.03170014663235342,0.010795165784657001,0.01130242906269244,0.998694545293248,0.025086739226710297,right,-0.0007762312889099121,-0.07610631110388553,0.6294502879545092,-9.757982122942805,-0.03842488172915522,-0.012278520502150059,0.003387242555618286,0.7456269361391663,0.0015576109290122986
1746738744944936200,2.994936279296875,0.06508717182992325,-0.004921680316329002,0.03201338031965994,0.019356241449713707,0.011788031554661462,0.9986726631165939,0.026094498004713775,right,-0.004412710666656494,-0.07639325597004751,0.6359757442004979,-9.757344409561156,-0.038588080806297165,-0.024349145591259003,0.0038795098662376404,0.7484327142748981,0.004702232778072357
1746738744984936200,3.034936279296875,0.06636426492645203,-0.03486238792538643,0.032656088238311336,0.025358853861689568,0.011418654760056072,0.9986351089290133,0.02544072506393014,right,-0.0017944574356079102,-0.07748060156971241,0.6483819290481507,-9.755706579226255,-0.03912784501763355,-0.016662241891026497,0.0014122352004051208,0.7590643637306987,-0.0009787678718566895
1746738745024936200,3.074936279296875,0.0668801153908989,-0.03851894289255142,0.0329362469046121,-0.00043621473014354706,0.010711997785004507,0.998621916790594,0.024067457126918435,right,-0.009230494499206543,-0.07812243908827762,0.6533816370315849,-9.754882403361798,-0.03942864810646222,-0.012949292548000813,0.0006442070007324219,0.7653395715426653,-0.0017132163047790527
1746738745064936200,3.114936279296875,0.06620588666537736,-0.039294321089982986,0.0326315551642265,-0.00682463962584734,0.009729351322881143,0.9986220986986388,0.022108919933000057,right,0.0023140311241149902,-0.07919710351593218,0.6467496516712009,-9.754494280827045,-0.03992967286843506,-0.023579496890306473,0.001285843551158905,0.7758458410531281,-0.0072803497314453125
1746738745104936400,3.1549365234375,0.06578528460724269,-0.022988680750131607,0.0324356585174076,0.006725179962813854,0.009283321714319727,0.9986211533108993,0.02121921839306823,right,0.005206763744354248,-0.07980915537256046,0.6426155475411564,-9.754289698165655,-0.04021879533819644,-0.008968129754066467,0.002642914652824402,0.7818290801811962,-0.008581243455410004
1746738745144936400,3.1949365234375,0.06646121914316726,-0.00620291568338871,0.03277880400782669,0.02171069011092186,0.00903173997453026,0.9986002560921761,0.020762893548078944,right,-0.001351475715637207,-0.0804126975771191,0.6491771710790694,-9.753380766627192,-0.04051579377049942,-0.026354815810918808,-0.0011686831712722778,0.7877288057442754,0.004738554358482361
1746738745184936200,3.234936279296875,0.06767856459463088,-0.02686101198196411,0.033396089018838206,0.023439813405275345,0.00854319303313643,0.9985542486155652,0.019884308674192865,right,0.00024759769439697266,-0.08188700959641755,0.6609707039210945,-9.751413850468397,-0.0412426984024062,-0.022047648206353188,0.000870831310749054,0.8021393161516636,0.002141125500202179
1746738745224936200,3.274936279296875,0.068392825884998,-0.026006534695625305,0.033774216928537694,0.014390690252184868,0.007852654744830536,0.9985261165632434,0.018567247485877975,right,-0.0023251771926879883,-0.08294290173367215,0.6678773415043949,-9.750088739344477,-0.04175066945864429,-0.03160640224814415,0.00019687414169311523,0.8124589039836079,0.004017867147922516
1746738745264936200,3.314936279296875,0.06874941536893846,-0.01101069524884224,0.033961791321810444,0.005391240119934082,0.0074055388996661165,0.9984920894980532,0.01773890154835502,right,-0.0006209611892700195,-0.08444752545572293,0.6712693220302463,-9.748619835835695,-0.04248917020395397,-0.03210166096687317,-0.002316392958164215,0.82716262518391,-0.0026014745235443115
1746738745304936200,3.354936279296875,0.06904780148665382,0.012338057160377502,0.0341036241004679,0.00261039100587368,0.007451873198138771,0.9984691270059356,0.017873200829038163,right,-0.00019598007202148438,-0.08527215505215861,0.6741308489412069,-9.747734869694709,-0.04290424289857107,-0.007070150226354599,-0.00197003036737442,0.8352203324984758,-0.0014250501990318298
1746738745344936400,3.3949365234375,0.06917540349857565,0.013437950983643532,0.0341534598077141,-0.0014004544354975224,0.00777566433188768,0.9984650008471135,0.018526319851243995,right,-0.0025728344917297363,-0.08524526249186223,0.6753762458924204,-9.747671156808734,-0.04290244969364681,0.00011815037578344345,-0.0015266165137290955,0.8349575899090618,0.004419796168804169
1746738745384936400,3.4349365234375,0.06922389954984566,-0.010859053581953049,0.03417711012913375,0.004307197406888008,0.007815160881292452,0.9984679472288984,0.018600770182740246,right,0.00037747621536254883,-0.085052579471807,0.6758600838866085,-9.747799167102574,-0.04280771946326359,0.00599257368594408,-0.0005056485533714294,0.8330748449023813,0.003097720444202423
1746738745424936200,3.474936279296875,0.06940971471238376,-0.03760091960430145,0.03429317846210108,0.010834254324436188,0.0073042079624012135,0.9984743041290806,0.01757586896718787,right,0.0009669661521911621,-0.08478490868559692,0.6776867878571152,-9.747895028692483,-0.042657249534387015,0.007089482620358467,0.0006174817681312561,0.8304594017069786,0.0024623051285743713
1746738745464936200,3.514936279296875,0.07006396356575295,-0.05656201392412186,0.034663331910867644,0.024772867560386658,0.006266356883034317,0.9984692217276695,0.015526231559227456,right,-0.00223541259765625,-0.08482166383052352,0.6840620950426906,-9.747419227874278,-0.0426424835635595,-0.0006836578249931335,0.0013272538781166077,0.8308185173429549,-0.0017489790916442871
1746738745504936200,3.554936279296875,0.07101667938826267,-0.051957499235868454,0.0351900019695628,0.02434457279741764,0.005054305752881444,0.9984600672762556,0.013137809914645991,right,-0.004870772361755371,-0.08478643150526823,0.693350367065519,-9.746792620408534,-0.04258588213533267,0.0145250940695405,-0.00007956475019454956,0.8304742339499295,-0.00897468626499176
1746738745544936200,3.594936279296875,0.07156136462968131,-0.03620615229010582,0.03550528979325457,0.012614872306585312,0.004093788114381743,0.9984689581314067,0.0112127841050107,right,-0.003701627254486084,-0.08411354951961679,0.69869896155186,-9.74696856149733,-0.042217187142652005,0.021013088524341583,0.0020034760236740112,0.8238990202780813,-0.007751345634460449
1746738745584936400,3.6349365234375,0.07166388588021569,-0.027055993676185608,0.035589458276771915,0.006656097713857889,0.0033777912481748698,0.9984846337709294,0.009757246201576548,right,-0.00045877695083618164,-0.08340116789090639,0.6997400681026279,-9.747480018150807,-0.04183586800520307,0.018574083223938942,0.0038150399923324585,0.8169374376371502,-0.009663835167884827
1746738745624936400,3.6749365234375,0.07178959462002305,-0.01288593653589487,0.0356697927720868,0.0009845779277384281,0.0030029950667439134,0.9984945527067935,0.00899266285742545,right,0.0008857250213623047,-0.08287150368657942,0.7009963517740369,-9.747821963456273,-0.04155801979045012,0.008332605473697186,0.0018321424722671509,0.8117611309777945,-0.0060250163078308105
1746738745664936200,3.714936279296875,0.07172634635068549,-0.01754169911146164,0.03564986928941879,-0.00890875793993473,0.0027686486171553952,0.9985070142991295,0.008502170945511475,right,-0.0016518831253051758,-0.0823594783741306,0.7004095648620278,-9.748279644095897,-0.04129355335013289,0.00815464649349451,0.003411531448364258,0.8067570390801876,0.0010437965393066406
1746738745704936200,3.754936279296875,0.07132736989125725,-0.023589011281728745,0.03547002788636548,-0.014847848564386368,0.0023300255123618017,0.9985205962494748,0.0075978194366739275,right,-0.0027646422386169434,-0.0820999329605143,0.6965350615162402,-9.748766550830005,-0.04114738616147787,0.0007253321819007397,0.0017374977469444275,0.8042203602094202,-0.0009947270154953003
1746738745744936200,3.794936279296875,0.07065004765720265,-0.010337399318814278,0.035146366322271284,-0.016578609123826027,0.0019674684126684506,0.9985267992314716,0.006855060591618418,right,-0.0018552541732788086,-0.0824193031171121,0.6899136706151068,-9.748979316797852,-0.041292993846098656,-0.01853935606777668,0.0006013214588165283,0.8073417071003466,-0.00038783252239227295
1746738745784936200,3.834936279296875,0.06992262936503071,0.002647140994668007,0.03478116306684615,-0.023324476554989815,0.001937398335795146,0.998513965775191,0.006808155283261104,right,-0.0038079023361206055,-0.08365529938685341,0.6827516700312495,-9.748476043450832,-0.04190854281795596,-0.037725843489170074,-0.0011351630091667175,0.8194209250159561,-0.00040130317211151123
1746738745824936400,3.8749365234375,0.06910655136209812,0.015960481017827988,0.034360559280079174,-0.02405608259141445,0.0021803145742027115,0.9985039749429588,0.007299541368090317,right,-0.0017467141151428223,-0.0847811024100315,0.674731810509041,-9.748103703007102,-0.042478252093564664,-0.019919659942388535,-0.00194472074508667,0.8304221384365111,-0.0013380050659179688
1746738745864936400,3.9149365234375,0.06812977978150378,0.023387927561998367,0.03385064993056,-0.024904681369662285,0.002677700577557214,0.9985075791964192,0.00827342244505267,right,-0.0017440319061279297,-0.08534125278353642,0.6651780194178223,-9.74829250357747,-0.04277332700914303,-0.017403023317456245,-0.001347273588180542,0.8358955283463001,0.004052124917507172
1746738745904936200,3.954936279296875,0.06739539129840122,0.014838358387351036,0.033463549808379414,-0.015993967652320862,0.003109034213988504,0.9985036201963411,0.009129962876932098,right,-0.0002808570861816406,-0.08605064417952836,0.6579786824982613,-9.748183782505988,-0.043140837781942734,-0.020806262269616127,-0.0013860836625099182,0.8428267158489674,0.003492690622806549
1746738745944936200,3.994936279296875,0.06693505327703893,0.012705037370324135,0.03321908514447653,-0.01130245253443718,0.003419223228269331,0.998501059238237,0.009745836468298914,right,0.00036537647247314453,-0.08647982591955042,0.653466904162243,-9.74812416127324,-0.04336462075146328,-0.0033545084297657013,-0.0029783323407173157,0.8470199297551065,0.0006421580910682678
1746738745984936200,4.034936279296875,0.06680950608552717,0.001526709645986557,0.03314773841800694,0.001985863782465458,0.0036245890262348625,0.9985031820951168,0.010150592074652605,right,0.0004246830940246582,-0.08644595008113984,0.6522449611518532,-9.748234635910391,-0.04335420191471824,0.0016215667128562927,-0.0023265108466148376,0.8466889442350715,0.003098785877227783
1746738746024936200,4.074936279296875,0.06697582090496458,-0.012178768403828144,0.03323602711121519,0.004868165124207735,0.003498814666787943,0.9985004939669595,0.009906325706224654,right,-0.0006044507026672363,-0.08645896838934555,0.653865475025773,-9.748114808923006,-0.04335694718758076,0.00263990368694067,-0.002975665032863617,0.8468161508113146,-0.00186225026845932
1746738746064936200,4.114936279296875,0.06709132265751903,-0.016830403357744217,0.03331026035366273,0.0025373995304107666,0.003142048874403695,0.9985065821699858,0.009186033908209339,right,-0.0006296038627624512,-0.08614189999987303,0.6550093843638897,-9.748307116624712,-0.04318686078085733,0.008644402958452702,-0.004116028547286987,0.8437183309264481,-0.0015564188361167908
1746738746104936400,4.1549365234375,0.06722742608899614,-0.022057104855775833,0.03339614224982657,0.0002596138510853052,0.002727218391392398,0.998506177247846,0.008359893301954368,right,-0.0010308623313903809,-0.08610864746187802,0.6563380756843835,-9.748245741826295,-0.04315668465377697,-0.005264440551400185,-0.0033934786915779114,0.8433934828862547,-0.002437695860862732
1746738746144936400,4.1949365234375,0.0678192163950483,-0.012330696918070316,0.03370330785739683,0.018476130440831184,0.0024113862007958727,0.9984883008740941,0.007766701470285446,right,-0.0022158026695251465,-0.08651478161942946,0.6620835605338216,-9.747512751376629,-0.043350253025295576,-0.012885317206382751,-0.0030703768134117126,0.8473614366691559,0.00017002969980239868
1746738746184936200,4.234936279296875,0.06849525083603396,-0.006484490819275379,0.03404784605607554,0.013880087994039059,0.0022061443813795527,0.9984692236785742,0.007397752819194101,right,-0.0016094446182250977,-0.08688692939353074,0.6686514676820486,-9.746747612223029,-0.043530573791787715,-0.0009208871051669121,-0.0018678158521652222,0.8509972358882427,-0.001317352056503296
1746738746224936200,4.274936279296875,0.06898134955478702,-0.012282805517315865,0.03429971105638046,0.007867909967899323,0.0019866293946202984,0.9984618994287316,0.006978380196089751,right,-0.001918196678161621,-0.08686214373221805,0.6733906980983912,-9.746442491796612,-0.04351154360561514,0.0009419379057362676,-0.0014113858342170715,0.85075509769544,-0.00038076937198638916
1746738746264936200,4.314936279296875,0.06918642777658104,-0.006104854866862297,0.034413198516977314,0.003101928625255823,0.0017321414879713185,0.998460304172103,0.006475204491238824,right,-0.0013881921768188477,-0.08679447524715252,0.6753934892881661,-9.746361827775836,-0.043469308921970345,0.005694692488759756,-0.0022913217544555664,0.8500940034382045,-0.00391601026058197
1746738746304936200,4.354936279296875,0.06936543576730271,0.010497638955712318,0.03450238351420508,0.00042455573566257954,0.0017558740282317955,0.9984642325755195,0.006519179177915445,right,-0.00659489631652832,-0.08646847708972993,0.6771572840902954,-9.746516726076603,-0.043307475122789776,0.012230673804879189,-0.006777331233024597,0.8469090167265385,-0.005342565476894379
1746738746344936400,4.3949365234375,0.06897694714001218,0.01890750788152218,0.034299654045412416,-0.01429751142859459,0.0020369759133060652,0.9984905274252043,0.00703288590721574,right,-0.002922654151916504,-0.08553039625293567,0.6734253310203552,-9.74756711191237,-0.04284762097074654,0.031809624284505844,-0.007285423576831818,0.8377436404310167,-0.00802581012248993
1746738746384936400,4.4349365234375,0.0685030577574256,0.01652560941874981,0.03405417292541666,-0.0022571543231606483,0.0023938608688388774,0.9985353213417602,0.007666327227745799,right,0.0007671713829040527,-0.08375663500647884,0.6689066114868968,-9.749352241763471,-0.04197236771140344,0.04482061415910721,-0.005244433879852295,0.8204112512275576,-0.0029340311884880066
1746738746424936200,4.474936279296875,0.0686412693639891,0.007047935388982296,0.03412058543139029,0.010924698784947395,0.0025832171060974113,0.9985655752047774,0.007996218945972473,right,-0.00023549795150756836,-0.08215703705909742,0.670343220161274,-9.750556941378116,-0.04117953212641878,0.02856197953224182,-0.005645908415317535,0.8047785055488348,-0.00029192864894866943
1746738746464936200,4.514936279296875,0.06924174783735813,0.009691186249256134,0.0344192387846149,0.022538699209690094,0.0026815733818855406,0.9985750311635271,0.008183721508439394,right,0.001980423927307129,-0.08117266858427713,0.676252590335533,-9.750938049650191,-0.04069206103321245,0.026816029101610184,-0.003055967390537262,0.7951572752445936,-0.005400612950325012
1746738746504936200,4.554936279296875,0.07032196020958831,0.014289956539869308,0.03495236147173314,0.024714382365345955,0.002902088155750142,0.9985763614816808,0.00863313062506863,right,-0.004245936870574951,-0.08014639558049744,0.6868423003457487,-9.751010530364512,-0.04018895962354083,0.021542377769947052,0.0003010183572769165,0.7851257105737924,-0.0020281821489334106
1746738746544936200,4.594936279296875,0.07099552264769372,0.017599670216441154,0.03528018355817476,0.010869159363210201,0.0031980885620769167,0.9985848659570913,0.009214911398570388,right,-0.002322554588317871,-0.07907680706730078,0.6934691711395978,-9.751378194633126,-0.03966617197896305,0.03319349139928818,0.0025844424962997437,0.774669856076315,-0.001618310809135437
1746738746584936400,4.6349365234375,0.07137612112113219,0.020341474562883377,0.035462116574303176,0.010879145003855228,0.0035546668411292207,0.9986088983898493,0.00988525308672744,right,0.0005767345428466797,-0.07743463259612042,0.6972703169882297,-9.752368959236145,-0.038858748079410255,0.043495193123817444,0.005879513919353485,0.758614939462766,-0.0007371753454208374
1746738746624936400,4.6749365234375,0.07192130935923571,0.020613374188542366,0.035726415972542204,0.0067275045439600945,0.003961627387481653,0.9986368285523172,0.010647024124835917,right,-0.0039331912994384766,-0.07537527924566562,0.7026978219296783,-9.753525143533945,-0.03784508721783451,0.0489201694726944,0.0026767924427986145,0.738478452624008,0.0012893453240394592
1746738746664936200,4.714936279296875,0.07207406069759804,0.007671186700463295,0.035800210114506924,-0.005303765647113323,0.004237783570491182,0.9986693943133315,0.011134852434446285,right,0.00037223100662231445,-0.07341641641238553,0.7042904979486018,-9.754841486829518,-0.03687602205421831,0.04411996155977249,0.0017185583710670471,0.719321697537601,0.0018794164061546326
1746738746704936200,4.754936279296875,0.07199742856735995,-0.01595451310276985,0.035770588563760995,-0.008129814639687538,0.00415291266259016,0.9986956035460858,0.010913215120383327,right,0.00018519163131713867,-0.07206773086863759,0.7036120872303843,-9.755854463264345,-0.0361984509328887,0.023352153599262238,0.0030782371759414673,0.7061306459225714,-0.00021657347679138184
1746738746744936200,4.794936279296875,0.07235036772138101,-0.015392744913697243,0.035959391937354056,0.012253595516085625,0.003837852822175371,0.998696929847954,0.010282114840354429,right,0.0010753273963928223,-0.07171181165969263,0.7070734066653996,-9.755855632308124,-0.03601011228643453,-0.0057825930416584015,0.003329820930957794,0.7026492335475981,-0.0019812360405921936
1746738746784936200,4.834936279296875,0.07306290879141983,-0.007813340052962303,0.03631973384969233,0.015527397394180298,0.003626059406192351,0.9986722197131036,0.009909209375550685,right,-0.0003129243850708008,-0.07240741389348286,0.7139888120770455,-9.754859607008099,-0.03635204527843313,-0.02524978294968605,0.0029931291937828064,0.7094530683435499,-0.004851788282394409
1746738746824936400,4.8749365234375,0.0737509735541007,0.00236379262059927,0.03666091988917888,0.011376634240150452,0.0035717991382160645,0.9986411826487881,0.009863616127816898,right,-0.0025886893272399902,-0.0734331696753906,0.720646662531048,-9.753635033649205,-0.03686463287378543,-0.022503022104501724,0.002301156520843506,0.7194855828624218,-0.0061964914202690125
1746738746864936400,4.9149365234375,0.07415859156980584,0.006187504157423973,0.03685630993480512,0.0043794093653559685,0.003704808487752854,0.9986192793967653,0.010173199634356185,right,-0.002654433250427246,-0.07418828406395561,0.7245818830881268,-9.752795660215616,-0.03724809909861929,-0.01627204194664955,0.003875911235809326,0.7268705785471946,-0.0028393417596817017
1746738746904936200,4.954936279296875,0.07430497152097962,0.00851747952401638,0.036918831512765544,-0.0003770841285586357,0.00391683825603789,0.9986040548136746,0.01062692895622606,right,-0.0040135979652404785,-0.07482044670589892,0.7259752371426671,-9.75222925850451,-0.037572382842969716,-0.017266342416405678,0.0019024237990379333,0.7330527743134647,-0.002377130091190338
1746738746944936200,4.994936279296875,0.0738703345564254,0.01094902865588665,0.03669285998301292,-0.015070406720042229,0.0041172446739551356,0.9986035000811979,0.011027389411456699,right,-0.004320025444030762,-0.0752360509532845,0.7217139264363795,-9.752239195376633,-0.03778638844780283,-0.004759280011057854,0.0005720183253288269,0.7371169550124556,-0.005478411912918091
1746738746984936200,5.034936279296875,0.07324292423140892,0.01614074595272541,0.036369074075927925,-0.016375770792365074,0.00440784891612027,0.9986138635251572,0.011585404066660112,right,-0.0032199621200561523,-0.07522899249916093,0.7155955166213214,-9.75269512245059,-0.03779172089941956,0.0007610335014760494,-0.0011831000447273254,0.7370479814294725,-0.0035824403166770935
1746738747024936200,5.074936279296875,0.07255936851042645,0.014185593463480473,0.036014859972137006,-0.015692591667175293,0.0047509201798664,0.9986228782192822,0.012250043940273448,right,-0.0010296106338500977,-0.07532265345806108,0.7089238568376749,-9.753113640123605,-0.03784895123382584,-0.0077429902739822865,-0.0017950013279914856,0.7379638541653752,-0.0028388500213623047
1746738747064936200,5.114936279296875,0.07206868106095823,0.009674819186329842,0.03575737415132103,-0.010853908956050873,0.005055389160203211,0.9986249232598895,0.01285145280491808,right,-0.0006883740425109863,-0.0756046263989533,0.7041230324272066,-9.75325217181146,-0.037999329547901424,-0.004346541129052639,-0.0029911771416664124,0.7407211900494992,-0.0035425424575805664
1746738747104936400,5.1549365234375,0.07163406264519492,0.008194747380912304,0.035531620237249664,-0.010330325923860073,0.005280362946720769,0.998629522937055,0.013289306399098385,right,-0.0010031461715698242,-0.07571069940222443,0.699878380594775,-9.753478966304659,-0.038058973694806174,-0.0012692124582827091,-0.003214411437511444,0.7417584241427481,-0.004221215844154358
1746738747144936400,5.1949365234375,0.0711672864777498,0.0067743416875600815,0.03529145856635588,-0.010844437405467033,0.005460048820418385,0.9986346401676213,0.013635749005595983,right,-0.0030124783515930176,-0.07583254900342733,0.6953191829204559,-9.753713944104314,-0.03812469189228563,-0.008368000388145447,-0.0013030022382736206,0.7429499720148742,-0.0026709511876106262
1746738747184936200,5.234936279296875,0.0707142479452276,0.008256192319095135,0.03505577046415972,-0.014157094061374664,0.005656277102541334,0.9986325232675797,0.014028440102312514,right,-0.0008442997932434082,-0.07630945212578738,0.6908752091236412,-9.753673612093925,-0.038368459966857685,-0.013589909300208092,-0.0022728368639945984,0.7476132145855575,-0.004708737134933472
1746738747224936200,5.274936279296875,0.07013638627507798,0.014154870063066483,0.03475447122522508,-0.013442166149616241,0.005943426470291002,0.9986327700077614,0.014596576482960552,right,-0.0015438199043273926,-0.076740936747036,0.6852160873834043,-9.753748430895804,-0.0385921427303721,-0.011870204471051693,-0.0025649741291999817,0.7518322935853153,-0.003966107964515686
1746738747264936200,5.314936279296875,0.06978044440946785,0.01013941504061222,0.03456367404903341,-0.002453708089888096,0.006222864797081076,0.9986278089099783,0.015159829394919106,right,-0.00006085634231567383,-0.07723443759556373,0.681718381460756,-9.753620420601964,-0.03884722816715829,-0.013350983150303364,-0.002825811505317688,0.756657521784678,-0.001696653664112091
1746738747304936200,5.354936279296875,0.069748022910235,0.0026110028848052025,0.03453843172481852,-0.002576728817075491,0.006370288762489167,0.9986150705323832,0.015476340789860508,right,-0.0035794973373413086,-0.07787441802636118,0.6813682528488337,-9.753157479265331,-0.03917213607668847,-0.01505950279533863,-0.0017557740211486816,0.7629147555485367,-0.002114593982696533
1746738747344936400,5.3949365234375,0.069565818541693,-0.006142009980976582,0.03444690589784434,-0.006035944446921349,0.006322382377512457,0.9986088892260669,0.015390564741670082,right,0.00012046098709106445,-0.07836781098269809,0.6795649297539145,-9.752904965808987,-0.039416428852713535,-0.011426279321312904,-0.001379266381263733,0.7677385224431753,-0.0005033016204833984
1746738747384936400,5.4349365234375,0.0692830389524982,-0.01203453354537487,0.03431045705160846,-0.0034011416137218475,0.006152314338579506,0.9986064498813577,0.015053713143641142,right,0.0011227726936340332,-0.07879464379394763,0.6767842129942029,-9.75276877220869,-0.039622872717784134,-0.003498670645058155,0.0010002627968788147,0.7719114242136478,-0.003439493477344513
1746738747424936200,5.474936279296875,0.06923316609386294,-0.0033716876059770584,0.03428821100680241,0.0010273284278810024,0.006051683946112536,0.9986026453534071,0.014859635891059295,right,0.0007619261741638184,-0.07906502733393884,0.6762833507999777,-9.752594000163674,-0.03975439081202225,-0.012002609670162201,0.00037276744842529297,0.7745547052640468,0.0003496631979942322
1746738747464936200,5.514936279296875,0.06935243044395953,0.00021764636039733887,0.03434431186788203,0.007870911620557308,0.006054007448557216,0.9985879104506392,0.014891403283584632,right,0.00025016069412231445,-0.07970432316216589,0.6774120625689626,-9.752017077058554,-0.04007448913904155,-0.018680892884731293,0.0007145106792449951,0.7808043402433394,0.00038076192140579224
1746738747504936200,5.554936279296875,0.06952993644548923,-0.00715591898187995,0.03443272220970281,0.0004126420244574547,0.005956984625656297,0.9985698332669429,0.014731616196916602,right,-0.002682328224182129,-0.08048581690638615,0.6791004540473222,-9.751285255652666,-0.04046245707722445,-0.01957392320036888,-0.00011296570301055908,0.7884436029501258,0.0008216500282287598
1746738747544936200,5.594936279296875,0.06951375149051321,-0.004221312236040831,0.03442686711873883,-0.001428847899660468,0.005811440600868944,0.9985561770212755,0.014465177049037157,right,-0.0031210780143737793,-0.08121939764179298,0.6789023011267185,-9.750716515854,-0.04082407838787205,-0.014463741332292557,0.000527113676071167,0.7956140060361474,-0.0010793954133987427
1746738747584936400,5.6349365234375,0.06936421751676418,0.0006965342909097672,0.03434841976207206,-0.007810770533978939,0.005818925316306981,0.9985441384023147,0.014499097592441912,right,-0.0028382539749145508,-0.081935089734253,0.6774045368496329,-9.750247729298472,-0.041181547468411045,-0.017134258523583412,0.000558510422706604,0.8026092717509716,-0.0012903958559036255
1746738747624936400,5.6749365234375,0.06912786849604169,0.004071224946528673,0.034224775875533645,-0.006322877947241068,0.005918118425736576,0.9985406317435797,0.01470000024111376,right,-0.003218531608581543,-0.08227841974450575,0.6750809892728924,-9.750131993964313,-0.04135570811779262,-0.0055484408512711525,0.00038617104291915894,0.8059647927239537,-0.0009699985384941101
1746738747664936200,5.714936279296875,0.06878076588007322,-0.003748261835426092,0.03405022450192957,-0.008986118249595165,0.005937955274991001,0.9985435478620616,0.014730311703129422,right,-0.0030131936073303223,-0.08242119807053891,0.6716887895513326,-9.75025065190792,-0.04142648026660183,-0.0031700197141617537,-0.000012680888175964355,0.8073602656703441,0.0015019699931144714
1746738747704936200,5.754936279296875,0.06836402380813532,-0.005540261976420879,0.03384686931196021,-0.008582462556660175,0.0058302989805288615,0.9985507726210504,0.014498173213800272,right,-0.0026820898056030273,-0.08244369305384378,0.6676240973956883,-9.75051134867072,-0.04143254772015931,0.0027168423403054476,-0.000649869441986084,0.8075801189661026,-0.0028622671961784363
1746738747744936200,5.794936279296875,0.06806222540785566,0.0009651933796703815,0.03369881856551289,-0.004315379075706005,0.005804984425075615,0.9985614849812356,0.01442589814000668,right,-0.002136051654815674,-0.08218014118649207,0.6646958619240672,-9.750924605646729,-0.041298865547521144,0.008655892685055733,-0.001054234802722931,0.8050042771287262,-0.003907650709152222
1746738747784936200,5.834936279296875,0.06791481089848785,0.005082360003143549,0.03362335404197463,-0.0048711602576076984,0.00589174507485091,0.9985700162373858,0.014582696951245932,right,-0.0024051666259765625,-0.08186278627766934,0.6632756929278373,-9.75127707234621,-0.041142624908401926,0.005950111895799637,0.00017489492893218994,0.8019025847863406,-0.0041776373982429504
1746738747824936400,5.8749365234375,0.06764932776609452,0.004652753006666899,0.033486789735390834,-0.005585542414337397,0.006015404995947182,0.9985772263282423,0.014813675675287534,right,-0.002974390983581543,-0.08169418072691145,0.660696051698178,-9.751587453469634,-0.04106152822014664,-0.00042022857815027237,0.00040862709283828735,0.8002546714488417,-0.003875941038131714
1746738747864936400,5.9149365234375,0.06725789618212903,0.0018143546767532825,0.03328943580243891,-0.006799593567848206,0.006070136196892004,0.9985835030256949,0.01490716923997405,right,-0.0013219118118286133,-0.08169333204927591,0.6568789776280521,-9.751845812144875,-0.041061482307674084,-0.0021962567698210478,-0.0007007122039794922,0.8002463420119136,-0.004206329584121704
1746738747904936200,5.954936279296875,0.06700632508564473,0.002456394489854574,0.03316029421288807,-0.003167017363011837,0.006150675165537546,0.9985853580676342,0.0150610164988101,right,-0.0012299418449401855,-0.08177867820689116,0.6544210630819202,-9.751942842778563,-0.041105886355115404,-0.007398196496069431,-0.0018505603075027466,0.8010805278137326,-0.004187151789665222
1746738747944936200,5.994936279296875,0.06682960785691454,0.0026278356090188026,0.033066809070528703,-0.001320450915955007,0.006234843920719496,0.9985801821453515,0.015234917965299005,right,-0.0007536411285400391,-0.08215213338543942,0.6526777265459298,-9.751759302905201,-0.041294676049094384,-0.012265143916010857,-0.0030184686183929443,0.8047305747538804,-0.004003286361694336
1746738747984936200,6.034936279296875,0.06689639490173345,-0.001144596841186285,0.03309604669462416,0.0024570757523179054,0.006278787644514821,0.9985699590907113,0.015340166837041888,right,-0.002997100353240967,-0.0825806792961998,0.6533058683816343,-9.75137059584856,-0.041510590154999416,-0.01538197509944439,-0.0037419497966766357,0.8089188932891934,-0.0017074942588806152
1746738748024936200,6.074936279296875,0.06684258587119438,-0.011073509231209755,0.03307115183887017,-0.005696794018149376,0.006161923650890033,0.9985598666453274,0.01512301780411821,right,-0.004570364952087402,-0.08314814503527625,0.6527504264559596,-9.750946232956647,-0.04179014986084449,-0.00955950003117323,-0.0038287192583084106,0.8144647639133036,-0.002911202609539032
1746738748064936200,6.114936279296875,0.06690685164763505,-0.006959281861782074,0.03311104229705952,0.007130692712962627,0.005943820556438907,0.9985549265115062,0.014697309690329447,right,-0.0011171698570251465,-0.08339799213956875,0.6533634437877684,-9.75070073376298,-0.04190804151993283,-0.0073053957894444466,-0.003625527024269104,0.8169064579769969,-0.0004942864179611206
1746738748104936400,6.1549365234375,0.06715654907945393,-0.0017820182256400585,0.033238805094324565,0.008915544487535954,0.005823836801394512,0.9985443293747079,0.014479078642335209,right,-0.00037598609924316406,-0.08374039110151531,0.6557793458230793,-9.750257666170597,-0.042076103566329,-0.008184640668332577,-0.0012204423546791077,0.8202524804692715,-0.00016637146472930908
1746738748144936400,6.1949365234375,0.06748757857889594,-0.004437418654561043,0.03340681312120266,0.006157679483294487,0.005718071220057914,0.9985334387840239,0.014290925659982884,right,-0.0023719072341918945,-0.08402634478665054,0.6589910744111984,-9.74980583074987,-0.04221668724930088,-0.004226509481668472,-0.001397460699081421,0.8230468604281544,-0.0011167973279953003
1746738748184936200,6.234936279296875,0.06751718722157758,-0.001247210195288062,0.03342578638162046,-0.002424033358693123,0.005616363835879152,0.9985331476897382,0.01408903811305522,right,-0.002138078212738037,-0.08404320249064094,0.6592788053113967,-9.749772513002156,-0.04222181500905071,0.002003165427595377,-0.0008689016103744507,0.8232116225358098,-0.0011266395449638367
1746738748224936200,6.274936279296875,0.06751314470195031,0.009420056827366352,0.03342049427019756,0.004409582354128361,0.005707330800337483,0.9985350754819076,0.014267184886739922,right,-0.0006417036056518555,-0.08392921458154669,0.6592457067593932,-9.749868374592065,-0.04216787196617917,-0.000055947573855519295,-0.0016965419054031372,0.8220977430097758,-0.0020063593983650208
1746738748264936200,6.314936279296875,0.06742802522109861,0.012263449840247631,0.0333705700560831,0.0035255970433354378,0.005890405624054403,0.9985363785692707,0.014628742611949092,right,0.00040835142135620117,-0.08388413783362458,0.6584183160245418,-9.749961313572525,-0.04215115785014796,0.0034961781930178404,0.0001430213451385498,0.8216572327006608,-0.0038445666432380676
1746738748304936200,6.354936279296875,0.06738531030557343,0.0006343238055706024,0.0333439796402404,-0.0028854673728346825,0.006031793876034882,0.99853896857199,0.01490572122364459,right,-0.003676176071166992,-0.08375452316757816,0.6580090045712887,-9.750095753607154,-0.04209093870669648,0.001495786476880312,-0.0004624277353286743,0.8203905737657099,0.0013050884008407593
1746738748344936400,6.3949365234375,0.06730426241200563,-0.010798989795148373,0.0333107095197389,-0.001086395001038909,0.005868775991755066,0.9985423623931058,0.014574098175594765,right,-0.0007274746894836426,-0.08370463693059492,0.6572215074554085,-9.750189861631393,-0.04206026448987566,0.006049534305930138,-0.001157321035861969,0.8199030825097113,-0.0004877746105194092
1746738748384936400,6.4349365234375,0.06743920018971637,-0.006547456607222557,0.033389958554874914,0.004479400813579559,0.0056385941937008325,0.9985511521236989,0.014102875575769004,right,-0.001872420310974121,-0.08323823257599545,0.658562912127003,-9.750481538054347,-0.041819935694766025,0.01548733375966549,-0.0006633251905441284,0.8153451269444077,-0.004408873617649078
1746738748424936200,6.474936279296875,0.06773220569584254,0.001110033132135868,0.033543762291312736,0.01033410057425499,0.005532532206887819,0.9985609055371613,0.013879416357179807,right,-0.0018714070320129395,-0.08255634570551308,0.6614572453290224,-9.750840434494615,-0.041476570567121944,0.015541955828666687,-0.0004677027463912964,0.8086810659453272,-0.004168413579463959
1746738748464936200,6.514936279296875,0.06810536243997521,-0.0015814565122127533,0.03373318027036171,0.005555983632802963,0.005508258314538728,0.9985649455912822,0.013829197890031477,right,-0.0033394694328308105,-0.08205852703825363,0.665123147425428,-9.750993579229712,-0.04122820902564512,0.0056199245154857635,0.00023230165243148804,0.8038156518660485,-0.002367250621318817
1746738748504936200,6.554936279296875,0.06828303126074815,-0.003176535479724407,0.03382719340031356,-0.00028721848502755165,0.005408598200762811,0.9985681845310777,0.013627311721918998,right,-0.0028185248374938965,-0.08177930865922703,0.6668708678755909,-9.751098793169856,-0.04108587731123341,0.004197111818939447,0.0012111440300941467,0.8010866652935743,-0.00340358167886734
1746738748544936200,6.594936279296875,0.06815897332323666,-0.001931463833898306,0.033772188909073554,-0.000983689446002245,0.005261427295025232,0.998574415278432,0.013321805628874101,right,-0.0017576217651367188,-0.0816152268550134,0.6656701137837022,-9.75131272818148,-0.04099846165068095,0.0017727611120790243,0.000560954213142395,0.7994829564239829,-0.003125004470348358
1746738748584936400,6.6349365234375,0.06808327505526776,-0.0006191448774188757,0.03373546255254999,-0.0008568037301301956,0.0052396513094461455,0.9985763498320396,0.013274263017881247,right,-0.0019223690032958984,-0.08159131383960236,0.6649332508765161,-9.751381701764464,-0.040985519335590304,-0.000604887492954731,-0.0008123964071273804,0.7992492207333445,-0.0020578578114509583
1746738748624936400,6.6749365234375,0.06787593872544308,0.003577555762603879,0.03363108720222979,-0.0013437590096145868,0.005281771149008346,0.9985825231327616,0.013345070464394176,right,-0.0006366372108459473,-0.08144399546159922,0.6629194268360734,-9.751637137830256,-0.04091261804225286,0.006058393511921167,-0.00026904791593551636,0.7978093241233378,-0.0006815195083618164
1746738748664936200,6.714936279296875,0.06750817573837535,-0.001729691168293357,0.03344791585345239,-0.015276086516678333,0.005305606009535157,0.9985934938002574,0.01336965823232021,right,-0.004254817962646484,-0.08120654626930288,0.659345806133002,-9.752068514984845,-0.040793499217560904,0.009982151910662651,-0.0018935203552246094,0.795488406895101,-0.0027628466486930847
1746738748704936200,6.754936279296875,0.06669868239580728,0.000835152342915535,0.033053496284750544,-0.011992981657385826,0.0051881576983107865,0.998626331716745,0.013070166102012476,right,0.00011205673217773438,-0.08027866743566137,0.6515002802643924,-9.753331666788458,-0.04032311084867404,0.030749404802918434,-0.0008865222334861755,0.7864186729937791,-0.003483399748802185
1746738748744936200,6.794936279296875,0.0661136014272312,0.0035661114379763603,0.03276501452983475,-0.012756080366671085,0.0052416409289811295,0.9986587491169905,0.013115002680372844,right,-0.0009862780570983887,-0.07911901595259926,0.6458535065490753,-9.75461469233632,-0.03974329650717451,0.02414873242378235,-0.0004433467984199524,0.7750824554651975,0.0007574111223220825
1746738748784936200,6.834936279296875,0.06571153368741199,-0.00381283275783062,0.0325669242562369,-0.008749695494771004,0.005274978163339079,0.9986809469127994,0.013139156531690599,right,-0.0008165836334228516,-0.07831575645420183,0.6419721350710839,-9.75549147517085,-0.03934154568988997,0.017268290743231773,-0.0003367513418197632,0.7672296230729669,0.0006529465317726135
1746738748824936400,6.8749365234375,0.06512620115892227,-0.006863411981612444,0.03228313916564143,-0.016286084428429604,0.005157616632752607,0.9987059723063189,0.012856052072115948,right,-0.0015155673027038574,-0.07755364927424241,0.6362996423926204,-9.756445999416709,-0.03895487809353003,0.018795005977153778,0.0007903352379798889,0.7597785764146596,-0.0018623396754264832
1746738748864936400,6.9149365234375,0.06448954597700722,0.009681660681962967,0.03196732816456293,-0.0162725318223238,0.0051981785711963735,0.9987298869038801,0.012889154495780318,right,-0.0031613707542419434,-0.07683702543885547,0.6301229265190661,-9.757390002268552,-0.038595913574249935,0.010190066881477833,0.0006556436419487,0.7527718394577503,-0.0016092509031295776
1746738748904936200,6.954936279296875,0.06378990786629746,0.015659712255001068,0.031608608650390606,-0.01789143495261669,0.00548467941085609,0.9987445792339548,0.01342737106803841,right,0.00033479928970336914,-0.07657364483721087,0.6233087895248085,-9.758025962084531,-0.038471077917208316,0.007849438115954399,-0.0026793889701366425,0.7501965090770274,-0.003257162868976593
1746738748944936200,6.994936279296875,0.0633417694259703,0.01129365898668766,0.03137510550440465,-0.012340113520622253,0.0058301837484005855,0.9987628281901587,0.014079958224933457,right,-0.0017246007919311523,-0.07588431210640981,0.6189683491677046,-9.758818573766947,-0.03813585523737665,0.01933753490447998,-0.0028183795511722565,0.7434560949061065,-0.00013436377048492432
1746738748984936200,7.034936279296875,0.0628860069655944,-0.004672888666391373,0.031148570790250414,-0.008682386949658394,0.0059051759953899444,0.9987838065635289,0.014188667822313369,right,-0.0021067261695861816,-0.07512591617231286,0.6145558664876968,-9.759659116244315,-0.03775749264598473,0.01138150691986084,-0.0016869232058525085,0.736039973430708,0.0029853656888008118
1746738749024936200,7.074936279296875,0.06266846517439846,-0.016019705682992935,0.031051799712192584,-0.00030218809843063354,0.005662594155599302,0.9987989643302978,0.013677209821602882,right,-0.00013309717178344727,-0.0745726970937492,0.6124580904908478,-9.760197460904717,-0.037472639098278464,0.016343601047992706,-0.0031484588980674744,0.7306299310807138,-0.0024889707565307617
1746738749064936200,7.114936279296875,0.06265835471714858,-0.01202354021370411,0.031062006906889747,0.0037117372266948223,0.00535758507736561,0.9988167617373344,0.013038914829100625,right,-0.0016176104545593262,-0.07371253691267769,0.612398542323336,-9.760827575501798,-0.03703313723600558,0.02606762945652008,-0.004627205431461334,0.7222178573705256,-0.005463249981403351
1746738749104936400,7.1549365234375,0.06277155948560502,-0.00613259244710207,0.031129611972291246,0.004635215271264315,0.005180194268522844,0.9988352176165035,0.012654449335274098,right,-0.0003286004066467285,-0.07265459787814588,0.6135510733593255,-9.76151497324407,-0.03649911824565596,0.025671785697340965,-0.004220414906740189,0.7118707239445299,-0.006984800100326538
1746738749144936400,7.1949365234375,0.0629838616178825,0.0029689371585845947,0.031239592163852033,0.00619384553283453,0.005159664610645894,0.9988460256229938,0.012596386548840903,right,-0.001762092113494873,-0.07187573502285555,0.6156582017064094,-9.761935244482755,-0.036109787860976454,0.009905099868774414,-0.003640953451395035,0.7042526501562446,-0.005471646785736084
1746738749184936200,7.234936279296875,0.06319884587670767,0.0008488264866173267,0.031345057876822804,0.005112604238092899,0.005211449557563199,0.9988428708874626,0.012707026969961371,right,-0.0018241405487060547,-0.07184992408783461,0.6177580235298723,-9.761820678192377,-0.036099184720256194,-0.007486626505851746,-0.004773799329996109,0.7040002097651362,-0.00501985102891922
1746738749224936200,7.274936279296875,0.06345911450949462,0.0025419373996555805,0.03147186843311684,0.009456527419388294,0.005239510227289118,0.998830366489921,0.012787266737115468,right,-0.0005062222480773926,-0.0723080579649471,0.6202781165920198,-9.761336694067715,-0.03632992213468131,-0.014308284968137741,-0.0038440003991127014,0.7084813007019459,-0.004686340689659119
1746738749264936200,7.314936279296875,0.0640438826170205,0.0010749050416052341,0.031758324871810406,0.016308408230543137,0.0053012502256212,0.9988085672700225,0.012953804585088142,right,-0.0009235143661499023,-0.07297875965022299,0.6259555777065455,-9.760496151590347,-0.036669046183839454,-0.01773533783853054,-0.004089176654815674,0.7150412437394261,-0.004870839416980743
1746738749304936200,7.354936279296875,0.0646340017574901,-0.006436089985072613,0.032053212012878356,0.01603737473487854,0.005211765317594351,0.9987882442083877,0.012816380977614299,right,-0.001526951789855957,-0.07359590461239311,0.6316867417696863,-9.759682497119902,-0.036976603257526344,-0.010946997441351414,-0.0022576935589313507,0.7210771629028022,-0.004595115780830383
1746738749344936400,7.3949365234375,0.06532453810501718,-0.014577825553715229,0.032403467539315244,0.017907926812767982,0.0049824591783410544,0.9987670738892455,0.012402692157888265,right,-0.003901660442352295,-0.07420129496405539,0.6383974183894694,-9.758806883329152,-0.03727401692630574,-0.012299781665205956,-0.004311304539442062,0.7269977851234376,-0.006305895745754242
1746738749384936400,7.4349365234375,0.0658830132655075,-0.01577061414718628,0.032698002671532264,0.022596577182412148,0.004535331443197788,0.9987571631683279,0.011533429151689012,right,0.001260519027709961,-0.07435989638410641,0.6438397555738687,-9.758333420598506,-0.03734039820061712,0.0048735905438661575,-0.0028433427214622498,0.7285488870229572,-0.01003333181142807
1746738749424936200,7.474936279296875,0.06699803666963397,-0.016499774530529976,0.03326686847114032,0.02889389358460903,0.004200300677256065,0.9987415349644031,0.01090163045270744,right,-0.002246558666229248,-0.07428334676882836,0.6547238454207778,-9.757665312078595,-0.03729418903494258,-0.005023558624088764,-0.0004108324646949768,0.7278002606127411,-0.003411918878555298
1746738749464936200,7.514936279296875,0.06818074356867598,-0.029255269095301628,0.03387342144351703,0.029539804905653,0.0036980517341701825,0.9987137984148231,0.009958058503296464,right,-0.0029276609420776367,-0.07480959664218606,0.6662376845385879,-9.75650035995245,-0.037543473047616724,-0.01496218889951706,0.0013542398810386658,0.7329466835904866,-0.0030975639820098877
1746738749504936200,7.554936279296875,0.06904441768139241,-0.029589448124170303,0.034326539498345236,0.018600288778543472,0.003032632710262959,0.9986874171275002,0.008683567373780777,right,-0.00392228364944458,-0.07554767923637892,0.6746263043079525,-9.75537924696803,-0.03789175366247468,-0.017577439546585083,0.002494014799594879,0.7401643598843366,-0.0057404860854148865
1746738749544936200,7.594936279296875,0.06947911220274994,-0.006849678233265877,0.03455643869474453,0.005528212524950504,0.002606078677837872,0.9986637054069402,0.007877979889423181,right,-0.0051895976066589355,-0.0764689326190492,0.6788192259531468,-9.754400757324696,-0.03833850287615059,-0.0264691561460495,0.0013772398233413696,0.7491726459220052,-0.006413251161575317
1746738749584936400,7.6349365234375,0.06951225541549558,0.016707146540284157,0.03456398716703338,-0.004624418914318085,0.0027470025181814276,0.9986425222236595,0.008198271163360128,right,-0.002545595169067383,-0.07752236945781897,0.6790873753700405,-9.753585349288581,-0.038870085066303316,-0.024067960679531097,-0.0007346495985984802,0.7594727253358811,-0.005779817700386047
1746738749624936400,7.6749365234375,0.06930007744392727,0.020481260493397713,0.03443682479855244,-0.007687451783567667,0.003230818327464872,0.9986312437317397,0.009183249687155504,right,-0.003249645233154297,-0.07821959482780595,0.6769810507405549,-9.75319839579761,-0.03923489079478151,-0.01936318352818489,-0.000579535961151123,0.7662894926786422,0.00016313046216964722
1746738749664936200,7.714936279296875,0.06916457642866784,0.009961182251572609,0.03435320881247466,-0.005774789024144411,0.0035735582684283695,0.9986190149441536,0.009887945928512621,right,-0.0026540756225585938,-0.07889800371103815,0.6756233525212854,-9.75276935673058,-0.039585517144150886,-0.02064177393913269,-0.00031476467847824097,0.7729218433652073,0.0033696889877319336
1746738749704936200,7.754936279296875,0.06916986678983056,-0.0004483833909034729,0.034350324116247374,0.003922221716493368,0.003639309833354603,0.9986038059959904,0.010045982722541816,right,-0.0024988651275634766,-0.07964926957528391,0.6756346045676619,-9.752183665797114,-0.03996334824719043,-0.015498382039368153,-0.000007353723049163818,0.7802661417134106,0.005570456385612488
1746738749744936200,7.794936279296875,0.069236770716761,-0.009028486907482147,0.034389284554670774,0.0005581860896199942,0.003468990681223227,0.9985970348163198,0.009718549108592996,right,-0.001290440559387207,-0.07996523093421158,0.6762699798617512,-9.75189198937416,-0.04011559491903374,0.011467508040368557,-0.00039796531200408936,0.7833547553785145,0.0012576356530189514
1746738749784936200,7.834936279296875,0.06910281385700132,0.004641888663172722,0.03433249955115701,-0.00656155776232481,0.0033508963530357073,0.9986275111655679,0.009427825524349448,right,-0.0011560320854187012,-0.07856036451916512,0.6750389767620713,-9.753070970025657,-0.03940892322840478,0.058617692440748215,-0.002520732581615448,0.7696209751889109,-0.0036145225167274475
1746738749824936400,7.8749365234375,0.06871983073561716,0.02032209374010563,0.03414332799711169,-0.011178811080753803,0.0035748836490055056,0.9986872431156001,0.009764426022680555,right,-0.002153754234313965,-0.07575752564333194,0.671449135576561,-9.755442375332116,-0.03801450312688527,0.07345845550298691,-0.0005062893033027649,0.7422163239780813,-0.002172902226448059
1746738749864936400,7.9149365234375,0.06810710631071057,0.029664162546396255,0.03383132421882972,-0.01890331134200096,0.004053141897572079,0.9987511732166898,0.010596641824674813,right,-0.0024379491806030273,-0.07277406012054385,0.6656193334445357,-9.758017778778076,-0.03653767294075096,0.06889922171831131,-0.0005992427468299866,0.7130391832020133,-0.003006748855113983
1746738749904936200,7.954936279296875,0.06725118391320833,0.03026026114821434,0.03339375048482921,-0.0238376222550869,0.004632526290969442,0.9988083913914673,0.011639537025166959,right,-0.0012443065643310547,-0.07023334526165584,0.657386634889245,-9.76035995799005,-0.03528455241868291,0.05154140293598175,-0.0017682760953903198,0.6881869929529726,-0.0022566765546798706
1746738749944936200,7.994936279296875,0.06642496631687886,0.022637559100985527,0.03297089937832771,-0.015189199708402157,0.005142880794302919,0.9988490476735845,0.012575668314387887,right,0.0000699162483215332,-0.06854102697132701,0.6493986318100243,-9.762048057207464,-0.03445290576198511,0.025406954810023308,-0.0021797344088554382,0.6716309218842536,-0.0019496157765388489
1746738749984936200,8.034936279296875,0.06603923207513944,0.010529822669923306,0.03276997024872427,-0.004325465299189091,0.005485875330295804,0.9988663599401508,0.013224254036127455,right,0.0014905333518981934,-0.0677927487417734,0.645665948087722,-9.762796245226264,-0.03408883296085954,0.00845896452665329,-0.003124147653579712,0.6643098582811653,-0.0031365901231765747
1746738750024936200,8.074936279296875,0.06603687968832755,0.0024600960314273834,0.032765383491577704,0.00463311281055212,0.005625171440223947,0.9988706661392258,0.013493158853083973,right,0.0011611580848693848,-0.06749437602497144,0.6456560842808335,-9.762994982668756,-0.03394421659990993,0.005768015049397945,-0.0021333619952201843,0.6613905367683619,-0.004980374127626419
1746738750064936200,8.114936279296876,0.06626726320985227,-0.01360023021697998,0.032884357687381176,0.0010600702371448278,0.005509827469996663,0.9988679893677764,0.013269089671031872,right,-0.004421412944793701,-0.06746594358906899,0.647906493556127,-9.762865218809246,-0.0339269803241013,-0.0063840895891189575,-0.0036614350974559784,0.661112304348871,-0.004768259823322296
1746738750104936400,8.1549365234375,0.06675338015940065,-0.012174119241535664,0.033135742437042856,0.02174597978591919,0.005197762340469777,0.9988548057877719,0.012674181613085781,right,-0.003033578395843506,-0.06786539020825387,0.6526346911218017,-9.762284788572787,-0.03411795713743027,-0.013255837373435497,-0.0013910755515098572,0.665020563833788,-0.007719118148088455
1746738750144936400,8.1949365234375,0.06750713555445709,-0.0036053238436579704,0.03351696641387113,0.012398473918437958,0.004981080276954271,0.9988345278227803,0.012283613729781342,right,-0.005439341068267822,-0.06838197287213481,0.65996963711977,-9.761445999661088,-0.03437135551208403,-0.01373126171529293,-0.001475602388381958,0.6700747784834354,-0.005328036844730377
1746738750184936200,8.234936279296875,0.06782470269163966,0.0023958743549883366,0.033673338571709545,0.003009592182934284,0.004974237831327395,0.9988200043371834,0.012299149273256326,right,-0.005295693874359131,-0.06891830752925726,0.6630450259771198,-9.760875506296752,-0.034640256158251,-0.012504654936492443,-0.00019147247076034546,0.675322031487152,-0.00584101676940918
1746738750224936200,8.274936279296876,0.06762872629458279,0.01670061983168125,0.033566942659679015,-0.009232866577804089,0.005165841662934448,0.9988144090960853,0.012691654996303424,right,-0.003367185592651367,-0.06937777203513484,0.6611110622398555,-9.76069488903284,-0.03487581481422185,-0.009260433726012707,-0.0011379867792129517,0.679817077884078,-0.007530197501182556
1746738750264936200,8.314936279296875,0.06728996363988722,0.0324406623840332,0.033379090317595186,-0.011883523315191269,0.005682792187306592,0.9988141663237742,0.013721022276677488,right,-0.0024543404579162598,-0.06955691379437769,0.6577963116686791,-9.760796595841645,-0.034981588478642245,-0.005853526294231415,-0.0025380998849868774,0.6815696206398308,-0.004122518002986908
1746738750304936200,8.354936279296876,0.06704945564492945,0.024121837690472603,0.03323614665633603,-0.009361585602164268,0.006324604826652918,0.9988125398632657,0.015001154183433002,right,-0.0030974149703979492,-0.06965778098367228,0.655444122519344,-9.760886027690768,-0.035052560174717244,-0.006450306624174118,-0.005505938082933426,0.6825564397200942,-0.0021194592118263245
1746738750344936400,8.3949365234375,0.06691434740614012,0.003607397899031639,0.033157957992431215,0.00014817062765359879,0.006617673349182228,0.9988112445433285,0.015586633051329792,right,-0.0010685324668884277,-0.06975815015818018,0.6541207649610936,-9.760905901435017,-0.03511196194264387,-0.0052124676294624805,-0.0018994063138961792,0.6835382903642953,-0.000731155276298523
1746738750384936400,8.4349365234375,0.06703046631150057,-0.013745084404945374,0.033218256777030886,0.0087972991168499,0.006510449955403881,0.9988051039870437,0.01538537876208138,right,0.0006104111671447754,-0.07003529863658477,0.6552414395540952,-9.760640528497099,-0.0352474125331475,-0.011559494771063328,-0.002044685184955597,0.6862495951496064,-0.0018122866749763489
1746738750424936200,8.474936279296875,0.06744124097198485,-0.009957153350114822,0.033428751464728554,0.015372563153505325,0.006263943224175118,0.9987887478827223,0.014927623599239747,right,-0.0008876919746398926,-0.07066346042786589,0.6592216682966798,-9.759938517707585,-0.035554795376766014,-0.017976226285099983,-0.0025498420000076294,0.6923944545801729,-0.0059714242815971375
1746738750464936200,8.514936279296874,0.06806719496588548,0.000552622601389885,0.03374234530359499,0.015740832313895226,0.00612377317553903,0.9987659909698686,0.01469448800565672,right,-0.0021777749061584473,-0.0713998559396067,0.6652959467090666,-9.759012635034322,-0.03592055978636965,-0.012166614644229412,-0.001614108681678772,0.6995978831529617,-0.009929478168487549
1746738750504936200,8.554936279296875,0.06859052399335643,0.006280627567321062,0.03399782552786902,0.009959306567907333,0.006218332096595772,0.9987488387759668,0.014917451159808992,right,-0.0015999674797058105,-0.0718275547784758,0.6703824561931192,-9.75836381573677,-0.03613953045734982,-0.010306340642273426,-0.0007677823305130005,0.7037813793826848,-0.004549108445644379
1746738750544936200,8.594936279296874,0.06895429913567612,0.0028559379279613495,0.03417188153749302,0.005791786126792431,0.006316260888009675,0.9987283635768267,0.015153099945203932,right,-0.003641963005065918,-0.07258640987731396,0.6738952866196632,-9.757583479014038,-0.036523626432186124,-0.022823378443717957,-0.00028146058320999146,0.7112038575336337,-0.0032249316573143005
1746738750584936400,8.6349365234375,0.06909243270906962,0.0009033118840306997,0.03423330532100913,0.0018310598097741604,0.006361690352760875,0.9987048595441061,0.015288875351429896,right,-0.0019191503524780273,-0.07372734471882925,0.6751866416044533,-9.756674547475576,-0.03709611102215878,-0.026017824187874794,-0.002131335437297821,0.7223626726686954,-0.006025783717632294
1746738750624936400,8.6749365234375,0.06919513099010573,0.004746892489492893,0.03427730624487417,0.0018667533295229077,0.0064381547639896074,0.9986868626839396,0.01547542881970975,right,-0.0014894604682922363,-0.07457586993180274,0.6761459881559014,-9.755990072342753,-0.03752333728920306,-0.017826367169618607,-0.0021160393953323364,0.7306609838061034,-0.00372343510389328
1746738750664936200,8.714936279296875,0.06938689783053664,0.007596482522785664,0.03436423419891216,0.007459983229637146,0.006579796968190206,0.9986706443646179,0.015788776025664104,right,-0.0005105733871459961,-0.0752182177944603,0.6779841633684933,-9.755390352883934,-0.03785008081799383,-0.016064997762441635,-0.000725477933883667,0.7369426213588565,-0.0012766718864440918
1746738750704936200,8.754936279296874,0.06967653541740404,0.0024903197772800922,0.03450246209153493,0.00430301483720541,0.006664220394034044,0.9986544543482404,0.015988608119293854,right,-0.0027328133583068848,-0.07578094792021256,0.6807807352844625,-9.754778358465433,-0.03813546345759696,-0.01049964688718319,-0.0008872449398040771,0.7424453834936022,-0.0038428455591201782
1746738750744936200,8.794936279296875,0.06984393142025186,-0.0019756569527089596,0.034586150721963214,0.0037301580887287855,0.006639845021556139,0.9986491989023554,0.015950859682831574,right,-0.0008602738380432129,-0.07591363539449213,0.6824067290510982,-9.754565592497586,-0.03820162090823613,-0.00042969267815351486,-0.001694507896900177,0.7437428759582341,-0.0029271841049194336
1746738750784936200,8.834936279296874,0.0698704613392365,-0.011654464527964592,0.034605249013116325,0.0023824134841561317,0.006486499357051851,0.9986497788146803,0.01564473128668681,right,-0.0011143684387207031,-0.07591257861276372,0.6826655991829932,-9.754548641362785,-0.03819588438476817,-0.0008349562995135784,0.00016413629055023193,0.7437325006946921,-0.0027050524950027466
1746738750824936400,8.8749365234375,0.07023686999378932,-0.00533659802749753,0.03479203627513552,0.007983346469700336,0.0063291180576693735,0.9986373187695138,0.015356700962600325,right,-0.0021967291831970215,-0.07628365627543959,0.6862202229246497,-9.754021402618289,-0.03837734542923944,-0.017574666067957878,0.00006458908319473267,0.7473609933901578,-0.0010161176323890686
1746738750864936400,8.9149365234375,0.07038538638246154,-0.0009816903620958328,0.03486766886023344,0.003692030441015959,0.006209793868712284,0.9986242697724232,0.015144178819939274,right,-0.0001214742660522461,-0.07686807865466505,0.6876380538333207,-9.753482473435998,-0.03866591620267199,-0.010639045387506485,0.0001397058367729187,0.7530754255142063,-0.003751128911972046
1746738750904936200,8.954936279296875,0.07041302053190554,-0.0019640889950096607,0.034880427365157445,-0.003540832083672285,0.006172259554730243,0.9986147628688742,0.015087182075870896,right,-0.0036873221397399902,-0.07734976049160268,0.6878819455917924,-9.753100196120142,-0.03890551098278863,-0.014201287180185318,0.0006526187062263489,0.7577850645098835,-0.0012018010020256042
1746738750944936200,8.994936279296875,0.0701602463795741,0.004151413682848215,0.03475004173761033,-0.007563903462141752,0.0061885375949782976,0.9986050264827893,0.015135582963662684,right,-0.0034533143043518066,-0.07807451519981704,0.6853779268816113,-9.752723179501295,-0.03926743921720914,-0.01742890477180481,0.00020047277212142944,0.7648710772480816,-0.002032160758972168
1746738750984936200,9.034936279296875,0.06979815445837804,0.010811518877744675,0.03455889554562368,-0.008580131456255913,0.006373813890084345,0.9985977095410448,0.015514864301389552,right,-0.0006778240203857422,-0.0787120311430291,0.6818123433545231,-9.752482356482744,-0.03959117954481332,-0.011555112898349762,-0.0009253695607185364,0.7711037610925734,-0.0016078725457191467
1746738751024936200,9.074936279296875,0.06941291050324797,0.015735909342765808,0.03435447608270521,-0.005611065775156021,0.006689773213325828,0.9986030152561574,0.016131343807168207,right,0.0012652873992919922,-0.07868205704341227,0.678056863278523,-9.75276760316491,-0.039585572673310136,0.008768878877162933,-0.0005718246102333069,0.7708106964301318,-0.0030800029635429382
1746738751064936200,9.114936279296876,0.06912302788094699,0.00474395789206028,0.0342017677655429,-0.007775150239467621,0.00695142077764115,0.9986139526130011,0.016630119810229042,right,-0.002443671226501465,-0.07828786275504762,0.6752505736861377,-9.753266200336814,-0.039396314209598056,0.005580236203968525,-0.0007051452994346619,0.7669568705461919,0.0015723705291748047
1746738751104936400,9.1549365234375,0.06874573909322614,-0.004584996961057186,0.03401428396904171,-0.005641627591103315,0.006978490212445983,0.9986261955825102,0.016658903644607957,right,0.00024443864822387695,-0.0779840473827983,0.671586717416346,-9.753751938027143,-0.03924379561375878,0.011592449620366096,-0.0008982941508293152,0.7639865494985133,-0.0027029216289520264
1746738751144936400,9.1949365234375,0.06856257701658298,-0.00048372335731983185,0.033927347019333545,-0.004023274406790733,0.006952872494914416,0.9986413556668717,0.01657913568221322,right,-0.0020542144775390625,-0.07736977932009458,0.6698322018992156,-9.754341136091947,-0.038935097519152195,0.014779343269765377,-0.0011344552040100098,0.7579808062776923,-0.003900371491909027
1746738751184936200,9.234936279296875,0.06838896144213973,0.004635696765035391,0.03384107289499048,-0.005822100676596165,0.007010860504169129,0.9986527972065772,0.016672511253082188,right,-0.0014008879661560059,-0.07690672958575728,0.668162588186562,-9.754806415516137,-0.03870486801512247,0.00566487479954958,-0.0006640106439590454,0.7534533919811248,-0.005486875772476196
1746738751224936200,9.274936279296876,0.06814523208259575,0.0008943569846451283,0.03371804647084107,-0.0071427300572395325,0.007063748333825283,0.9986584850230561,0.016765595866601788,right,-0.0029914379119873047,-0.07680828061992448,0.6657900869015604,-9.75504314688146,-0.03865642446632334,-0.002863164059817791,0.0016457363963127136,0.7524907574940473,-0.006162874400615692
1746738751264936200,9.314936279296875,0.06761897010225466,-0.008269725367426872,0.033455701812770786,-0.015668366104364395,0.006997901181893338,0.9986590386035767,0.0166290293748207,right,-0.0032820701599121094,-0.07726734538680696,0.6606329233340918,-9.755046654012798,-0.03888150038668143,-0.020689666271209717,0.00134364515542984,0.7569793010849505,-0.002354666590690613
1746738751304936200,9.354936279296876,0.06685509651325955,-0.007652159780263901,0.0330761660648593,-0.01951221562922001,0.006821693922989199,0.9986530113764792,0.016281267306990675,right,-0.004108905792236328,-0.07830004848596409,0.6531284659881145,-9.754763160896301,-0.03938872401687439,-0.024816179648041725,-0.0005918592214584351,0.7670760399464518,-0.004928328096866608
1746738751344936400,9.3949365234375,0.06590121688938186,0.013124916702508926,0.03259181477082179,-0.027797048911452293,0.006934995678384671,0.998652400632653,0.016497081136244263,right,-0.0012041330337524414,-0.07909702117737856,0.6437828377548604,-9.754768421593308,-0.03978692627140666,-0.012823516502976418,-0.0047738999128341675,0.7748674975402653,-0.005699239671230316
1746738751384936400,9.4349365234375,0.06493141222805407,0.03369062393903732,0.03208640186928589,-0.025040926411747932,0.0074902803353569655,0.9986649075796269,0.017569360090635526,right,0.00015735626220703125,-0.07906234410727297,0.6343241045359522,-9.7554149028033,-0.03978345172075052,0.008833011612296104,-0.00615590438246727,0.774528474844247,-0.004420824348926544
1746738751424936200,9.474936279296875,0.06406299710581707,0.035256918519735336,0.03162731258818469,-0.02615085244178772,0.00824684592280868,0.9986859936684913,0.01902838951317203,right,-0.002160012722015381,-0.07839863627651482,0.6258848505578934,-9.756472887423634,-0.0394718669039881,0.021205926313996315,-0.0075735487043857574,0.7680399165425449,-0.003556065261363983
1746738751464936200,9.514936279296874,0.06322126080167838,0.02953120321035385,0.03119235805634982,-0.011416766792535782,0.008839337534953506,0.9987194021717062,0.020140190762008337,right,0.0011453032493591309,-0.07710348955938308,0.6177345695890486,-9.757980953899025,-0.03883901505171881,0.028471041470766068,-0.004925940185785294,0.7553771996505558,-0.0021576136350631714
1746738751504936200,9.554936279296875,0.06292741369686167,0.014621356502175331,0.031036043610723475,-0.005590147338807583,0.009232645955172532,0.9987367901690076,0.020889174760079836,right,-0.0005317926406860352,-0.07624977126196335,0.6149075294695794,-9.758802207154035,-0.0384230343364868,0.011857852339744568,-0.004393741488456726,0.7470297156091779,-0.0009896233677864075
1746738751544936200,9.594936279296874,0.06284787318338797,0.00398427527397871,0.03099376708278367,-0.0011825542896986008,0.009372579298478298,0.998744799429877,0.021152759350781362,right,-0.00007152557373046875,-0.07582335611901365,0.6141513042747974,-9.759168117856978,-0.03821381919597578,0.007918165065348148,-0.004657328128814697,0.7428600287090986,-0.0027493759989738464
1746738751584936400,9.6349365234375,0.06273969802437127,-0.0013637999072670937,0.03094199523516453,-0.0013729548081755638,0.009353563427809816,0.9987509065917032,0.02110345875078088,right,-0.001268148422241211,-0.07560049179379034,0.6131059599403291,-9.759399588525294,-0.03810125866076865,0.003047292586416006,-0.0045530833303928375,0.7406807849738747,-0.003829389810562134
1746738751624936400,9.6749365234375,0.06288367721956004,0.002761449199169874,0.031012789703933733,0.007656981237232685,0.009362150215893117,0.9987466146069944,0.02112945488454811,right,-0.0012009739875793457,-0.07570435644315927,0.6145062551923096,-9.759234168830513,-0.038154200812182765,-0.00821143202483654,-0.0037411004304885864,0.741696391757205,-0.004324145615100861
1746738751664936200,9.714936279296875,0.06340692582522614,-0.001309370156377554,0.03126772184449306,0.009357406757771969,0.009426430495655221,0.998727572513227,0.021295500186797454,right,-0.0016816258430480957,-0.0762439823126164,0.6195872117184102,-9.758510530731082,-0.038428707865052786,-0.014339258894324303,-0.005211617797613144,0.7469730900511146,-0.0037853270769119263
1746738751704936200,9.754936279296874,0.06429709825597824,-0.010448837652802467,0.03171154702992184,0.018368244171142578,0.009339549821024608,0.9987042692077175,0.021172624638783694,right,-0.00425410270690918,-0.07676161517375553,0.6282488032102584,-9.757567696923017,-0.03868942918464561,-0.014604795724153519,-0.003289397805929184,0.7520344650939107,-0.0011447668075561523
1746738751744936200,9.794936279296875,0.064905158021314,-0.02327795699238777,0.03202325626132997,0.014050072059035301,0.00899701462812408,0.99868332907207,0.020534592658712134,right,-0.003193974494934082,-0.07750343500071409,0.634145533098653,-9.756624863114952,-0.039052466580257295,-0.01871141977608204,-0.0019062459468841553,0.7592875780273228,-0.0018420889973640442
1746738751784936200,9.834936279296874,0.06545738985202734,-0.018476512283086777,0.032313145868657835,0.016052978113293648,0.008538676879820021,0.9986677851074639,0.019656287340139095,right,-0.0031006932258605957,-0.07804658439922074,0.6395062564142048,-9.755860308483243,-0.03931197087111585,-0.004389762878417969,-0.0025067105889320374,0.7645979593951254,-0.0060893818736076355
1746738751824936400,9.8749365234375,0.06603604751559834,-0.0075705405324697495,0.03261252016054239,0.015855370089411736,0.008288551444411232,0.99866375539215,0.019172461923292763,right,-0.0027190446853637695,-0.07787645290999926,0.6451600443921983,-9.755618316420913,-0.03922160020870596,0.010919119231402874,-0.0008952990174293518,0.7629346292927861,-0.005173258483409882
1746738751864936400,9.9149365234375,0.06657570920459828,-0.005628834944218397,0.03289019299442765,0.012960806488990784,0.008151013233625333,0.9986663279828919,0.01890022644532081,right,-0.0030939579010009766,-0.07734226408164918,0.650451721059531,-9.755673846000432,-0.0389526280026825,0.014420323073863983,0.0006470605731010437,0.757711780077964,-0.003941886126995087
1746738751904936200,9.954936279296875,0.0669181764712412,-0.013929052278399467,0.03307328731266057,0.00658387178555131,0.007929566698110535,0.9986744483008205,0.018448849897295706,right,-0.0023550987243652344,-0.07671413374964321,0.6538243392977863,-9.755923436847329,-0.03863292245483583,0.013564497232437134,0.0013783052563667297,0.751570208583027,-0.00237998366355896
1746738751944936200,9.994936279296875,0.06700980894736566,-0.020445257425308228,0.033137661760863496,0.005418980494141579,0.007531793985279745,0.9986870399511031,0.017636170467456264,right,-0.001616060733795166,-0.07613450926333322,0.6547473724268377,-9.756296361812948,-0.03833040170766892,0.011357889510691166,0.0012129247188568115,0.7459026112753897,-0.0025197044014930725
1746738751984936200,10.034936279296875,0.06704713725526552,-0.020496316254138947,0.033176621484841476,-0.000884160865098238,0.0070511570935068634,0.9986965577007433,0.016663228479447328,right,-0.002661585807800293,-0.07578480341351446,0.6551289921555667,-9.756531339612602,-0.03813978723466925,0.0061624785885214806,0.0005363151431083679,0.742483085155487,-0.004425831139087677
1746738752024936200,10.074936279296875,0.06692910914654548,-0.01229711715131998,0.03313309112974954,-0.0011955919908359647,0.006677723772707505,0.9987049129207995,0.015904046394915817,right,-0.002483546733856201,-0.07558242910032995,0.6539874939702451,-9.75675871862769,-0.038025743437870706,0.005207435693591833,0.0008707642555236816,0.7405041132327169,-0.006298661231994629
1746738752064936200,10.114936279296876,0.0665931883054036,-0.007261077873408794,0.03297562270917243,-0.01014518178999424,0.006453399321860768,0.9987174712582678,0.015432236790769022,right,-0.0028305649757385254,-0.07529100186936599,0.6507242543905973,-9.757192433869838,-0.03787131987056378,0.007439319975674152,-0.000614553689956665,0.7376543498247862,-0.008160904049873352
1746738752104936400,10.1549365234375,0.06587087765002787,-0.004094547592103481,0.03262591361090536,-0.005861290730535984,0.0062511520163893875,0.9987411850907439,0.014981192805121932,right,0.0006620287895202637,-0.07472984747379585,0.6437035619735717,-9.758071554791927,-0.037581413320769044,0.01068815030157566,0.00028596073389053345,0.7321667852591722,-0.006957583129405975
1746738752144936400,10.1949365234375,0.06537793871404117,-0.003774250391870737,0.0323849098753732,-0.00947599671781063,0.006142878841596542,0.9987527404865018,0.014740890915134584,right,-0.0010744929313659668,-0.07458014623389463,0.6389004725407809,-9.758497086727619,-0.037501223936003136,-0.0017142212018370628,-0.0005275681614875793,0.730702777121216,-0.004172436892986298
1746738752184936200,10.234936279296875,0.06494215673794144,-0.002985410625115037,0.03216940515164681,-0.005450780503451824,0.00608488883929281,0.9987588367177145,0.014610873226231334,right,-0.000695645809173584,-0.07465550011639292,0.634644276401028,-9.75871978956759,-0.03753542054084855,-0.0010014275321736932,0.00016957521438598633,0.7314397130936384,-0.0037775784730911255
1746738752224936200,10.274936279296876,0.06437329720996476,-0.00771063007414341,0.03188786582437346,-0.015911974012851715,0.006004484544635932,0.9987650523668935,0.014434452768921363,right,-0.0016379356384277344,-0.07483921776668576,0.6290841580558568,-9.75894483049512,-0.037622620193122576,-0.00847097858786583,-0.002886742353439331,0.7332363141868263,-0.001119770109653473
1746738752264936200,10.314936279296875,0.06360451962203037,-0.004839587956666946,0.03150696936257341,-0.015555928461253643,0.005888490010636933,0.9987705495726298,0.014186029091940248,right,-0.0013778209686279297,-0.07523845775823206,0.6215628226403147,-9.759132462021707,-0.037815767360829866,-0.009709194302558899,-0.0029626749455928802,0.7371404820185155,-0.002322353422641754
1746738752304936200,10.354936279296876,0.06299026662564705,-0.004767287522554398,0.03120089359228564,-0.016327980905771255,0.005836821763015429,0.9987736799093319,0.014070923941102185,right,-0.0017880797386169434,-0.07560400687271739,0.6155511611353606,-9.75924293665886,-0.03799470896346975,-0.00973900593817234,-0.005340903997421265,0.7407151256348937,-0.0022761523723602295
1746738752344936400,10.3949365234375,0.06248695178840599,-0.004208557307720184,0.03095298547191943,-0.007626675069332123,0.005757182533615533,0.9987821713404067,0.013891983702255563,right,-0.0015055537223815918,-0.07559382226731934,0.6106395698267966,-9.75955916300118,-0.037985385153917625,0.003455239348113537,-0.0051232315599918365,0.7406155377179384,-0.001284085214138031
1746738752384936400,10.4349365234375,0.062058009451648764,-0.01121665257960558,0.030747827597527963,-0.00903272069990635,0.005557698916955177,0.9987947118495837,0.013468256430764743,right,-0.0027759671211242676,-0.07533935138746177,0.606464914490655,-9.760008075812458,-0.03785055817779908,0.008161226287484169,-0.004856560379266739,0.7381271549683064,-0.0014483705163002014
1746738752424936200,10.474936279296875,0.06184570086053255,-0.005757075268775225,0.030652600726158545,0.0026876088231801987,0.005346447494719635,0.9988103826300571,0.01301855460244799,right,-0.000244140625,-0.07474130036130638,0.6044199281269684,-9.760575062045454,-0.03754441219590692,0.02019457146525383,-0.003275524824857712,0.7322787942662835,-0.004739865660667419
1746738752464936200,10.514936279296874,0.06204749061252123,0.002184999641031027,0.030758912259431784,0.01332802139222622,0.0053086657926741075,0.9988254675664353,0.012920135228134969,right,-0.0008966326713562012,-0.07377080433037647,0.6064332772433757,-9.761157830369472,-0.037058770912678424,0.0226939395070076,-0.004287250339984894,0.7227876931477337,-0.004050225019454956
1746738752504936200,10.554936279296875,0.06249791059209905,0.0012085615890100598,0.030985663154487128,0.013985414989292622,0.0053519492678936135,0.9988337115266267,0.012996885919772052,right,-0.00199049711227417,-0.07292532158369366,0.6108677890921012,-9.761489838802813,-0.036638915932272635,0.01755080744624138,-0.0014689788222312927,0.71451860810481,-0.004494994878768921
1746738752544936200,10.594936279296874,0.06285882310909303,-0.00147133634891361,0.031168489541650586,0.005478663370013237,0.005356075102736003,0.9988403387974663,0.01299694323287439,right,-0.0032657384872436523,-0.07224835604155862,0.6144210611268878,-9.761749366521835,-0.03630179779828034,0.012522023171186447,-0.0011351779103279114,0.7078973633341491,-0.004954710602760315
1746738752584936400,10.6349365234375,0.06294583817698397,-0.004280793946236372,0.031215114520975855,0.0028643182013183832,0.005301015773231316,0.9988443608293035,0.012880944299609762,right,-0.0027807950973510742,-0.07196726331425413,0.6152829386532306,-9.761894327950477,-0.03615983764666695,-0.0021685780957341194,0.00016827881336212158,0.7051479184955358,-0.004526056349277496
1746738752624936400,10.6749365234375,0.06298321462729572,-0.00041691609658300877,0.03123442408653803,-0.0008325628004968166,0.005251055699942927,0.9988392787419745,0.012790619334884741,right,-0.002534031867980957,-0.07223064938716221,0.6156361360050737,-9.761685653635858,-0.0362900653554189,-0.007085819728672504,-0.001422826200723648,0.7077241256590933,-0.006297864019870758
1746738752664936200,10.714936279296875,0.06285710970390043,0.003838447155430913,0.03116814104946481,-0.00516522629186511,0.005324658248259084,0.9988379561549097,0.012938568959738312,right,-0.002938687801361084,-0.07239341496699288,0.614397899447009,-9.761647659713029,-0.03637332620964359,-0.00007680244743824005,-0.002132005989551544,0.7093161440908908,-0.006479986011981964
1746738752704936200,10.754936279296874,0.06259624199711414,-0.00042183720506727695,0.03103534777125474,-0.005615441594272852,0.005398791942414898,0.9988415766829593,0.013077417757097042,right,-0.0022335052490234375,-0.07239055353954808,0.6118514663672074,-9.761810156798362,-0.03637336127931629,-0.004059112165123224,-0.003124397248029709,0.7092881601054221,-0.004798777401447296
1746738752744936200,10.794936279296875,0.06209215725267309,-0.006736835464835167,0.030789966850146067,0.0007228902541100979,0.0052478242080499626,0.9988524375784471,0.012752872730078616,right,0.00417327880859375,-0.07226571837995413,0.6069361121989786,-9.762205293595791,-0.036304659954378905,0.007479636464267969,-0.0015557482838630676,0.708067166943103,-0.006641291081905365
1746738752784936200,10.834936279296874,0.06218402615523975,-0.006341665051877499,0.030840595482522788,0.007992053404450417,0.005129013575804384,0.9988537129857892,0.012514712284798318,right,0.0004137754440307617,-0.07215064084413066,0.6078379929421469,-9.762231012558937,-0.036243756508967065,-0.002516342792659998,-0.0020830929279327393,0.7069415969792753,-0.0019058659672737122
1746738752824936400,10.8749365234375,0.06252732432350883,-0.00897845160216093,0.031013624583243807,0.009474918246269226,0.005037210789595346,0.9988423996545854,0.012354736123960658,right,-0.0011690258979797363,-0.07251206022083272,0.6111733113773167,-9.761765733134746,-0.036422651139300564,-0.009756173938512802,-0.0013081096112728119,0.7104766392376274,-0.0025000199675559998
1746738752864936400,10.9149365234375,0.06274033959438714,-0.009257104247808456,0.031125249227714497,-0.0008504940196871758,0.004863531609626347,0.998835722060997,0.012021998647774708,right,-0.0025835037231445312,-0.07274172368557112,0.613242445801571,-9.761472303146123,-0.0365327079765397,-0.004423112142831087,-0.0028528347611427307,0.7127228837944567,-0.003543257713317871
1746738752904936200,10.954936279296875,0.062638718512937,-0.0001226235181093216,0.031077457668005553,-0.0025899463798850775,0.00476756676918701,0.9988350828116646,0.01183087199593321,right,-0.0025243759155273438,-0.07289208026957426,0.6122437901530414,-9.761427879482508,-0.03660457934622236,-0.004684071056544781,-0.002190731465816498,0.7141934678036719,-0.004866480827331543
1746738752944936200,10.994936279296875,0.06270314738246771,0.01304116565734148,0.031102032846796378,-0.0017906269058585167,0.004960025037320332,0.9988309530498669,0.012222393327494986,right,-0.0025177001953125,-0.07301220730867254,0.6128672923462465,-9.761302207276225,-0.03667081471475482,-0.005196090787649155,-0.004157442599534988,0.7153684298671782,-0.005251750349998474
1746738752984936200,11.034936279296875,0.06272444545078942,0.01246596872806549,0.0311019924731643,0.003367331810295582,0.005260592469595548,0.9988306473693405,0.012822300360414051,right,-0.002126455307006836,-0.07292633885694136,0.6130790719334036,-9.761350722593068,-0.03663731482228398,0.003906295634806156,-0.001982111483812332,0.7145285449769347,-0.003590501844882965
1746738753024936200,11.074936279296875,0.06275171790185956,-0.002414318732917309,0.03111246303889474,-0.0000844139140099287,0.005366278823537417,0.9988327858484282,0.013029559130346514,right,-0.0030640363693237305,-0.07275677509194431,0.6133528473734855,-9.761454767489433,-0.036555927662010566,0.0016804097685962915,-0.0024061836302280426,0.7128701102454215,-0.0005462765693664551
1746738753064936200,11.114936279296876,0.06277890584311213,-0.0075903465040028095,0.03113093879551261,0.005502501502633095,0.005235466790875881,0.9988335258595493,0.012767699584560251,right,-0.0003860592842102051,-0.07272755093266385,0.6136195354856551,-9.76145885914266,-0.03653733232657689,0.0022939511109143496,-0.0016427412629127502,0.7125842790413648,-0.0030838698148727417
1746738753104936400,11.1549365234375,0.06308122559237442,0.00015620142221450806,0.03128489470929409,0.005995512939989567,0.0051689667169254605,0.9988322673583164,0.012640125634788711,right,-0.002187669277191162,-0.07255521268305504,0.6165783122260123,-9.761395146256685,-0.036450060104183384,0.007581725716590881,-0.002430003136396408,0.7108986640419811,-0.006556198000907898
1746738753144936400,11.1949365234375,0.06335518681708553,0.0036024944856762886,0.031420086140190505,0.005981343798339367,0.005248700540089627,0.9988336209114349,0.0127990409137188,right,-0.0014746785163879395,-0.07221882839359195,0.6192676974404603,-9.761464119839667,-0.03628527092110132,0.006504576653242111,-0.001453455537557602,0.7076085364554077,-0.005532078444957733
1746738753184936200,11.234936279296875,0.06363143403640022,-0.0017678807489573956,0.03155634915345859,0.003908492159098387,0.005305752254398672,0.9988311917945748,0.012919255582310198,right,-0.0022867918014526367,-0.07209225442495003,0.6219699421364814,-9.761381702253223,-0.03622468148603639,-0.004601258784532547,-0.0006855577230453491,0.7063705190930515,-0.0030071288347244263
1746738753224936200,11.274936279296876,0.06374600813570201,-0.004242607858031988,0.03161429649276557,-0.0009772027842700481,0.005237905058451664,0.9988229077225375,0.012799778484430126,right,-0.002417266368865967,-0.07247278704888806,0.6230711813766509,-9.761041510513424,-0.03641313539342845,-0.010677672922611237,-0.0020899102091789246,0.7100924622256308,-0.004966080188751221
1746738753264936200,11.314936279296875,0.06375904986548946,0.0004899869672954082,0.03161968670297135,-0.0006652061128988862,0.005219251298776726,0.9988152381156393,0.012776157049315812,right,-0.002515256404876709,-0.07288543108160227,0.6231797563176602,-9.760740481740235,-0.03661887415887192,-0.009051138535141945,-0.0023212991654872894,0.7141284397434443,-0.00447971373796463
1746738753304936200,11.354936279296876,0.06382448724514037,0.0009747141739353538,0.03164955845508095,0.001409627147950232,0.005245741719126402,0.998806654752049,0.01284475390134589,right,-0.0016690492630004883,-0.07329447004640109,0.6237997879121452,-9.760407304263115,-0.03682440149352525,-0.010868804529309273,-0.002176966518163681,0.7181290536869317,-0.0031535550951957703
1746738753344936400,11.3949365234375,0.0638248571469125,-0.0014419964281842113,0.03164682533210355,-0.0018835618393495679,0.005292672293836831,0.9988014703019233,0.012947397666629572,right,-0.0010409951210021973,-0.07356364348758768,0.6237910200837999,-9.760213827517628,-0.03696045038194663,-0.003947061486542225,-0.003083575516939163,0.7207616672128438,-0.0005682036280632019
1746738753384936400,11.4349365234375,0.06379559752471528,-0.008754223585128784,0.031635485202866215,-0.002167652826756239,0.005212717258654259,0.9988035730409374,0.012784058188370551,right,-0.001192927360534668,-0.07349660636416823,0.6235085498806089,-9.760279878491163,-0.03692431200044596,0.012310591526329517,-0.002422664314508438,0.7201059797830879,-0.0018909499049186707
1746738753424936200,11.474936279296875,0.0641779982202608,-0.008958491496741772,0.031834321577709636,0.010598879307508469,0.005066414319449057,0.9988098049919605,0.012484800077202733,right,-0.0009534955024719238,-0.07286442884940894,0.6272698751755058,-9.760493228980899,-0.036604837935696,0.016220640391111374,-0.0023349113762378693,0.7139230533644556,0.0012330710887908936
1746738753464936200,11.514936279296874,0.06465391991399662,-0.011763743124902248,0.0320815237278211,0.013179056346416473,0.004863958178405463,0.9988135893897878,0.012078043519009377,right,-0.00119704008102417,-0.0722869592117456,0.6319415933135897,-9.760603703618049,-0.036311133549448024,0.01666516251862049,-0.0003661438822746277,0.7082748914096504,-0.0005047917366027832
1746738753504936200,11.554936279296875,0.06501118788899564,-0.01206167135387659,0.03227318624389067,0.0021369922906160355,0.004573472053417772,0.998822139155112,0.011485769790026676,right,-0.003448307514190674,-0.07156586188718331,0.6354617302637547,-9.760884274125099,-0.0359423295999642,0.01775027997791767,-0.0017945170402526855,0.701221684962511,-0.0046662092208862305
1746738753544936200,11.594936279296874,0.06489083762578951,0.002921413630247116,0.032218316221850354,-0.00424136221408844,0.0044732693046607395,0.9988315200170057,0.01126806145015708,right,-0.004583954811096191,-0.07117586863011581,0.6343046691831201,-9.761232649171351,-0.03574378091828926,0.0007603112608194351,-0.001074463129043579,0.6974068759147077,-0.00704202800989151
1746738753584936400,11.6349365234375,0.06466640702538659,0.028381528332829475,0.032091522984812576,-0.006771788466721773,0.004859529546200542,0.9988288862268255,0.012041500213411804,right,-0.0017403960227966309,-0.07142305811290853,0.6321027752246707,-9.761202838554977,-0.03587914280340052,-0.012829756364226341,-0.004235249012708664,0.6998248237766325,-0.006578966975212097
1746738753624936400,11.6749365234375,0.06455096437094118,0.034449078142642975,0.03200814565256834,-0.0013012574054300785,0.005558785071553065,0.9988244443942751,0.013442344569054887,right,0.00009882450103759766,-0.07157187656444618,0.6309691680848598,-9.761171274372934,-0.035975611395729586,0.0017604008316993713,-0.004648502916097641,0.7012805024776607,-0.00611317902803421
1746738753664936200,11.714936279296875,0.0646566762108651,0.011845199391245842,0.03204362831165441,0.0030907783657312393,0.006086780144952819,0.9988262767383006,0.014491260957450642,right,-0.0009185671806335449,-0.07119985022484232,0.6320178734201938,-9.76136416659653,-0.03580692418843813,0.010642658919095993,-0.00368557870388031,0.6976414153229444,-0.001958794891834259
1746738753704936200,11.754936279296874,0.06492355498189296,-0.008096028119325638,0.032177751591554865,0.013837299309670925,0.0061256285367867055,0.9988306374042288,0.014562204040600296,right,0.00022929906845092773,-0.07069840358858534,0.6346455185100436,-9.761543030294776,-0.03555845138708618,0.010558216832578182,-0.0028111636638641357,0.6927363268204033,-0.0018412992358207703
1746738753744936200,11.794936279296875,0.06552552279793117,-0.014110628515481949,0.03248843318978602,0.016657637432217598,0.0058669693816383334,0.9988269304954712,0.01405707299171485,right,-0.0022884011268615723,-0.07043698031116088,0.6405334075048565,-9.761339616677164,-0.03542153596256984,0.005253685638308525,-0.0026278644800186157,0.6901789704877883,-0.006346270442008972
1746738753784936200,11.834936279296874,0.0661384558791977,-0.010983944870531559,0.03280578448988568,0.018782179802656174,0.005585836246576536,0.9988248778238346,0.013503693820436154,right,-0.0009493827819824219,-0.07007127662154562,0.6465329401805997,-9.761196408814191,-0.0352316238150097,0.013876018114387989,-0.0008925497531890869,0.686601550392434,-0.008562002331018448
1746738753824936400,11.8749365234375,0.06673817523531463,-0.006898875348269939,0.03311302369261393,0.012695306912064552,0.005409513011358629,0.9988233200751566,0.013157557919924625,right,-0.0036805272102355957,-0.0696480215350822,0.6524061430629342,-9.761095871049164,-0.035016191453271776,0.007781598716974258,-0.000009007751941680908,0.6824609434563667,-0.006995409727096558
1746738753864936400,11.9149365234375,0.06697068037834132,-0.0013285106979310513,0.033232756233880334,-0.0009379563853144646,0.005320185466836509,0.9988223891675209,0.012982044743553509,right,-0.0031946301460266113,-0.06950574377451861,0.6546821251709014,-9.761040925991535,-0.03494285001661326,0.0011705798096954823,-0.0010813847184181213,0.6810690507065504,-0.009394943714141846
1746738753904936200,11.954936279296875,0.06688992663335064,0.010052073746919632,0.033188799537535285,0.0013035335578024387,0.005425260562043749,0.9988231331105938,0.013189629778535935,right,-0.0013166069984436035,-0.06950611809571726,0.653893897402659,-9.761093532961606,-0.034946268211063974,-0.0014899338129907846,-0.0006935596466064453,0.681072703968361,-0.008855435997247696
1746738753944936200,11.994936279296875,0.0668875047754811,0.013284647837281227,0.03317727247169371,0.0013475163141265512,0.005709553256380593,0.9988202017280172,0.01376151239955288,right,-0.002073526382446289,-0.06958659346468306,0.6538665710043162,-9.761040341469645,-0.034995939187494905,-0.006231087259948254,-0.004091903567314148,0.6818599818885326,-0.006921157240867615
1746738753984936200,12.034936279296875,0.0666408855028824,0.010331068187952042,0.03304487891556974,-0.004090205766260624,0.00596521996117789,0.998821246051469,0.014267804556873466,right,-0.0010500550270080566,-0.06967585395483308,0.6514551990136503,-9.761140879234672,-0.03504817887913464,-0.0001049339771270752,-0.002283252775669098,0.6827331845264881,-0.005290277302265167
1746738754024936200,12.074936279296875,0.06635322507505939,0.0013043200597167015,0.03289471718494928,-0.007498337887227535,0.006125631489444988,0.9988212591726265,0.014586204166689792,right,-0.005166769027709961,-0.06989392660473197,0.64863743817918,-9.761178873157501,-0.03516146382973987,-0.011100083589553833,-0.0034757331013679504,0.6848665432933717,-0.003821529448032379
1746738754064936200,12.114936279296876,0.06610001684410935,0.00004221661947667599,0.0327689903342167,0.0053870584815740585,0.006061273154024136,0.9988196137655563,0.014460243852171036,right,-0.0030027031898498535,-0.07024876110514687,0.6461497130166739,-9.761099378180504,-0.03533583025908377,-0.007585007697343826,-0.0043444521725177765,0.6883377996005118,-0.005239441990852356
1746738754104936400,12.1549365234375,0.06626510711148498,-0.0019486830569803715,0.032851665687834895,0.005163299385458231,0.006018552388976605,0.9988128962778372,0.014388794392803715,right,-0.0019512176513671875,-0.07049584601596626,0.647749841689691,-9.760822899326682,-0.03545854764904125,-0.008306743577122688,-0.002125948667526245,0.690754870679602,-0.0021782219409942627
1746738754144936400,12.1949365234375,0.0667867566000238,-0.014787275344133377,0.033116259445067346,0.016117790713906288,0.00583327417356607,0.9987971958443433,0.014051858901051654,right,-0.0024265646934509277,-0.07095774691901674,0.6528201306913047,-9.760164143157004,-0.03568520679095469,-0.01506325975060463,-0.0003930628299713135,0.6952732248868793,-0.0016785264015197754
1746738754184936200,12.234936279296875,0.06720661620208228,-0.024866297841072083,0.03333812124773684,0.005561230704188347,0.005385165298982901,0.9987786606916303,0.013196301233772382,right,-0.002881944179534912,-0.07174777268987084,0.6568808773241936,-9.759338213726878,-0.03606669697710609,-0.016628384590148926,-0.0017317533493041992,0.7030010426599532,-0.004817672073841095
1746738754224936200,12.274936279296876,0.06731771959068307,-0.0054232049733400345,0.03340356382546922,0.002856569131836295,0.00502718295470181,0.9987665524971274,0.012506100068722954,right,-0.0017054080963134766,-0.07241533857808537,0.6579334551170468,-9.758794608369469,-0.03638884174819646,-0.013138629496097565,-0.0014642030000686646,0.7095305905591696,-0.0060246288776397705
1746738754264936200,12.314936279296875,0.06752208333557339,0.011367402970790863,0.033497925346540676,0.000552335986867547,0.005153546734613663,0.9987503621619821,0.012789284563150588,right,-0.0049037933349609375,-0.07308280827924801,0.6598956951007247,-9.758185536560415,-0.03672741338481022,-0.013866954483091831,-0.0026464760303497314,0.7160588963493705,-0.00527229905128479
1746738754304936200,12.354936279296876,0.06742940935821144,0.01252991333603859,0.033438875205273846,-0.008817377500236034,0.005468059236650618,0.9987452531099509,0.01342504638370254,right,-0.0030295848846435547,-0.07335826342257129,0.6589780687991529,-9.758049342960119,-0.03687535782693569,-0.002165999263525009,-0.0024788230657577515,0.7187529577389359,-0.003121010959148407
1746738754344936400,12.3949365234375,0.06712438794081493,0.002955053932964802,0.0332803673175932,-0.008098256774246693,0.005651706055398631,0.9987508209418998,0.01377876090872184,right,-0.0006389021873474121,-0.07327617229806115,0.656005555794388,-9.758308870679139,-0.03683941742501006,0.0014025918208062649,-0.002214886248111725,0.7179501169234513,-0.0011970028281211853
1746738754384936400,12.4349365234375,0.06690142187398047,-0.0007037597242742777,0.03316834830848471,-0.003910951316356659,0.005671730390082362,0.9987541241152397,0.013811261742916445,right,-0.0019513964653015137,-0.07329474365320551,0.6538288693424313,-9.758441557148098,-0.036848599005899235,-0.005953062791377306,-0.003651171922683716,0.7181317571006715,-0.0017935261130332947
1746738754424936200,12.474936279296875,0.06665341720223104,0.006217465735971928,0.03304189254037741,-0.0061554694548249245,0.005713964327874136,0.998753270797546,0.013895390030881367,right,-0.0013201236724853516,-0.07355387615608232,0.6513963084332645,-9.758417007228731,-0.03697868805523723,-0.002640001941472292,-0.005018319934606552,0.7206660978838801,-0.006226658821105957
1746738754464936200,12.514936279296874,0.06653732822277342,0.018035268411040306,0.03297530925611348,0.0027056196704506874,0.005979183856158493,0.9987579200027424,0.014414345902406476,right,0.00046902894973754883,-0.07331997183970959,0.6502746109269559,-9.75866075285673,-0.03687010957283015,0.008174331858754158,-0.004663430154323578,0.7183784984033554,-0.0034505724906921387
1746738754504936200,12.554936279296875,0.06688564998612563,0.013012653216719627,0.0331379409591478,0.011060611344873905,0.006308404320991589,0.9987540592173991,0.015079176032188732,right,-0.006222844123840332,-0.07310376069751953,0.6536841271094977,-9.75858827214241,-0.036774198535551944,-0.0014660488814115524,-0.0030778199434280396,0.7162638443369418,0.0017030313611030579
1746738754544936200,12.594936279296874,0.06728477176624435,-0.0046800971031188965,0.03333656612756005,0.012446999549865723,0.006317891196860245,0.9987470824026715,0.015113321263452691,right,0.00019949674606323242,-0.07311707002715492,0.657578285003826,-9.758317053985595,-0.036782671874156805,0.006545973941683769,-0.0021375343203544617,0.7163940465878695,-0.0031462982296943665
1746738754584936400,12.6349365234375,0.06780156310151121,-0.010227508842945099,0.03360459391403255,0.016778744757175446,0.0061263740835771525,0.998751563426896,0.014726242524377355,right,-0.0012839436531066895,-0.07245606726917868,0.6626531771153211,-9.758446233323216,-0.036447720119309746,0.020105721428990364,-0.0009343847632408142,0.709928942226991,-0.0007795542478561401
1746738754624936400,12.6749365234375,0.06837053635078323,-0.016378851607441902,0.033902601481644465,0.011649860069155693,0.005814558883559564,0.998754647073579,0.014101783473080309,right,-0.002012193202972412,-0.07185210847802738,0.6682344843789935,-9.75849357959628,-0.03613728183402238,0.012653285637497902,-0.0017508044838905334,0.7040215448141097,-0.004896566271781921
1746738754664936200,12.714936279296875,0.06863680710673269,-0.006579328328371048,0.0340480737648042,0.003854784183204174,0.005565370522825301,0.9987655839381814,0.013585078602813681,right,-0.0015286803245544434,-0.07106138168131221,0.6708708972971886,-9.75886767360568,-0.03573439630894911,0.028049014508724213,-0.003502868115901947,0.6962869319740682,-0.012343652546405792
1746738754704936200,12.754936279296874,0.06843757472432206,0.001087951473891735,0.03395945161177627,0.0032519379165023565,0.00544103113151017,0.9987940777700668,0.013281100300405758,right,-0.002118051052093506,-0.06967262098379307,0.6689920247480273,-9.759956637886166,-0.03503515727349112,0.031191185116767883,-0.0009856894612312317,0.6827015472792088,-0.008313402533531189
1746738754744936200,12.794936279296875,0.06831966831900026,0.004177448805421591,0.0339029918051292,-0.0048269713297486305,0.005461364322037667,0.9988076682778547,0.013294345588009359,right,-0.0014324784278869629,-0.06899437754697296,0.6678727383945137,-9.760494982546568,-0.034696352379910436,0.006101392209529877,-0.0017580464482307434,0.6760662739831954,-0.007542356848716736
1746738754784936200,12.834936279296874,0.06819036719469632,0.0075129177421331406,0.0338340275413557,0.0005120616406202316,0.005599091026676818,0.9988102931234468,0.01356326243724254,right,-0.0012325644493103027,-0.06892527250127042,0.6666138974398375,-9.760627669015527,-0.03466603805345796,-0.004078875295817852,-0.0018330961465835571,0.6753902013525367,-0.006210654973983765
1746738754824936200,12.874936279296875,0.06808108980067101,0.005572733469307423,0.033771362372234874,-0.005325723439455032,0.0057676419882153485,0.9988026368589432,0.013913959941411562,right,-0.002126038074493408,-0.06942061621860597,0.6655244217026979,-9.760365803208947,-0.03491902726368771,-0.020642466843128204,-0.0020029544830322266,0.6802362531442194,-0.0039195716381073
1746738754864936400,12.9149365234375,0.06795839216914454,0.008810988627374172,0.03369996962520715,0.0013497616164386272,0.00593274972319199,0.9987875407717006,0.014272106594746826,right,-0.0015488266944885254,-0.07035006810386145,0.6642836278613656,-9.759812260979414,-0.035388867960952516,-0.022458979859948158,-0.0011490210890769958,0.6893287833992391,-0.0035801976919174194
1746738754904936200,12.954936279296875,0.06804630144336929,0.005953930784016848,0.03373270444667588,-0.0016785727348178625,0.006147879360997237,0.9987722161020373,0.01473047366822355,right,-0.003127872943878174,-0.07106354039472039,0.6651079498562962,-9.75926047231555,-0.03575315342617615,-0.011282116174697876,-0.0037987828254699707,0.6963080478273331,-0.0029538050293922424
1746738754944936200,12.994936279296875,0.06810205640715407,-0.004033704753965139,0.033758697914703484,0.0017976427916437387,0.006205875954002168,0.998771903384433,0.01484676885085523,right,-0.003353714942932129,-0.07101002899808007,0.6656546239536255,-9.759261056837438,-0.03572856388358505,0.004162750206887722,-0.004176408052444458,0.6957846084751188,-0.0010016411542892456
1746738754984936200,13.034936279296875,0.06805436753502964,-0.018040303140878677,0.033746534862461416,-0.0005652769468724728,0.005927235314786687,0.9987805339967083,0.014275218307238042,right,-0.002030014991760254,-0.07066363086199208,0.6652055650118738,-9.759532274994253,-0.03554578929354139,0.0071939704939723015,-0.002865538001060486,0.6923961350806057,-0.001964278519153595
1746738755024936200,13.074936279296875,0.06804799393918576,-0.01379998866468668,0.03375950014674597,0.00447210343554616,0.005527172669699151,0.9987902552861593,0.013459575055245745,right,-0.002564728260040283,-0.07024596717733667,0.6651629679791629,-9.759824535939098,-0.035323431933146826,0.013977913185954094,-0.0038137733936309814,0.6883104001369327,-0.008286543190479279
1746738755064936200,13.114936279296876,0.0681573630890409,0.00019182078540325165,0.033823954298967174,0.0036524413153529167,0.005348457789310775,0.998803324902545,0.013078046248280725,right,-0.0019799470901489258,-0.0694437167224584,0.6662677874159068,-9.760299167713523,-0.034916647676733165,0.021936621516942978,-0.00431186705827713,0.6804622439198196,-0.008707180619239807
1746738755104936400,13.1549365234375,0.06833386778535813,0.006157444324344397,0.03391208497093562,0.002860510256141424,0.005444258919792615,0.9988130106328748,0.013249724560938415,right,-0.0031619668006896973,-0.06867866587457268,0.6680258831296115,-9.760697811642288,-0.03453796661280293,0.012874171137809753,-0.0038906633853912354,0.6729775141876191,-0.007224816828966141
1746738755144936400,13.1949365234375,0.06852631604317456,0.005751044023782015,0.034004048011329675,0.001222176942974329,0.0056106190046063655,0.9988151900559276,0.01357651546767609,right,-0.0022600293159484863,-0.06830252092346684,0.6699215606831014,-9.760821145761012,-0.034356202043908136,0.0046863676980137825,-0.0035645216703414917,0.6692974374353885,-0.007016133517026901
1746738755184936200,13.234936279296875,0.06878736049371953,0.004451746586710215,0.03412977792325083,0.005674836691468954,0.005761704420031875,0.9988124642976646,0.013882703834200847,right,-0.0028063058853149414,-0.06814891333749575,0.6724766519933939,-9.760748665046691,-0.03428544849148234,-0.0019312230870127678,-0.0034412071108818054,0.6677945585917681,-0.006984200328588486
1746738755224936200,13.274936279296876,0.0690200256891541,0.0040176198817789555,0.034241060006265533,0.006292443722486496,0.005874867238765309,0.998804636262963,0.014123846019169725,right,-0.0029737353324890137,-0.06833759958023256,0.6747388978369534,-9.760465756452083,-0.03438447476272803,-0.006614516489207745,-0.002472691237926483,0.6696406248498707,-0.007520668208599091
