time,seconds_elapsed,roll,rotationRateZ,quaternionY,rotationRateY,quaternionZ,quaternionW,yaw,devicelocation,accelerationZ,pitch,gravityX,gravityZ,quaternionX,rotationRateX,accelerationX,gravityY,accelerationY
1746575842977209300,0.271209228515625,-0.3381064804504707,0.016849452629685402,-0.16489964287420636,0.008054107427597046,-1.8858907239532257e-17,0.979468486581589,-0.03928489408378661,right,-0.04872399568557739,-0.22918498056019038,-3.1678222263753413,-9.009533407381177,-0.1159730476160177,-0.0980689525604248,0.4083700180053711,2.22791263519451,-0.00028461217880249023
1746575843017209300,0.311209228515625,-0.17396865868151942,-0.04311323165893555,-0.08875010789481555,0.024791859090328217,0.031289253692619125,0.9885317088134302,0.042130332731187395,right,-0.009048402309417725,-0.24139851913815477,-1.648238331669569,-9.378568379825353,-0.11810798627477764,-0.15078839659690857,0.254134863615036,2.3443856359772384,-0.005940854549407959
1746575843057209300,0.351209228515625,-0.009128609869902975,-0.10307592153549194,-0.011991356125132828,0.04152961075305939,0.062363774644421034,0.9908092879865483,0.1246157558561276,right,0.007832467555999756,-0.24047574589517673,-0.08694373123389668,-9.52406464599669,-0.11943219546455854,-0.20350784063339233,0.09564638137817383,2.3355976416267454,0.0011759847402572632
1746575843097209300,0.391209228515625,0.06071073582506462,-0.19858324527740479,0.020663420394156855,0.04239489883184433,0.07285680085717679,0.9894559881147409,0.1544379793406167,right,-0.001495361328125,-0.24370635561495468,0.577421190835908,-9.49933294032216,-0.12345776558966694,-0.27332213521003723,0.024714436382055283,2.3663553295925257,0.0060739666223526
1746575843137209300,0.431209228515625,0.07533512730360542,-0.23592495918273926,0.02758487700955544,0.0592401921749115,0.07234639974577496,0.9888789230064076,0.15552014610671572,right,-0.0022115707397460938,-0.24972988995340673,0.7151906621474772,-9.475487954354286,-0.1269789275959828,-0.26906922459602356,0.010366164147853851,2.4236371596075594,0.003534570336341858
1746575843177209300,0.471209228515625,0.08312853976712149,-0.2674770951271057,0.03147587660505209,0.047707609832286835,0.06870282343366962,0.988445845922013,0.14959032879410716,right,-0.01084524393081665,-0.2582870785507882,0.7872636724505573,-9.448612222388386,-0.1313930296167227,-0.23507772386074066,-0.0035029947757720947,2.504861590746045,0.005906164646148682
1746575843217209300,0.511209228515625,0.08546973988132534,-0.3010234236717224,0.03309481508972433,0.039866965264081955,0.06294574859256705,0.9883254564516063,0.1386168801980087,right,-0.0019567012786865234,-0.26527136189607237,0.8078693842362612,-9.429081592488288,-0.13474180084920423,-0.18012197315692902,-0.0027088820934295654,2.571020408569276,0.022842347621917725
1746575843257209300,0.551209228515625,0.08426925735608626,-0.3436499536037445,0.033031685469713315,0.05571998655796051,0.057903306972811056,0.9883648091349436,0.12847510932208228,right,0.007539331912994385,-0.2696819406062509,0.7955871910944581,-9.41865372197628,-0.13671580167811379,-0.1627088189125061,0.00343264639377594,2.612735397748649,0.03294718265533447
1746575843297209300,0.591209228515625,0.08299744915990859,-0.40783411264419556,0.03329988884826871,0.10641351342201233,0.04958507981820121,0.9883115599082454,0.1118552790032215,right,0.012151718139648438,-0.27748625882324685,0.7818935237195342,-9.39905119588375,-0.14026006569627056,-0.1231066957116127,0.007607080042362213,2.6864228575110434,0.019425123929977417
1746575843337209300,0.631209228515625,0.08369462680161756,-0.39666110277175903,0.03469127520637331,0.09687779098749161,0.04063421692156356,0.9881981339355952,0.09419665838508977,right,0.005503594875335693,-0.28474740671500104,0.7867946666993201,-9.37881797067225,-0.14356146510476933,-0.09419233351945877,0.007379598915576935,2.754835299479961,0.006714910268783569
1746575843377209300,0.671209228515625,0.08425931352327568,-0.3854880630970001,0.03607943516248927,0.08734206855297089,0.03167956887264918,0.9879928656690609,0.0765052071509439,right,-0.0011876225471496582,-0.2920192535308468,0.7903837772324681,-9.358162136134505,-0.14684951184149503,-0.06527797877788544,0.0072859302163124084,2.8232027332633733,-0.005990654230117798
1746575843417209300,0.711209228515625,0.0849378956881552,-0.31043604016304016,0.03722622915390883,0.10113124549388885,0.02575685880245689,0.9879551235550076,0.06474472424805583,right,0.00017327070236206055,-0.29470870340915223,0.7960868842449039,-9.350024422386289,-0.1479716937922662,-0.0346209779381752,0.006499424576759338,2.848450279505551,-0.01058843731880188
1746575843457209300,0.751209228515625,0.0870159823629211,-0.22197991609573364,0.03908444889016011,0.10653946548700333,0.019942983112021404,0.9879890567094869,0.05332392574764625,right,-0.007112324237823486,-0.29549012652124657,0.8153215999383479,-9.346129753035306,-0.14816342767623594,0.024608679115772247,-0.004537366330623627,2.8557822298288342,-0.011182129383087158
1746575843497209300,0.791209228515625,0.08962290299228631,-0.14688822627067566,0.041124609610412186,0.09168902039527893,0.015114030059011295,0.9882567590390062,0.04378288676132519,right,-0.0011562705039978027,-0.29223279147061876,0.8405115707743912,-9.353187854853273,-0.14638614095861094,0.09814386069774628,-0.0011549219489097595,2.825207935605943,-0.0021146833896636963
1746575843537209300,0.831209228515625,0.09066154044645404,-0.13242363929748535,0.04203837752533411,0.0807012990117073,0.012668613681497128,0.9884872075739988,0.03884176926535507,right,-0.003492593765258789,-0.2892040300296208,0.8509965052358806,-9.360788977506756,-0.1447942547900688,0.09622924774885178,-0.0002099946141242981,2.7967522409722205,0.002122819423675537
1746575843577209300,0.871209228515625,0.09079754832441227,-0.1202443391084671,0.04256539127249361,0.034421950578689575,0.009814434308892558,0.9887251375292073,0.03294745075111319,right,-0.0043198466300964355,-0.2862870779474486,0.853005726166442,-9.368757179906964,-0.1432288293017071,0.06269411742687225,0.00016305595636367798,2.7693229667767882,-0.0015219151973724365
1746575843617209300,0.911209228515625,0.08971530094947713,-0.0812319815158844,0.04244931245704579,-0.011015508323907852,0.007131179749285971,0.9888743420681536,0.027295438624201564,right,-0.00419849157333374,-0.2848412904505907,0.843223752342537,-9.373653135254978,-0.14238946024841717,0.030011683702468872,-0.0011372193694114685,2.7557188043162224,-0.007946312427520752
1746575843657209300,0.951209228515625,0.08851242990399834,-0.03615066781640053,0.04199875022900651,-0.027802681550383568,0.006252356016734058,0.9889361625137275,0.0253254323128237,right,-0.0001316666603088379,-0.2844195921446005,0.8320504702907056,-9.375817035290599,-0.14213535804496424,0.002841150388121605,-0.0012357905507087708,2.751749608424306,-0.0037385523319244385
1746575843697209300,0.991209228515625,0.08754107357944113,0.0021966807544231415,0.041540834286447816,-0.021985534578561783,0.006174510581422464,0.9889646110743127,0.025023723121045692,right,0.004221916198730469,-0.28431702593303443,0.8229675115816295,-9.376902492439747,-0.1420753317388344,-0.006998431868851185,0.0018356963992118835,2.7507842705234884,-0.004599928855895996
1746575843737209300,1.031209228515625,0.08714724486639576,0.04340594634413719,0.041249550918054614,-0.01976960152387619,0.006880317021753702,0.988972919424265,0.026391512409315126,right,-0.001972198486328125,-0.28425129651933534,0.8192902843736112,-9.377405765786767,-0.14206986106286723,-0.010774682275950909,0.001754477620124817,2.7501655541032552,0.002022773027420044
1746575843777209300,1.071209228515625,0.08683099644433823,0.046410128474235535,0.0409790349468811,-0.03624600172042847,0.0076684998654723835,0.9889516336039922,0.02795421483739721,right,-0.004031956195831299,-0.2845636943399622,0.8162501129601151,-9.376807799893617,-0.1422552957213125,-0.025617709383368492,-0.0016473904252052307,2.7531059914693237,0.0070486366748809814
1746575843817209300,1.111209228515625,0.08651522765662964,0.04941430687904358,0.040708481062570266,-0.052722398191690445,0.00845669513002427,0.9889297518666798,0.029516994030735322,right,-0.0060921311378479,-0.2848766038048497,0.8132146907869726,-9.376206326869129,-0.14244062758442091,-0.0404607355594635,-0.005049742758274078,2.7560511050105094,0.012074053287506104
1746575843857209300,1.151209228515625,0.08521482842988748,0.0437326543033123,0.03985694974784838,-0.0263066329061985,0.0097784159725272,0.9887867944653421,0.03210245168073314,right,0.006058633327484131,-0.2870969851921253,0.8004983440116047,-9.371135599476098,-0.14358439310665644,-0.0438525415956974,-0.004339791834354401,2.776941332826018,0.005737781524658203
1746575843897209300,1.191209228515625,0.08540623131354776,0.04662550240755081,0.03978525935761576,-0.0036155395209789276,0.010741497624303388,0.9886543067691941,0.03415318801470167,right,0.0061917901039123535,-0.28875455896391083,0.8018982739374041,-9.366383436512946,-0.14444547096838734,-0.04335752874612808,-0.003990165889263153,2.7925273167535662,0.008620083332061768
1746575843937209300,1.231209228515625,0.08621324583678745,0.050585225224494934,0.040013432181078196,-0.0014952851925045252,0.01174010782840683,0.9885500194688737,0.036339776157454366,right,0.002722024917602539,-0.2898139304800167,0.8092016557533294,-9.362780443584919,-0.14501716582264942,-0.02515922114253044,-0.002971760928630829,2.802484647144377,0.006150096654891968
1746575843977209300,1.271209228515625,0.08702292694533983,0.054544948041439056,0.04024154716446029,0.0006249691359698772,0.012738685766639129,0.9884444199089827,0.03852791547304572,right,-0.0007491111755371094,-0.29087162758194907,0.8165241806611419,-9.359164006653428,-0.1455886599278862,-0.006960911676287651,-0.0019553005695343018,2.812422980573773,0.003682076930999756
1746575844017209300,1.311209228515625,0.08761670391854078,0.07032430171966553,0.040327940101681205,-0.005026927217841148,0.014075782311077626,0.9883978388619481,0.04133122264754736,right,-0.0015039443969726562,-0.2910921185410327,0.8220269427958875,-9.35805984480381,-0.1457580407160864,0.010956674814224243,-0.0010421797633171082,2.8144942338898775,-0.00031682848930358887
1746575844057209300,1.351209228515625,0.08787406892671193,0.07642371952533722,0.04027524136204786,-0.015534504316747189,0.015338854675080182,0.9884114668148073,0.043900224824620054,right,-0.0028487443923950195,-0.2905666823790486,0.8245650829713791,-9.359319489476084,-0.14555211108427793,0.016936903819441795,0.0006011724472045898,2.8095579465314744,0.002157837152481079
1746575844097209300,1.391209228515625,0.08836179599709294,0.08032939583063126,0.04028009159566983,0.004009067080914974,0.017034848721504247,0.988447281816688,0.04735492475716634,right,-0.00008189678192138672,-0.2895393822962302,0.8293840275604277,-9.36178617185056,-0.1451180788813416,0.019681986421346664,0.0019983574748039246,2.7999042752623557,0.00185433030128479
1746575844137209300,1.431209228515625,0.08969051732784547,0.09083907306194305,0.04065274854886368,0.002039983170107007,0.01904376888357399,0.9884748340477216,0.05155214210571157,right,-0.001532137393951416,-0.2882464275878764,0.8421460401084273,-9.364273897013067,-0.1445761639744376,0.02131875418126583,-0.001176588237285614,2.7877503116101026,0.004775017499923706
1746575844177209300,1.471209228515625,0.09044484428112247,0.07864215224981308,0.04082992893212156,0.0006090868264436722,0.020418438504758968,0.9884784949014499,0.05441124446562521,right,0.0015450716018676758,-0.2875814347792686,0.849376795079559,-9.365479765671491,-0.14431329764852466,0.015977907925844193,0.002180352807044983,2.7814973886951804,0.005850285291671753
1746575844217209300,1.511209228515625,0.09135323434453083,0.07214740663766861,0.04105299044154895,-0.00801378395408392,0.02202885439231999,0.9884875702557473,0.057757846238793945,right,-0.0035219192504882812,-0.286688808435424,0.8581100635681301,-9.367173125585913,-0.14395043677799027,0.01866687647998333,0.0005685687065124512,2.7731019007936117,0.008692532777786255
1746575844257209300,1.551209228515625,0.0913931535053449,0.0689077079296112,0.04089413683462127,-0.030270501971244812,0.023368703630356605,0.9885114311130659,0.06043556798501682,right,-0.0018748641014099121,-0.28590911097838523,0.8586810683891176,-9.369289679348467,-0.14362052421654564,0.023320259526371956,0.0024441108107566833,2.7657670278608797,0.005967170000076294
1746575844297209300,1.591209228515625,0.09070247426016805,0.07976065576076508,0.040331944584268434,-0.050099633634090424,0.02511625178525028,0.988565132825696,0.06381361315973015,right,-0.0019496679306030273,-0.28476121456325043,0.8524966806657612,-9.37303588013947,-0.14311361750973733,0.030748993158340454,0.002534151077270508,2.7549650633394718,0.004435509443283081
1746575844337209300,1.631209228515625,0.0895643353045527,0.09619386494159698,0.039579462795402066,-0.07294593006372452,0.026716703547190798,0.9886392340585398,0.06682271438430618,right,0.0002244114875793457,-0.2834692945807435,0.8421459670431911,-9.377537283211947,-0.14252065820999155,0.04206281900405884,0.0009692162275314331,2.7428037931635973,0.00314939022064209
1746575844377209300,1.671209228515625,0.08800672234642724,0.1081748902797699,0.03854444079304967,-0.059630896896123886,0.029012564673209406,0.9887530957989245,0.07114125259789839,right,0.0033562183380126953,-0.28140298667982366,0.8280348049085586,-9.384462698560952,-0.14156227245561112,0.04526399075984955,0.0014486685395240784,2.723343013629317,0.0015645027160644531
1746575844417209300,1.711209228515625,0.08667349274361107,0.10967931896448135,0.03753898567495353,-0.06099977344274521,0.03187505101282108,0.988830549126433,0.07664450949385489,right,-0.00014412403106689453,-0.27943317440704635,0.8159851784136146,-9.39088484056294,-0.14067322646522692,0.014484010636806488,-0.0007586702704429626,2.70478035197854,0.003272026777267456
1746575844457209300,1.751209228515625,0.08607812047275148,0.10927712172269821,0.03699128593936821,-0.04776052385568619,0.03372871826004802,0.9887933042514376,0.08030082271275689,right,0.003668844699859619,-0.27926337160351505,0.8104334625706077,-9.391826505327224,-0.14064768089072982,-0.006406262516975403,-0.0014781951904296875,2.7031796387836335,-0.00012674927711486816
1746575844497209300,1.791209228515625,0.08598874605186774,0.1013445109128952,0.03653868817072795,-0.01471371203660965,0.036502166468824655,0.9886599182286537,0.08592408703416292,right,0.010012924671173096,-0.27979233285175714,0.8094711203444749,-9.39047275263071,-0.1410108472993636,-0.023965951055288315,0.0003565773367881775,2.70816561050266,0.002349853515625
1746575844537209300,1.831209228515625,0.08685225578268305,0.08107950538396835,0.03675424561605498,0.01810532435774803,0.03777066769922974,0.9885412248163614,0.08865124266205456,right,0.01135021448135376,-0.2805524722971383,0.8174008173651993,-9.387716731920838,-0.1414523849092498,-0.03514523059129715,0.0032931193709373474,2.715329218521714,0.004380702972412109
1746575844577209300,1.871209228515625,0.08771811595130552,0.0608145035803318,0.03696974405685305,0.05092436447739601,0.039039065407794234,0.9884206334068837,0.09137960900566428,right,0.012686669826507568,-0.281310345628104,0.8253484153687953,-9.38495252790451,-0.14189366590288638,-0.046324510127305984,0.006227836012840271,2.722470322448015,0.006413877010345459
1746575844617209300,1.911209228515625,0.09115314137768801,-0.022203288972377777,0.038536739875957286,0.07421936094760895,0.039313573560859544,0.9882030156252329,0.09252671096862834,right,-0.0026378631591796875,-0.28319538049573006,0.8571123577676713,-9.37693522566557,-0.1429135510281297,-0.03525303304195404,0.0036029070615768433,2.7402245903253553,0.01953113079071045
1746575844657209300,1.951209228515625,0.09236353616689051,-0.08123549818992615,0.03949295633734102,0.03158969432115555,0.03654846670131482,0.98821022198445,0.08715918130632337,right,-0.006031215190887451,-0.2842156552028315,0.868203222233057,-9.373101931113004,-0.14333563191391285,-0.007838506251573563,0.0015359893441200256,2.749830038538575,-0.0005483329296112061
1746575844697209300,1.991209228515625,0.0921656949534305,-0.06656594574451447,0.03974273588601455,0.009329158812761307,0.03402874005285235,0.9882531743724307,0.08206898797471242,right,-0.00015944242477416992,-0.28494322730021365,0.8661644829470664,-9.371278807339072,-0.14359061325375985,0.006991259753704071,0.004470020532608032,2.756678296998143,-0.01657363772392273
1746575844737209300,2.031209228515625,0.091857683450174,-0.03502840921282768,0.03971733402565602,-0.0018449481576681137,0.0331795994513541,0.9882895606249354,0.08030536653133441,right,-0.004662990570068359,-0.28493471386149377,0.8632800866171717,-9.371568730196357,-0.1435461932743971,-0.004534809850156307,0.0011697635054588318,2.756597925238311,-0.008996248245239258
1746575844777209300,2.071209228515625,0.0904575304950014,-0.023603927344083786,0.03906804800220754,-0.04526306688785553,0.032673990787338375,0.9882153743613572,0.07916635674529164,right,-0.0057468414306640625,-0.2866522562268285,0.8497286772571504,-9.368039387026428,-0.14434894418010588,-0.07894956320524216,-0.00344926118850708,2.772758201922476,0.0002403855323791504
1746575844817209300,2.111209228515625,0.0884661863081276,0.004377724602818489,0.03798576116008927,-0.052215319126844406,0.03272902333124396,0.9879536793604919,0.07919801516656401,right,-0.003701925277709961,-0.2908744518289676,0.8300302895747125,-9.357968074867129,-0.1464018675918068,-0.1394808292388916,-0.007505759596824646,2.812449284058809,0.007928073406219482
1746575844857209300,2.151209228515625,0.08698186625422957,0.03442985936999321,0.037013532849684685,-0.03565079718828201,0.03344000164271101,0.987552534557798,0.08069446056342743,right,-0.0004323720932006836,-0.2964764868336443,0.8147576824452728,-9.343346844318509,-0.1491706483230751,-0.13907498121261597,-0.007902950048446655,2.8650343345597387,0.012990862131118774
1746575844897209300,2.191209228515625,0.08673250944415944,0.03960433229804039,0.036615956144406034,-0.0027988851070404053,0.034486550868591065,0.9871990910329895,0.08299196570909756,right,0.00113677978515625,-0.3008229838988443,0.8113413711957633,-9.331055518022179,-0.15135338546477703,-0.06724731624126434,-0.006817422807216644,2.9057722954005003,0.02243092656135559
1746575844937209300,2.231209228515625,0.08726464543013768,0.01555720530450344,0.036744311305816145,0.018453961238265038,0.035130196892141835,0.9870862723997373,0.08443037046344584,right,0.001771092414855957,-0.3018777868218945,0.8160391005579382,-9.327564168775082,-0.15190935231788347,0.021315686404705048,-0.0021605417132377625,2.915650130814314,0.01959007978439331
1746575844977209300,2.271209228515625,0.08767267122760575,0.0144527992233634,0.03695571670389553,0.008869883604347706,0.03524332260102086,0.9871597183248573,0.08466455015152237,right,-0.003294229507446289,-0.3007276915773621,0.8201379872441291,-9.330564519634843,-0.1513535234557043,0.051775410771369934,-0.001729033887386322,2.9048797304749487,0.012314140796661377
1746575845017209300,2.311209228515625,0.08763615479620349,0.029119135811924934,0.03693485275458535,-0.008582956157624722,0.03560930064323762,0.9872874043975601,0.08530597587278807,right,0.00004279613494873047,-0.298849039090198,0.820273450192064,-9.33601401721239,-0.15043790867724177,0.04793360084295273,0.000032961368560791016,2.8872780228108166,0.005073726177215576
1746575845057209300,2.351209228515625,0.08749292427562586,0.05316364765167236,0.03676806990632776,-0.01689230091869831,0.03654595867527747,0.9873729240463117,0.08710224899469864,right,0.00001150369644165039,-0.29727148671703757,0.8193332467325031,-9.34065745910406,-0.14969010344604694,0.02359638921916485,0.000008061528205871582,2.872489619001746,0.0013219118118286133
1746575845097209300,2.391209228515625,0.08765779894576017,0.05514075979590416,0.03672393483920162,-0.0012929998338222504,0.03743945806640482,0.9873661265125706,0.08891653516125483,right,0.0037657618522644043,-0.2968635435104617,0.8209757532425225,-9.341688555717468,-0.1495252000161422,0.00048527494072914124,0.0034290850162506104,2.868664507755637,0.0029533803462982178
1746575845137209300,2.431209228515625,0.08809968743982582,0.04500962793827057,0.036803720820769104,-0.005791846197098494,0.03822552419893278,0.9872907949600531,0.09060045089220597,right,0.0014325380325317383,-0.29734939364581225,0.8249809702958911,-9.339935574570298,-0.14980420920060236,-0.027934646233916283,0.0016262009739875793,2.8732202713638544,0.004681050777435303
1746575845177209300,2.471209228515625,0.0885424929830579,0.03487849235534668,0.03688348355423655,-0.010290692560374737,0.03901157221402119,0.9872146164600898,0.09228484819068994,right,-0.0009009242057800293,-0.2978344670942431,0.8289933477424085,-9.338179670813679,-0.15008310410575962,-0.05635456740856171,-0.00017740577459335327,2.8777681439265606,0.006409496068954468
1746575845217209300,2.511209228515625,0.08872077373765486,0.010236892849206924,0.036787076641588826,0.0022001704201102257,0.0396293184992836,0.9869691692502045,0.09371362691423864,right,0.00453108549118042,-0.3007536323370649,0.8299102433916181,-9.329624608436227,-0.15155275261695142,-0.04615558311343193,0.0016556382179260254,2.9051225993201135,0.005903303623199463
1746575845257209300,2.551209228515625,0.08944382415813944,-0.030761394649744034,0.03719489822386524,0.019103609025478363,0.03919893957289677,0.9869542727800893,0.0929639558020567,right,0.0005637407302856445,-0.30097425221180635,0.8365985620491206,-9.328383668464422,-0.15166194338726605,0.015163540840148926,-0.0020470470190048218,2.9071888842001554,0.009798824787139893
1746575845297209300,2.591209228515625,0.08985906130406632,-0.053792476654052734,0.03763304834746365,0.017098717391490936,0.03802088777839855,0.987134862525537,0.09054079118936426,right,-0.0012462735176086426,-0.2990482219168872,0.8409729046758264,-9.333594681110977,-0.15067469487807547,0.07107368111610413,-0.006394341588020325,2.8891446934655307,0.00813966989517212
1746575845337209300,2.631209228515625,0.08987005804088823,-0.04633156955242157,0.0378421961556532,0.01760542206466198,0.037132686352523835,0.9873422644551446,0.08862182546335284,right,0.00004929304122924805,-0.2967011723797497,0.8416817835975438,-9.340313175711035,-0.14948082820180378,0.08810889720916748,-0.006396576762199402,2.8671418282330032,0.002448856830596924
1746575845377209300,2.671209228515625,0.09029429290447188,-0.029891487210989,0.03829681149879394,0.032046396285295486,0.036125043060386046,0.9876207926379648,0.08646868235649674,right,-0.0015684962272644043,-0.293284916915098,0.8465225016269833,-9.349656173595786,-0.14776186277965375,0.08629745990037918,-0.005446292459964752,2.835086940063536,-0.0025058090686798096
1746575845417209300,2.711209228515625,0.09105072888434992,-0.01375097781419754,0.03885804104091797,0.021709401160478592,0.035410975765321234,0.9878600828268664,0.08497148333907377,right,-0.0018451809883117676,-0.29011188561212864,0.854408286440745,-9.357924235725402,-0.14618033683984497,0.056043755263090134,-0.004794128239154816,2.8052845069959758,-0.0028468966484069824
1746575845457209300,2.751209228515625,0.09164309219278738,-0.0010775942355394363,0.03922262797879552,0.021641938015818596,0.03516789292511447,0.9879646768016607,0.08448811067167845,right,-0.002108633518218994,-0.28859486527325634,0.8603399415120482,-9.361643548509479,-0.14543244440758704,0.031022975221276283,-0.0037539824843406677,2.7910259722799062,-0.0017032623291015625
1746575845497209300,2.791209228515625,0.09254671963205076,0.006477145478129387,0.03969024874312966,0.016456685960292816,0.03516212711474917,0.9880216345117905,0.08455319294825671,right,-0.0049918293952941895,-0.2875214772029015,0.8690753288924693,-9.36384018177092,-0.1449196541216616,0.014713503420352936,-0.0031538158655166626,2.780933325071633,0.0015531480312347412
1746575845537209300,2.831209228515625,0.0930363360738836,0.013808783143758774,0.039928353979418844,0.01468387059867382,0.03530993153618211,0.9880639436112755,0.08488089509174242,right,-0.0012859702110290527,-0.2866992949071561,0.8738720616497099,-9.36568668642044,-0.14452886853699412,0.032164234668016434,-0.0014482513070106506,2.7732006849929687,0.0014510154724121094
1746575845577209300,2.871209228515625,0.09385276981082455,0.010714227333664894,0.040348265727333486,0.0202578566968441,0.035497237428744194,0.9881709503403224,0.0852806075918562,right,-0.00043326616287231445,-0.284837012432348,0.8820007153086363,-9.370095735034345,-0.14363179694866804,0.05096077919006348,-0.0007796064019203186,2.755678472305834,0.0013574957847595215
1746575845617209300,2.911209228515625,0.09441627024947832,-0.0006073648110032082,0.04066318571885108,0.012656955048441887,0.035502627807719456,0.9882658665935073,0.08529191249536562,right,-0.0014745593070983887,-0.2833085368598747,0.8876766420532017,-9.37377939198315,-0.14288721638445667,0.038199909031391144,-0.00012671202421188354,2.741290173730254,0.0026752352714538574
1746575845657209300,2.951209228515625,0.09464730740041861,-0.012666570954024792,0.04083269598071002,0.00787762925028801,0.03528806367603606,0.9883351055794896,0.08484036602755454,right,-0.00052642822265625,-0.2823583250520877,0.8900880871091037,-9.376163072249293,-0.14241281678625697,0.010186292231082916,0.0021406710147857666,2.732342020381987,0.002202630043029785
1746575845697209300,2.991209228515625,0.09464730740041861,-0.011169655248522758,0.04083269598071002,0.005706253927201033,0.03528806367603606,0.9883351055794896,0.08484036602755454,right,0.0005077719688415527,-0.2823583250520877,0.8900880871091037,-9.376163072249293,-0.14241281678625697,-0.00518539734184742,0.003474391996860504,2.732342020381987,0.0008165538311004639
1746575845737209300,3.031209228515625,0.09510313003690904,0.0002155480906367302,0.041055061127874486,0.00910209584981203,0.035212200991101464,0.9883044667431491,0.0847699626671525,right,0.0005363225936889648,-0.2826835274311311,0.8942774285577237,-9.374871278873085,-0.1425800229838116,0.0020724297501146793,0.0037851929664611816,2.735404622823,0.0015625059604644775
1746575845777209300,3.071209228515625,0.09510313003690904,0.011600748635828495,0.041055061127874486,0.012497937306761742,0.035212200991101464,0.9883044667431491,0.0847699626671525,right,0.0006965994834899902,-0.2826835274311311,0.8942774285577237,-9.374871278873085,-0.1425800229838116,0.009330256842076778,0.004523187875747681,2.735404622823,0.0026207566261291504
1746575845817209300,3.111209228515625,0.096125951803865,0.016503071412444115,0.04154113899299388,0.01024499163031578,0.03534110883940894,0.9883003333497646,0.08515969697337024,right,-0.0014190673828125,-0.2823379863236462,0.9039564534638076,-9.374892321661115,-0.14243547027768466,0.02626064047217369,0.005338758230209351,2.73215029720217,0.004982680082321167
1746575845857209300,3.151209228515625,0.09693414544524806,0.003554738126695156,0.041942641235431385,0.00696284044533968,0.03552505963029769,0.9883658001493008,0.08557754859137323,right,-0.000626683235168457,-0.28103851547454367,0.9118757752209902,-9.377683998206257,-0.14181672409246895,0.033446814864873886,0.004717186093330383,2.719909239788353,0.007379293441772461
1746575845897209300,3.191209228515625,0.09728661627161739,-0.006203729659318924,0.042163280740120504,0.007006214931607246,0.03545223442688279,0.9884571545267163,0.08540446199692191,right,0.0004247426986694336,-0.2796437037328863,0.9155486185148358,-9.38112858570218,-0.14113043459356356,0.030217183753848076,0.004394456744194031,2.706764803794026,0.0035031139850616455
1746575845937209300,3.231209228515625,0.09763728327887736,0.0006415336392819881,0.0423853263593748,0.0007181204855442047,0.03530534881113008,0.9885309400371108,0.08509668573943001,right,-0.00453108549118042,-0.27853747787828426,0.9191295457415282,-9.383781730559468,-0.14058368578777816,0.02605529874563217,0.00021110475063323975,2.696336056499183,-0.003428041934967041
1746575845977209300,3.271209228515625,0.09763728327887736,0.0034432788379490376,0.0423853263593748,-0.006086595822125673,0.03530534881113008,0.9885309400371108,0.08509668573943001,right,0.000647425651550293,-0.27853747787828426,0.9191295457415282,-9.383781730559468,-0.14058368578777816,0.015186114236712456,0.0027824044227600098,2.696336056499183,-0.0034747421741485596
1746575846017209300,3.311209228515625,0.09763728327887736,0.00564867677167058,0.0423853263593748,-0.01127608772367239,0.03530534881113008,0.9885309400371108,0.08509668573943001,right,0.0014618635177612305,-0.27853747787828426,0.9191295457415282,-9.383781730559468,-0.14058368578777816,-0.009770998731255531,0.0009256154298782349,2.696336056499183,-0.0028684139251708984
1746575846057209300,3.351209228515625,0.09763728327887736,0.007854074239730835,0.0423853263593748,-0.016465578228235245,0.03530534881113008,0.9885309400371108,0.08509668573943001,right,0.0022763609886169434,-0.27853747787828426,0.9191295457415282,-9.383781730559468,-0.14058368578777816,-0.03472810983657837,-0.0009311661124229431,2.696336056499183,-0.0022620558738708496
1746575846097209300,3.391209228515625,0.09701666325900832,0.018635466694831848,0.041970951003175834,-0.009788066148757935,0.03576239239235546,0.9884100826180366,0.08602670899983318,right,0.002209305763244629,-0.2802523364139785,0.9128563837561756,-9.379734500995278,-0.14143932624772232,-0.046032123267650604,-0.00008162856101989746,2.7125010093584656,-0.002181410789489746
1746575846137209300,3.431209228515625,0.09692030323970408,0.025089217349886894,0.041801494620156074,-0.009153567254543304,0.036258962616804676,0.9882686225005373,0.08711594299092532,right,-0.00014269351959228516,-0.2820499572725514,0.9114792501840739,-9.374953696459531,-0.14234821401648953,-0.04845204949378967,-0.0010759681463241577,2.729437531112134,-0.00003331899642944336
1746575846177209300,3.471209228515625,0.09686116783805404,0.02571076527237892,0.041633021856915184,-0.01754593290388584,0.036881764245863605,0.9881261567793775,0.0884619478039916,right,-0.003660738468170166,-0.28376898997749256,0.9104697808805853,-9.370323698571324,-0.14322406208056704,-0.0442139133810997,-0.0017828792333602905,2.7456252803251147,0.0057106614112854
1746575846217209300,3.511209228515625,0.09652899488910871,0.01367400586605072,0.041349825702118606,-0.008236359804868698,0.037404786565047365,0.9880021555575085,0.08955914750979159,right,0.000977635383605957,-0.28535452215470564,0.9069364191226661,-9.366281145182251,-0.14402348018434974,-0.03844267874956131,-0.00047647953033447266,2.7605487086907026,0.007605254650115967
1746575846257209300,3.551209228515625,0.0962147803541768,0.007864092476665974,0.041125550024046796,-0.0023419647477567196,0.03764812029490172,0.9879118392651786,0.09007394019569866,right,0.00481647253036499,-0.2865999243000329,0.903662365888059,-9.363136417415738,-0.1446430059550246,-0.020183108747005463,0.0002751946449279785,2.77226603449136,0.0024417340755462646
1746575846297209300,3.591209228515625,0.09661632671180079,0.01827763393521309,0.041267088598279336,0.0011543503496795893,0.03791741601150718,0.9878607797728627,0.09070206826881706,right,-0.004294276237487793,-0.2870398947305914,0.9073043025869876,-9.361557623791693,-0.14488071715527748,-0.00583750382065773,-0.0025203749537467957,2.776404157209396,0.00012665987014770508
1746575846337209300,3.631209228515625,0.09681441703881093,0.012074261903762817,0.04129267038145178,0.006613372825086117,0.038256979696271655,0.9877947185112238,0.09145588958494091,right,-0.0015146732330322266,-0.28771725145414395,0.908976692778617,-9.359503613871336,-0.14523438548480033,-0.015341171063482761,-0.0008750259876251221,2.7827745690241454,0.0019054114818572998
1746575846377209300,3.671209228515625,0.09701305953613718,0.005870890337973833,0.04131823633513772,0.012072394602000713,0.03859651284276377,0.9877284062191783,0.09220995481507344,right,0.0012643933296203613,-0.28839444646623064,0.9106531746234744,-9.35744551229775,-0.14558800943106526,-0.024844838306307793,0.0007699131965637207,2.7891417659685014,0.003684520721435547
1746575846417209300,3.711209228515625,0.09771632824951836,-0.008085466921329498,0.04162951985736994,0.020574841648340225,0.03854715623519145,0.9876291157528561,0.09227918008726337,right,0.0008192658424377441,-0.28957266303817336,0.916912454213947,-9.353525708505511,-0.14618448392581138,-0.029242563992738724,0.0030400827527046204,2.800216994473338,0.0027583837509155273
1746575846457209300,3.751209228515625,0.09855391791935077,-0.015308799222111702,0.042042557303482816,0.022628959268331528,0.03823986901577894,0.9875333083561136,0.09184919175003847,right,-0.0015702247619628906,-0.2907921522678732,0.9244098972972482,-9.3493492996037,-0.14679333430167024,-0.027482416480779648,0.0030155926942825317,2.8116762538596984,0.002506732940673828
1746575846497209300,3.791209228515625,0.0992868537192278,-0.006201267242431641,0.04240422946963406,0.016164861619472504,0.037945774620679884,0.9874412456839088,0.09142937191082039,right,-0.0022416114807128906,-0.29197791470056955,0.9309309696290642,-9.345344740137458,-0.14738350920366056,-0.021456578746438026,0.00229596346616745,2.8228143184676764,-0.0008678436279296875
1746575846537209300,3.831209228515625,0.09981559913725353,0.005569908767938614,0.042640768582368496,0.0034704506397247314,0.037911476287275744,0.9873729005996503,0.09148322380672215,right,-0.0011789202690124512,-0.29276142669844074,0.9356514953449367,-9.342647756138444,-0.1477812488572514,-0.014871292747557163,0.0016238614916801453,2.8301719877541065,0.0009176731109619141
1746575846577209300,3.871209228515625,0.10013620285822301,0.005903937388211489,0.0427581685583933,0.0009223741944879293,0.03807034155296921,0.9873267411857648,0.09187824541461251,right,-0.0012846589088439941,-0.293205185323705,0.9385210594318807,-9.341097019565105,-0.14801469675629864,-0.012140581384301186,0.003077194094657898,2.8343381675228474,0.0017029941082000732
1746575846617209300,3.911209228515625,0.10005974670561728,0.0044807130470871925,0.04268363449418457,-0.00202167802490294,0.03823102029809524,0.9872902537721766,0.09221742318489717,right,-0.0008364319801330566,-0.29364745951070637,0.9376815398678183,-9.339920377001166,-0.14823864999217604,-0.014122308231890202,0.0021036118268966675,2.8384900265052915,0.002403765916824341
1746575846657209300,3.951209228515625,0.10005974670561728,0.0030574887059628963,0.04268363449418457,-0.004965730011463165,0.03823102029809524,0.9872902537721766,0.09221742318489717,right,-0.0002682209014892578,-0.29364745951070637,0.9376815398678183,-9.339920377001166,-0.14823864999217604,-0.016104035079479218,0.001044437289237976,2.8384900265052915,0.0035279393196105957
1746575846697209300,3.991209228515625,0.09989251099246053,0.005415840074419975,0.04253424304961727,-0.0035973843187093735,0.03846530745429027,0.9872054960567842,0.09272885507187892,right,-0.0011938810348510742,-0.29473715402888784,0.9358105583641677,-9.336993675899505,-0.1487838829609499,-0.018339747563004494,-0.00038702040910720825,2.8487174060091376,0.0015926361083984375
1746575846737209300,4.031209228515625,0.09972674749760768,0.007814042270183563,0.04239882766400159,-0.007187830284237862,0.03867571795712599,0.987145041594066,0.09317381114979535,right,-0.0003158450126647949,-0.29550562024436045,0.9340445716049521,-9.334967723029852,-0.14916916423814894,-0.01530316099524498,0.0007136091589927673,2.8559274835184216,0.0005039870738983154
1746575846777209300,4.071209228515625,0.09960953335755426,0.01039162278175354,0.042277945498008805,-0.006427014712244272,0.038949363980780034,0.9870826261959905,0.09375260380660887,right,-0.00017756223678588867,-0.29624638067033543,0.9327397726166993,-9.332969827210903,-0.14954450317712387,-0.02194542996585369,0.00014490634202957153,2.8628762797430154,0.002549409866333008
1746575846817209300,4.111209228515625,0.09931027444826745,0.007858304306864738,0.042069136285867476,-0.013038515113294125,0.03917889435311393,0.987010420186792,0.09422643807659348,right,-0.0007334351539611816,-0.29720027231770335,0.9296755627404898,-9.330526525712013,-0.15001909218143136,-0.024748077616095543,0.000521540641784668,2.871822095003724,0.0011799037456512451
1746575846857209300,4.151209228515625,0.0988670908829479,0.00541839562356472,0.041801833322375394,-0.021324457600712776,0.03935280071131751,0.9869496937231551,0.09456071468167242,right,-0.0034818053245544434,-0.2980712372375312,0.9252931098725646,-9.328445043262839,-0.15044691790919873,-0.02486961893737316,-0.004204854369163513,2.8799875735417007,-0.0018537342548370361
1746575846897209300,4.191209228515625,0.09819651668087456,0.0067144110798835754,0.04141012161148821,-0.018081869930028915,0.039616766795254145,0.986888328531126,0.09504413404499537,right,0.0012999773025512695,-0.2989726950307973,0.918782558934763,-9.326475789016484,-0.15088824673657028,-0.02963153086602688,-0.000618569552898407,2.88843683745712,-0.0021186470985412598
1746575846937209300,4.231209228515625,0.0987519119424406,0.008285976946353912,0.041601415322452345,0.023929648101329803,0.039808243230412425,0.98675634371127,0.09560158471836763,right,0.00020998716354370117,-0.3004649027198387,0.9235363293331116,-9.321664589342474,-0.15164659121197202,-0.052774958312511444,-0.0008334517478942871,2.902418016536534,0.001866161823272705
1746575846977209300,4.271209228515625,0.09949114534231214,0.003365414682775736,0.04186040488855548,0.010227920487523079,0.039926309385543333,0.9865475675346798,0.09609634440530454,right,-0.0015027523040771484,-0.3029503399306259,0.9297075653139502,-9.313772374787925,-0.15289690870794628,-0.06984809786081314,0.0008976981043815613,2.92569104783535,0.004317373037338257
1746575847017209300,4.311209228515625,0.10011937809575581,0.004291982389986515,0.04206977136490444,0.011737043038010597,0.04000070451547798,0.9863368437665697,0.0964910669194889,right,-0.0012035369873046875,-0.3054997475800887,0.9348100030194968,-9.305735198804735,-0.15417423738444733,-0.054186880588531494,0.002178087830543518,2.94954421710968,0.001978844404220581
1746575847057209300,4.351209228515625,0.10050411307526202,0.016226548701524734,0.04216202721549684,-0.0067670103162527084,0.0402280834359899,0.9861830837425775,0.09711496066419902,right,-0.0034442543983459473,-0.3072772390696091,0.937862668588385,-9.300143662407994,-0.1550709662260508,-0.03817865252494812,0.0012954548001289368,2.966163635738194,0.0036943256855010986
1746575847097209300,4.391209228515625,0.10042244183878363,0.022733386605978012,0.04201890486148265,-0.012556903064250946,0.040686848928251654,0.9860917371544872,0.09808890451839467,right,0.0002002120018005371,-0.3082521875425988,0.9368127942092717,-9.297338541859387,-0.15557016298192097,-0.011136658489704132,0.0023195967078208923,2.9752751629546283,0.002519071102142334
1746575847137209300,4.431209228515625,0.1003265059237521,0.026256952434778214,0.04187515219376904,-0.013556786812841892,0.04131084145259842,0.9860700457301605,0.09933791979919944,right,0.0009188055992126465,-0.30822712907300676,0.9359282664597034,-9.2975022079885,-0.15558204525805014,0.007640281692147255,0.000984475016593933,2.9750410619378087,0.004271119832992554
1746575847177209300,4.471209228515625,0.09991607925387065,0.0243675597012043,0.0416105209462699,-0.02109312266111374,0.041884248452640715,0.9861092783898189,0.10039573075421278,right,0.001784205436706543,-0.3075269729572655,0.9323197936389594,-9.299956030881404,-0.15525064859911594,0.021449752151966095,0.0036077648401260376,2.968497631643712,0.00428086519241333
1746575847217209300,4.511209228515625,0.09943078161868822,0.023096216842532158,0.041339600540430496,-0.02567746303975582,0.042382401102199985,0.9861933726880896,0.1012588991174323,right,0.000834345817565918,-0.30629776052365837,0.9281680077217519,-9.3040313174963,-0.1546526971377973,0.022840332239866257,0.002001143991947174,2.957006515814364,0.004995584487915039
1746575847257209300,4.551209228515625,0.09894457544296109,0.021824873983860016,0.041068651020476084,-0.030261803418397903,0.04288059274185722,0.9862767404644054,0.10212249419490349,right,-0.00011718273162841797,-0.3050689185857773,0.9240024124749004,-9.308090237498282,-0.15405463599076252,0.02423091046512127,0.0003959238529205322,2.945514523202181,0.005710422992706299
1746575847297209300,4.591209228515625,0.09821043598862876,0.016980135813355446,0.040679571390781315,-0.02130538411438465,0.043282935548357424,0.9863375900651994,0.1027777625306162,right,0.001119077205657959,-0.3042632018923058,0.9174011875789612,-9.311125075149535,-0.1536551819170365,0.01346332486718893,0.00024006515741348267,2.937976821173727,0.0009996294975280762
1746575847337209300,4.631209228515625,0.09776724696216689,0.02327500283718109,0.04042294358657635,-0.01125571969896555,0.043685208080553255,0.9863737803655913,0.10349175526157665,right,0.0007536411285400391,-0.3036885596702394,0.9134391520801931,-9.313209480208158,-0.15337683310268424,0.008293376304209232,0.0003093406558036804,2.9326000965714454,-0.00035202503204345703
1746575847377209300,4.671209228515625,0.09787380110208964,0.023617245256900787,0.04040545765124133,-0.0018397774547338486,0.044167188464930396,0.9863636756442615,0.10447520270412756,right,0.00043654441833496094,-0.30350565364926807,0.9144839118927717,-9.313646118059754,-0.15330889667431527,-0.005697241052985191,0.0011163726449012756,2.930888324217498,0.002115607261657715
1746575847417209300,4.711209228515625,0.09831201273684609,0.021566757932305336,0.04052746196140832,-0.0018911418737843633,0.04463883023752384,0.9862975533663508,0.10552578033477424,right,-0.0018901824951171875,-0.30396194209682525,0.9184338185623288,-9.311912426134944,-0.15356474381487617,-0.016526462510228157,0.001993797719478607,2.9351582566216585,-0.0008576810359954834
1746575847457209300,4.751209228515625,0.09847765912460792,0.024969860911369324,0.040510568580778554,-0.008864709176123142,0.04514103164659099,0.9862303033678806,0.10660063569999537,right,-0.00032001733779907227,-0.30449640262988015,0.919821911919862,-9.310197438910603,-0.15385359738712395,-0.01017489843070507,0.0006994903087615967,2.940158841387927,-0.0012338459491729736
1746575847497209300,4.791209228515625,0.09833345509162399,0.020037999376654625,0.040344636386594905,-0.015089940279722214,0.04566580029612629,0.9861775458002815,0.10766665085777144,right,-0.0008753538131713867,-0.30491952371499226,0.9183571000643074,-9.309090938973426,-0.15408034470487078,-0.017018292099237442,0.0006431341171264648,2.94411693136394,0.0029902756214141846
1746575847537209300,4.831209228515625,0.09799867242856838,0.014161579310894012,0.040101617848238985,-0.015355998650193214,0.046042199050583384,0.9861176178815506,0.1084157838565097,right,0.00041747093200683594,-0.3055835558181716,0.9150489984296262,-9.307450186029076,-0.1544148866251057,-0.015836020931601524,0.000015057623386383057,2.9503277687028047,0.001080840826034546
1746575847577209300,4.871209228515625,0.09761581623616818,0.01161406934261322,0.03984517982417898,-0.012364598922431469,0.046379072002773095,0.9860685273188629,0.10907099806239075,right,-0.0004914999008178711,-0.3061414263501914,0.9113250094704329,-9.306160730740427,-0.15469395983920653,-0.006538871675729752,-0.0006275773048400879,2.9555449188292027,0.00178566575050354
1746575847617209300,4.911209228515625,0.09731231033355962,0.016655154526233673,0.03964894166342236,-0.015496226958930492,0.04670047553125251,0.9860608466396193,0.1096750485434232,right,-0.002084672451019287,-0.30613741818261714,0.9085016226127743,-9.306448315510153,-0.15469692032425825,0.005833960138261318,-0.001969069242477417,2.955507217167318,-0.00031125545501708984
1746575847657209300,4.951209228515625,0.09671084018286717,0.0195163507014513,0.03931298883144391,-0.01758391596376896,0.047088175506227944,0.9860868366797207,0.11034430075488945,right,-0.0007945895195007324,-0.30573754841814255,0.9030180035699158,-9.308169147953391,-0.15449904829964445,0.010541561059653759,-0.0013641119003295898,2.9517680306389926,0.00020739436149597168
1746575847697209300,4.991209228515625,0.09637962032248604,0.008738136850297451,0.039113079336916774,-0.009032833389937878,0.047357789304763837,0.9860851591056017,0.11083662846156317,right,0.00096893310546875,-0.30569147093202276,0.8999479484748095,-9.308602863195539,-0.15447817865195082,-0.0023034894838929176,-0.0005729570984840393,2.9513372380062934,0.0031326711177825928
1746575847737209300,5.031209228515625,0.09604838617497959,-0.002040077932178974,0.03891316984238982,-0.00048175081610679626,0.047627356175186555,0.9860834447827934,0.11132889017398549,right,0.0027322769165039062,-0.3056456122597602,0.8968776011187582,-9.309035409393905,-0.15445730900425675,-0.01514853909611702,0.000218220055103302,2.950908198939264,0.0060577392578125
1746575847777209300,5.071209228515625,0.09613224024416801,-0.01403379999101162,0.03895263809565788,0.0037448755465447903,0.04745061041426598,0.9860286924006936,0.1110292008455676,right,0.0003522038459777832,-0.306451601771882,0.897429608978331,-9.306589769807458,-0.1548505228761358,-0.02002248540520668,0.00043189525604248047,2.9584450241848823,0.002394169569015503
1746575847817209300,5.111209228515625,0.09595711005209756,-0.011731208302080631,0.038901822105952284,-0.002852169331163168,0.04709341520963901,0.9860007746186203,0.11031359255539279,right,-0.0004939436912536621,-0.3070955396715216,0.8956170065984129,-9.304848479098082,-0.1551496640454557,-0.011914961971342564,0.0009495913982391357,2.9644650151267644,0.00023740530014038086
1746575847857209300,5.151209228515625,0.09578145149477468,-0.009428616613149643,0.038850984420745194,-0.009449215605854988,0.046736246574277066,0.9859727262316317,0.10959779981817676,right,-0.0013404488563537598,-0.3077393728853028,0.8937998011086136,-9.303103681257367,-0.15544876542510444,-0.0038074376061558723,0.0014677643775939941,2.9704829602420326,-0.001919180154800415
1746575847897209300,5.191209228515625,0.09578145149477468,0.007302040234208107,0.038850984420745194,0.007383804768323898,0.046736246574277066,0.9859727262316317,0.10959779981817676,right,-0.00299680233001709,-0.3077393728853028,0.8937998011086136,-9.303103681257367,-0.15544876542510444,-0.0021749604493379593,0.0006669983267784119,2.9704829602420326,-0.002042233943939209
1746575847937209300,5.231209228515625,0.09578145149477468,0.01418243907392025,0.038850984420745194,-0.013377821072936058,0.046736246574277066,0.9859727262316317,0.10959779981817676,right,-0.0008175373077392578,-0.3077393728853028,0.8937998011086136,-9.303103681257367,-0.15544876542510444,-0.01213399600237608,0.0026675835251808167,2.9704829602420326,0.0006158351898193359
1746575847977209300,5.271209228515625,0.09591633820460425,0.020853988826274872,0.038808474454322575,-0.007794642820954323,0.047287327656537786,0.985898935532103,0.11076963603372325,right,0.0002841949462890625,-0.3083176595858964,0.8948900074981152,-9.3012712051332,-0.1557595526649559,-0.007529768627136946,0.0014944300055503845,2.9758871573731303,-0.00014847517013549805
1746575848017209300,5.311209228515625,0.09584621384100761,0.01824459433555603,0.03867439360364847,-0.013796895742416382,0.047804091257111075,0.9858355184172598,0.11183662246990307,right,-0.0007590055465698242,-0.30884264483140994,0.8940881165307014,-9.299777751705049,-0.15603710098506898,-0.016980933025479317,0.0007872506976127625,2.980792172810435,0.003130316734313965
1746575848057209300,5.351209228515625,0.09567387032144972,0.0120225939899683,0.03851125578936837,-0.008294941857457161,0.04816742951994022,0.9857729335727061,0.11258248000497816,right,-0.0006933808326721191,-0.3094786490313064,0.8923040826581418,-9.29804289073646,-0.15636058816248027,-0.013302557170391083,-0.00048341602087020874,2.9867335455581543,0.0021455883979797363
1746575848097209300,5.391209228515625,0.09535523938930562,0.012117799371480942,0.03829360798564899,-0.011645123362541199,0.04850651589091771,0.985740641688986,0.11323680186386548,right,0.0005674362182617188,-0.30977758239371067,0.8892563124600797,-9.297437326058745,-0.15651266626608873,-0.004148674197494984,-0.002006158232688904,2.989525806625187,0.0039244890213012695
1746575848137209300,5.431209228515625,0.09535523938930562,0.0009740423411130905,0.03829360798564899,-0.0020661521703004837,0.04850651589091771,0.985740641688986,0.11323680186386548,right,0.005937814712524414,-0.30977758239371067,0.8892563124600797,-9.297437326058745,-0.15651266626608873,-0.007804125547409058,0.0008434206247329712,2.989525806625187,0.006912112236022949
1746575848177209300,5.471209228515625,0.09535523938930562,-0.010870290920138359,0.03829360798564899,0.017216317355632782,0.04850651589091771,0.985740641688986,0.11323680186386548,right,-0.0012334585189819336,-0.30977758239371067,0.8892563124600797,-9.297437326058745,-0.15651266626608873,-0.0023341174237430096,0.0007375553250312805,2.989525806625187,0.004289597272872925
1746575848217209300,5.511209228515625,0.09554669193547377,-0.010203327983617783,0.03841735091831069,0.0015066452324390411,0.04820474839545287,0.9857163831395092,0.11268040532881374,right,-0.00048041343688964844,-0.31022757052480154,0.8909078790593892,-9.295926921495795,-0.156728220382516,0.008956314995884895,0.0019880160689353943,2.993728226751089,0.00020775198936462402
1746575848257209300,5.551209228515625,0.09554669193547377,-0.00010426994413137436,0.03841735091831069,-0.001840016571804881,0.04820474839545287,0.9857163831395092,0.11268040532881374,right,-0.00047218799591064453,-0.31022757052480154,0.8909078790593892,-9.295926921495795,-0.156728220382516,0.006759443320333958,0.001245349645614624,2.993728226751089,0.0004284679889678955
1746575848297209300,5.591209228515625,0.09554669193547377,0.009994788095355034,0.03841735091831069,-0.005186678376048803,0.04820474839545287,0.9857163831395092,0.11268040532881374,right,-0.000464022159576416,-0.31022757052480154,0.8909078790593892,-9.295926921495795,-0.156728220382516,0.004562571179121733,0.0005026906728744507,2.993728226751089,0.0006491541862487793
1746575848337209300,5.631209228515625,0.09538839549287091,0.0029509589076042175,0.03833323010581769,-0.001968210097402334,0.0484713856875496,0.9857802824970613,0.11314233301850492,right,0.0013356208801269531,-0.30927433778395447,0.8897077825546265,-9.298904476001859,-0.15626383420726717,0.001367331249639392,0.00023620575666427612,2.9848250815883275,0.0055110156536102295
1746575848377209300,5.671209228515625,0.09538839549287091,-0.0163728054612875,0.03833323010581769,0.004641742445528507,0.0484713856875496,0.9857802824970613,0.11314233301850492,right,0.003196120262145996,-0.30927433778395447,0.8897077825546265,-9.298904476001859,-0.15626383420726717,-0.002597534330561757,0.0016369223594665527,2.9848250815883275,0.005134284496307373
1746575848417209300,5.711209228515625,0.09544439748779987,-0.01067117415368557,0.03843268303166318,0.002144484082236886,0.048025068569941626,0.98580468759735,0.11224286755992724,right,0.00023192167282104492,-0.3092240579668194,0.8902428392793983,-9.299003844723105,-0.1562231633640779,0.0012337653897702694,0.000961892306804657,2.9843554182499648,0.0018728971481323242
1746575848457209300,5.751209228515625,0.09550044723302009,-0.004969543777406216,0.03853212677033769,-0.0003527747467160225,0.04757873109348514,0.9858289253440344,0.11134339936717438,right,-0.0027324557304382324,-0.3091738845815435,0.8907782613303512,-9.29910321344435,-0.15618248078885982,0.0050650653429329395,0.00028683990240097046,2.983886631694436,-0.0013885498046875
1746575848497209300,5.791209228515625,0.09550044723302009,0.008182340301573277,0.03853212677033769,-0.006510090082883835,0.04757873109348514,0.9858289253440344,0.11134339936717438,right,-0.0012306571006774902,-0.3091738845815435,0.8907782613303512,-9.29910321344435,-0.15618248078885982,0.0029538811650127172,0.001472175121307373,2.983886631694436,-0.002773582935333252
1746575848537209300,5.831209228515625,0.09530048891432419,0.026396382600069046,0.03837896393952922,-0.007382907439023256,0.04799925787085132,0.9858336841746309,0.11214978912535985,right,-0.000785529613494873,-0.3089065170568402,0.888994738914445,-9.30007468882501,-0.15606152552373745,0.0034542493522167206,0.0003688707947731018,2.9813889696598053,-0.0010805130004882812
1746575848577209300,5.871209228515625,0.09532998749500442,0.03287878632545471,0.03830231630505179,-0.007948660291731358,0.048646958572813,0.9858260916406959,0.11345011843392518,right,0.00027811527252197266,-0.308581434964936,0.8893612341392785,-9.301012846457958,-0.15592707874631895,0.0058966148644685745,0.0010738745331764221,2.978351793920994,-0.00045987963676452637
1746575848617209300,5.911209228515625,0.0954295987788577,0.02008318156003952,0.03827445902249848,-0.0029834439046680927,0.049225960106701064,0.9858285972375906,0.11461582534265811,right,0.0016366243362426758,-0.3081448957166861,0.8904115469098091,-9.302217546072601,-0.15573682347132511,0.007350984960794449,0.003186620771884918,2.9742727079138156,0.004447340965270996
1746575848657209300,5.951209228515625,0.0954295987788577,-0.005025643855333328,0.03827445902249848,-0.005252529866993427,0.049225960106701064,0.9858285972375906,0.11461582534265811,right,-0.0007031559944152832,-0.3081448957166861,0.8904115469098091,-9.302217546072601,-0.15573682347132511,0.0014560590498149395,0.0010470375418663025,2.9742727079138156,0.006083965301513672
1746575848697209300,5.991209228515625,0.0947573587469595,-0.017773985862731934,0.0379822807434927,-0.010875765234231949,0.049077256296122876,0.9858671943132511,0.11419641010188153,right,0.0007188320159912109,-0.30793959975055174,0.8842157610096036,-9.303421661165356,-0.15561118982630223,0.0024000380653887987,0.0014955028891563416,2.9723543070718645,0.0027696192264556885
1746575848737209300,6.031209228515625,0.09404500955808032,-0.009176055900752544,0.0376806251764324,-0.009278412908315659,0.048821581221069575,0.9858968965157379,0.11356470033012613,right,0.0031432509422302246,-0.3079287331025809,0.8775913013685495,-9.304081586378812,-0.15557646188537372,0.003565725637599826,-0.0002392604947090149,2.972252600263059,-0.0014149248600006104
1746575848777209300,6.071209228515625,0.09404500955808032,-0.005198312923312187,0.0376806251764324,0.019623827189207077,0.048821581221069575,0.9858968965157379,0.11356470033012613,right,0.005172133445739746,-0.3079287331025809,0.8775913013685495,-9.304081586378812,-0.15557646188537372,0.0013789443764835596,0.0037740319967269897,2.972252600263059,-0.0019424259662628174
1746575848817209300,6.111209228515625,0.09480899138845847,-0.003297595540061593,0.038085491983923726,0.002706410363316536,0.04854854802119494,0.9858812852591353,0.11313990371984736,right,-0.006278693675994873,-0.30808041594462987,0.8846564905144274,-9.302959304350614,-0.15566173455761803,-0.006498372182250023,-0.00016139447689056396,2.973670065845549,0.0011009275913238525
1746575848857209300,6.151209228515625,0.09457171401231773,-0.006330609321594238,0.037976546648528786,-0.006968340836465359,0.04840867085527656,0.9858573724504943,0.11284526930246683,right,0.0011557936668395996,-0.3085544322146121,0.8823159187376499,-9.301764541608094,-0.15588382880776047,-0.01318117044866085,0.00277923047542572,2.978099280464649,0.0005606114864349365
1746575848897209300,6.191209228515625,0.09457171401231773,0.003967824392020702,0.037976546648528786,-0.01348050870001316,0.04840867085527656,0.9858573724504943,0.11284526930246683,right,-0.000728309154510498,-0.3085544322146121,0.8823159187376499,-9.301764541608094,-0.15588382880776047,-0.01779359206557274,-0.000017449259757995605,2.978099280464649,0.0006229281425476074
1746575848937209300,6.231209228515625,0.09377404975318913,0.017187053337693214,0.03751685900425473,-0.01890682987868786,0.04862116580846654,0.9857735674880378,0.11321661855385824,right,-0.0006898641586303711,-0.30974566675701226,0.8745631126537918,-9.298927272355556,-0.1564581631687241,-0.017069028690457344,-0.00026348233222961426,2.989227700461447,0.0006213486194610596
1746575848977209300,6.271209228515625,0.09329013703515414,0.02146393619477749,0.03718353729821461,-0.01255112700164318,0.04910415209162545,0.9857089097849889,0.11415693429497509,right,0.0009656548500061035,-0.31041502718071673,0.8698765622727572,-9.297354908472299,-0.15679354399105655,-0.015758344903588295,-0.0009376704692840576,2.9954788698107,0.0033372044563293457
1746575849017209300,6.311209228515625,0.09337686086021083,0.017759643495082855,0.037153504920892,0.00025306176394224167,0.0495380746766484,0.9856796438650193,0.11505525515812715,right,0.0014742016792297363,-0.3104883200373842,0.8706623788882046,-9.297060893961786,-0.1568484607270096,-0.0045807333663105965,0.0009059607982635498,2.9961630526825784,0.0036222338676452637
1746575849057209300,6.351209228515625,0.0934636335113096,0.014055348932743073,0.03712346003524094,0.013057251460850239,0.04997196672339879,0.9856501269146432,0.11595355251839141,right,0.001982748508453369,-0.3105615254843612,0.8714486338950693,-9.296766879451274,-0.15690334940531908,0.006596878170967102,0.002749532461166382,2.9968466510325666,0.003907322883605957
1746575849097209300,6.391209228515625,0.0934636335113096,0.010528946295380592,0.03712346003524094,0.0028783464804291725,0.04997196672339879,0.9856501269146432,0.11595355251839141,right,-0.002522289752960205,-0.3105615254843612,0.8714486338950693,-9.296766879451274,-0.15690334940531908,0.009217790327966213,0.0011661425232887268,2.9968466510325666,0.0010898709297180176
1746575849137209300,6.431209228515625,0.0942547716084888,0.015725327655673027,0.03746298308511223,0.003621317446231842,0.05045505260145709,0.9856836614699431,0.1170041857903576,right,-0.000628054141998291,-0.30957415497645274,0.8790814668610691,-9.2990155351609,-0.15645661377216252,0.021503925323486328,0.0009645968675613403,2.9876255259618163,0.00046178698539733887
1746575849177209300,6.471209228515625,0.0944666745899323,0.004076575860381126,0.03755608090998248,-0.005104450508952141,0.05072009172328225,0.9857344235708557,0.11752476216503784,right,-0.0015837550163269043,-0.30867292469953916,0.8813055726513266,-9.301506182932853,-0.1560279514511619,0.014752287417650223,0.0008215904235839844,2.97920665718466,0.004960447549819946
1746575849217209300,6.511209228515625,0.09421645761598949,-0.01116988342255354,0.03746314784272168,-0.008950461633503437,0.0506484625582151,0.9857769760655348,0.11731551305444786,right,-0.0009784698486328125,-0.30824062608776515,0.8790992217134683,-9.303007819667458,-0.15580479331049982,0.0035723624750971794,-0.0014572441577911377,2.975167318665981,0.008016914129257202
1746575849257209300,6.551209228515625,0.0936606292199782,-0.04040280729532242,0.03727613558354112,-0.002350463531911373,0.050155507296670884,0.9858193674689122,0.11622418376250991,right,0.003917396068572998,-0.30818028656925883,0.8739449807554482,-9.30367359009981,-0.15574068396637494,0.00939120538532734,-0.0009568631649017334,2.9746032550424335,0.010687559843063354
1746575849297209300,6.591209228515625,0.09346057282358577,-0.04166213795542717,0.037340214901731644,0.01042545959353447,0.04926955212114509,0.9859115634839851,0.11436397993655545,right,0.002970874309539795,-0.307618475771114,0.8722395650770515,-9.305510742399097,-0.15542430513171163,0.027490047737956047,-0.0005569532513618469,2.969353079429269,0.004363685846328735
1746575849337209300,6.631209228515625,0.09356839353017046,-0.01361660286784172,0.03749311366023924,0.008251420222222805,0.04891277319276175,0.9860221341268649,0.11358782358894132,right,0.0012148618698120117,-0.3063700731243453,0.8735884954679757,-9.309099706801772,-0.15479749733738152,0.020743517205119133,0.0005513802170753479,2.9576828076407313,0.0023948252201080322
1746575849377209300,6.671209228515625,0.09367719465750791,0.014428934082388878,0.03764598994694693,0.006077380385249853,0.04855600668521137,0.9861321088527053,0.11281191017032166,right,-0.0005427002906799316,-0.3051217507794831,0.8749460475567727,-9.312673473635316,-0.15417061250856418,0.013996986672282219,0.0016588494181632996,2.946008736459911,0.00042635202407836914
1746575849417209300,6.711209228515625,0.09417632797359791,0.03306514024734497,0.03784638966791172,0.005328849423676729,0.048948265038435655,0.9861470573420836,0.11365185486338283,right,-0.0010319352149963379,-0.30451896102801235,0.879761046623066,-9.314002091890574,-0.15390165741015763,0.008287562057375908,0.004349201917648315,2.9403698537901044,-0.004940599203109741
1746575849457209300,6.751209228515625,0.09483245413823536,0.04803664982318878,0.03806256084389051,-0.00422219792380929,0.04976643270809272,0.9861499335328141,0.11536993122389061,right,-0.0037153959274291992,-0.3037421988051074,0.8860879846222698,-9.315693698239325,-0.1535677555685093,0.017125491052865982,0.0035841092467308044,2.9331019086137413,-0.00589674711227417
1746575849497209300,6.791209228515625,0.09486918822452545,0.02819269523024559,0.037969987249797284,-0.01858087256550789,0.05063690150712822,0.9861565945604227,0.11710225837784677,right,-0.0021716952323913574,-0.3030540469238609,0.8866212147161364,-9.317668213182687,-0.15326259190520078,0.005936472676694393,0.005563206970691681,2.9266616464331743,0.0009717941284179688
1746575849537209300,6.831209228515625,0.094074409318909,-0.0035199783742427826,0.03753989053696952,-0.030144821852445602,0.050988527255660665,0.9861708392122693,0.11768126726790028,right,-0.0011115670204162598,-0.3028649477750762,0.8792674178872257,-9.318920843592286,-0.15316016998025966,-0.0015070335939526558,0.001274503767490387,2.9248917141512036,0.0019745230674743652
1746575849577209600,6.871209716796875,0.09241961316154605,-0.030021119862794876,0.03677747737085901,-0.03669170290231705,0.050739273580937015,0.9862110964089951,0.11692609696718569,right,0.0014711618423461914,-0.3029966075867353,0.863809736514464,-9.319979412734508,-0.15316891595824172,-0.0017497572116553783,-0.004576057195663452,2.926124178555608,0.0034061074256896973
1746575849617209300,6.911209228515625,0.09140931187195432,-0.023120397701859474,0.036377165501374376,0.00021590664982795715,0.05011530678472699,0.9862424225681172,0.11552050212227075,right,0.0016301870346069336,-0.30330156329680247,0.8543118403289467,-9.319958369946479,-0.153267996229434,-0.002524638082832098,-0.0036746710538864136,2.9289783989429474,0.0015269219875335693
1746575849657209300,6.951209228515625,0.09039844699326223,-0.016219675540924072,0.03597682783893083,0.03712351620197296,0.049491278911972164,0.9862732466664265,0.11411438512001308,right,0.0017885565757751465,-0.3036051670311429,0.8448098524902016,-9.319930897417663,-0.15336698314052424,-0.0032995191868394613,-0.002772882580757141,2.931819467587769,-0.0003509223461151123
1746575849697209300,6.991209228515625,0.09140801205462384,0.008041443303227425,0.03646985508863005,0.030777864158153534,0.049342882355914934,0.9862250230892721,0.11399461406082027,right,-0.0013632774353027344,-0.3040487576255606,0.8540997319482266,-9.317777518776058,-0.15360832887479428,-0.017949510365724564,0.00006444752216339111,2.935970449787378,-0.00043064355850219727
1746575849737209300,7.031209228515625,0.09309359961008043,0.016894863918423653,0.037240515907335896,0.04127249866724014,0.04948285244893116,0.9861415069364015,0.11456951295630481,right,-0.00012224912643432617,-0.30456293232652104,0.8696639424353837,-9.314819838014245,-0.15391390720510625,-0.006224818527698517,0.0034685656428337097,2.9407810649394985,-0.0029599666595458984
1746575849777209300,7.071209228515625,0.09464929816858506,0.016085796058177948,0.037953042953380645,0.019546883180737495,0.04975515366564208,0.9861064279907474,0.1153543198281546,right,-0.005352020263671875,-0.3043793033292006,0.8842049473546445,-9.313993324062228,-0.15387679165627327,0.007069163955748081,0.0023581162095069885,2.93906315510571,0.0016446113586425781
1746575849817209300,7.111209228515625,0.09500500992183789,0.007791314274072647,0.038107497180440784,-0.0029473043978214264,0.04997577791795481,0.9861239993013364,0.11582984514751224,right,-0.003235340118408203,-0.3038924196708605,0.8876536265037953,-9.315101577565073,-0.15365483091404233,0.011186592280864716,0.00261814147233963,2.9345076837584374,0.002778559923171997
1746575849857209300,7.151209228515625,0.09500500992183789,-0.013290666043758392,0.038107497180440784,-0.014867858961224556,0.04997577791795481,0.9861239993013364,0.11582984514751224,right,-0.0009688735008239746,-0.3038924196708605,0.8876536265037953,-9.315101577565073,-0.15365483091404233,0.011158066801726818,0.00019740313291549683,2.9345076837584374,0.002503901720046997
1746575849897209300,7.191209228515625,0.09375515169815672,-0.020264964550733566,0.03757581921873851,-0.024155616760253906,0.04971533653057058,0.986226204462244,0.1150622162769105,right,0.0019399523735046387,-0.30308967633099426,0.8762306805398314,-9.318546165060997,-0.15321366416779927,0.008062231354415417,-0.0003159269690513611,2.9269951161712404,0.0027022063732147217
1746575849937209300,7.231209228515625,0.09335165005506671,-0.02729828841984272,0.037462130622884365,0.01626986265182495,0.049220585579856556,0.9862677953330864,0.11399062559511254,right,0.002142786979675293,-0.3029884069420147,0.8724981429480015,-9.31919439983666,-0.1531336795483725,-0.006061508320271969,-0.000024415552616119385,2.9260473139271137,-0.0011240839958190918
1746575849977209300,7.271209228515625,0.09374193937095826,-0.0234915092587471,0.037707747891988504,0.01675066165626049,0.04866749341117112,0.9862269829486406,0.11297337174231449,right,-0.0003687143325805664,-0.3037759791811695,0.875919276503101,-9.316555868026613,-0.15351217843285017,-0.026733241975307465,-0.0005760267376899719,2.9334181349560615,-0.003859102725982666
1746575850017209300,7.311209228515625,0.0945120325373767,-0.008521518670022488,0.03807674437055474,0.02425975725054741,0.04836250529642962,0.9861204088407814,0.11255165892972024,right,-0.0011510848999023438,-0.3051516049792108,0.8827120053831488,-9.311852220380306,-0.1542006181401469,-0.03287585824728012,0.00039678066968917847,2.946287845662236,-0.0029410123825073242
1746575850057209300,7.351209228515625,0.09541043187894137,0.013520360924303532,0.038465814933202884,0.016419801861047745,0.04839782531627582,0.9860184596836861,0.1128229273306625,right,-0.002509891986846924,-0.3061998545534382,0.8907827183097601,-9.307975671207904,-0.154743938600698,-0.018036790192127228,0.0011591240763664246,2.9560911545351147,-0.0025572478771209717
1746575850097209300,7.391209228515625,0.09593356063218493,0.003915044479072094,0.03868374027625534,0.012129443697631359,0.04856841588675785,0.9859835262246054,0.11326186001224788,right,-0.0013804435729980469,-0.3063902810225746,0.8955979365717619,-9.306948081725835,-0.15485888340551537,-0.0071435607969760895,0.0018220990896224976,2.9578716082111,0.000552833080291748
1746575850137209300,7.431209228515625,0.09593356063218493,-0.005690271034836769,0.03868374027625534,0.007839085534214973,0.04856841588675785,0.9859835262246054,0.11326186001224788,right,-0.0001462101936340332,-0.3063902810225746,0.8955979365717619,-9.306948081725835,-0.15485888340551537,0.0037496695294976234,0.0029760897159576416,2.9578716082111,0.0038444995880126953
1746575850177209300,7.471209228515625,0.09593356063218493,-0.018187958747148514,0.03868374027625534,0.004765667486935854,0.04856841588675785,0.9859835262246054,0.11326186001224788,right,0.00015670061111450195,-0.3063902810225746,0.8955979365717619,-9.306948081725835,-0.15485888340551537,0.010004175826907158,0.003574281930923462,2.9578716082111,0.0009537935256958008
1746575850217209300,7.511209228515625,0.09613645289508989,-0.00711435079574585,0.03880484899268589,0.0030510900542140007,0.04832770952918872,0.9859603734568669,0.11282803032865135,right,0.00008559226989746094,-0.30678743600466435,0.8973733487464487,-9.30559608259499,-0.15505102545294713,-0.010519284754991531,0.0025784745812416077,2.961584783515334,-0.0011949241161346436
1746575850257209300,7.551209228515625,0.0963391633732678,0.003959258086979389,0.038925945200786294,0.0013365123886615038,0.048086956243506555,0.9859371839404394,0.11239414694514224,right,0.00001424551010131836,-0.307184679706958,0.8991464228335767,-9.304242329898477,-0.1552431394427357,-0.03104274533689022,0.0015829205513000488,2.965298251080513,-0.0033436715602874756
1746575850297209300,7.591209228515625,0.09670457066816061,0.02370455488562584,0.039007003810004874,0.003401353722438216,0.04839525245069698,0.9858158254778767,0.1131501162348117,right,-0.0016042590141296387,-0.30846266322711574,0.9021795799843967,-9.300133725535868,-0.15589612114371276,-0.03493338078260422,0.0006085187196731567,2.9772420791134238,-0.002341717481613159
1746575850337209300,7.631209228515625,0.09698531177044038,0.02719470113515854,0.03900334576590117,-0.009106859564781189,0.04902946541000535,0.9856973611801312,0.11454152059939565,right,-0.003794550895690918,-0.30951258865837344,0.9044872724048793,-9.296763956841826,-0.15644713102277075,-0.02666439861059189,0.000044792890548706055,2.9870506486833093,0.0028974413871765137
1746575850377209300,7.671209228515625,0.09665390434152137,0.013982430100440979,0.03873748694590204,-0.015268849208950996,0.049549263275561,0.9856285224894494,0.11558133326864545,right,-0.0001099705696105957,-0.31017008819242864,0.9012165071059017,-9.295106252762675,-0.15678292254748638,-0.011385474354028702,0.0006114020943641663,2.9931913433954116,0.006532728672027588
1746575850417209300,7.711209228515625,0.09665390434152137,-0.006249565631151199,0.03873748694590204,-0.0022975532338023186,0.049549263275561,0.9856285224894494,0.11558133326864545,right,0.0034773945808410645,-0.31017008819242864,0.9012165071059017,-9.295106252762675,-0.15678292254748638,0.0005213702097535133,0.00048457831144332886,2.9931913433954116,0.0058141350746154785
1746575850457209300,7.751209228515625,0.09665390434152137,-0.015958096832036972,0.03873748694590204,0.005371479783207178,0.049549263275561,0.9856285224894494,0.11558133326864545,right,0.0007750391960144043,-0.31017008819242864,0.9012165071059017,-9.295106252762675,-0.15678292254748638,0.0005673514096997678,-0.000636465847492218,2.9931913433954116,0.002466261386871338
1746575850497209300,7.791209228515625,0.09665390434152137,-0.011079717427492142,0.03873748694590204,0.01143819559365511,0.049549263275561,0.9856285224894494,0.11558133326864545,right,0.0012857913970947266,-0.31017008819242864,0.9012165071059017,-9.295106252762675,-0.15678292254748638,0.003559927921742201,0.00011866539716720581,2.9931913433954116,-0.00019982457160949707
1746575850537209300,7.831209228515625,0.09645580026889346,-0.0038184639997780323,0.0387203070513904,0.0009561143815517426,0.048989680829370254,0.9856376655267679,0.11443166889612327,right,-0.002749145030975342,-0.31047282805211085,0.8992878040656447,-9.294382030141353,-0.15690486176574328,-0.0038410210981965065,0.001590818166732788,2.996018383514881,0.0010516941547393799
1746575850577209600,7.871209716796875,0.0967182834093309,-0.003032304812222719,0.03886233005573128,0.017590772360563278,0.04881890483699238,0.9856162803450187,0.1141446424209361,right,-0.0003082156181335449,-0.3107818162492253,0.9016379473883658,-9.293224092277883,-0.15705783881370267,-0.013535477221012115,0.0010048449039459229,2.998903583562374,0.0032927393913269043
1746575850617209300,7.911209228515625,0.0967182834093309,-0.006753530353307724,0.03886233005573128,-0.0033836103975772858,0.04881890483699238,0.9856162803450187,0.1141446424209361,right,-0.001033484935760498,-0.3107818162492253,0.9016379473883658,-9.293224092277883,-0.15705783881370267,-0.01787264086306095,0.00026428699493408203,2.998903583562374,0.003573000431060791
1746575850657209300,7.951209228515625,0.09689021710880104,0.000011447351425886154,0.0389247143171296,-0.0027831438928842545,0.04877162660652497,0.9855557130915832,0.11411985125735549,right,-0.001015007495880127,-0.31154375487215263,0.9030144233733415,-9.290791896694898,-0.15743670351964936,-0.014582758769392967,0.0008081421256065369,3.006016922698915,0.0025469958782196045
1746575850697209300,7.991209228515625,0.09689021710880104,0.006776424590498209,0.0389247143171296,-0.002182677388191223,0.04877162660652497,0.9855557130915832,0.11411985125735549,right,-0.0007485151290893555,-0.31154375487215263,0.9030144233733415,-9.290791896694898,-0.15743670351964936,-0.011292875744402409,0.0014923661947250366,3.006016922698915,0.0022463202476501465
1746575850737209300,8.031209228515625,0.0970120094138918,0.02018301747739315,0.03890426425649569,-0.011131620034575462,0.04903100471009708,0.9854604729458253,0.11472467139242208,right,-0.002167344093322754,-0.31256901224058853,0.9038470017399638,-9.287609175005555,-0.15795621567740922,-0.00713433837518096,-0.0010500773787498474,3.0155855460330843,0.0011726915836334229
1746575850777209300,8.071209228515626,0.09684877008184915,0.01832512952387333,0.03873443626368112,-0.007179425563663244,0.049503565059333295,0.9854074856822429,0.11568214023301313,right,0.001526951789855957,-0.31299568889947477,0.9022063218608498,-9.286475202539563,-0.15818082791173083,-0.012263616546988487,-0.00021515041589736938,3.0195667246237394,0.0036640167236328125
1746575850817209300,8.111209228515625,0.09737263746182874,0.013278165832161903,0.03894298130836902,0.014048893004655838,0.04969095566286567,0.9853588326378416,0.11616664159087925,right,0.001249849796295166,-0.3133423754793458,0.9069692984789609,-9.284958952757716,-0.1583738839550124,-0.004218811169266701,0.0015532374382019043,3.022801468761265,0.0013450086116790771
1746575850857209300,8.151209228515626,0.0978967656530093,0.008231202140450478,0.03915153221907169,0.03527721390128136,0.04987833608697383,0.9853100959166381,0.11665138844242517,right,0.0009723901748657227,-0.3136888599803298,0.9117332249451429,-9.283439195844531,-0.15856693540470757,0.0038259942084550858,0.003321520984172821,3.026033582550287,-0.0009737610816955566
1746575850897209300,8.191209228515625,0.09893450972023723,0.009018905460834503,0.039633973000727726,0.015831271186470985,0.04998651567030244,0.9852839012163168,0.11703508756214559,right,-0.003980696201324463,-0.3136392129412416,0.9213814163215458,-9.28263781633377,-0.15857596039487426,0.001034856541082263,0.004202388226985931,3.0255703489527104,-0.0030167698860168457
1746575850937209300,8.231209228515626,0.09893450972023723,0.019911129027605057,0.039633973000727726,-0.007691837847232819,0.04998651567030244,0.9852839012163168,0.11703508756214559,right,-0.005713105201721191,-0.3136392129412416,0.9213814163215458,-9.28263781633377,-0.15857596039487426,0.000545103510376066,0.005558378994464874,3.0255703489527104,-0.003814101219177246
1746575850977209300,8.271209228515625,0.09885327116777055,0.02132667787373066,0.0394771138984222,-0.02855023182928562,0.050704054703980934,0.9852441638619567,0.11848225739201833,right,-0.0033485889434814453,-0.31370235924181045,0.9206084591876715,-9.282522665521501,-0.1586336309034097,-0.00909633282572031,0.0036698728799819946,3.0261595470175147,0.0005234181880950928
1746575851017209300,8.311209228515626,0.09785654074474448,0.012035945430397987,0.03889727758728719,-0.03360537439584732,0.05122656221175566,0.9852049281258058,0.11940931493498158,right,0.00047528743743896484,-0.3141623929155595,0.9112197224650531,-9.282049202790855,-0.1588527967842842,-0.019229387864470482,0.0026863068342208862,3.0304505222097036,0.0024314522743225098
1746575851057209300,8.351209228515625,0.09692472281499015,-0.0016469862312078476,0.03837815057312122,-0.016023430973291397,0.05145469183820299,0.985142148268428,0.11977610851704613,right,0.004627823829650879,-0.3150924193692685,0.9022969958189875,-9.280084624719619,-0.1592936685735013,-0.02972305938601494,0.0012273937463760376,3.0391230734869836,0.0058272480964660645
1746575851097209300,8.391209228515624,0.09658909076587166,-0.00947275385260582,0.03819792774831582,0.0031729433685541153,0.051325260546415584,0.9850735730603571,0.11952041482309508,right,0.002507328987121582,-0.31615316810673744,0.8988708938278257,-9.27717312118709,-0.15980214008698676,-0.0202060304582119,0.001058913767337799,3.0490117225557563,0.002136021852493286
1746575851137209300,8.431209228515625,0.09670298675991754,-0.0016521643847227097,0.038253084813904416,0.003828059881925583,0.05118450085256118,0.9850319354330282,0.11928723651035028,right,-0.0007288455963134766,-0.3167426989591389,0.8997538141421974,-9.275279854786396,-0.16009068871383791,-0.008748753927648067,0.001154586672782898,3.0545059360578652,0.0019165873527526855
1746575851177209300,8.471209228515624,0.09670298675991754,-0.0006969795795157552,0.038253084813904416,0.006491493433713913,0.05118450085256118,0.9850319354330282,0.11928723651035028,right,-0.0006052851676940918,-0.3167426989591389,0.8997538141421974,-9.275279854786396,-0.16009068871383791,-0.008754049427807331,0.0030036717653274536,3.0545059360578652,0.005069375038146973
1746575851217209300,8.511209228515625,0.09700036620298438,0.0014607143821194768,0.03837470010435242,-0.0035550175234675407,0.05119520672252426,0.9849845241215202,0.11938679281756139,right,-0.0014347434043884277,-0.3172504581981288,0.9023617316182703,-9.273467252406478,-0.16035003904063666,0.0031929640099406242,0.0026094168424606323,3.0592373484939337,-0.00045618414878845215
1746575851257209300,8.551209228515624,0.09700036620298438,0.019014636054635048,0.03837470010435242,-0.021649468690156937,0.05119520672252426,0.9849845241215202,0.11938679281756139,right,-0.0033243894577026367,-0.3172504581981288,0.9023617316182703,-9.273467252406478,-0.16035003904063666,0.01247474830597639,0.0021961405873298645,3.0592373484939337,-0.0025883913040161133
1746575851297209300,8.591209228515625,0.0959953715725111,0.033011022955179214,0.037779656436639324,-0.03563849627971649,0.05203371826690285,0.9850118859982812,0.12089060851954661,right,-0.0024550557136535645,-0.3166406431701792,0.8932201015245169,-9.27622444216013,-0.1600526895287514,0.0018793167546391487,0.00045862048864364624,3.0535549189433455,0.00108259916305542
1746575851337209300,8.631209228515624,0.0948617388283235,0.024072330445051193,0.037115965212084594,-0.03636011853814125,0.05279051353296029,0.9850034195330812,0.12223878814112293,right,0.0019530057907104492,-0.3165664294236843,0.8827251571256667,-9.277456614303588,-0.16001172250803836,-0.006644269451498985,-0.000303022563457489,3.0528631372869013,0.00516095757484436
1746575851377209300,8.671209228515625,0.09375641371532292,0.0008819382637739182,0.03652291822896744,-0.02204330638051033,0.05311140066597037,0.984989050916735,0.12272686898526923,right,0.0020315051078796387,-0.31684998315681784,0.8723889834851026,-9.27756475085318,-0.16013094954746387,-0.008989915251731873,-0.0016800984740257263,3.0555057607501745,0.006815314292907715
1746575851417209300,8.711209228515624,0.09329569737710615,-0.0008214303525164723,0.03632017527523026,-0.011110554449260235,0.05293222925603393,0.9849866041450877,0.12230431870972129,right,0.0011473298072814941,-0.31713593004194357,0.8680331263631582,-9.277095379775762,-0.16025172924755435,-0.0048469421453773975,-0.0007593855261802673,3.058170011523366,0.003281325101852417
1746575851457209300,8.751209228515625,0.09329569737710615,-0.002524798968806863,0.03632017527523026,-0.00017780158668756485,0.05293222925603393,0.9849866041450877,0.12230431870972129,right,0.00031107664108276367,-0.31713593004194357,0.8680331263631582,-9.277095379775762,-0.16025172924755435,-0.0007039695046842098,-0.0002828463912010193,3.058170011523366,0.000019043684005737305
1746575851497209300,8.791209228515624,0.09329569737710615,0.00306425872258842,0.03632017527523026,0.016305897384881973,0.05293222925603393,0.9849866041450877,0.12230431870972129,right,-0.005011200904846191,-0.31713593004194357,0.8680331263631582,-9.277095379775762,-0.16025172924755435,-0.008207401260733604,0.0012638717889785767,3.058170011523366,0.0035414397716522217
1746575851537209300,8.831209228515625,0.09329569737710615,-0.005778701044619083,0.03632017527523026,-0.014496076852083206,0.05293222925603393,0.9849866041450877,0.12230431870972129,right,-0.0015494227409362793,-0.31713593004194357,0.8680331263631582,-9.277095379775762,-0.16025172924755435,-0.00972908828407526,0.0026015639305114746,3.058170011523366,0.005688339471817017
1746575851577209600,8.871209716796875,0.09262814621868262,0.0004952559247612953,0.0359904282993278,-0.014764395542442799,0.05285082699887593,0.98495859225094,0.12206407575203328,right,-0.0013062357902526855,-0.31773558106585975,0.8616701672025024,-9.275845087453723,-0.1605247873373692,-0.008106851950287819,0.0019358322024345398,3.06375687174499,0.00432172417640686
1746575851617209300,8.911209228515625,0.09196026756355385,0.006769211962819099,0.03566065630676596,-0.015032713301479816,0.052769404382869825,0.984930413003188,0.12182333466855579,right,-0.001063704490661621,-0.3183350363638007,0.8553060389980673,-9.274587780869007,-0.1607977893118981,-0.006484616082161665,0.0012702271342277527,3.069340809357166,0.0029553472995758057
1746575851657209300,8.951209228515625,0.09196026756355385,0.01169873122125864,0.03566065630676596,-0.009461777284741402,0.052769404382869825,0.984930413003188,0.12182333466855579,right,0.0007584095001220703,-0.3183350363638007,0.8553060389980673,-9.274587780869007,-0.1607977893118981,-0.002597928512841463,0.0004225596785545349,3.069340809357166,0.0023277699947357178
1746575851697209300,8.991209228515626,0.09137444812891639,0.016305582597851753,0.03528830024946832,-0.01056894101202488,0.053251664890189745,0.9848908511028269,0.12272556010450943,right,0.00017714500427246094,-0.31866953802631376,0.8497789461396634,-9.274064633777737,-0.16096285292580248,0.0044945599511265755,0.0000987127423286438,3.072456018768251,0.0005435347557067871
1746575851737209300,9.031209228515625,0.09086787297678854,0.019220223650336266,0.03497419963661378,-0.01828351616859436,0.053749420545911884,0.9848955980324506,0.12363911777358687,right,0.0022941231727600098,-0.3184087387482946,0.845153478296101,-9.275291545224189,-0.1608370308574493,0.010549431666731834,0.0026927366852760315,3.070027330316603,0.0004572868347167969
1746575851777209300,9.071209228515626,0.09072340353402432,0.0057931216433644295,0.03486155452883365,-0.0016942303627729416,0.054082301290332827,0.9849030371275221,0.12427580925199355,right,0.0004215240478515625,-0.3181251457905461,0.8438923723191022,-9.27628055626154,-0.16070471154738908,0.00023034680634737015,0.0006623119115829468,3.0673858758971093,0.0023466944694519043
1746575851817209300,9.111209228515625,0.09072340353402432,-0.019668690860271454,0.03486155452883365,0.0027375943027436733,0.054082301290332827,0.9849030371275221,0.12427580925199355,right,0.001947164535522461,-0.3181251457905461,0.8438923723191022,-9.27628055626154,-0.16070471154738908,-0.017336532473564148,0.002307809889316559,3.0673858758971093,0.0017897188663482666
1746575851857209300,9.151209228515626,0.09059989983020526,-0.023945607244968414,0.03484990927146676,0.009739631786942482,0.05353618222026836,0.9848497430764597,0.12320645698394486,right,0.001664578914642334,-0.3192075874659939,0.8424457537073642,-9.273072115609049,-0.16121532259589974,-0.013595571741461754,0.0030477195978164673,3.077466540406644,0.0006988346576690674
1746575851897209300,9.191209228515625,0.09079295275040596,-0.009416209533810616,0.03498436093546948,0.012251362204551697,0.05309707064960216,0.9848070377946215,0.1223896423663806,right,-0.002570927143096924,-0.3199911269328299,0.8440170946773141,-9.270504895469546,-0.16159169254887493,-0.016732806339859962,0.0032500624656677246,3.0847613735899326,-0.0017674267292022705
1746575851937209300,9.231209228515626,0.0910086772521637,0.016233621165156364,0.03504648526629575,-0.004916785284876823,0.05316984448853774,0.9847375977766,0.12261522489930747,right,-0.00397104024887085,-0.32075580535727116,0.8458022975936531,-9.267970993077755,-0.16197753644147442,-0.01731543242931366,0.0023530051112174988,3.0918785121187566,-0.002108246088027954
1746575851977209300,9.271209228515625,0.09105860280479411,0.03845737874507904,0.03494495148816231,-0.013210098259150982,0.05380703539715297,0.9846593181887525,0.12394724630640248,right,-0.0015808939933776855,-0.32128930712066306,0.846114870674163,-9.266284647426009,-0.16226461141805706,-0.010106423869729042,0.0013424605131149292,3.0968431487888095,-0.0007926225662231445
1746575852017209300,9.311209228515626,0.09052440214419653,0.03001750446856022,0.03456270559257286,-0.017802122980356216,0.05459247656715981,0.9846339927674986,0.1254502547936843,right,-0.00017052888870239258,-0.32121109863877645,0.8411866204917431,-9.266976721343397,-0.16223778434327288,-0.004509800113737583,-0.0005055516958236694,3.09611541903615,0.0010155737400054932
1746575852057209300,9.351209228515625,0.08999007787468687,0.021577630192041397,0.03418041807453868,-0.022394150495529175,0.055377946547840624,0.9846078571474876,0.12695340148055168,right,0.0012394189834594727,-0.3211336005990481,0.8362564706131815,-9.267663534563779,-0.16221081952512958,0.001086824107915163,-0.002353392541408539,3.095394411285221,0.0028230249881744385
1746575852097209300,9.391209228515624,0.08974228665738954,0.024036578834056854,0.033990223515373855,-0.012129511684179306,0.05583874979107055,0.9845960829024498,0.12784245651075707,right,0.0008377432823181152,-0.3210223516800039,0.8339908637687563,-9.268213569661974,-0.16216436221725158,0.0024263067170977592,-0.0019379854202270508,3.0943592230185866,0.0007733702659606934
1746575852137209300,9.431209228515625,0.08949441846610358,0.02649552933871746,0.03380002231389455,-0.0018648719415068626,0.05629956942414118,0.9845840943756946,0.1287315769675776,right,0.00043588876724243164,-0.3209113372612378,0.8317242340110241,-9.26876243571639,-0.1621178722581444,0.003765788860619068,-0.001522459089756012,3.0933260805785654,-0.0012764334678649902
1746575852177209300,9.471209228515624,0.08993531530394405,0.024452921003103256,0.03393101483261287,0.004484948236495256,0.056838335632471516,0.9845605430978687,0.1298867584880844,right,-0.000531613826751709,-0.320697950859484,0.8358699555136263,-9.269051774051785,-0.1620449705585425,-0.0008346959948539734,0.00008474290370941162,3.0913401674583554,0.00039845705032348633
1746575852217209300,9.511209228515625,0.0902961410007824,0.007054578512907028,0.03403542885965833,-0.001242801547050476,0.0572399925926951,0.9845250125290916,0.13076523746936863,right,-0.0016314983367919922,-0.3207545652313535,0.839198661544919,-9.26857538871169,-0.16209801801304294,-0.007149187847971916,0.0013123154640197754,3.0918671139419076,0.0049537718296051025
1746575852257209300,9.551209228515624,0.0902961410007824,-0.020846297964453697,0.03403542885965833,-0.0038891436997801065,0.0572399925926951,0.9845250125290916,0.13076523746936863,right,0.000893712043762207,-0.3207545652313535,0.839198661544919,-9.26857538871169,-0.16209801801304294,-0.005942553747445345,0.0015937462449073792,3.0918671139419076,0.0047633349895477295
1746575852297209300,9.591209228515625,0.08949634897153037,-0.035977803170681,0.03375051139944942,-0.0015760373789817095,0.0565251758576827,0.9845445485628773,0.12920857783094783,right,0.0022848844528198242,-0.3212445225556337,0.831649999731034,-9.267733677190542,-0.16228984724169224,-0.00015648547559976578,0.0007019117474555969,3.0964263846814633,0.00125160813331604
1746575852337209300,9.631209228515624,0.0890479744134492,-0.03314957022666931,0.03364401832450155,0.02466527372598648,0.05577331168565753,0.9845652797906741,0.12762919710952816,right,0.006920516490936279,-0.3216419327466427,0.8273849626976996,-9.26687910618782,-0.16244610683158367,-0.007816217839717865,0.003116704523563385,3.1001240701556205,0.0018291771411895752
1746575852377209300,9.671209228515625,0.08973863960214787,-0.019463712349534035,0.034052444193085896,0.015414934605360031,0.05516402339972029,0.9845382243447108,0.12653760831745392,right,-0.0029741525650024414,-0.32222423974749126,0.8336231995001435,-9.264505947315692,-0.16273316750779937,-0.013316767290234566,-0.00045705586671829224,3.1055411267682906,0.0017001330852508545
1746575852417209300,9.711209228515624,0.0902122328766164,-0.009874311275780201,0.03431344504863425,0.010426905006170273,0.05483141381231174,0.984504046450116,0.1259695591199504,right,-0.0007948875427246094,-0.3227541001885801,0.837862298374623,-9.262470057573914,-0.16299707671002364,-0.0063394117169082165,0.003597646951675415,3.1104695230811834,0.0010981559753417969
1746575852457209300,9.751209228515625,0.0902122328766164,0.0068837301805615425,0.03431344504863425,-0.0019619250670075417,0.05483141381231174,0.984504046450116,0.1259695591199504,right,-0.0020630955696105957,-0.3227541001885801,0.837862298374623,-9.262470057573914,-0.16299707671002364,0.0015403940342366695,0.0027733519673347473,3.1104695230811834,0.0014105141162872314
1746575852497209300,9.791209228515624,0.0902122328766164,0.01403795089572668,0.03431344504863425,-0.011753449216485023,0.05483141381231174,0.984504046450116,0.1259695591199504,right,-0.0027984976768493652,-0.3227541001885801,0.837862298374623,-9.262470057573914,-0.16299707671002364,0.006243356503546238,0.004497617483139038,3.1104695230811834,0.0019990205764770508
1746575852537209300,9.831209228515625,0.08975330865165684,0.006168844178318977,0.03403310754137898,-0.021977899596095085,0.055283758506420776,0.9845176718485859,0.12679248063943496,right,-0.0009140968322753906,-0.32239138344413204,0.8337125582840293,-9.263976370483636,-0.16282013529186032,0.003639325499534607,0.0014885962009429932,3.107095954994857,0.003920793533325195
1746575852577209600,9.871209716796875,0.08898441942082741,0.0056050312705338,0.03364275589995261,-0.0229838527739048,0.05546961962374389,0.9845412553669064,0.12703100993362457,right,-0.0006201863288879395,-0.3221744433554411,0.8266491957690566,-9.265286284038424,-0.16269616634621492,0.007466306909918785,-0.0005712583661079407,3.105078185431659,0.0011969506740570068
1746575852617209300,9.911209228515625,0.08895520828970582,0.00982905738055706,0.03360717037654542,-0.011960669420659542,0.05570663626397324,0.984564092759379,0.12748321529941914,right,-0.0006468892097473145,-0.32172881953080723,0.8265013847962022,-9.266687383008003,-0.16248380050774006,0.007695325184613466,-0.00027676671743392944,3.1009324639290567,0.0003858506679534912
1746575852657209300,9.951209228515625,0.08895520828970582,0.014053082093596458,0.03360717037654542,-0.0009374860674142838,0.05570663626397324,0.984564092759379,0.12748321529941914,right,-0.0008164644241333008,-0.32172881953080723,0.8265013847962022,-9.266687383008003,-0.16248380050774006,0.007924343459308147,0.0000026598572731018066,3.1009324639290567,-0.000847935676574707
1746575852697209300,9.991209228515626,0.08929628537592743,0.005933338776230812,0.033739204822766135,0.009124791249632835,0.05608371965093257,0.9845977429653452,0.12826252961996873,right,-0.00015544891357421875,-0.32094820195023605,0.8298775832310319,-9.268813289120793,-0.16212251573527053,0.010256756097078323,0.002672933042049408,3.0936691949278114,0.0012317895889282227
1746575852737209300,10.031209228515625,0.08929628537592743,-0.005310418084263802,0.033739204822766135,0.01014920137822628,0.05608371965093257,0.9845977429653452,0.12826252961996873,right,-0.0014322400093078613,-0.32094820195023605,0.8298775832310319,-9.268813289120793,-0.16212251573527053,0.009739639237523079,0.0028386861085891724,3.0936691949278114,-0.0017308294773101807
1746575852777209300,10.071209228515626,0.08985808685371402,-0.004590559285134077,0.03407665514059398,0.010916570201516151,0.05590061715499447,0.9846729198332828,0.12792970181779384,right,-0.0016159415245056152,-0.3199823932939258,0.8353524344455451,-9.27131679637432,-0.1616575683924244,0.02102915197610855,0.0022498294711112976,3.0846798327863216,-0.0010054409503936768
1746575852817209300,10.111209228515625,0.09030406689322745,-0.004034734331071377,0.03434919991271745,0.007311963476240635,0.05575883064039747,0.9847429007114581,0.1276649638739435,right,-0.0012609362602233887,-0.3190812865721598,0.8397375176619738,-9.273708075425029,-0.16122223113934814,0.01572822965681553,0.0017202571034431458,3.0762904823645947,0.0028794407844543457
1746575852857209300,10.151209228515626,0.09030406689322745,-0.00682816980406642,0.03434919991271745,0.003919962793588638,0.05575883064039747,0.9847429007114581,0.1276649638739435,right,-0.0013028383255004883,-0.3190812865721598,0.8397375176619738,-9.273708075425029,-0.16122223113934814,0.006910385563969612,0.0013784468173980713,3.0762904823645947,0.004398226737976074
1746575852897209300,10.191209228515625,0.09026899090336192,-0.012262161821126938,0.03439584811153792,0.0019885427318513393,0.05545476296337828,0.9847883825733128,0.12702241973132136,right,-0.0001576542854309082,-0.3187336294818377,0.8395086042769253,-9.274802300402522,-0.16103919267101055,-0.00512278825044632,0.0013333037495613098,3.0730531078785654,0.0052526891231536865
1746575852937209300,10.231209228515626,0.09026899090336192,-0.011098308488726616,0.03439584811153792,-0.0012739147059619427,0.05545476296337828,0.9847883825733128,0.12702241973132136,right,0.000687718391418457,-0.3187336294818377,0.8395086042769253,-9.274802300402522,-0.16103919267101055,-0.009886844083666801,-0.0009746700525283813,3.0730531078785654,0.0029256343841552734
1746575852977209300,10.271209228515625,0.08991830924711892,-0.0030892034992575645,0.03425687853432253,-0.0007603366975672543,0.05509892797389596,0.9847569876272618,0.1262834328104823,right,0.0010781288146972656,-0.3194773321068804,0.8360505727775395,-9.272817264065147,-0.16138266666557508,-0.007069415412843227,0.0006003156304359436,3.0799779387056825,0.001009821891784668
1746575853017209300,10.311209228515626,0.08991830924711892,0.00787651352584362,0.03425687853432253,-0.0006976760923862457,0.05509892797389596,0.9847569876272618,0.1262834328104823,right,-0.0006305575370788574,-0.3194773321068804,0.8360505727775395,-9.272817264065147,-0.16138266666557508,-0.003254246199503541,0.0003583356738090515,3.0799779387056825,-0.00041860342025756836
1746575853057209300,10.351209228515625,0.09006401193164745,0.012571782805025578,0.03427050761454637,-0.0014797337353229523,0.05533704605093518,0.9847058148497757,0.12681507026370198,right,-0.001018226146697998,-0.31991412816028064,0.8372805529639125,-9.271354790297151,-0.1616106553759935,-0.007956082932651043,0.0019039437174797058,3.084044457492232,0.0010471642017364502
1746575853097209300,10.391209228515624,0.09006401193164745,0.0052552977576851845,0.03427050761454637,-0.002524946816265583,0.05533704605093518,0.9847058148497757,0.12681507026370198,right,-0.0003108978271484375,-0.31991412816028064,0.8372805529639125,-9.271354790297151,-0.1616106553759935,-0.014981666579842567,0.0019318386912345886,3.084044457492232,0.0012308061122894287
1746575853137209300,10.431209228515625,0.0899082388786905,-0.004662542603909969,0.034128932638321674,-0.006219049915671349,0.05547395199580619,0.9846114201911601,0.12712998500658812,right,-0.0005915164947509766,-0.3210440246353701,0.8355228956416249,-9.268008402478694,-0.16216750138863711,-0.010727312415838242,0.0012253299355506897,3.0945608830705282,-0.0021680593490600586
1746575853177209300,10.471209228515624,0.0899082388786905,-0.0016348937060683966,0.034128932638321674,0.003267824649810791,0.05547395199580619,0.9846114201911601,0.12712998500658812,right,0.00034815073013305664,-0.3210440246353701,0.8355228956416249,-9.268008402478694,-0.16216750138863711,-0.0012730658054351807,0.0011033713817596436,3.0945608830705282,-0.0004349648952484131
1746575853217209300,10.511209228515625,0.09012632991760716,0.003695124527439475,0.034199176625842466,0.013915426097810268,0.05561223244124983,0.9845757894366338,0.12746283433956382,right,-0.0000661611557006836,-0.3213335648668943,0.8374635083153843,-9.266933466723561,-0.16232164962923218,-0.0075294687412679195,0.0020089074969291687,3.0972549444600936,0.0008334517478942871
1746575853257209300,10.551209228515624,0.09012632991760716,0.009025143459439278,0.034199176625842466,0.024563029408454895,0.05561223244124983,0.9845757894366338,0.12746283433956382,right,-0.0003708004951477051,-0.3213335648668943,0.8374635083153843,-9.266933466723561,-0.16232164962923218,-0.013785871677100658,0.0031123384833335876,3.0972549444600936,0.0023765861988067627
1746575853297209300,10.591209228515625,0.09060624238266866,0.0023393933661282063,0.034362773913215475,0.000060867518186569214,0.0558195772088645,0.9844890870295492,0.1280081482830396,right,-0.0021987557411193848,-0.3221412307347749,0.8416841216851025,-9.264035991716383,-0.16274157084954843,-0.015442831441760063,0.003152191638946533,3.104768973352015,0.004111051559448242
1746575853337209300,10.631209228515624,0.0904056461088752,-0.008743122220039368,0.0342382670106335,-0.007120735943317413,0.0558208336242875,0.9844362443341803,0.12801714968600353,right,0.0005055665969848633,-0.32285329247090655,0.8396259470462799,-9.262000686496496,-0.16308630537903857,-0.015577257610857487,0.0032746270298957825,3.1113921908840534,0.003497093915939331
1746575853377209300,10.671209228515625,0.08997123446292736,-0.00237842695787549,0.03401757583346276,-0.009472222998738289,0.05574009989487446,0.9843973244320569,0.12781769217249445,right,-0.0005006194114685059,-0.32351229967903417,0.8354179008971899,-9.260320186063646,-0.1633948462160312,-0.013873418793082237,0.0015925318002700806,3.117520026114583,0.0005909502506256104
1746575853417209300,10.711209228515624,0.08947121922582442,0.016563039273023605,0.033730025426903634,-0.012138398364186287,0.055909534680099904,0.9843577763238136,0.12810692573134508,right,-0.0010311007499694824,-0.3240190759127616,0.8306462295159697,-9.259162248200177,-0.1636349743772599,-0.009800801053643227,-0.00011335313320159912,3.1222315648064014,-0.0011112987995147705
1746575853457209300,10.751209228515625,0.08910309729945576,0.02893202193081379,0.03345247398028298,-0.012385919690132141,0.056427015510311075,0.9843051410946789,0.12911836033601942,right,-0.00025975704193115234,-0.3244038539503663,0.827130695675686,-9.258269683274627,-0.1638308203345817,-0.010743923485279083,-0.000028498470783233643,3.1258085465103385,-0.00027996301651000977
1746575853497209300,10.791209228515624,0.08871536218555982,0.040694937109947205,0.03311751936936679,-0.038714706897735596,0.057225853842863814,0.9842342847549261,0.1306994942468592,right,-0.0028461217880249023,-0.32481231637454533,0.8234276764392853,-9.257317497116327,-0.16404695678567244,-0.017895206809043884,0.0008056983351707458,3.129605016183853,0.0007485151290893555
1746575853537209300,10.831209228515625,0.08824815469271512,0.045531246811151505,0.032717256559831334,-0.014235520735383034,0.05816975170156885,0.9841503670961975,0.1325659004971892,right,0.002886176109313965,-0.325288718529812,0.8189710623566061,-9.256215088832377,-0.16429841265224368,-0.007946877740323544,0.004869617521762848,3.134032184976339,-0.0026109814643859863
1746575853577209600,10.871209716796875,0.08819613359699362,0.025747010484337807,0.03257672167946556,-0.012621571309864521,0.05886298253138048,0.9841104450157049,0.13396591432773894,right,0.0025556087493896484,-0.32528651498513145,0.8184901469718664,-9.256264188671112,-0.16431865778746352,-0.004895244259387255,0.003596492111682892,3.1340117267102,0.0018852651119232178
1746575853617209300,10.911209228515625,0.08814410892330134,0.00596277229487896,0.03243617605932729,-0.011007621884346008,0.05955615228464727,0.9840700208743993,0.13536586175755538,right,0.002225041389465332,-0.32528437158436296,0.8180091585218906,-9.256313288509846,-0.16433881670102354,-0.0018436114769428968,0.0023233741521835327,3.1339918529659507,0.0063814520835876465
1746575853657209300,10.951209228515625,0.0877681928431803,-0.012645682319998741,0.032258852799832205,-0.004564066417515278,0.059536747904953835,0.9840776886452742,0.1352646577753329,right,0.0015847086906433105,-0.3253026551514533,0.8145244582112878,-9.256563463878631,-0.16433497106378678,0.003938857465982437,0.00009360164403915405,3.134161656574905,0.0036254823207855225
1746575853697209300,10.991209228515626,0.0877681928431803,-0.01203792355954647,0.032258852799832205,0.005662756040692329,0.059536747904953835,0.9840776886452742,0.1352646577753329,right,0.0017734766006469727,-0.3253026551514533,0.8145244582112878,-9.256563463878631,-0.16433497106378678,0.0018884558230638504,0.0003769323229789734,3.134161656574905,0.0025905370712280273
1746575853737209300,11.031209228515625,0.08803912704026656,-0.006560612935572863,0.03245969001963039,0.014895561151206493,0.05911501140791953,0.9840989336419584,0.13445169228508472,right,0.0004514455795288086,-0.32528283156486293,0.8170378292717039,-9.256403889402746,-0.16432011937798785,-0.00149627891369164,0.00009594857692718506,3.1339775321796535,0.0006593763828277588
1746575853777209300,11.071209228515626,0.08842177584176367,-0.0037015224806964397,0.03266836521797016,0.005647875368595123,0.058963559292158796,0.9841006297652879,0.1342073159655153,right,-0.001247406005859375,-0.32527423342360023,0.8205820777498185,-9.2561174736768,-0.16432320422675376,-0.0013446719385683537,0.0015868991613388062,3.133897744941711,0.001775890588760376
1746575853817209300,11.111209228515625,0.08842177584176367,-0.0002986723557114601,0.03266836521797016,-0.0013610795140266418,0.058963559292158796,0.9841006297652879,0.1342073159655153,right,-0.0004438161849975586,-0.32527423342360023,0.8205820777498185,-9.2561174736768,-0.16432320422675376,-0.0033754068426787853,0.0013007894158363342,3.133897744941711,0.0010583698749542236
1746575853857209300,11.151209228515626,0.08842177584176367,0.003104177536442876,0.03266836521797016,-0.008370032534003258,0.058963559292158796,0.9841006297652879,0.1342073159655153,right,0.0003597736358642578,-0.32527423342360023,0.8205820777498185,-9.2561174736768,-0.16432320422675376,-0.00540614128112793,0.0010146722197532654,3.133897744941711,0.000340878963470459
1746575853897209300,11.191209228515625,0.08842177584176367,0.01084641832858324,0.03266836521797016,-0.006428332068026066,0.058963559292158796,0.9841006297652879,0.1342073159655153,right,0.0005952715873718262,-0.32527423342360023,0.8205820777498185,-9.2561174736768,-0.16432320422675376,-0.0044496566988527775,0.0008592605590820312,3.133897744941711,0.00026801228523254395
1746575853937209300,11.231209228515626,0.08807165170021908,0.010568421334028244,0.032417232757154496,-0.005578632932156324,0.05931951760701262,0.9840391549911756,0.1349045955636499,right,0.00031435489654541016,-0.3258605503262615,0.8171795027647167,-9.254572582322359,-0.1646124121392894,-0.00315621355548501,0.001850724220275879,3.13934548895359,0.0022363662719726562
1746575853977209300,11.271209228515625,0.08811081341459019,0.003959509544074535,0.032389826759936104,-0.0008618775755167007,0.0595130932427325,0.9839998119702982,0.13532290708628178,right,-0.001668691635131836,-0.3261924283548773,0.8174502094648778,-9.253502322742342,-0.16478346732938023,-0.002338981255888939,0.001113884150981903,3.142428549660742,0.0024126768112182617
1746575854017209300,11.311209228515626,0.08811081341459019,-0.0075471485033631325,0.032389826759936104,0.000281165586784482,0.0595130932427325,0.9839998119702982,0.13532290708628178,right,-0.0011302828788757324,-0.3261924283548773,0.8174502094648778,-9.253502322742342,-0.16478346732938023,0.0008718359749764204,0.0010432079434394836,3.142428549660742,0.002619713544845581
1746575854057209300,11.351209228515625,0.08811081341459019,-0.0098058320581913,0.032389826759936104,0.003105839481577277,0.0595130932427325,0.9839998119702982,0.13532290708628178,right,-0.0003325939178466797,-0.3261924283548773,0.8174502094648778,-9.253502322742342,-0.16478346732938023,-0.003675060113891959,0.0003063082695007324,3.142428549660742,0.0030549168586730957
1746575854097209300,11.391209228515624,0.08825801582425503,-0.010298083536326885,0.03250839143727605,0.006668092217296362,0.0591444083062306,0.9839922704704384,0.1346163603262891,right,-0.001719653606414795,-0.32652113553139833,0.8187212523140013,-9.252352568185328,-0.16493793191766187,0.00041498872451484203,0.00068674236536026,3.14548179975152,0.00045239925384521484
1746575854137209300,11.431209228515625,0.08825801582425503,-0.011206671595573425,0.03250839143727605,0.006111054215580225,0.0591444083062306,0.9839922704704384,0.1346163603262891,right,0.00012743473052978516,-0.32652113553139833,0.8187212523140013,-9.252352568185328,-0.16493793191766187,0.00028141395887359977,0.0026869624853134155,3.14548179975152,0.002114713191986084
1746575854177209300,11.471209228515624,0.08816577371888569,-0.015025516971945763,0.03254724167522495,0.0029175339732319117,0.058618587160449695,0.984015435772973,0.13353911840125027,right,-0.001092076301574707,-0.3266473049400273,0.8178328521069139,-9.25203225018978,-0.16497971295779823,-0.002437741030007601,0.0008935704827308655,3.1466537661403415,0.001694023609161377
1746575854217209300,11.511209228515625,0.08804511794468756,-0.018332399427890778,0.032544256058962294,0.0151457404717803,0.058197023481693276,0.9840112276575693,0.13268360317701378,right,0.0029067397117614746,-0.327038764771559,0.816608132617548,-9.250903538420795,-0.16515467829774755,-0.012530069798231125,0.0029691606760025024,3.150289492294192,0.000808417797088623
1746575854257209300,11.551209228515624,0.08801088642381204,-0.020798323675990105,0.032555116825414954,-0.0032796943560242653,0.05778126409000255,0.9839510761372416,0.13189040607692487,right,-0.0028951168060302734,-0.32808701361344667,0.8160007413089275,-9.247636645579338,-0.16565601174980907,-0.031381286680698395,0.0007426068186759949,3.160022658540308,0.0007444322109222412
1746575854297209300,11.591209228515625,0.08770492822014105,-0.009145200252532959,0.03240868681374212,0.00014509866014122963,0.057469570670405735,0.9838693062662074,0.1312766293315671,right,-0.00025004148483276367,-0.32938892383963575,0.8128102747045457,-9.243779970151186,-0.16627711046447483,-0.024560485035181046,0.0010791197419166565,3.172106479565799,-0.0022062361240386963
1746575854337209300,11.631209228515624,0.08773186604407691,0.010015929117798805,0.0323770207623367,-0.002037884434685111,0.057516065138003496,0.983791854377863,0.1314253432254228,right,-0.00006490945816040039,-0.3302944798988404,0.812807279029861,-9.240892432016134,-0.16672530932467863,-0.019018076360225677,0.000280626118183136,3.1805081049472093,-0.0005738437175750732
1746575854377209300,11.671209228515625,0.08798957297860119,0.01811417192220688,0.03241705929931509,0.003277825890108943,0.057849569213452356,0.9837133259728245,0.13218291020250364,right,0.000877678394317627,-0.33094641228333216,0.8150063234440982,-9.238615719255804,-0.16706536670113978,-0.012840591371059418,0.0005810260772705078,3.1865552761569615,0.0010954737663269043
1746575854417209300,11.711209228515624,0.08836149793308316,0.01425868645310402,0.03251838323428566,0.0033101055305451155,0.05821608565378576,0.9836555767815084,0.1330102565154573,right,-0.0010052323341369629,-0.33128983814446356,0.8183456969998777,-9.237221050027012,-0.1672583339837243,-0.0056292214430868626,0.0003795325756072998,3.189740043672919,0.0035919249057769775
1746575854457209300,11.751209228515625,0.08836149793308316,0.010992756113409996,0.03251838323428566,-0.009875740855932236,0.05821608565378576,0.9836555767815084,0.1330102565154573,right,-0.0023688077926635742,-0.33128983814446356,0.8183456969998777,-9.237221050027012,-0.1672583339837243,0.0018097972497344017,-0.00006899237632751465,3.189740043672919,0.0030291080474853516
1746575854497209300,11.791209228515624,0.08836102786571386,0.0036415248177945614,0.03248276276778761,-0.010748783126473427,0.05843315677198814,0.9836456857092021,0.13344949122642083,right,-0.0019412636756896973,-0.3312530067014287,0.8183516883492469,-9.237338538926839,-0.16724737200682582,-0.003037151414901018,-0.0003141537308692932,3.189398682889342,0.002270430326461792
1746575854537209300,11.831209228515625,0.08836052867549099,-0.0037097069434821606,0.032447136435274956,-0.011621824465692043,0.05865019114150153,0.9836358415650088,0.13388866151818213,right,-0.0015137791633605957,-0.33121623829400043,0.8183574605029076,-9.237455443304777,-0.1672364146235133,-0.007884100079536438,-0.0005592778325080872,3.18905761436671,0.0015117228031158447
1746575854577209600,11.871209716796875,0.08836052867549099,-0.006766553036868572,0.032447136435274956,0.0039243074133992195,0.05865019114150153,0.9836358415650088,0.13388866151818213,right,0.002206146717071533,-0.33121623829400043,0.8183574605029076,-9.237455443304777,-0.1672364146235133,-0.0069236066192388535,0.00020315498113632202,3.18905761436671,0.0003536045551300049
1746575854617209300,11.911209228515625,0.08862064947330751,-0.006093943957239389,0.03257023449761715,0.015845077112317085,0.05849403230178298,0.9835841891496574,0.1336526856898657,right,0.0013570189476013184,-0.3318884676853538,0.8205703873120248,-9.235105080786347,-0.16757047960044275,-0.012111937627196312,0.001233421266078949,3.1952909557983276,0.0015586018562316895
1746575854657209300,11.951209228515625,0.08930450176993514,-0.01139591634273529,0.0329014975829721,0.02059279754757881,0.05831699479269845,0.9835291326010539,0.13344371018684395,right,-0.0006012916564941406,-0.3325060705471175,0.8267094745889305,-9.232574685525893,-0.16789044634703562,-0.011874415911734104,0.002459198236465454,3.201016347707808,0.00273248553276062
1746575854697209300,11.991209228515626,0.09007666258709504,-0.016952766105532646,0.03330740285899649,0.02104645036160946,0.05798883646553426,0.9834942009164406,0.1329338566236584,right,0.0010495185852050781,-0.3329621461736186,0.8337068591956048,-9.230478590029477,-0.16812851216897298,-0.004576335195451975,0.005026035010814667,3.2052436100140214,0.004323333501815796
1746575854737209300,12.031209228515625,0.0905845930365841,-0.016106536611914635,0.03361392994898068,0.013987859711050987,0.05759420069994758,0.9834994967071972,0.13222286587003174,right,-0.0005244612693786621,-0.33304529851760745,0.838371051614359,-9.229788269677758,-0.16817214380404988,0.004741874989122152,0.006037995219230652,3.206014302125573,0.0027145445346832275
1746575854777209300,12.071209228515626,0.09071383711124825,-0.014202411286532879,0.03375018590702077,0.004082382656633854,0.057197891116825994,0.9835336125241357,0.1314296721695922,right,-0.0005966424942016602,-0.33287892416500914,0.8396122838471084,-9.230210879004002,-0.16808075526715446,0.005570686422288418,0.0042874738574028015,3.2044723333805796,0.0016161799430847168
1746575854817209300,12.111209228515625,0.09071383711124825,-0.004773259162902832,0.03375018590702077,-0.005709974095225334,0.057197891116825994,0.9835336125241357,0.1314296721695922,right,-0.0014780163764953613,-0.33287892416500914,0.8396122838471084,-9.230210879004002,-0.16808075526715446,0.003570783883333206,0.002403058111667633,3.2044723333805796,-0.00032469630241394043
1746575854857209300,12.151209228515626,0.09071383711124825,0.004419799894094467,0.03375018590702077,-0.00934845581650734,0.057197891116825994,0.9835336125241357,0.1314296721695922,right,-0.0011248588562011719,-0.33287892416500914,0.8396122838471084,-9.230210879004002,-0.16808075526715446,-0.00006720609962940216,0.0005241930484771729,3.2044723333805796,0.000396728515625
1746575854897209300,12.191209228515625,0.08982781524628022,0.007402488961815834,0.03333421728457134,-0.008404332213103771,0.057210686334774156,0.9835707348107242,0.13129162466628966,right,0.0003609657287597656,-0.33265266661079107,0.8314987546920776,-9.231673352771997,-0.1679419463738636,0.001487203175202012,0.0019866451621055603,3.2023750688403845,0.0017899572849273682
1746575854937209300,12.231209228515626,0.08982781524628022,0.006737988907843828,0.03333421728457134,-0.006345713511109352,0.057210686334774156,0.9835707348107242,0.13129162466628966,right,0.0007663965225219727,-0.33265266661079107,0.8314987546920776,-9.231673352771997,-0.1679419463738636,0.004110286012291908,0.001393832266330719,3.2023750688403845,0.0017185509204864502
1746575854977209300,12.271209228515625,0.08947923842442214,0.002422634046524763,0.03316326010505272,-0.000825206283479929,0.05738074448913538,0.9836179790658363,0.13154435477235238,right,0.0005895495414733887,-0.3320513313957289,0.8284527380596846,-9.233878753861784,-0.16764072218218062,0.010093742981553078,0.0012792199850082397,3.1968007758393884,0.00022616982460021973
1746575855017209300,12.311209228515626,0.08939255146179226,-0.0003641450311988592,0.03314693421519399,0.0012649809941649437,0.05735188229420096,0.9836623768441884,0.13144331428858796,right,0.0005624890327453613,-0.3315562943835354,0.8277933973681181,-9.235525352025032,-0.1673933260299292,0.012882666662335396,0.0012616664171218872,3.1922108177006243,-0.000003069639205932617
1746575855057209300,12.351209228515625,0.08939255146179226,-0.0031509241089224815,0.03314693421519399,0.0033551680389791727,0.05735188229420096,0.9836623768441884,0.13144331428858796,right,0.0003674626350402832,-0.3315562943835354,0.8277933973681181,-9.235525352025032,-0.1673933260299292,0.015671588480472565,0.0011768713593482971,3.1922108177006243,-0.0007003843784332275
1746575855097209300,12.391209228515624,0.08925623855348001,-0.002913655247539282,0.03312100357140368,0.009031709283590317,0.05728868762807525,0.9837264482400837,0.1312527276907795,right,0.000015079975128173828,-0.33085697113911366,0.8267332938559353,-9.23785934793055,-0.1670426562866762,0.010019175708293915,0.0018390566110610962,3.1857255473345516,-0.000017315149307250977
1746575855137209300,12.431209228515625,0.08912013169553802,-0.002676386618986726,0.033095067061599016,0.014708250761032104,0.05722553989006273,0.9837905563846677,0.1310624253838704,right,-0.0003377199172973633,-0.3301577338354447,0.8256739940613508,-9.24018866766095,-0.16669199113700975,0.004366763401776552,0.002501152455806732,3.1792396924465893,0.000665813684463501
1746575855177209300,12.471209228515624,0.08912013169553802,-0.004804067313671112,0.033095067061599016,-0.004801452159881592,0.05722553989006273,0.9837905563846677,0.1310624253838704,right,-0.0003571510314941406,-0.3301577338354447,0.8256739940613508,-9.24018866766095,-0.16669199113700975,-0.002709152176976204,0.0018749237060546875,3.1792396924465893,0.0005473494529724121
1746575855217209300,12.511209228515625,0.08912013169553802,0.0011592907831072807,0.033095067061599016,-0.0020833206363022327,0.05722553989006273,0.9837905563846677,0.1310624253838704,right,0.0011805295944213867,-0.3301577338354447,0.8256739940613508,-9.24018866766095,-0.16669199113700975,-0.0030968203209340572,0.002228081226348877,3.1792396924465893,-0.0006558895111083984
1746575855257209300,12.551209228515624,0.08865723506490454,0.01285687554627657,0.03283905214603317,-0.011756889522075653,0.05736360591323312,0.9837692174571783,0.13128030085692843,right,-0.0007916688919067383,-0.3304403052916037,0.8213171140260994,-9.239674288398026,-0.16682117690192078,-0.005633041262626648,0.0007952675223350525,3.181860980860889,0.0009546577930450439
1746575855297209300,12.591209228515625,0.08827115457695092,0.011022059246897697,0.03258772473481083,-0.013648931868374348,0.05770563236593021,0.9837394550224159,0.13192221235866064,right,-0.00005310773849487305,-0.3306585948912867,0.8176884752001613,-9.239299025344849,-0.16692784129855265,-0.007398989982903004,0.0014968067407608032,3.1838857646867633,0.0033441781997680664
1746575855337209300,12.631209228515624,0.0877620528463477,0.004101914819329977,0.032289942681832856,-0.011651196517050266,0.05795511932710631,0.983710887727748,0.13235955579490152,right,0.0017535090446472168,-0.33095895364505956,0.8129008025322109,-9.238760680684447,-0.16706779861787543,-0.006758742034435272,0.001087583601474762,3.186671596013009,0.00431746244430542
1746575855377209300,12.671209228515625,0.0877620528463477,0.004761176183819771,0.032289942681832856,-0.014853555709123611,0.05795511932710631,0.983710887727748,0.13235955579490152,right,0.0008708834648132324,-0.33095895364505956,0.8129008025322109,-9.238760680684447,-0.16706779861787543,-0.001862719189375639,0.0004602372646331787,3.186671596013009,0.0020348727703094482
1746575855417209300,12.711209228515624,0.0877620528463477,0.004590116906911135,0.032289942681832856,0.0013407357037067413,0.05795511932710631,0.983710887727748,0.13235955579490152,right,-0.0007951259613037109,-0.33095895364505956,0.8129008025322109,-9.238760680684447,-0.16706779861787543,0.002834536135196686,-0.0007363706827163696,3.186671596013009,0.0014473497867584229
1746575855457209300,12.751209228515625,0.0874780830519513,0.002238532993942499,0.03210361015266805,0.0013680004049092531,0.058286902934759,0.9837086101336244,0.13297829768267758,right,0.00017017126083374023,-0.3308206425871506,0.810315754475072,-9.239430542770027,-0.16700154825473135,0.0006015992257744074,0.00006562471389770508,3.1853885704651472,0.0020723044872283936
1746575855497209300,12.791209228515624,0.0874780830519513,0.00015836115926504135,0.03210361015266805,0.005080182105302811,0.058286902934759,0.9837086101336244,0.13297829768267758,right,-0.0005927681922912598,-0.3308206425871506,0.810315754475072,-9.239430542770027,-0.16700154825473135,0.0015548878582194448,0.0008329674601554871,3.1853885704651472,0.00018417835235595703
1746575855537209300,12.831209228515625,0.0874780830519513,0.000050167560402769595,0.03210361015266805,0.00711252773180604,0.058286902934759,0.9837086101336244,0.13297829768267758,right,-0.00039952993392944336,-0.3308206425871506,0.810315754475072,-9.239430542770027,-0.16700154825473135,-0.0014986052410677075,0.0018412396311759949,3.1853885704651472,0.0003879964351654053
1746575855577209600,12.871209716796875,0.08814758742581315,0.001021093688905239,0.03241670657830641,0.010580605827271938,0.05831908810581579,0.9836901318078687,0.13315907863016407,right,0.0006600022315979004,-0.3308509387248203,0.8164929087400435,-9.238789906778932,-0.1670388621130201,-0.0031248789746314287,0.0023045316338539124,3.1856697254940864,-0.00035703182220458984
1746575855617209300,12.911209228515625,0.08814758742581315,0.0032691084779798985,0.03241670657830641,0.00778603833168745,0.05831908810581579,0.9836901318078687,0.13315907863016407,right,-0.0005579590797424316,-0.3308509387248203,0.8164929087400435,-9.238789906778932,-0.1670388621130201,-0.001979927532374859,0.0033347010612487793,3.1856697254940864,0.0002086162567138672
1746575855657209300,12.951209228515625,0.08814758742581315,-0.00033922470174729824,0.03241670657830641,0.003453900571912527,0.05831908810581579,0.9836901318078687,0.13315907863016407,right,-0.0006122589111328125,-0.3308509387248203,0.8164929087400435,-9.238789906778932,-0.1670388621130201,0.0003290607128292322,0.00496094673871994,3.1856697254940864,0.0012931227684020996
1746575855697209300,12.991209228515626,0.08814758742581315,-0.005557738244533539,0.03241670657830641,-0.002378422301262617,0.05831908810581579,0.9836901318078687,0.13315907863016407,right,-0.0004118680953979492,-0.3308509387248203,0.8164929087400435,-9.238789906778932,-0.1670388621130201,-0.0019010340329259634,0.003569185733795166,3.1856697254940864,0.001739412546157837
1746575855737209300,13.031209228515625,0.08814758742581315,-0.01077625248581171,0.03241670657830641,-0.008210744708776474,0.05831908810581579,0.9836901318078687,0.13315907863016407,right,-0.00021141767501831055,-0.3308509387248203,0.8164929087400435,-9.238789906778932,-0.1670388621130201,-0.004131129011511803,0.002177417278289795,3.1856697254940864,0.0021857023239135742
1746575855777209300,13.071209228515626,0.08803918490368455,-0.006755046080797911,0.03241708183616321,-0.005652707070112228,0.057868918822230005,0.9836699580437941,0.13225821952390934,right,0.0004405975341796875,-0.3314464335639407,0.8153244494825601,-9.236986656749249,-0.16731371970984416,-0.00823203381150961,0.0005062967538833618,3.1911922883078456,0.0010941624641418457
1746575855817209300,13.111209228515625,0.08803918490368455,0.000613704789429903,0.03241708183616321,-0.0004127197898924351,0.057868918822230005,0.9836699580437941,0.13225821952390934,right,0.0012539029121398926,-0.3314464335639407,0.8153244494825601,-9.236986656749249,-0.16731371970984416,-0.0052294558845460415,-0.00011648237705230713,3.1911922883078456,0.001726388931274414
