time,seconds_elapsed,roll,rotationRateZ,quaternionY,rotationRateY,quaternionZ,quaternionW,yaw,devicelocation,accelerationZ,pitch,gravityX,gravityZ,quaternionX,rotationRateX,accelerationX,gravityY,accelerationY
1746575892519918300,0.25491845703125,0.01451647538400598,-0.004565291106700897,0.007142658366858834,0.008471682667732239,3.877748752002486e-18,0.9946784535642564,0.0014999318570781892,right,-0.004185528960078955,-0.20591803251478086,0.1393455067229457,-9.598460254028438,-0.10277988986393854,0.002563364338129759,0.002695829374715686,2.0051240166366098,0.000981354620307684
1746575892559918600,0.294918701171875,0.01508391141739564,-0.0016368473879992962,0.007434977912404398,-0.004052160307765007,-0.00012546468695644997,0.9946838258434704,0.0013051862561733406,right,-0.004060089588165283,-0.2057726269231528,0.14479639253998175,-9.598671266430616,-0.10270684864007268,0.005838711280375719,0.0003724684938788414,2.0037281783640384,-0.0017112940549850464
1746575892599918600,0.334918701171875,0.015590529835385504,0.005774380639195442,0.0076773380058629565,-0.011480143293738365,-0.00005437604537784339,0.9947004429160333,0.0014975944372843885,right,-0.004494190216064453,-0.2054118158082509,0.14967049224921503,-9.599318916684389,-0.1025281037866189,0.009379200637340546,-0.0017997706308960915,2.0002643016457555,-0.00003165006637573242
1746575892639918600,0.374918701171875,0.016097031059367172,0.013185609132051468,0.007919694450851765,-0.018908128142356873,0.00001670310562497455,0.9947169402270502,0.0016897816867763676,right,-0.004928708076477051,-0.20505092287409918,0.15454415356703102,-9.599963059806823,-0.10234935818051744,0.01291969045996666,-0.003971961326897144,1.996799402014166,0.0016480833292007446
1746575892679918600,0.414918701171875,0.015110094045196346,-0.00019195524509996176,0.007417445860105321,-0.01823575608432293,0.00018999161755945453,0.9947713259284808,0.001929056043157718,right,-0.0004660487174987793,-0.20405885946339336,0.14509937580823898,-9.602087212353943,-0.10185680323166256,0.00400603236630559,-0.0015216600149869919,1.9872734487779438,0.00032648444175720215
1746575892719918600,0.454918701171875,0.014488436589886109,-0.0003546428633853793,0.007120328879743408,0.006454596295952797,0.00010814284116279841,0.9947939312637125,0.0016979191312045108,right,0.0005197525024414062,-0.20365966645640293,0.13914162731445393,-9.602967502319812,-0.101657359797927,0.0031395575497299433,0.0008456511422991753,1.9834398619644342,0.002628520131111145
1746575892759918300,0.49491845703125,0.014166053868118115,-0.0020736176520586014,0.0069662647093176756,-0.002112315036356449,0.00005528578267350678,0.9947591903181998,0.0015637704008435785,right,-0.002097785472869873,-0.20436646326466953,0.1360258973135613,-9.601607904404402,-0.10200841582552905,-0.013017332181334496,-0.0008057272061705589,1.9902273301474749,0.0017268657684326172
1746575892799918600,0.534918701171875,0.01412869615889724,0.006796311587095261,0.006940586812140253,-0.0026577813550829887,0.0001226498957856197,0.9947421899850761,0.001697774035926974,right,-0.001790463924407959,-0.2047015571288965,0.13565776725406758,-9.600945641103387,-0.10217554942541615,-0.008071648888289928,-0.0006876615807414055,1.9934449770197271,0.0014738887548446655
1746575892839918600,0.574918701171875,0.014091395418491618,0.015666240826249123,0.006914912244477247,-0.0032032474409788847,0.0001900431966448962,0.9947251836308405,0.0018318342309027072,right,-0.0014832019805908203,-0.20503665403023927,0.13529023084961808,-9.600282208758593,-0.10234267610468531,-0.0031259655952453613,-0.000569656491279602,1.996662477761507,0.0012209117412567139
1746575892879918600,0.614918701171875,0.013798602351381115,0.005883961915969849,0.006733690394542096,-0.024616140872240067,0.0005547486062754806,0.9947406906889862,0.0025329758946069335,right,-0.001462399959564209,-0.20475039224578734,0.1324872017933987,-9.600892449611425,-0.10220263696164661,0.012932827696204185,0.0003026844933629036,1.9939139097057281,0.0015732049942016602
1746575892919918600,0.654918701171875,0.013215366695396745,0.0005523046711459756,0.006424908556057818,-0.01478419080376625,0.0007769921174664072,0.9947813259180522,0.0029147320074206255,right,-0.0038042068481445312,-0.2039872180095217,0.12690767549485898,-9.60248702532649,-0.10182411916460354,0.012640021741390228,-0.0005662748590111732,1.9865854665137825,0.004705637693405151
1746575892959918600,0.694918701171875,0.012446270905541705,-0.006981724873185158,0.006049969161352903,-0.01883125863969326,0.000746444041738164,0.9948016253964301,0.0027723563047169176,right,-0.0008236169815063477,-0.20363589281167613,0.1195310823122505,-9.603279052487014,-0.10164863705403433,0.012597277760505676,-0.0011470159515738487,1.9832114600360393,0.00036787986755371094
1746575892999918300,0.73491845703125,0.011877523523004092,0.007407013326883316,0.005762873330988741,-0.01081869937479496,0.0008243720666652679,0.9948343591848948,0.0028671918565340224,right,-0.0004469156265258789,-0.20302452878411828,0.1140836031618528,-9.60455623281598,-0.10134458907768634,0.023811712861061096,-0.001508607529103756,1.9773394992627202,-0.0025677084922790527
1746575893039918600,0.774918701171875,0.011659199000707917,0.012419527396559715,0.005637748773222529,-0.002192429266870022,0.0010060256926818782,0.9948657183479017,0.0032064864857364126,right,-0.000017523765563964844,-0.20241412984730547,0.11200074160634539,-9.60578606687188,-0.10104182769733465,0.018369948491454124,-0.00005921628326177597,1.9714761601872741,-0.00010079145431518555
1746575893079918600,0.814918701171875,0.011825821955757047,0.006243682000786066,0.0056994561876821045,0.008102928288280964,0.00121610772849268,0.994898881358793,0.0036416466996646397,right,-0.000386655330657959,-0.20174251488606654,0.11361691723186522,-9.607088966163992,-0.10070906449721567,0.0024991119280457497,-0.00002904701977968216,1.9650239153079687,0.00036929547786712646
1746575893119918600,0.854918701171875,0.01193157296094212,-0.000877738930284977,0.005749716556143884,0.0057958574034273624,0.0012339229521571157,0.994898431834998,0.003688177025924887,right,-0.0020662546157836914,-0.20174454361043087,0.11463282540929504,-9.607072599551081,-0.1007102732791299,-0.007717731408774853,-0.00015523098409175873,1.9650433506608007,0.001973673701286316
1746575893159918600,0.894918701171875,0.011922649833382211,-0.00023908814182505012,0.005750480602582695,0.0009643314406275749,0.0011744583072917465,0.9948694967198747,0.0035712693701317757,right,-0.0025330185890197754,-0.2023200167228986,0.11453360281852074,-9.605941549694538,-0.1009961974917678,-0.013089240528643131,-0.00027931854128837585,1.9705720509544014,-0.0009116083383560181
1746575893199918600,0.934918701171875,0.011664236755056989,0.008253702893853188,0.0056085009944539695,-0.010087620466947556,0.0013048931558194213,0.9948204364866124,0.003813165055999386,right,-0.0013312697410583496,-0.2033014512777127,0.11202867992604151,-9.604032501202822,-0.10148490815583684,-0.024396482855081558,-0.00201277993619442,1.979999366121739,-0.0024366676807403564
1746575893239918600,0.974918701171875,0.011167508043093115,0.011604510247707367,0.005350142524222287,0.0034212747123092413,0.0014405381019745428,0.9948211193319875,0.004035246963143457,right,-0.001069188117980957,-0.20331055371597997,0.10725786706134677,-9.604068741559981,-0.10148970979820886,0.006869443692266941,0.00006724800914525986,1.9800867521442471,0.0006103664636611938
1746575893279918300,1.01491845703125,0.01113391252959814,0.0026492755860090256,0.005320942185265966,-0.002077787881717086,0.0015679053103798278,0.9948312389653662,0.004286716073699993,right,-0.0028905272483825684,-0.20310935306253705,0.10693964969133958,-9.604470308098197,-0.10139027409435057,-0.0018971869722008705,-0.0008897557854652405,1.9781543227769434,0.006237387657165527
1746575893319918600,1.054918701171875,0.010839404423705241,-0.007422821130603552,0.00518591851745866,-0.004878924693912268,0.0014737377178295169,0.9948435441366401,0.004066131074543692,right,0.0005438923835754395,-0.2028861070402848,0.10411583357541822,-9.604943186306953,-0.10127841862912393,0.010590652003884315,-0.00043259747326374054,1.976010004224628,0.0005927234888076782
1746575893359918600,1.094918701171875,0.010553866952990305,-0.001553857233375311,0.0050532808656403696,-0.005646659526973963,0.0013977277683689417,0.9948506429493128,0.0038835838491310492,right,-0.0005919337272644043,-0.20276356021971695,0.10137581415227613,-9.605214404463768,-0.10121678533319821,0.011036776937544346,-0.001931043341755867,1.9748327771387992,-0.00013527274131774902
1746575893399918600,1.134918701171875,0.010519890682885847,0.007769095245748758,0.005030302648423156,-0.0008047590963542461,0.0014626459026940465,0.994862203524504,0.004009385249200045,right,-0.0001652836799621582,-0.2025347576084606,0.1010542175150942,-9.605669162493944,-0.10110326611855693,0.011900890618562698,-0.0024282056838274,1.9726349748335779,-0.00083942711353302
1746575893439918600,1.174918701171875,0.010660772681742156,0.012200111523270607,0.005085913811325286,0.010091960430145264,0.00160634692975417,0.9948883679160455,0.004309647209697788,right,-0.0006136894226074219,-0.20200464306952903,0.10241861033663154,-9.606699090063572,-0.10084043593300589,0.01859322004020214,-0.0006986483931541443,1.9675423278696833,0.0003142058849334717
1746575893479718700,1.21471875,0.010721166938284106,-0.01116713136434555,0.005121377047508475,0.001961288508027792,0.0015563764350548137,0.9949091441594807,0.004212999638187536,right,-0.002168558072298765,-0.20158940904677178,0.10300755267310888,-9.607509237402677,-0.10063368531679166,-0.0010715477401390672,-0.0008328960975632071,1.9635528198421,0.0017851353622972965
1746575893519718700,1.25471875,0.010908298567717694,-0.0032606273889541626,0.005231256684865054,0.007202801760286093,0.001387423006379861,0.9949304257061021,0.0038898726205084506,right,-0.001712024211883545,-0.20116130061130666,0.10481457469561137,-9.608329321613907,-0.10042001895787558,0.01155993901193142,-0.00008559133857488632,1.9594393931739031,0.0001239478588104248
1746575893559718700,1.29471875,0.011176676178078061,-0.0004075481556355953,0.005369479673102437,0.007174829486757517,0.0013379328126419583,0.9949654049005139,0.003813366952098183,right,-0.000523686408996582,-0.2004505192535912,0.10740877417358569,-9.609691257616877,-0.100066402563775,0.01697930321097374,0.0009761732071638107,1.9526091087624429,0.00016091763973236084
1746575893599719000,1.334718994140625,0.011445074219243252,0.002445531077682972,0.005507703209749083,0.007146857213228941,0.001288452825499228,0.9950001385507232,0.003736698622587803,right,0.0006641745567321777,-0.19973970633514734,0.11000385043439455,-9.61104734840095,-0.09971275585295049,0.02239866741001606,0.002037845551967621,1.945777509176731,0.00019800662994384766
1746575893639718700,1.37471875,0.011766865236876763,-0.006362192332744598,0.005676993078438389,0.008129734545946121,0.0011929965354658255,0.9950410093301801,0.003572003562689794,right,-0.001064002513885498,-0.1989032173478866,0.11311570797776803,-9.612635494375228,-0.09929632794551557,0.012194816023111343,0.0007044672966003418,1.93773667993173,0.00036260485649108887
1746575893679718700,1.41471875,0.011931524833719741,-0.008267464116215706,0.005773871101299044,0.002516595646739006,0.0010369721087670617,0.9950478169787664,0.003273953541490554,right,-0.0025181174278259277,-0.19876005366952343,0.11470182639174163,-9.61289443757236,-0.09922433864135423,-0.00016895215958356857,0.001106729730963707,1.936360423142463,-0.0024510622024536133
1746575893719718700,1.45471875,0.012047944045746564,-0.004125379957258701,0.0058373032955467,-0.007325176149606705,0.0009722593142776101,0.9950344491116261,0.003157120698903156,right,-0.0004069805145263672,-0.1990233872005968,0.11581480173547752,-9.6123707059592,-0.09935507336549056,-0.011095385067164898,-0.00009905453771352768,1.9388919874466954,0.0002063363790512085
1746575893759718700,1.49471875,0.011765457380969313,-0.006340229883790016,0.005701127649028057,-0.009719230234622955,0.000937127600658761,0.995015344148851,0.003060720766242047,right,0.0021241307258605957,-0.19942442930436471,0.11309027214241213,-9.61162485602796,-0.09955418619905909,-0.0045809028670191765,0.001331990584731102,1.9427470554396509,-0.002908647060394287
1746575893799718700,1.53471875,0.012021924756255178,0.0057890345342457294,0.005808198145871472,0.003217526711523533,0.001127851414414685,0.9950088032741554,0.0034704305736700703,right,-0.0027610063552856445,-0.1995360949769132,0.11555272586634383,-9.611378187790512,-0.09961105496858484,-0.014156559482216835,0.0005373721942305565,1.943820383759588,0.005267053842544556
1746575893839719000,1.574718994140625,0.011970668811692101,0.0004250905476510525,0.005776189237120265,-0.004429031163454056,0.0011891493977016063,0.9949880638210378,0.003591091639828361,right,-0.0007597804069519043,-0.1999548002589074,0.11505033843531273,-9.610569794017076,-0.09981967450827357,-0.010849866084754467,0.0011494895443320274,1.94784481697008,-0.00003618001937866211
1746575893879718700,1.61471875,0.011910819843690896,0.008018042892217636,0.005732331958845803,-0.011947368271648884,0.0013327735970706496,0.9949889264206943,0.0038736788475681075,right,-0.0024611949920654297,-0.1999379054890523,0.1144755433551967,-9.610609541505575,-0.09981204221695714,0.006559327244758606,-0.003344545140862465,1.9476824660152197,0.000705331563949585
1746575893919718700,1.65471875,0.011530283589316693,0.023337379097938538,0.005517948118581201,-0.008841094560921192,0.0016040170036723536,0.9949966311065306,0.004379882529085697,right,0.0007295012474060059,-0.19979730157148562,0.11082150522652082,-9.610925767847895,-0.09974323747428274,0.014630621299147606,0.00034473836421966553,1.9463310514062642,-0.003331974148750305
1746575893959718700,1.69471875,0.011241207959243224,0.012511673383414745,0.005324087862276421,-0.006156883202493191,0.0021476732730537763,0.9950740587194773,0.005434474709115834,right,-0.0004032254219055176,-0.19823431688922524,0.10807728455229662,-9.613988078027964,-0.0989682135100796,0.0420176237821579,0.00006606336683034897,1.9313059162318706,0.0013025104999542236
1746575893999718700,1.73471875,0.010910448850523483,-0.00943268183618784,0.005149012844349894,-0.010220443829894066,0.00230257510627253,0.995156216119886,0.005703404226584907,right,-0.003182351589202881,-0.1965767737567488,0.1049321457938291,-9.617210547205806,-0.09814383535053785,0.03264185041189194,0.0005214661359786987,1.9153667349524794,0.010275125503540039
1746575894039718700,1.77471875,0.010427392972433206,-0.00914517231285572,0.004948420869333249,-0.004823497962206602,0.0019363722294819048,0.9951951831272762,0.0049156899241409955,right,-0.000087738037109375,-0.19582425010453458,0.10030148118534125,-9.618698739936947,-0.09776688279966617,0.005693533923476934,0.0006499206647276878,1.9081286003924904,-0.000015303492546081543
1746575894079719000,1.814718994140625,0.010473077764094643,0.0006178244948387146,0.004979068845910056,0.005897828843444586,0.0018497068923385375,0.9951843354619977,0.0047472273243978095,right,-0.0005384683609008789,-0.19604673071536613,0.10073646593596786,-9.618269700869917,-0.09787721432515739,-0.0024568536318838596,-0.0008714292198419571,1.9102685350306332,-0.002604767680168152
1746575894119719000,1.854718994140625,0.011104125561121083,0.011777961626648903,0.005272184404128917,0.012783733196556568,0.0020247920489214325,0.995165562301715,0.0051631478632852825,right,-0.0015791058540344238,-0.19638958535317116,0.10679875251646152,-9.617548400858045,-0.09804948767637965,-0.004378702491521835,-0.0014297505840659142,1.9135662614017723,-0.0028906166553497314
1746575894159718700,1.89471875,0.011535834334350773,0.011747799813747406,0.0054642905616724535,0.012894897721707821,0.0022318045463930476,0.9951583999336164,0.005622400649951056,right,-0.0034685730934143066,-0.19650227982053098,0.11094822774557396,-9.617285950529574,-0.09810725324964568,-0.009587598964571953,-0.0008507110178470612,1.914650257246196,0.0015297383069992065
1746575894199718700,1.93471875,0.012061165811478364,-0.0033622453920543194,0.005723340952366194,0.013186613097786903,0.0022150306351160797,0.9951212667741262,0.005645051488901679,right,-0.0027003884315490723,-0.19722696115343596,0.11598371029528788,-9.615836336243152,-0.09846848269775123,-0.023031190037727356,-0.00011636875569820404,1.9216196578674016,0.002244293689727783
1746575894239718700,1.97471875,0.012336029657660098,-0.002072288654744625,0.0058667175287111005,0.010154949501156807,0.0021192798688653923,0.9950828980891886,0.005484739606256247,right,-0.0013974308967590332,-0.19799258432477623,0.11860856977300718,-9.61433002333343,-0.09884925046206439,-0.02165931463241577,0.0005264887586236,1.9289817110680043,-0.0011117607355117798
1746575894279718700,2.01471875,0.012837981538406191,-0.00010943575762212276,0.006110719911104165,0.01282372884452343,0.0021206272293109478,0.9950045371218031,0.005547673595914271,right,0.0002891421318054199,-0.19954036890038293,0.12339601411209442,-9.611272389328478,-0.09962002707950272,-0.04054129123687744,0.00025791581720113754,1.9438614464223383,-0.0008516013622283936
1746575894319718700,2.05471875,0.013107422152932502,-0.005348598584532738,0.006262095688582377,0.02861231192946434,0.0019046895603053655,0.9949284587660131,0.005150913165474117,right,0.002262413501739502,-0.2010533563227489,0.1259469863696955,-9.60828723603785,-0.10037175670761342,-0.03732747584581375,0.0020200666040182114,1.9584021590806542,-0.006668075919151306
1746575894359719000,2.094718994140625,0.013914450213545591,-0.0007369325612671673,0.006666953263509564,0.0061426665633916855,0.0018125482009628798,0.9948794862218612,0.0050537708854036835,right,-0.002643406391143799,-0.20197729460074948,0.1336758635886945,-9.606368835195898,-0.10083180558242118,-0.008563975803554058,-0.0005450556054711342,1.9672795852802694,0.00134257972240448
1746575894399718700,2.13471875,0.013570110469653002,-0.0026724650524556637,0.0065185342345088285,-0.003858990967273712,0.0016125695562604827,0.9949040032338252,0.004613649448600738,right,-0.0014753341674804688,-0.20152035016098654,0.1303801921773236,-9.607312253525853,-0.1006027554020096,-0.0003130408003926277,-0.0005212677642703056,1.9628893874973057,0.0027725696563720703
1746575894439718700,2.17471875,0.013375390233030244,0.006195527967065573,0.006423611099099823,0.00281026354059577,0.0016058383891978327,0.9949120863711557,0.004579404810901028,right,-0.0009685754776000977,-0.20137240742939297,0.12851332972636445,-9.607627895346283,-0.10052889457838288,0.003824876621365547,-0.0009489292278885841,1.961467830261588,0.001074761152267456
1746575894479718700,2.21471875,0.013237315720033529,0.008666341193020344,0.006342715895901557,-0.000532188918441534,0.0017411381850224042,0.9949325589627142,0.004834660778008282,right,-0.0012833476066589355,-0.20096792856973716,0.12719725129227152,-9.608438042685389,-0.10032838774543375,0.02182776667177677,-0.0006892429664731026,1.9575811980865894,0.0011508911848068237
1746575894519718700,2.25471875,0.012893690040858994,-0.002939377911388874,0.006168006535618454,-0.00921737588942051,0.0018094526011122201,0.9949703189191228,0.004932421096920015,right,-0.0023549795150756836,-0.20023407049953018,0.1239140283705201,-9.609915129500626,-0.09996330929298622,0.016981884837150574,-0.0003785379230976105,1.9505289414875209,0.0022241324186325073
1746575894559718700,2.29471875,0.012491833350310292,-0.0007738117128610611,0.005980042396620461,-0.006641625426709652,0.001722663484043339,0.9950052632993839,0.004713231365062995,right,-0.00022453069686889648,-0.19956142144951197,0.12006856845612637,-9.61127355837226,-0.0996276532581009,0.01580507680773735,0.000207485631108284,1.9440638371266423,-0.0015628933906555176
1746575894599719000,2.334718994140625,0.012435023631888833,0.006035809405148029,0.005946898877531133,0.0008145961910486221,0.0017872552413514798,0.9950406873524487,0.004832781621550563,right,-0.0009117722511291504,-0.19885026536301129,0.11953971314327791,-9.612660628816485,-0.09927415180418435,0.018233614042401314,-0.001321897841989994,1.9372277074962854,-0.0021953582763671875
1746575894639718700,2.37471875,0.012695724755115162,0.007969122380018234,0.006059482889629258,0.009664779528975487,0.0019553219017859886,0.9950637120279671,0.005193392294313069,right,-0.0007430315017700195,-0.19836465928568317,0.12205766904726624,-9.613568391311167,-0.09903386947704113,0.006352470256388187,-0.00026081036776304245,1.9325591311633585,-0.0011841654777526855
1746575894679718700,2.41471875,0.013187377010825863,-0.0013207606971263885,0.006296157600403782,0.009845495223999023,0.0020123636609063215,0.995066003520873,0.005356417371233119,right,-0.0020980238914489746,-0.1982835431804959,0.12678625933858564,-9.613664252901076,-0.09899450720772238,-0.005080016329884529,-0.001630445010960102,1.9317792328320442,-0.00018574297428131104
1746575894719718700,2.45471875,0.013510120583535169,-0.00803549587726593,0.0064660059206987095,0.0076224952936172485,0.0018959667785994538,0.9950471088356304,0.0051571384268381745,right,-0.0024802684783935547,-0.1986487768638176,0.1298794578472618,-9.612916649404168,-0.09917589735688656,-0.013659311458468437,-0.0007622549310326576,1.935290601953864,-0.0012507587671279907
1746575894759718700,2.49471875,0.013647243859674293,-0.0008364422246813774,0.006541028862410901,0.0006639221683144569,0.0018092930549690675,0.9950169703694278,0.005000839816300945,right,-0.0029140710830688477,-0.1992488987580277,0.13118173608486539,-9.611735915187001,-0.09947408977516177,-0.013637342490255833,-0.0018972773104906082,1.9410596868745982,-0.004768446087837219
1746575894799718700,2.53471875,0.013646137934782606,0.015494300983846188,0.006523995847537396,-0.0042090523056685925,0.00196895515210536,0.9950037523537989,0.00532350227955053,right,-0.00374680757522583,-0.19950979157516976,0.13116419129502027,-9.611229134708642,-0.09960493138441774,-0.005189250223338604,-0.0021812720224261284,1.9435675780422985,-0.0014433711767196655
1746575894839719000,2.574718994140625,0.013364994879437937,-0.001391383819282055,0.0063682044002904255,-0.015478970482945442,0.002136784100415325,0.994991770873776,0.005634453268841511,right,-0.0013878941535949707,-0.19976130761787184,0.12845551685821263,-9.610776714766025,-0.09973077741799398,-0.00552500830963254,-0.002443459816277027,1.9459850144475697,0.0017513036727905273
1746575894879718700,2.61471875,0.013336815007076988,-0.006565984804183245,0.006363701909375414,0.00617431104183197,0.002041566221755714,0.9949879214417501,0.005440808291450897,right,-0.0011990070343017578,-0.19984398222059346,0.12818254513572902,-9.6106194783777,-0.09977126361323728,-0.007048518396914005,-0.0010969657450914383,1.9467796719565986,0.005945771932601929
1746575894919718700,2.65471875,0.013588414454413153,-0.014473315328359604,0.006513214247387233,0.008034287951886654,0.0017770343360722527,0.9949635564537426,0.004937698297781494,right,-0.0009819865226745605,-0.2003254081872404,0.1305878161791712,-9.60964858751893,-0.10000938681580283,-0.012326622381806374,-0.0007075648754835129,1.9514067472353576,0.004333391785621643
1746575894959718700,2.69471875,0.01386071547825121,-0.007668028119951487,0.006673690857544267,0.00340610696002841,0.0015060592087410717,0.9949393034424262,0.00442377006796174,right,-0.002182185649871826,-0.20080005623419106,0.1331916785346344,-9.608685295444726,-0.10024404341088655,-0.004517136141657829,-0.001784810796380043,1.9559680638015269,0.0016779899597167969
1746575894999718700,2.73471875,0.01386494013451493,0.004120662342756987,0.006681646825968453,-0.004809397738426924,0.001442093166469541,0.9949232862809455,0.0042979055933197305,right,-0.001704394817352295,-0.20112074528367346,0.13322357151024042,-9.608056934413312,-0.10040315904651535,-0.0044219642877578735,-0.00037826597690582275,1.9590496632039547,0.0016176551580429077
1746575895039718700,2.77471875,0.01387867052850046,0.0042354753240942955,0.006665568234362932,-0.004430156666785479,0.0016693380342952438,0.9949254001944805,0.004755745045303824,right,-0.0027864575386047363,-0.2010712926422968,0.13335683336793444,-9.608152211481332,-0.10038009324062827,0.003078558947890997,-0.000052488408982753754,1.9585744469076394,0.0033522695302963257
1746575895079719000,2.814718994140625,0.01389236844179945,0.004350288305431604,0.00664948448901073,-0.004050915595144033,0.0018965854537701756,0.9949274527219638,0.00521358374576125,right,-0.0038684606552124023,-0.20102185591667968,0.1334897938315291,-9.608246904027462,-0.10035703397903453,0.010579081252217293,0.0002733226865530014,1.958099522872269,0.005086839199066162
1746575895119719000,2.854718994140625,0.013780136774759772,-0.009240381419658661,0.006601753854542928,-0.0019616808276623487,0.0018229366594745696,0.9949306563082694,0.005053836270814624,right,-0.001353144645690918,-0.20096890328802391,0.13241286704870872,-9.608365561971068,-0.10033005567569217,0.003751068841665983,0.0000956021249294281,1.957590696567297,0.0017792731523513794
1746575895159718700,2.89471875,0.013805943498719088,-0.006195720285177231,0.0066340933445433025,0.005251238122582436,0.0016295245165500816,0.9949343436097278,0.004667152660548854,right,-0.0003123283386230469,-0.20090014981775267,0.13266268622446806,-9.608496494874357,-0.10029459685295265,0.008351562544703484,-0.0006112204864621162,1.956929894571006,-0.0026111900806427
1746575895199718700,2.93471875,0.01404773473188319,0.002093946561217308,0.006757985409003254,0.007530326023697853,0.0015884438327147137,0.9949521905050938,0.004606256137118327,right,-0.000022590160369873047,-0.20052933047761184,0.13499611587440594,-9.609189153313636,-0.10011011248052028,0.012979448772966862,0.0005175760015845299,1.9533665030010043,-0.0025517791509628296
1746575895239718700,2.97471875,0.014393543889187602,0.002250207355245948,0.006921090945965539,0.008583705872297287,0.0016707979737918394,0.9949793858885285,0.004802341526785403,right,-0.0009488463401794434,-0.19995749133687096,0.1383351058376953,-9.610257659327983,-0.0998265891748281,0.008866623044013977,-0.00018079206347465515,1.9478706820636986,-0.00011610984802246094
1746575895279718700,3.01471875,0.014646140237362262,-0.00291859800927341,0.007045521794907753,0.004543216433376074,0.0016750630987679602,0.994990251962925,0.004834470361545355,right,-0.0008016824722290039,-0.19972121271723245,0.1407693563804496,-9.610682022219896,-0.09970936698907645,-0.0018388843163847923,-0.00024384912103414536,1.9455996683917938,0.00034695863723754883
1746575895319718700,3.05471875,0.014714436370717395,-0.005491260439157486,0.007089209158026477,0.0006251889280974865,0.0015724583862214655,0.9949841530516496,0.004635992653912547,right,-0.001157224178314209,-0.1998425511612433,0.141422258198075,-9.610436523026227,-0.09976908293084737,-0.004472887143492699,-0.0012431610375642776,1.946765935692191,-0.0004417598247528076
1746575895359719000,3.094718994140625,0.014670357759659311,0.0027326811105012894,0.00706810075333965,-0.0025354791432619095,0.001563492281741927,0.9949763868270686,0.004614748169707823,right,-0.0012586712837219238,-0.2000008741187352,0.14099411418018862,-9.610134325209259,-0.09984774109318899,-0.0016434493009001017,-0.00006261095404624939,1.9482875923015177,-0.001020476222038269
1746575895399718700,3.13471875,0.01470845617322959,0.009898361749947071,0.007070026565613022,0.00018041487783193588,0.0017300934581545302,0.9949730572615494,0.004953908149361788,right,-0.0008659958839416504,-0.2000603164267976,0.14135854531209915,-9.610013329178095,-0.0998785377707026,-0.0036733350716531277,0.00016345735639333725,1.9488589624486863,-0.0007886439561843872
1746575895439718700,3.17471875,0.014774720120220412,0.00815799180418253,0.007081699404940556,-0.0038160779513418674,0.0019393763508135287,0.9949735817405914,0.005381063842298324,right,-0.0027008056640625,-0.20003722357086973,0.14199600296542048,-9.610048400491475,-0.09986862166137651,0.0005309656262397766,-0.0012141857296228409,1.9486369902610778,0.0024861395359039307
1746575895479718700,3.21471875,0.014516662868802103,-0.019108686596155167,0.006959496829851322,-0.01305612176656723,0.0018911783405027832,0.994975734426995,0.005258108436661964,right,0.0002579689025878906,-0.2000145528164963,0.13951669857138768,-9.610129064512252,-0.09985666480441968,0.0008297168533317745,-0.0017108991742134094,1.9484191097266972,0.0038087069988250732
1746575895519718700,3.25471875,0.014637186236230008,-0.015300854109227657,0.0070446098513267195,0.006162621080875397,0.0016370914408750695,0.9949823832983189,0.0047584536565333495,right,-0.001936793327331543,-0.19988083263978437,0.14067875548754818,-9.610372810140252,-0.09978850184286595,0.0009512366959825158,-0.0018366435542702675,1.9471338922217487,0.005601361393928528
1746575895559718700,3.29471875,0.01490442473994583,-0.01446571946144104,0.007204086492366935,0.004884048365056515,0.0013587132480741273,0.9949802889035999,0.004225920394856998,right,-0.002613365650177002,-0.1999107567518793,0.14324614915698766,-9.610276364028453,-0.09980169681231552,0.0031326226890087128,-0.0011472590267658234,1.9474214769914746,0.004580587148666382
1746575895599719000,3.334718994140625,0.015016437018041683,-0.01211085356771946,0.007288275489420824,0.000024199020117521286,0.0010728294739571229,0.9949906367197359,0.003660894424666563,right,-0.001851201057434082,-0.19970154871154946,0.14432872936245986,-9.610667409172654,-0.09969564066753468,0.011474729515612125,-0.0007607853040099144,1.9454107216909526,0.0023674219846725464
1746575895639718700,3.37471875,0.015082008769462847,-0.0046771131455898285,0.00732339768886055,0.001905082375742495,0.0010486071815415908,0.9950025106642745,0.0036169090599572264,right,-0.0014252662658691406,-0.19945978441504286,0.14496600435269064,-9.611128012421727,-0.09957523282759152,0.009525956586003304,-0.0011443328112363815,1.9430868087880313,0.002008110284805298
1746575895679718700,3.41471875,0.015147582365870674,0.0027566272765398026,0.007358518383020988,0.0037859659641981125,0.001024372846901335,0.9950143262333176,0.0035728850310311542,right,-0.0009993910789489746,-0.19921803272316713,0.14560335240815767,-9.61158803114891,-0.09945483228458107,0.007577184122055769,-0.0015278887003660202,1.9407630420155821,0.0016487687826156616
1746575895719718700,3.45471875,0.0152112962075302,-0.0009644320234656334,0.00738988181439875,0.005190189927816391,0.0010356891621778538,0.9950473512952595,0.0035967776149383435,right,-0.0009799599647521973,-0.19854730110406577,0.14623551283185368,-9.612878070959448,-0.09912125639809614,0.02042543701827526,-0.00006329827010631561,1.9343150349199771,0.004208236932754517
1746575895759718700,3.49471875,0.015261349523665521,-0.01313986349850893,0.007436321670359625,0.006257561035454273,0.000828669368746697,0.9950842755667406,0.003179841588613776,right,-0.0012946128845214844,-0.19779987174857838,0.14673868571417406,-9.614313656720519,-0.09874786933240924,0.023029698058962822,0.00019835401326417923,1.9271287766776979,0.002494797110557556
1746575895799718700,3.53471875,0.015392528466430536,-0.013763455674052238,0.007538662839635657,0.008186554536223412,0.0004634995098969118,0.9951370272042742,0.0024504963020291156,right,-0.0008666515350341797,-0.19672347246172137,0.14803173033255151,-9.61636299046576,-0.09820961233440421,0.03588482365012169,-0.00032870564609766006,1.9167776246637105,0.00016908347606658936
1746575895839719000,3.574718994140625,0.015617570470136769,-0.00970613956451416,0.007685724941481387,0.013722807168960571,0.00011365456862157054,0.9952032930394281,0.0017587832738457333,right,-0.00029927492141723633,-0.1953540243638549,0.15023666563145816,-9.618944823652505,-0.09752559400816356,0.039643917232751846,-0.00011342577636241913,1.9036051316186784,0.00005842745304107666
1746575895879718700,3.61471875,0.016092538737677416,-0.00580244604498148,0.007944364829055724,0.018090907484292984,-0.00012414845954666453,0.9952564268314688,0.0013182523991563965,right,-0.0005221962928771973,-0.19422265782874126,0.15483990337690337,-9.621019876360892,-0.0969608881723285,0.021710112690925598,-0.0004369020462036133,1.8927200188584625,-0.0006746351718902588
1746575895919718700,3.65471875,0.016677641564668215,-0.004303349182009697,0.008247934827474088,0.01639270782470703,-0.00027277585215989116,0.9952850786813462,0.0010712020817992948,right,-0.0015457868576049805,-0.19358143603927447,0.16048936223965138,-9.622138651257753,-0.09664073442199192,0.012740924023091793,-0.0009123152121901512,1.8865496596604585,-0.0001490563154220581
1746575895959718700,3.69471875,0.017144391500259742,-0.0045373085886240005,0.008493620986847184,0.012765291146934032,-0.0004288074895531321,0.9953042423387722,0.0007992034122732929,right,-0.0014157891273498535,-0.19314278784922864,0.16499465603595598,-9.62288917736411,-0.09642122265882368,0.00958141591399908,-0.001478981226682663,1.8823280964426696,-0.0006169825792312622
1746575895999718700,3.73471875,0.017428990114238152,-0.0025291754864156246,0.008642206330475343,0.006132307928055525,-0.0005102332582449184,0.9953218916290093,0.0006597172486475448,right,-0.0013709664344787598,-0.1927498339928621,0.16774618323380128,-9.62358066675961,-0.09622500454023228,0.00952113140374422,-0.0016746604815125465,1.8785460936859248,-0.0007786005735397339
1746575896039718700,3.77471875,0.017641891891201494,0.0026848111301660538,0.008749745667031444,0.004287137184292078,-0.0005318311587014815,0.9953444223774905,0.0006325974234036344,right,-0.000902712345123291,-0.19226368840670366,0.16981115293959154,-9.62445686507225,-0.09598288277237747,0.01218554936349392,-0.0003910716623067856,1.873866703698039,-0.0007040798664093018
1746575896079719000,3.814718994140625,0.017816689448669043,0.003642944386228919,0.00883218771949376,0.002258812077343464,-0.0004878725171043162,0.9953666360792208,0.0007334942660586926,right,-0.0003108978271484375,-0.1917842736047832,0.17150946302376688,-9.625324295556545,-0.09574468983721317,0.012307214550673962,-0.00013472698628902435,1.8692516111180184,-0.0002425462007522583
1746575896119719000,3.854718994140625,0.018005930064189907,-0.002583463443443179,0.00891917548117187,0.004510423634201288,-0.0004186074734955185,0.9953808297965241,0.0008880366441606667,right,-0.00017136335372924805,-0.19147078580789786,0.17334150075651705,-9.625877253264187,-0.09558931371482177,-0.00029652565717697144,0.0007552411407232285,1.8662335784710942,0.001263245940208435
1746575896159718700,3.89471875,0.01801351197955752,-0.00961159635335207,0.008943246265252672,0.013264639303088188,-0.0006287398080712675,0.9953882097323259,0.0004651355208331939,right,0.002324223518371582,-0.19131418260288435,0.17341975362449882,-9.626167760643362,-0.09550947891035654,0.007153592072427273,0.0032945815473794937,1.86472595038712,-0.0015624761581420898
1746575896199718700,3.93471875,0.018303939052115525,-0.00888846255838871,0.009107587315863662,0.0070714489556849,-0.0008479698252343271,0.9953916847466338,0.000051556756783533185,right,-0.0015498995780944824,-0.19120998757146093,0.17621899242158978,-9.626311553028225,-0.09545565145282535,-0.00016047805547714233,0.0017611831426620483,1.8637227646939456,0.0011094361543655396
1746575896239718700,3.97471875,0.018292601031787422,-0.004690142348408699,0.00911801387657535,-0.0009704330004751682,-0.001014783062798571,0.9953928062486841,-0.0002849370172302327,right,-0.0005096793174743652,-0.19118420932501545,0.1761107280078344,-9.62636123738885,-0.09544129415492436,0.0014284509234130383,0.002145063132047653,1.8634746351517735,0.00007519125938415527
1746575896279718700,4.01471875,0.017870646892562878,0.002794022671878338,0.008913641675582713,-0.015472561120986938,-0.0010533647327552807,0.9953947401209409,-0.0004029445897694943,right,-0.002009093761444092,-0.19118091598334677,0.1720489401953295,-9.626440732365847,-0.09543934743995264,0.0016890387050807476,-0.0007955525070428848,1.863442924839258,0.00024014711380004883
1746575896319718700,4.05471875,0.017295805677355724,0.01770142838358879,0.008609901718079746,-0.013189948163926601,-0.000842141144316928,0.9953962640328533,-0.00003344664311654522,right,-0.00027871131896972656,-0.19120563412210026,0.1665144494817592,-9.626492170292138,-0.0954535397643871,-0.0012336296495050192,0.0007125940173864365,1.8636808252483605,0.0010407865047454834
1746575896359719000,4.094718994140625,0.016830299797133404,0.013068165630102158,0.008343884834191349,-0.016620418056845665,-0.0004618662648001563,0.9953985174252938,0.0006859692975405857,right,-0.00008499622344970703,-0.19120443567695938,0.16203326721340416,-9.626571080747246,-0.0954561453509235,0.0050849393010139465,-0.00034199655055999756,1.8636692809410391,0.00009600818157196045
1746575896399718700,4.13471875,0.01639087473981806,0.001045404002070427,0.008104739974701397,-0.009712492115795612,-0.0002244587074658371,0.9954144192754327,0.00111841297297163,right,-0.0011854767799377441,-0.19091037228241703,0.15781206932179628,-9.627188920384645,-0.09531164306825499,0.0020633589010685682,-0.0002000126987695694,1.8608380030378697,0.004911318421363831
1746575896439718700,4.17471875,0.016022741911162434,-0.0057733068242669106,0.007926911509604617,-0.007789358031004667,-0.00026287505595120887,0.995417597097451,0.0010056914546949227,right,-0.001302480697631836,-0.19087489113485948,0.15426904468638822,-9.62731225450337,-0.09529357445840766,0.002583507914096117,-0.0006508948281407356,1.860496349993348,0.0013744235038757324
1746575896479718700,4.21471875,0.01575343866413507,0.0037427227944135666,0.007798922838398878,-0.006068484857678413,-0.0003098809253062265,0.9954342319102625,0.0008828762474988311,right,-0.00028312206268310547,-0.19054787360886688,0.15168594199116342,-9.62796107380092,-0.09513036686062194,0.019378744065761566,-0.0008746730163693428,1.8573475305736065,-0.00279979407787323
1746575896519718700,4.25471875,0.015565220297064081,0.007846583612263203,0.007692926816099097,-0.004941803868860006,-0.000164705632185166,0.9954673953464177,0.0011512230257843586,right,-0.00012952089309692383,-0.1898655491094097,0.1498934690838214,-9.629254620742797,-0.09479181772874339,0.01504228264093399,-0.0012569846585392952,1.8507769200116395,-0.0003825277090072632
1746575896559718700,4.29471875,0.015585349026677223,0.006217055954039097,0.007686454457708016,-0.0002636890858411789,0.000011148073109092353,0.9954819973525736,0.0015040150389021784,right,-0.00005453824996948242,-0.18955611420760937,0.1500962159811519,-9.629823360541462,-0.09463915497031798,-0.0011026356369256973,0.00016195792704820633,1.847796881287545,0.00013209879398345947
1746575896599719000,4.334718994140625,0.01568488436584043,-0.0007374538108706474,0.007729223844317691,0.0013113872846588492,0.00007598341796818126,0.9954750127913139,0.0016448450559887245,right,-0.0014300346374511719,-0.18969601566310765,0.15105066716177387,-9.629549804297088,-0.09470933198309661,-0.008109789341688156,-0.0016737952828407288,1.8491442042432724,0.0006995946168899536
1746575896639718700,4.37471875,0.01569520398112474,0.0006977638695389032,0.007738946982915592,-0.0012083632173016667,0.000021926121419578076,0.9954534825580632,0.001540797577484018,right,-0.0018636584281921387,-0.1901475342238835,0.15113692067312076,-9.628712768951058,-0.09493367336350007,-0.013301430270075798,-0.001336401328444481,1.853492462580651,0.00032204389572143555
1746575896679718700,4.41471875,0.015671394721691025,0.005528641864657402,0.00772630007816225,0.0027660736814141273,0.000025546015877210936,0.9954300959974989,0.0015497021295709157,right,-0.0006209015846252441,-0.1906408776432457,0.15089332117559387,-9.627800914803148,-0.09517925780178045,-0.011479920707643032,-0.0010426510125398636,1.8582431642390786,-0.00015331804752349854
1746575896719718700,4.45471875,0.015789430499929497,0.005324280820786953,0.00777424695592358,0.004979807883501053,0.00012957876106482782,0.9954171555261373,0.0017721167723586883,right,-0.0007323026657104492,-0.19090505519283563,0.15202198727880603,-9.62729179623723,-0.09531159837823049,-0.004209601785987616,-0.0009081913158297539,1.8607868573725221,0.0011750608682632446
1746575896759718700,4.49471875,0.01593620039339622,0.004256274551153183,0.00784049343045006,0.007567855529487133,0.00019318911689712856,0.9954149272858608,0.001914249103269089,right,-0.0016828179359436035,-0.19093885764695284,0.15343398210173473,-9.627206456041336,-0.09532899195355352,0.0002467818558216095,-0.0008583618327975273,1.8611122899346053,0.001578792929649353
1746575896799718700,4.53471875,0.015813584250041375,-0.004780220799148083,0.007787184734495279,-0.00132003054022789,0.00011534327651357355,0.9954035383089822,0.0017480849823785082,right,-0.0008732080459594727,-0.1911875580343888,0.152246206222428,-9.626762219405174,-0.09545211446101441,-0.0011333250440657139,-0.0017207013443112373,1.8635067838557065,-0.002626270055770874
1746575896839719000,4.574718994140625,0.015611994529345105,-0.004011140670627356,0.007713102133724757,0.010528174228966236,-0.0001491880860708717,0.9954024824885107,0.0011975494302382214,right,-0.0007946491241455078,-0.1912258053453266,0.1503044336380437,-9.626721302872896,-0.09546901919763652,-0.002475569024682045,0.0004170238971710205,1.8638750326462088,0.00003333389759063721
1746575896879718700,4.61471875,0.015608033803769154,-0.0031427412759512663,0.007727582434578852,0.0019719814881682396,-0.0003236072050471996,0.9953878279815281,0.0008491308897325239,right,-0.00026804208755493164,-0.19153313262072955,0.15025735222646033,-9.626148471421002,-0.09562062565131323,-0.008665354922413826,0.00014063622802495956,1.8668338824518025,0.000011235475540161133
1746575896919718700,4.65471875,0.015534993484694485,-0.0011562888976186514,0.0076916565616261924,-0.0025650816969573498,-0.0003263165202555985,0.995379562225227,0.0008380629582748979,right,-0.001025855541229248,-0.19171144773486568,0.1495490852260962,-9.625826399859786,-0.09570934239190555,-0.0069383056834340096,-0.00024759769439697266,1.8685504771113395,0.0007186233997344971
1746575896959718700,4.69471875,0.015461944529938678,0.0008301632478833199,0.007655728545483213,-0.0071021439507603645,-0.0003290258354639117,0.9953712964689266,0.0008269808450731509,right,-0.0017837882041931152,-0.19188974931032135,0.14884077255995942,-9.625504328298568,-0.09579805108292196,-0.005211256444454193,-0.000635824166238308,1.8702670717708765,0.0014260411262512207
1746575896999718700,4.73471875,0.01543465293872339,0.010257568210363388,0.0076254764913074365,-0.00042486097663640976,-0.0001565759630017753,0.9953623176212629,0.001172343882675319,right,-0.00019794702529907227,-0.19208093209967872,0.14857255921098403,-9.625150692555307,-0.0958945187188138,-0.005286869592964649,-0.001367218792438507,1.8721074389405548,0.001493602991104126
1746575897039718700,4.77471875,0.01540334149740524,0.006091024726629257,0.007594889682715137,0.002849203534424305,1.7067969556593765e-7,0.9953604123425837,0.0014846106323098088,right,0.0008280277252197266,-0.19212330712741302,0.1482699595352169,-9.625075873753428,-0.09591679782393125,0.006875157356262207,0.000720752403140068,1.8725152890890835,0.0010754019021987915
1746575897079719000,4.814718994140625,0.015429268037934754,-0.006067706272006035,0.007608291834790015,-0.0019711926579475403,-0.0000037445026285550684,0.9953707141183914,0.001477549900069004,right,-0.0026027560234069824,-0.19190595476195463,0.14852577919350005,-9.625478609335422,-0.09580860014129756,0.003466789610683918,-0.0008644368499517441,1.8704229929849505,0.0027325302362442017
1746575897119719000,4.854718994140625,0.015352425165368874,-0.004935006611049175,0.007586484670399279,0.002674476243555546,-0.00016984030783207554,0.9953754609248175,0.0011356979589064457,right,0.00015276670455932617,-0.19181295881958868,0.14778879755530505,-9.625663902774452,-0.09576102052423999,0.006730971392244101,-0.000733361579477787,1.8695277977108955,-0.0012389272451400757
1746575897159718700,4.89471875,0.015494073830538071,0.0009547024965286255,0.0076622785009208254,0.005384000018239021,-0.00022738623669356348,0.9953946960530745,0.0010304761465484847,right,-0.0007898807525634766,-0.1913996410131585,0.14916422322751022,-9.6264150134027,-0.09555489852642206,0.01878414675593376,-0.0016473038122057915,1.865548664946854,-0.0020909756422042847
1746575897199718700,4.93471875,0.015905531063520193,0.005474547855556011,0.007858623655809492,0.00922168605029583,-0.00015370878725465305,0.9954165607575832,0.0012140688235129302,right,0.00015103816986083984,-0.19090744728784062,0.15313964793081394,-9.627269584405422,-0.09531060953599609,0.008769364096224308,0.00044612493366003036,1.8608097998566924,0.0002700239419937134
1746575897239718700,4.97471875,0.016365193005364997,-0.0013235164806246758,0.00807957364152386,0.010055056773126125,-0.00009362904061556182,0.9954157302985062,0.0013786265489253826,right,-0.0008336305618286133,-0.19088712219440587,0.15756554721482097,-9.62723626665771,-0.09530111869802751,-0.005914327688515186,0.0011210441589355469,1.8606141311541198,-0.0005303919315338135
1746575897279718700,5.01471875,0.016682175298860426,0.0003567502135410905,0.008236707328889743,0.004522236064076424,-0.00010850497317416074,0.9953889777780094,0.0013835666822570624,right,-0.002115011215209961,-0.19142010245355143,0.1606006223280914,-9.62619289508462,-0.09556639037422193,-0.01528971828520298,0.00038335472345352173,1.8657456488236783,-0.0002702474594116211
1746575897319718700,5.05471875,0.016845121601938705,0.0056489999406039715,0.008310810886090092,0.0008234241977334023,-0.0000515805115967252,0.9953568468696864,0.0015191759279666603,right,-0.0016584992408752441,-0.19207791815456957,0.16214847282459957,-9.624937342065571,-0.09589432848263862,-0.011821901425719261,-0.0008360948413610458,1.8720783589765428,0.0004380643367767334
1746575897359719000,5.094718994140625,0.01693423415301292,0.010180104523897171,0.008335840403929227,0.0003828403714578599,0.0001411136115685521,0.9953436309914728,0.001917224741822951,right,-0.0001157522201538086,-0.19234395245592398,0.16299772833138704,-9.624424131846427,-0.09602839258250724,-0.0024191681295633316,-0.00046822987496852875,1.8746392955057323,0.0005891919136047363
1746575897399718700,5.13471875,0.017007446197688354,0.0042719305492937565,0.0083513213133232,0.0014512886991724372,0.00035720741639828885,0.9953512099536159,0.0023570723568793455,right,-0.000653386116027832,-0.192178563751872,0.16370763016641138,-9.624722238010168,-0.09594792689132686,0.004322289489209652,-0.0014647915959358215,1.8730472040086983,0.003113105893135071
1746575897439718700,5.17471875,0.0170362211591366,0.0003945038188248873,0.00835991843219987,0.0028656604699790478,0.0004182631840904609,0.9953610111849334,0.002480752888213456,right,-0.0016640424728393555,-0.1919730852439798,0.16399114154921843,-9.625102177238464,-0.09584617807679553,0.00463921157643199,-0.0010433048009872437,1.8710693280644715,0.0022272616624832153
1746575897479718700,5.21471875,0.01684438331174877,-0.004185772500932217,0.008269511030333805,-0.00507289869710803,0.000373352594751666,0.995356825757628,0.0023729163950921756,right,-0.0004118680953979492,-0.19207565744133248,0.16214144029561428,-9.6249414337188,-0.09589674829279843,-0.0001326547935605049,-0.002574007958173752,1.8720567316666243,-0.002265065908432007
1746575897519718700,5.25471875,0.01668084015262689,-0.00008153868839144707,0.008203671537143716,0.008501274511218071,0.0002197012924386134,0.9953573621857061,0.002048462835396399,right,0.00022524595260620117,-0.19208025742301024,0.16056719498252495,-9.624958969375491,-0.09589767375477258,-0.004553450737148523,0.00036660395562648773,1.8721010091997683,0.0013272762298583984
1746575897559718700,5.29471875,0.016794690794710854,-0.0018958045402541757,0.008266775342623166,0.0023931399919092655,0.00014148400971014639,0.9953357645392112,0.0019060135953392473,right,-0.0022574663162231445,-0.192521541928178,0.1616491084677167,-9.624113750723003,-0.09611670898218484,-0.011336421594023705,0.0005405712872743607,1.8763487297721206,0.0010104775428771973
1746575897599719000,5.334718994140625,0.016636315164175606,-0.0020745289511978626,0.008192722836938043,-0.00708132004365325,0.00009565507307901629,0.9953213006850828,0.001801279545336226,right,-0.002208709716796875,-0.1928364886440926,0.16011504903454332,-9.623547933533787,-0.09627300379001845,-0.003146173432469368,0.00021938420832157135,1.8793800602920352,0.0017921626567840576
1746575897639718700,5.37471875,0.016069330492945327,-0.0000729248858988285,0.00791547131372855,-0.014565976336598396,0.00007059306397053408,0.995317524332037,0.0016970911974065646,right,-0.0016993284225463867,-0.1929612629046134,0.1546548473998904,-9.623402972105145,-0.09633466117505851,-0.0013102894881740212,-0.00029769167304039,1.8805811066448688,0.0013902634382247925
1746575897679718700,5.41471875,0.015578680933021439,0.009409867227077484,0.007658463211757432,-0.008360796608030796,0.00022765667423767932,0.995322613397053,0.0019646828259454545,right,-0.0001704692840576172,-0.192894806960636,0.1499350614695344,-9.623602294069528,-0.09630259415999161,0.0041549429297447205,-0.0006637685000896454,1.8799414935670793,0.0017472058534622192
1746575897719718700,5.45471875,0.01522020726694542,0.005219191312789917,0.007465692879928444,-0.0063258386217057705,0.0003986084656410065,0.9953423650785462,0.0022705521411320044,right,0.0008649230003356934,-0.1925118608177945,0.14649619132834485,-9.624374447485804,-0.09611311295301185,0.015850741416215897,-0.0002247309312224388,1.8762554985307156,0.0006266683340072632
1746575897759718700,5.49471875,0.015044082875044178,-0.008296576328575611,0.00737827524237423,-0.004606937058269978,0.0004121384890243115,0.9953698212625939,0.0022764652023493813,right,-0.0012511014938354492,-0.1919528253831075,0.14481685080612078,-9.625447629675268,-0.0958348817254621,0.007624027319252491,-0.0013820426538586617,1.8708742438837884,0.0030848681926727295
1746575897799718700,5.53471875,0.014768834183776114,-0.003602349665015936,0.00725523462039703,-0.002508265897631645,0.0002838535040368801,0.9953838696878629,0.00199018141545589,right,0.0006282329559326172,-0.19168287183393687,0.14217491232943721,-9.625991819554567,-0.09569942746925311,0.007236539851874113,-0.0015005497261881828,1.868275459562242,-0.0014118105173110962
1746575897839719000,5.574718994140625,0.014833244142751547,0.006891599390655756,0.007279896065990167,0.004241620190441608,0.00036077626122340634,0.9953948404901223,0.002149149649214752,right,-0.000648796558380127,-0.19144568879997395,0.14280149239571766,-9.626425534796715,-0.095581981508392,0.006003590766340494,-0.001310216262936592,1.8659920248001813,-0.001887887716293335
1746575897879718700,5.61471875,0.015151410617782173,0.008429557085037231,0.007417507078074517,0.007631667423993349,0.0005639565358295041,0.9954015535085873,0.002586649115972069,right,-0.0006539225578308105,-0.19127772005715116,0.14586903587332925,-9.6266926613003,-0.09550006859695968,-0.0006751609034836292,-0.00024342164397239685,1.8643749449923634,-0.0010695606470108032
1746575897919718700,5.65471875,0.015412263840852872,-0.00005635339766740799,0.00753289994718669,0.0028798901475965977,0.0007002546383087862,0.9953952244605863,0.0028864010653884544,right,-0.0016890764236450195,-0.1913885750115259,0.14837700010626576,-9.626447746628521,-0.09555644041115695,-0.010450772941112518,0.0005563404411077499,1.8654421358324587,0.0013727396726608276
1746575897959718700,5.69471875,0.015475114452209589,0.00017291621770709753,0.007564427359451391,-0.0038332752883434296,0.000687143232608164,0.9953712726444517,0.002869992941974063,right,-0.001460254192352295,-0.19188408464520204,0.14896770514156668,-9.625513096126914,-0.09580301276077866,-0.014205748215317726,-0.0010067066177725792,1.8702125651046633,-0.0001249164342880249
1746575897999718700,5.73471875,0.015361232589207168,0.009517955593764782,0.007498389878206724,-0.005237409844994545,0.0007836160863283352,0.9953525885325162,0.003055994602712447,right,-0.0013508796691894531,-0.1922826402352232,0.1478600726932287,-9.624783612808585,-0.09600201843469715,-0.0056176092475652695,-0.0005492288619279861,1.8740490745276213,-0.0011979639530181885
1746575898039718700,5.77471875,0.015237456737636846,0.012397872284054756,0.007412606408155967,-0.0036397483199834824,0.0010392876774674203,0.9953499337961902,0.0035582501519479436,right,-0.0005245804786682129,-0.19234209848262185,0.14666705438322386,-9.624690673828125,-0.0960334283889617,0.0016951179131865501,-0.0005572820082306862,1.8746214675880968,0.00038313865661621094
1746575898079719000,5.814718994140625,0.015247985066773016,0.005121227819472551,0.0073995612176625735,0.003134354017674923,0.001232974784635367,0.9953622567379063,0.00394640238189968,right,0.0006476640701293945,-0.19208007749514613,0.14677586678625085,-9.625179918649792,-0.0959044686975337,0.008275948464870453,0.00000972207635641098,1.8720992556340992,0.0012477338314056396
1746575898119719000,5.854718994140625,0.015403906687512016,-0.0001394166611135006,0.0074755402576813625,0.005204200278967619,0.00124887190723996,0.995379061039491,0.003990501237515389,right,-0.0011653304100036621,-0.19171692335853402,0.14828710246626287,-9.62583575221002,-0.09572399161257024,0.007976369932293892,-0.0005327342078089714,1.8686032302118836,0.0015936791896820068
1746575898159718700,5.89471875,0.01554905778200514,-0.0018094450933858752,0.007553218892192141,0.0008290885016322136,0.0011868056273887726,0.9953824313847179,0.003879112651671131,right,-0.0023095011711120605,-0.1916367033534403,0.1496866305332631,-9.625964347025752,-0.0956837358816265,-0.003621308133006096,-0.0018411846831440926,1.8678309306651353,0.0026559978723526
1746575898199718700,5.93471875,0.015663090482252902,-0.00023983267601579428,0.007611074642256759,0.0048203058540821075,0.001166805337902981,0.9953738375461306,0.0038512663308552103,right,-0.0023708343505859375,-0.19180861322097956,0.15077927547502332,-9.625625908851623,-0.09576925023446686,-0.0032691822852939367,-0.0016274107620120049,1.8694860043957828,0.004600942134857178
1746575898239718700,5.97471875,0.015777116227812617,0.0013297797413542867,0.007668928887042082,0.008811522275209427,0.0011467930061924098,0.995365185332048,0.003823414405446218,right,-0.0024321675300598145,-0.19198053413751642,0.1518717742863111,-9.625286886155605,-0.09585477188423992,-0.0029170566704124212,-0.001413620077073574,1.871140931995958,0.006545901298522949
1746575898279718700,6.01471875,0.015899569290431292,-0.0003331723855808377,0.007725949038883001,0.001248881220817566,0.0011781667846840543,0.9953553051155584,0.0038998201860504767,right,-0.0032147765159606934,-0.19217390029320694,0.15304466312373988,-9.624906362405419,-0.09595138050833768,-0.0029706626664847136,-0.0002467595040798187,1.873002341953665,0.004755467176437378
1746575898319718700,6.05471875,0.015775904511675425,0.0011124557349830866,0.007664874320891482,-0.006225299090147018,0.0011775642745160294,0.9953513518066135,0.0038874321829220192,right,-0.0016501545906066895,-0.1922660055386946,0.15185167221319862,-9.62475263314843,-0.0959971002456066,-0.0008237555157393217,-0.0006290599703788757,1.873888915529847,0.002884387969970703
1746575898359719000,6.094718994140625,0.015403839359082646,0.010523238219320774,0.007470139382211326,-0.008851522579789162,0.0012888684578110509,0.995337519917127,0.0040776803388518825,right,0.0002620816230773926,-0.1925805288564255,0.1482615387667436,-9.624218964663147,-0.0961541215096205,-0.0054342979565262794,-0.0005898009985685349,1.8769164466574788,0.0018811076879501343
1746575898399718700,6.13471875,0.01547372371110193,0.014157773926854134,0.007477581849426444,0.002284284681081772,0.0015630232683574536,0.9953235665456744,0.004637509047330003,right,-0.000035762786865234375,-0.192856786490262,0.1489260944895446,-9.62368938783109,-0.0962937474027446,-0.004152280744165182,-0.0012970035895705223,1.879575436733663,0.0031068772077560425
1746575898439718700,6.17471875,0.015638434297408375,0.002007526345551014,0.007548673936595565,0.008242066018283367,0.0016692997183720552,0.9953269605046098,0.00486629745159506,right,-0.00002294778823852539,-0.19277007621046005,0.1505137655397877,-9.623827919518947,-0.096251585198802,0.008977126330137253,0.00011684466153383255,1.8787408856056629,0.0013566762208938599
1746575898479718700,6.21471875,0.015743759957767053,-0.011806942522525787,0.007618673627259278,0.0033111446537077427,0.0014859557831574629,0.9953355697109123,0.004506603853982671,right,-0.0013560652732849121,-0.19258843484175753,0.15153276985660194,-9.624152913689613,-0.09615990892319613,0.005541312508285046,-0.0007102135568857193,1.8769925806336103,0.0005630254745483398
1746575898519718700,6.25471875,0.015819833468434484,-0.003408988006412983,0.007677442280386412,0.004082927014678717,0.0012700589569217165,0.9953465731869221,0.0040782938968857915,right,-0.0007973909378051758,-0.192361191686918,0.15227166032409295,-9.62456792423129,-0.0960452235193015,0.006205339916050434,-0.000494539737701416,1.8748052997224032,-0.002372458577156067
1746575898559718700,6.29471875,0.01606039933857756,0.007480515167117119,0.0077941648132292115,0.006692946422845125,0.0012932133460512806,0.99535482066486,0.004146450338876576,right,-0.0011307001113891602,-0.19216895727075745,0.1545927784817293,-9.624891164836287,-0.0959499714931249,0.0041590225882828236,0.00019267946481704712,1.8729548495501278,-0.0016982406377792358
1746575898599719000,6.334718994140625,0.016318536044450403,0.007018615026026964,0.00790761562688362,0.004431354813277721,0.0014425997051340693,0.9953681271680241,0.0044689658913262134,right,-0.0013653039932250977,-0.1918661773760477,0.15708654979253187,-9.625417234537005,-0.09580072386309547,0.003392606507986784,0.0014400631189346313,1.8700401311472057,0.000940367579460144
1746575898639718700,6.37471875,0.016440770101747576,-0.0012449086643755436,0.007965606040552596,0.004643733147531748,0.0014690723237247138,0.9953741686390294,0.004532750502086653,right,-0.0014479756355285645,-0.1917273312604559,0.15826737534124402,-9.625657473033666,-0.09573197150725249,-0.00023109884932637215,0.0018796678632497787,1.8687034757159648,0.0018702447414398193
1746575898679718700,6.41471875,0.016528600583755968,-0.004113515838980675,0.00801912421559334,0.003181221429258585,0.001359322653079619,0.9953652226150562,0.0043222337978525175,right,-0.0023044347763061523,-0.1919109318671264,0.15910713236732407,-9.625300330159067,-0.09582256292319204,-0.004972298163920641,0.0012503694742918015,1.8704709237799046,0.0008287280797958374
1746575898719718700,6.45471875,0.016523701694321682,0.0023233890533447266,0.008020140497394143,-0.0025503761135041714,0.0013208216318740574,0.9953582543284486,0.004245651843554994,right,-0.0016537308692932129,-0.19205860580343614,0.15905542044639587,-9.625025020349025,-0.09589574332035244,0.0027045710012316704,0.0002335626631975174,1.8718924810156226,-0.0008218288421630859
1746575898759718700,6.49471875,0.016464471012145324,0.007996301166713238,0.007976778865351145,-0.001143922912888229,0.0014706244162585285,0.995365023799675,0.004539745599758199,right,-0.0002040266990661621,-0.19191630950035396,0.15848969458872453,-9.625300330159067,-0.09582606794114294,0.003955059219151735,-0.00046389177441596985,1.870522653967142,0.0009527653455734253
1746575898799718700,6.53471875,0.016494390329872478,0.005459675565361977,0.00797402607120963,0.0005450287135317922,0.001655429399718249,0.9953713889834161,0.004912755761741846,right,-0.00007218122482299805,-0.19177469756654228,0.15878204686511307,-9.625560442399978,-0.09575710140052758,0.001023255055770278,-0.00016409531235694885,1.8691594027899205,0.00033701956272125244
1746575898839719000,6.574718994140625,0.01659121020589888,0.0027788064908236265,0.008012921066062698,0.0010523241944611073,0.0017487365069233935,0.9953738676547118,0.0051090113344126374,right,-0.0013741850852966309,-0.19171138112617164,0.15971594844805076,-9.625663318252563,-0.09572645629468604,-0.000005641835741698742,-0.0008100401610136032,1.8685498925894497,0.00020205974578857422
1746575898879718700,6.61471875,0.016603710944146338,0.0009949507657438517,0.008012666395584372,-0.000989581923931837,0.0018108163858695792,0.9953635564950338,0.005236766994807779,right,-0.0005714297294616699,-0.19192375533765588,0.15982969275452197,-9.625264674323796,-0.09583267235516818,-0.011839581653475761,-0.0010127509012818336,1.870594404029101,0.0017009079456329346
1746575898919718700,6.65471875,0.01657673763436178,-0.00865686871111393,0.008000423438366027,0.0008289427496492863,0.001791915068712211,0.995346276450435,0.0051992936411059286,right,0.0014762282371520996,-0.192287070646733,0.15955878512496127,-9.624588382497429,-0.09601331156265859,-0.004865590017288923,0.00006136111915111542,1.8740917446255683,0.0028344690799713135
1746575898959718700,6.69471875,0.01692021268084719,-0.0089259697124362,0.008175871999252349,0.009804470464587212,0.0017232728427679408,0.9953331105834573,0.005096662932368989,right,-0.0015526413917541504,-0.192535552391557,0.1628566941591911,-9.624067573493718,-0.09613685352562444,-0.00605397205799818,-0.00041916221380233765,1.8764836081981657,0.00657200813293457
1746575898999718700,6.73471875,0.01718977822817777,-0.007569335401058197,0.008323149610153254,0.0024169632233679295,0.0015708368395805136,0.995323902189249,0.004817909316134753,right,-0.00161057710647583,-0.1927067663676095,0.16544548680968582,-9.623701662790774,-0.09622114174144883,-0.001750826369971037,0.0010752473026514053,1.8781315215356646,0.005747169256210327
1746575899039718700,6.77471875,0.017098107339195097,-0.0038731039967387915,0.008289607839813402,-0.010144611820578575,0.0014506583353829604,0.9953253235842794,0.004567405244503091,right,-0.002907872200012207,-0.192688992495726,0.1645638451369479,-9.623750178107619,-0.09621118706808136,0.005638404283672571,-0.0005197003483772278,1.877960402752459,0.003952443599700928
1746575899079719000,6.814718994140625,0.01660409587889164,0.008983317762613297,0.008039675590242473,-0.012231860309839249,0.0015203581735732336,0.9953360194686667,0.0046581511262014695,right,0.00025272369384765625,-0.1925065486785374,0.15981526237037033,-9.624172787433862,-0.09612039711589641,0.01433110423386097,0.0019397642463445663,1.876204352865368,0.0028967708349227905
1746575899119719000,6.854718994140625,0.0162952968663564,0.012454508803784847,0.007861703003395082,-0.009110713377594948,0.0017997859798682416,0.9953657710910653,0.005184734136913398,right,0.00041800737380981445,-0.19190285018712977,0.1568617463270202,-9.62535235260725,-0.09582178892603747,0.023970572277903557,0.0003490149974822998,1.8703931823685764,0.0033404529094696045
1746575899159718700,6.89471875,0.015821068127430088,-0.0023424802348017693,0.007620908034170148,-0.009519216604530811,0.001896645808770865,0.9954213168700875,0.0053245051986120255,right,0.00004082918167114258,-0.19077660285533796,0.1523303499750793,-9.627525604993105,-0.09526135835835939,0.034679364413022995,0.000550917349755764,1.8595500090539454,0.0033230185508728027
1746575899199718700,6.93471875,0.01540973983096522,-0.013006424531340599,0.00743799040532304,-0.008726171217858791,0.0017126145328259061,0.9954791816647887,0.004906019482198725,right,-0.001294553279876709,-0.18959676059832875,0.14840396117842755,-9.629774845224619,-0.09467218256554309,0.03239186853170395,-0.00019601080566644669,1.8481883648231625,0.0004353076219558716
1746575899239718700,6.97471875,0.014885723367805609,-0.007008738815784454,0.007204923208276011,-0.006527809426188469,0.0014647415854119792,0.9955295240027908,0.004350415109755596,right,-0.0020300745964050293,-0.18858055497014764,0.14338566722553223,-9.631724225726723,-0.09416391294076965,0.02813396044075489,-0.0009172037243843079,1.838400399649888,-0.004234984517097473
1746575899279718700,7.01471875,0.014573586112863504,0.007666627876460552,0.007050541946528966,-0.00615055812522769,0.0014892187364187225,0.995581135032614,0.004362005900459615,right,-0.0019060373306274414,-0.18750494346417176,0.14040797572215086,-9.633740241724253,-0.09362830743766826,0.02426297590136528,-0.0017196405678987503,1.828038141719997,-0.004628866910934448
1746575899319718700,7.05471875,0.014373126734901069,0.01011049933731556,0.0069299045622114456,-0.006702350918203592,0.001737253058633087,0.9956208926552874,0.0048351621733933306,right,-0.0016277432441711426,-0.18666029030008527,0.138498936363589,-9.635308513954282,-0.093209332053825,0.010672176256775856,0.0001935875043272972,1.8198995511889458,-0.00033783912658691406
1746575899359719000,7.094718994140625,0.014229800101522808,0.0017985133454203606,0.006847211133059475,-0.0034731156192719936,0.001874130828500839,0.9956413440275942,0.0050935041122152115,right,-0.0014767050743103027,-0.18622518867913207,0.13712920064665376,-9.636119245815276,-0.09299349800165742,0.0014371005818247795,0.0006511826068162918,1.815706483413279,0.000093802809715271
1746575899399718700,7.13471875,0.013952287315657777,-0.0026101809926331043,0.006712765616193587,-0.008369436487555504,0.0018483667405013783,0.9956447113715663,0.005015472068145587,right,-0.001370251178741455,-0.1861754553200845,0.13445630077612586,-9.636247256109117,-0.09296821296748138,-0.0019245634321123362,0.000597342848777771,1.8152273215942083,-0.0008305162191390991
1746575899439718700,7.17471875,0.013491991764981106,0.005035893991589546,0.006480160749074269,-0.014453668147325516,0.0019046249823387591,0.9956411393906337,0.005086249820087947,right,-0.00044929981231689453,-0.18628273412246188,0.13001814479874446,-9.63611281607449,-0.0930214235538792,-0.00516314385458827,-0.0015288600698113441,1.816261048556119,-0.0010644495487213135
1746575899479718700,7.21471875,0.013164234977952903,0.007463463582098484,0.0062863807639074515,-0.009845705702900887,0.002245524322524633,0.9956372743569541,0.005741043854293325,right,-0.00006592273712158203,-0.18637509767476973,0.12685762580805457,-9.635987143868208,-0.09306914764949711,-0.003410136327147484,-0.0014810701832175255,1.8171512753941117,0.0006093531847000122
1746575899519718700,7.25471875,0.012836532428681857,0.009891033172607422,0.0060925998218708715,-0.005237743724137545,0.002586416723783229,0.9956332281756789,0.006395804948502802,right,0.0003172159194946289,-0.18646765009711844,0.12369771873871795,-9.635860302618145,-0.09311684872533274,-0.0016571292653679848,-0.0014333417639136314,1.818043109667301,0.002283036708831787
1746575899559718700,7.29471875,0.012626429652874385,0.003374823834747076,0.005973712458236625,-0.0001947963610291481,0.002748222031319303,0.9956318008438477,0.006701409571770021,right,0.00002467632293701172,-0.1865015894452219,0.12167241432303562,-9.635824062260985,-0.0931343928112983,-0.00131024734582752,-0.0012319395318627357,1.8183701496645808,0.0024369806051254272
1746575899599719000,7.334718994140625,0.01238034935664183,-0.004246157594025135,0.0058578901981902,0.0002655785938259214,0.0026812566900581694,0.9956190193742853,0.006545790148057846,right,0.001012563705444336,-0.18679677430237904,0.1192945792757906,-9.635316697260738,-0.09328054187777773,-0.0034839147701859474,-0.0008647171780467033,1.8212147254407405,-0.0012570619583129883
1746575899639718700,7.37471875,0.012184067394442928,-0.0038383181672543287,0.005784546584514429,0.010868978686630726,0.002426382306182807,0.99561189382177,0.006016542606819714,right,0.0003539919853210449,-0.18697465138224428,0.11739938577949069,-9.635015668487549,-0.09336730620777729,-0.0032730158418416977,-0.00030227936804294586,1.822928689751774,-0.00043939054012298584
1746575899679718700,7.41471875,0.012215722068455517,-0.0012788649182766676,0.005815859731191421,0.0022474201396107674,0.0022533489790314653,0.9955997529871843,0.005673621708898055,right,-0.0012441277503967285,-0.18724172533870787,0.11769842352499253,-9.634525254622101,-0.09349929645442674,-0.004626158624887466,-0.0002820352092385292,1.8255020473711192,0.00018824636936187744
1746575899719718700,7.45471875,0.012149385544657094,0.00045447354204952717,0.005784734651727638,0.0010425070067867637,0.0022351257505147217,0.9955974871305553,0.005631121710625371,right,-0.000059723854064941406,-0.18729494955489645,0.11705812546061352,-9.634435822772978,-0.09352559537403701,0.0010733623057603836,-0.00006821006536483765,1.8260148191988468,0.0015779733657836914
1746575899759718700,7.49471875,0.012030484537428303,0.0002656030119396746,0.00572445280081247,-0.0017959788674488664,0.0022529126015514676,0.9955991126919546,0.005655507381118873,right,-0.000491797924041748,-0.18726694782197914,0.11591319320918991,-9.634500704702734,-0.09351159275194218,-0.000056553748436272144,-0.00020466838032007217,1.8257450623467564,0.0009375214576721191
1746575899799718700,7.53471875,0.011934521484452164,0.007177495863288641,0.005668581791397821,0.0018986245850101113,0.0023456736104734617,0.9956035906702805,0.00583224803846225,right,-0.00018161535263061523,-0.1871727232860229,0.11499068980310112,-9.634683660054206,-0.09346508046833842,0.0003770885232370347,0.0005102260038256645,1.8248371537216006,0.0005851835012435913
1746575899839719000,7.574718994140625,0.012042769204065117,0.0005293749272823334,0.005713072752796391,0.004283116664737463,0.0024423446507187085,0.9956065925928423,0.00603613423446506,right,0.0003440976142883301,-0.1870978694102662,0.11603526695258914,-9.63480757869482,-0.09342852241940248,0.004060598090291023,0.0011556511744856834,1.8241159998402,0.0011547654867172241
1746575899879718700,7.61471875,0.012225754805805376,-0.009973866865038872,0.005808733791042798,0.005705377086997032,0.002388392745504792,0.9956131578075167,0.005943967360994181,right,-0.002291381359100342,-0.18694793161859855,0.11780163730429485,-9.635059507629276,-0.09335384006815681,-0.00343378446996212,-0.0002880888059735298,1.822671207859367,0.003422856330871582
1746575899919718700,7.65471875,0.01228887705373632,-0.0053075458854436874,0.005854860915115074,0.0029276167042553425,0.00222834157229208,0.9956127626482905,0.005628457947591784,right,-0.0011813044548034668,-0.1869611302608353,0.11840953093641438,-9.635028527969121,-0.09335955946940831,0.001143470872193575,0.0004518004134297371,1.8227983413703739,-0.00006632506847381592
1746575899959718700,7.69471875,0.012493477897319725,0.008106454275548458,0.005952931584551719,0.0011236463906243443,0.002262805902542702,0.9956200767814581,0.005715757585196002,right,-0.0016748309135437012,-0.18678944330767566,0.12038476739898324,-9.635316697260738,-0.09327457921227149,0.006108654662966728,-0.0004512881860136986,1.8211439982920885,-0.0018430650234222412
1746575899999718700,7.73471875,0.012556118427980675,0.004370206966996193,0.005964307013880247,0.00020896288333460689,0.002477260585015351,0.9956315846008911,0.006150703850924174,right,-0.0014087557792663574,-0.1865276896255294,0.12099431413207203,-9.635785483816266,-0.0931456439109803,0.0013610795140266418,0.000713706947863102,1.8186216402076183,0.0013975948095321655
1746575900039718700,7.77471875,0.012618645041298737,0.0006339603569358587,0.005975685772719788,-0.0007057206239551306,0.0026917057769117007,0.9956429726587783,0.006585593429951885,right,-0.0011427998542785645,-0.18626589630550813,0.12160281055239029,-9.636253685849905,-0.09301670168906315,-0.0033864956349134445,0.0018788110464811325,1.8160988437317311,0.00463828444480896
1746575900079719000,7.814718994140625,0.012453604233964905,-0.0022949345875531435,0.005894193000284598,-0.004835294559597969,0.002686678499710901,0.9956326898249996,0.00656159755500994,right,-0.0017696022987365723,-0.18649874327047558,0.1200071662582457,-9.635850365746021,-0.09313232127305747,-0.008954161778092384,0.00047416239976882935,1.8183426771357654,0.0019510537385940552
1746575900119719000,7.854718994140625,0.012173155520163076,0.00309193623252213,0.005752850966136253,-0.006952002644538879,0.002710485141493252,0.9956182846578123,0.00658527327448656,right,-0.0014399290084838867,-0.18682508850758667,0.11729756937283091,-9.63528980925381,-0.09329446873644072,-0.0020823138765990734,-0.0012134769931435585,1.8214875510327517,-0.0009714066982269287
1746575900159718700,7.89471875,0.011953012162653515,0.014772224240005016,0.005623023891359084,-0.0048027560114860535,0.0029371491267772896,0.9956190577700615,0.00701986020408949,right,-0.00011277198791503906,-0.186808056786342,0.11517678695973008,-9.635346507877111,-0.09328691848607346,0.003384634852409363,-0.0009731641039252281,1.821323446512222,0.0009220540523529053
1746575900199718700,7.93471875,0.011886684194560739,0.01503564603626728,0.005561504646876513,-0.0009451443329453468,0.003246433023128902,0.9956218363786795,0.007634453737408538,right,-0.0000616908073425293,-0.18673164968935804,0.1145393475727178,-9.635493222871423,-0.0932505000686642,0.0038255006074905396,-0.001870991662144661,1.8205870950616896,0.000623852014541626
1746575900239718700,7.97471875,0.011936635620471748,0.005244494415819645,0.005563603352885916,-0.0009365954902023077,0.0034943728614502804,0.9956328877029228,0.008135549185482704,right,-0.00023859739303588867,-0.18647279724914811,0.11502627257313579,-9.635958502295614,-0.09312312008171858,0.0043923561461269855,-0.002484552562236786,1.818092647897452,0.004336938261985779
1746575900279718700,8.01471875,0.011925708341575927,-0.00802418403327465,0.00556232879379248,-0.0018316557398065925,0.0034541772580699895,0.9956395364092077,0.008052902422122477,right,-0.0010077953338623047,-0.18633382990680905,0.11492399037559516,-9.636212184795736,-0.09305369013597083,0.01040868740528822,-0.002389613538980484,1.81675350824818,0.0017580091953277588
1746575900319718700,8.05471875,0.012067174881486687,-0.009396295063197613,0.005657012304107056,0.004821695387363434,0.0031921184313763533,0.9956472212055395,0.007538718062814738,right,-0.00318753719329834,-0.18617832732907838,0.1162906025536824,-9.636478142255545,-0.09297507087321452,0.0010492559522390366,-0.0019156979396939278,1.815254940253496,0.0029445290565490723
1746575900359719000,8.094718994140624,0.012102543242230202,-0.00042271148413419724,0.005690017148753213,-0.00015451246872544289,0.0030230666406069395,0.9956430228226141,0.007203072532347354,right,-0.0028195977210998535,-0.18627748586670798,0.11662925079036503,-9.636294017860292,-0.09302353786092213,0.0026215827092528343,0.00008327607065439224,1.8162104874126612,-0.000725671648979187
1746575900399718700,8.13471875,0.011949977443108677,0.0074523622170090675,0.005605734078757515,-0.006810955703258514,0.0031208442729878856,0.9956458573290492,0.007384862390972515,right,-0.0024034976959228516,-0.1862194567774692,0.11516033814842812,-9.636416767457128,-0.09299493018303724,0.0026453675236552954,0.00006751436740159988,1.8156512460947036,0.0011793524026870728
1746575900439718700,8.17471875,0.011379965643571846,0.009565938264131546,0.005302958136808249,-0.015362586826086044,0.0033502551868470442,0.9956456377644092,0.007792594188053057,right,-0.00040835142135620117,-0.18624321411534672,0.10966695576338097,-9.636437810245155,-0.09300694784554016,-0.0001787012442946434,0.0004217289388179779,1.8158802325449883,0.001102358102798462
1746575900479718700,8.21471875,0.011041685227160297,0.014211844652891159,0.00510836595217518,-0.005873239599168301,0.003648564812218151,0.995649280475228,0.00835975077307637,right,-0.00018411874771118164,-0.1861633775877842,0.10640873028556816,-9.636619596552848,-0.09296808365767556,0.0017936455551534891,-0.00022305920720100403,1.8151108556076883,0.0012057125568389893
1746575900519718700,8.25471875,0.010833363339857877,0.005777128040790558,0.0049897301244217086,-0.0012400881387293339,0.003820321579192341,0.995652799132816,0.008684867614323686,right,0.0008515715599060059,-0.18608676770153262,0.10440271509224548,-9.636780340072512,-0.0929303734041747,0.004491853062063456,-0.0006660986691713333,1.8143726044610142,0.00020046532154083252
1746575900559718700,8.29471875,0.01074710308289656,-0.0023401090875267982,0.004944844992906109,-0.004267442040145397,0.0038503512177996027,0.995661332395883,0.008736093847341782,right,-0.0006555318832397461,-0.1859061311129775,0.10357496816436759,-9.637117024680972,-0.09284040655828327,0.004579538479447365,-0.0005933986976742744,1.8126316060125827,0.0008496940135955811
1746575900599719000,8.334718994140625,0.010638500034618022,0.002886289730668068,0.004892154379476841,-0.0019860437605530024,0.003847763054251444,0.9956731253552283,0.008719351406392782,right,-0.0006456971168518066,-0.18565864173437943,0.10253311269492842,-9.637576458886265,-0.09271694666620227,0.008886276744306087,-0.0006029726937413216,1.810246318311244,-0.00040474534034729004
1746575900639718700,8.37471875,0.010714574331609055,0.00919177383184433,0.004917320453282978,-0.000236034975387156,0.003995556096392595,0.9956955243441562,0.009020409788807934,right,-0.0011168122291564941,-0.18515726611440392,0.10327599435094743,-9.638474869030713,-0.09246823159028762,0.01422853209078312,-0.0007885582745075226,1.8054137835882602,-0.0004454702138900757
1746575900679718700,8.41471875,0.010803509845459056,0.005899432115256786,0.004943528021508156,0.00018102728063240647,0.004203378675220474,0.9957203896600625,0.009442828639282407,right,-0.0018718838691711426,-0.18459509313768122,0.1041441463544499,-9.639479077637194,-0.09218957539377427,0.011837130412459373,-0.000014954246580600739,1.799994681148976,0.0023679882287979126
1746575900719718700,8.45471875,0.010856295383942921,0.00021192291751503944,0.00496325286390881,-0.000029615301173180342,0.004282268116531974,0.9957352149376868,0.009604207829408035,right,-0.0015919208526611328,-0.18426056840385296,0.10465950286490842,-9.640075289964676,-0.092023549230805,0.004069766495376825,-0.0003698989748954773,1.7967698738835751,0.0015942156314849854
1746575900759718700,8.49471875,0.010834459158677952,0.003372283885255456,0.0049497924320807555,0.0010928302071988583,0.004310149134093619,0.9957334801267645,0.009658401356116154,right,-0.0006549954414367676,-0.18429652693709223,0.10444829866648651,-9.640012746122478,-0.09204154085427818,0.0045631201937794685,-0.0011745374649763107,1.7971164953641592,0.00025366246700286865
1746575900799718700,8.53471875,0.010812630457350895,0.0065326448529958725,0.0049363335055318605,0.0022152757737785578,0.004338044745528866,0.9957317423052866,0.00971262419120927,right,0.00028198957443237305,-0.18433247160568866,0.10423716753330081,-9.639950202280282,-0.0920595251808142,0.005056474357843399,-0.0019791806116700172,1.7974629707142709,-0.001086905598640442
1746575900839719000,8.574718994140625,0.010932888211818918,0.010425997897982597,0.004979101614873363,0.0012965142959728837,0.004525723065225575,0.9957420792297541,0.01009922551068189,right,-0.0008435845375061035,-0.1840825305694231,0.10540135247446596,-9.640386840131878,-0.09193631270738556,0.00866720825433731,-0.0016295379027724266,1.7950534253545105,0.00014929473400115967
1746575900879718700,8.61471875,0.010995848459912408,0.005386539734899998,0.0049931828400154215,0.000966834370046854,0.004721411457713089,0.9957567280158541,0.010496050260398687,right,-0.0012500286102294922,-0.18374159783454802,0.1060150365265552,-9.640991820287704,-0.09176769973077298,0.008391101844608784,-0.00033619068562984467,1.791766366507858,0.0010949522256851196
1746575900919718700,8.65471875,0.011021987784306252,0.000023578759282827377,0.004996159120428656,-0.00019257969688624144,0.00483326980243723,0.9957615874596202,0.010722413109803196,right,-0.00003933906555175781,-0.1836223262539303,0.10626940401326865,-9.64120224816799,-0.09170894509094511,-0.0025564655661582947,-0.0006715608760714531,1.7906163196898996,0.001640915870666504
1746575900959718700,8.69471875,0.010860654285385348,-0.010150974616408348,0.00492893135384244,0.0029614740051329136,0.004698450598973126,0.9957626209287624,0.010436770225693295,right,0.0027765631675720215,-0.18362265191853203,0.10471394559904001,-9.641218614780902,-0.09170801703038194,0.0004126632120460272,0.0016714474186301231,1.7906195345602929,-0.0004372447729110718
1746575900999718700,8.73471875,0.011109453354824142,-0.0049633607268333435,0.005062234991944381,0.009946824982762337,0.0045814274450456825,0.9957580966104753,0.01022522108297849,right,-4.76837158203125e-7,-0.18371875371481658,0.10711075934139079,-9.641020461860299,-0.09175591171039484,-0.0038359209429472685,0.0004480285570025444,1.7915461478859185,0.001681491732597351
1746575901039718700,8.77471875,0.011383810765329896,-0.0019317134283483028,0.005205920878092059,0.006779965944588184,0.004484520780445638,0.995747535826246,0.010057238269790582,right,-0.0008903145790100098,-0.1839421206080796,0.10975128217912278,-9.640590253749489,-0.09186730989984311,-0.0028105401434004307,0.00016307085752487183,1.7936996726579963,0.0005512833595275879
1746575901079719000,8.814718994140625,0.011450537169603371,0.004866635426878929,0.005233790773436301,-0.00202809926122427,0.004530975539665151,0.995735457462217,0.010158276722487784,right,-0.0021513700485229492,-0.1841965404272305,0.11038933348748832,-9.640126143369079,-0.09199439051954761,-0.007206975482404232,-0.002386844716966152,1.7961524726375937,0.0009632110595703125
1746575901119719000,8.854718994140624,0.011430914227325277,0.013912162743508816,0.005206399195602112,0.004883670713752508,0.0047089280578150455,0.9957162753801911,0.010516370035890222,right,0.00011843442916870117,-0.184595952683492,0.11019195688501932,-9.639410104054212,-0.09219413372441798,-0.008970405906438828,-0.0002735564485192299,1.800003010585904,0.0006425976753234863
1746575901159718700,8.89471875,0.011679679010395367,0.004983079619705677,0.005302719085712563,-0.0002330881543457508,0.004975665360081517,0.9956896718444493,0.011078560948855778,right,-0.002845466136932373,-0.18512907398425407,0.11257867849161848,-9.638421677538751,-0.09246162625338816,-0.011969494633376598,-0.0018986081704497337,1.8051421270400285,0.00416150689125061
1746575901199718700,8.93471875,0.011708747736295044,-0.008695344440639019,0.00531683788089981,-0.004995681811124086,0.004971961106165645,0.9956816721919747,0.011074916549025997,right,-0.0042130351066589355,-0.1853012588439078,0.11285521214436739,-9.6381072047621,-0.0925474068591794,-0.0008535655215382576,-0.002717515453696251,1.806801730815321,0.0028368383646011353
1746575901239718700,8.97471875,0.01144273909659014,-0.003796353004872799,0.005196677508281935,-0.005281122401356697,0.004850629601228838,0.9956808970509324,0.010806767876525918,right,-0.0014793872833251953,-0.18534807304890516,0.11029042142396792,-9.63805284422636,-0.0925693517156189,-0.0015149032697081566,-0.0015375763177871704,1.8072529817141592,0.0007464885711669922
1746575901279718700,9.01471875,0.011567426559492618,0.008102932944893837,0.005250864125560248,0.005448995158076286,0.00492077111394981,0.9956684359846124,0.010960841075553226,right,-0.00001245737075805664,-0.18560067888877926,0.1114868829332292,-9.637581719583272,-0.09269582086352143,-0.005004430189728737,-5.904585123062134e-7,1.8096876615151762,-0.0009356141090393066
1746575901319718700,9.05471875,0.011833496699996338,0.010872811079025269,0.005360617449574132,0.0030561131425201893,0.005151577815307943,0.9956656158083752,0.011449364499779475,right,-0.00047010183334350586,-0.1856208089655505,0.11405071467240341,-9.637515668609737,-0.09270780371627652,0.0020212307572364807,0.002492050640285015,1.809881722782552,0.00026661157608032227
1746575901359719000,9.094718994140624,0.012067760631247815,0.0017901118844747543,0.0054628124902219195,0.00545564666390419,0.005296995214881126,0.9956658041897519,0.011763049628665131,right,-0.0021519064903259277,-0.1855860065752282,0.11630919765629805,-9.637551324445008,-0.09269193600078576,-0.006804957054555416,0.003838340751826763,1.8095463533483445,0.004247605800628662
1746575901399718700,9.13471875,0.012139913781010758,-0.00194993382319808,0.005500133526667401,-0.0014176378026604652,0.005258420180956534,0.9956407758333815,0.011695832771688596,right,-0.004319965839385986,-0.1861230880214661,0.1169927594736684,-9.636569912192225,-0.09295932314941777,-0.016183022409677505,0.0007929904386401176,1.814722586942464,0.0010603219270706177
1746575901439718700,9.17471875,0.01187758176296402,0.007947588339447975,0.005365174276035816,-0.012151387520134449,0.005296772254197479,0.9956158234954827,0.011751940668377559,right,-0.0018736720085144043,-0.18667191093992558,0.11445292966458946,-9.635603112986683,-0.0932319923875171,-0.008672483265399933,-0.0009057819843292236,1.8200114871308206,-0.0016437023878097534
1746575901479718700,9.21471875,0.01157472391929505,0.016277838498353958,0.005185577677424863,-0.00629592826589942,0.005600754313887835,0.9955933435593005,0.012337175320362844,right,0.0014025568962097168,-0.18713598484794178,0.11152491338867694,-9.63479121208191,-0.09346373031964812,-0.015766993165016174,-0.00044735241681337357,1.8244832257173955,0.0029046982526779175
1746575901519718700,9.25471875,0.011543356914565829,0.008344234898686409,0.005141152516164457,-0.0011747521348297596,0.00588991758032879,0.9955695386780383,0.01291815596336092,right,0.0003749728202819824,-0.1876122909857101,0.11121265996857546,-9.633924950641394,-0.09370223433137252,-0.010123523883521557,-0.0018274718895554543,1.8290724532037972,0.0032144784927368164
1746575901559718700,9.29471875,0.011631791938418514,0.0010652709752321243,0.0051762995052850695,0.0015544495545327663,0.0059753640449927165,0.9955634144822555,0.013098875311804755,right,-0.0008706450462341309,-0.18772764281007492,0.11206218033684417,-9.633704001367091,-0.09376037867026193,0.001072688028216362,-0.0028875870630145073,1.8301837754465637,0.0030210018157958984
1746575901599719000,9.334718994140625,0.011481285076534105,-0.003178372047841549,0.005110636256677928,0.0002758809132501483,0.005879308813173391,0.9955588248918193,0.01289249853280331,right,0.0007052421569824219,-0.1878479408639763,0.11060970737305469,-9.63350058774948,-0.0938192788976475,0.004593106918036938,-0.0020263567566871643,1.8313427362233399,-0.001298472285270691
1746575901639718700,9.37471875,0.011599592007099016,-0.009135302156209946,0.0051855555945155936,0.016078170388936996,0.0057061863176785825,0.9955624042584317,0.012555448207469247,right,0.0015372633934020996,-0.18778395819663657,0.11175077630011364,-9.633604632645845,-0.0937869134509745,-0.005639426410198212,0.0008353143930435181,1.8307263578906654,0.0007925927639007568
1746575901679718700,9.41471875,0.011892789279805225,-0.010477907955646515,0.005349289619201808,0.007008637301623821,0.005488067167482224,0.9955436797524821,0.012147536165222827,right,-0.0007377266883850098,-0.1881905006758574,0.11456645477535203,-9.632826634010671,-0.093989027847242,-0.0068775685504078865,0.0008463384583592415,1.8346429468125103,-0.0010157376527786255
1746575901719718700,9.45471875,0.012059846784659057,-0.004533285740762949,0.005437929859375817,0.0011713015846908092,0.005413727921282837,0.9955332106129006,0.012015424585473923,right,-0.002166450023651123,-0.18841186093782536,0.1161707938326057,-9.63240051755309,-0.09409931036283709,-0.007406263612210751,0.0013132812455296516,1.836775282666087,0.001961156725883484
1746575901759718700,9.49471875,0.012089249615256493,0.001173392403870821,0.005451753524376395,-0.002153370762243867,0.005401591754797007,0.9955091184750924,0.011997198077537114,right,-0.002507627010345459,-0.18892239912592107,0.11644266044339165,-9.631458268266917,-0.09435346684067991,-0.015288627706468105,0.0008337898179888725,1.841693157584965,-0.00022077560424804688
1746575901799718700,9.53471875,0.012202370280519972,0.008426595479249954,0.00549375322759535,0.00004567299038171768,0.005527515754186452,0.995483993750315,0.012264314605284531,right,-0.0013587474822998047,-0.18943276142541846,0.11752069233790971,-9.630504328542948,-0.09460853651982762,-0.011126906611025333,0.0006913896650075912,1.846608840546757,0.0005668550729751587
1746575901839719000,9.574718994140625,0.012125824468745347,-0.00032104458659887314,0.005443468493433887,-0.0065229786559939384,0.00564308697539053,0.9954639259598296,0.012492002819808804,right,-0.0005842447280883789,-0.18984907925016162,0.11677418481954373,-9.629743281042575,-0.09481615507112738,-0.009379258379340172,0.0006715077906847,1.850618368449062,0.0023483633995056152
1746575901879718700,9.61471875,0.012022828451961273,-0.006299556698650122,0.0053898484484949105,-0.00530636589974165,0.005658549404064492,0.9954469819321138,0.012515657227088972,right,-0.0022205114364624023,-0.1902120324596115,0.1157742779288441,-9.629083355829119,-0.09499657359113618,-0.015933459624648094,-0.000999152660369873,1.8541136632189155,0.0050785839557647705
1746575901919718700,9.65471875,0.011843206930004034,0.002434156369417906,0.0052988890779466806,-0.005119481589645147,0.005665544967385533,0.9954255768365183,0.012515568756630959,right,0.0006052255630493164,-0.1906719203123673,0.11403457638835533,-9.628250412136316,-0.09522496080406397,-0.006836999207735062,-0.0013326602056622505,1.858542001055181,0.0009270012378692627
1746575901959718700,9.69471875,0.011958244200421731,0.013285025954246521,0.005334018582432385,0.0014144424349069595,0.005890572096563391,0.9954229143097777,0.012978825832087185,right,-0.0012055039405822754,-0.19069163831184943,0.11514174304581247,-9.628200143253803,-0.09523634608897295,0.003332461230456829,-0.0004292009398341179,1.8587318245388567,0.001741647720336914
1746575901999718700,9.73471875,0.012130267332669009,0.0028928248211741447,0.005402497460381964,0.0003157022874802351,0.006067380256904976,0.9954281296040955,0.013349569945495623,right,-0.0013717412948608398,-0.19054891469954977,0.11680122809009626,-9.62844564244747,-0.09516682090601247,0.005382017232477665,0.0000681588426232338,1.8573576135762035,0.0016412436962127686
1746575902039718700,9.77471875,0.011928649957562038,0.0023980424739420414,0.005307568750046518,-0.00215300009585917,0.006024349374061401,0.9954337199868035,0.013243180052709478,right,-0.0008314847946166992,-0.19044924670285057,0.1148621771857608,-9.628653732240199,-0.09511632144023677,-0.0007344591431319714,0.000041328370571136475,1.856397828633338,0.0009948909282684326
1746575902079719000,9.814718994140625,0.01172705714773393,0.001903260126709938,0.005212644874501509,-0.004621702712029219,0.005981318491217426,0.9954393103695124,0.013136813745449458,right,-0.000291287899017334,-0.190349533946184,0.11292327241189777,-9.628861822032928,-0.09506580775690687,-0.006850935984402895,0.00001448020339012146,1.855437751429528,0.0003485828638076782
1746575902119719000,9.854718994140624,0.011609185635761451,0.007767044939100742,0.00514357207548927,-0.0005602412857115269,0.0060844650023176615,0.9954257615446369,0.013334595561235889,right,0.0012742877006530762,-0.19062901312730307,0.11178227655007503,-9.62835621059835,-0.09520506210500858,-0.009689964354038239,-0.0003984123468399048,1.858128890209645,-0.00047710537910461426
1746575902159718700,9.89471875,0.011744266624231151,0.009669210761785507,0.005187448055921992,0.003622144926339388,0.006305096094922941,0.9954045916221119,0.01379346581818497,right,0.00034940242767333984,-0.19103629859032903,0.11307398772789165,-9.627583472660183,-0.09540937388944852,-0.013304702937602997,-0.00028981734067201614,1.8620504475675521,0.001728743314743042
1746575902199718700,9.93471875,0.01187521833645856,0.004174476023763418,0.005237814589322046,0.003680122084915638,0.006439479085321172,0.9953879463318684,0.014078166916794367,right,0.00006872415542602539,-0.1913601975528732,0.11432756798556074,-9.626965048500894,-0.09557173055533656,-0.0015443265438079834,0.00011339876800775528,1.8651690179795026,0.0016819685697555542
1746575902239718700,9.97471875,0.011970455026574676,-0.006614720914512873,0.005282653689994851,0.0006651091389358044,0.006459916415878307,0.9953856778417829,0.014128634469020053,right,-0.001002490520477295,-0.19139911621232697,0.1152435411861632,-9.62688146187067,-0.09559153952329613,-0.0031879236921668053,-0.0010520685464143753,1.8655436965107917,0.0030007362365722656
1746575902279718700,10.01471875,0.011828507182523679,-0.013731420040130615,0.005225031101113798,-0.004119031131267548,0.006337477568177617,0.9953941383709469,0.013867991873244043,right,-0.0008309483528137207,-0.1912474124254518,0.1138803722073324,-9.62718073707819,-0.09551489792464216,0.010353637859225273,0.000031993724405765533,1.8640831224389374,0.0016940385103225708
1746575902319718700,10.05471875,0.011960281900052548,-0.011277936398983002,0.00530903134450392,0.0013993396423757076,0.006139426626725566,0.9953952527412309,0.013482675449258312,right,-0.002866685390472412,-0.19124331551380974,0.11514907696889713,-9.627173138293623,-0.09551224907043727,-0.004718231037259102,0.0005482593551278114,1.8640436672113834,0.007098600268363953
1746575902359719000,10.094718994140624,0.011814934361602546,-0.01333712786436081,0.005258500204374596,-0.00903213769197464,0.0059099880223671755,0.995386044766932,0.013009217840157706,right,-0.0019521117210388184,-0.19147140746186822,0.1137447631289251,-9.626764557492733,-0.0956240921389373,0.0024215178564190865,0.00041062943637371063,1.8662395698204635,0.003511101007461548
1746575902399718700,10.13471875,0.011242384220106014,-0.009156234562397003,0.0049939516116639495,-0.020346932113170624,0.005728667153189054,0.9953933237456034,0.012589291350747857,right,-0.0016655921936035156,-0.19137477968700206,0.1082349684651941,-9.627008303120732,-0.09557326153743385,0.007023584097623825,-0.0005839774385094643,1.8653093032330272,0.0028202086687088013
1746575902439718700,10.17471875,0.010503903205096315,0.005387475714087486,0.0046309426802063,-0.016229480504989624,0.005723773492677517,0.9954041925353821,0.012507473170787296,right,-0.0005807280540466309,-0.19119002123202766,0.10112919158060103,-9.627430327925085,-0.09547899296761099,0.005273749120533466,-0.00020367372781038284,1.8635304569922386,0.0009835660457611084
1746575902479718700,10.21471875,0.010225734797703818,0.016426896676421165,0.0044677892859145245,-0.008212557062506676,0.005996718689800079,0.9954057644873571,0.013028898848963766,right,0.0011011362075805664,-0.19113723222370083,0.09845215439107269,-9.627556000131369,-0.09545309581331404,0.0032343887723982334,-0.001788536086678505,1.8630222152091562,0.0011250823736190796
1746575902519718700,10.25471875,0.01010056760896427,0.008276402950286865,0.004386560832204388,0.0011096708476543427,0.006211919189664716,0.9954188225267502,0.01344761500569708,right,0.000790715217590332,-0.1908440298962545,0.0972526058755815,-9.62811421853602,-0.09530770474166114,0.011943481862545013,0.00035426486283540726,1.8601992667429148,0.0013424605131149292
1746575902559718700,10.29471875,0.010127868850481737,-0.008934572339057922,0.004409156634162638,0.002258386230096221,0.006126625468019623,0.9954313663424625,0.013277414733993149,right,-0.0011380910873413086,-0.19059097705310857,0.09752023470266721,-9.628581836047768,-0.09518146445936988,0.003115665167570114,-0.00041948817670345306,1.8577626872457562,0.0016309767961502075
1746575902599719000,10.334718994140625,0.010144789823304799,-0.0050324625335633755,0.004433206783237119,0.003800360020250082,0.00597102955436158,0.9954428326523183,0.01296515299860234,right,-0.0012001991271972656,-0.19036958696439182,0.09768732576472684,-9.628991585892438,-0.09507063260835438,0.008072207681834698,-0.002683563157916069,1.8556307897835969,-0.0015931576490402222
1746575902639718700,10.37471875,0.010190485544893088,0.009372333064675331,0.004451833295730901,-0.0037592025473713875,0.006028560503311853,0.9954622465349614,0.013082701118435819,right,-0.0017243027687072754,-0.1899492439323349,0.09813527046162634,-9.629766077396273,-0.09486182374570083,0.012238318100571632,-0.0019075721502304077,1.8515829756975173,-0.0015510320663452148
1746575902679718700,10.41471875,0.010136802014313566,0.00692354328930378,0.0044081646484151185,-0.0022507626563310623,0.00622909402672173,0.9954845987637411,0.013477646610145604,right,-0.0010709762573242188,-0.18945293325509666,0.09762761320043355,-9.630689037460089,-0.09461550829614748,0.006135104224085808,-0.0008444273844361305,1.8468030479446051,-0.00015117228031158447
1746575902719718700,10.45471875,0.010182570294647923,-0.0003651832230389118,0.004424258349633134,-0.0004344440530985594,0.006301134099048953,0.9954884216091474,0.013626192484119148,right,-0.00135880708694458,-0.18935927257149648,0.09807015106985345,-9.630857379764318,-0.0945693645491519,-0.00783680472522974,-0.0010222876444458961,1.8459009845383465,0.0015460103750228882
1746575902759718700,10.49471875,0.010224209709478332,-0.0020421065855771303,0.0044474310091993235,0.001064784242771566,0.006253522190509417,0.995465683480795,0.013537293319969935,right,-0.0009126067161560059,-0.18984567828067528,0.09846198166534303,-9.629954293444753,-0.09481139103824988,-0.013064675033092499,-0.0022829947993159294,1.8505856352232395,0.0001481771469116211
1746575902799718700,10.53471875,0.010414645926519675,0.004561560228466988,0.004538564830355699,0.002896574791520834,0.00626251190696545,0.9954415543406008,0.013576396670619528,right,-0.00031679868698120117,-0.19034182569963062,0.10028630188251846,-9.629016135811804,-0.09505902331906725,-0.008357763290405273,-0.000792626291513443,1.8553635171495377,0.00005142390727996826
1746575902839719000,10.574718994140625,0.01061050341618435,0.008441205136477947,0.0046198532662716525,0.007951470091938972,0.0064116626454760175,0.9954274617171853,0.013896354429106032,right,0.0016272664070129395,-0.19060763508200193,0.10216697366312145,-9.62850292559266,-0.09519267323243205,-0.00586877204477787,0.0005147410556674004,1.8579229923740028,0.0014500916004180908
1746575902879718700,10.61471875,0.010990133019971534,0.0034419381991028786,0.004792756275607969,0.010638018138706684,0.00655821195712282,0.9954220000812048,0.014227557925468674,right,-0.0004439353942871094,-0.19068113007340295,0.10582073779716156,-9.628326984503865,-0.09523126248951037,0.00005333730950951576,0.0006143338978290558,1.8586307022519408,0.002621680498123169
1746575902919718700,10.65471875,0.011327186467044068,0.002869213465601206,0.0049572734896460085,0.006879972293972969,0.006583784538583524,0.9954295052724085,0.01431004164440737,right,-0.001594841480255127,-0.19050106734613645,0.10906977532152086,-9.628625090667605,-0.09514294871785613,0.007024680729955435,0.0008351560682058334,1.8568968641966581,0.002593696117401123
1746575902959718700,10.69471875,0.011413333964099616,-0.004160142038017511,0.00500927288735426,-0.000026005785912275314,0.00648690649500311,0.9954328754613515,0.014123232656446041,right,-0.0018576383590698242,-0.19043878787599816,0.10990058185616508,-9.628731473651527,-0.09511176613298207,0.006272974424064159,-0.0006607640534639359,1.8562971447378396,-0.000054329633712768555
1746575902999718700,10.73471875,0.011442708801171543,-0.004676581360399723,0.005044045312147719,0.01029243879020214,0.006276834592313346,0.9954367130656839,0.013703626396646056,right,-0.000674128532409668,-0.19038514616168947,0.11018455902985297,-9.628827919763326,-0.09508410475179248,0.001723193097859621,0.0003371313214302063,1.855780573517829,0.00023564696311950684
1746575903039718700,10.77471875,0.011552519658382589,-0.005131541285663843,0.005114500379481754,0.0018766168504953384,0.0061006813105691565,0.9954310583761171,0.013361060119931987,right,-0.0011701583862304688,-0.19052020251507387,0.11123901825253851,-9.628564884912967,-0.09515079560384182,0.0013544023968279362,-0.0002365540713071823,1.8570811347223817,0.0008491873741149902
1746575903079719000,10.814718994140625,0.011474060521539398,-0.006941785104572773,0.005085457066235761,-0.003861525561660528,0.005999767214171565,0.9954319747356355,0.013150799164111838,right,-0.0018224716186523438,-0.19051909384288182,0.11048358764220029,-9.62857540630698,-0.09514946766120833,-0.0003412986407056451,-0.00004635099321603775,1.857070467197895,0.0017063170671463013
1746575903119719000,10.854718994140624,0.011036448828780389,-0.003635677043348551,0.004880547415300855,-0.013746984302997589,0.005879075828180573,0.9954258944702438,0.01286750727598492,right,-0.0015270709991455078,-0.19068668690169063,0.10626656360221094,-9.628311786934733,-0.0952308791201289,-0.0015158145688474178,-0.0005862824618816376,1.858684186004847,0.000308305025100708
1746575903159718700,10.89471875,0.010790779410339462,0.007303678896278143,0.004755077178961434,0.0009251236915588379,0.005921859841816052,0.9954234588633037,0.012930322874893433,right,0.0003005862236022949,-0.19074609735449294,0.10389998973449692,-9.628227031260728,-0.09525987619529244,-0.0016030112747102976,-0.0005746772512793541,1.8592562868043778,0.0009656250476837158
1746575903199718700,10.93471875,0.010736051653588777,-0.00606622314080596,0.004721493806424686,-0.004386596381664276,0.0059836716176380495,0.9954147245040931,0.013050351386624973,right,0.00000947713851928711,-0.19092526359480008,0.10336948132067918,-9.627899699002503,-0.09534916745622597,-0.0013798912987113,-0.003012685105204582,1.8609813570313154,0.0020107030868530273
1746575903239718700,10.97471875,0.010880409088062482,-0.012267427518963814,0.0048027340532150855,0.005068687722086906,0.005890239613390607,0.9954288254392143,0.012874675289737866,right,-0.0015215873718261719,-0.1906315915475862,0.10476528306063264,-9.628430444878338,-0.09520302029948041,0.004640473518520594,-0.0026941942051053047,1.8581537323899566,0.0042997002601623535
1746575903279718700,11.01471875,0.011060393521545343,-0.012592337094247341,0.004916357280285531,0.00639074994251132,0.005638674366287984,0.9954402489153346,0.012385098002591787,right,-0.0019384026527404785,-0.19041107532952223,0.10650277437772601,-9.62882090550065,-0.09509259867909772,0.006350270472466946,-0.0014949832111597061,1.8560303104951976,0.002679675817489624
1746575903319718700,11.05471875,0.0113787423065628,-0.008361795917153358,0.005087245419720159,0.007518318016082048,0.00551378508437544,0.9954658905021211,0.012161176937993418,right,-0.0011906027793884277,-0.18986719077789008,0.1095795606077183,-9.629794718968867,-0.09482222135875626,0.008098935708403587,-0.0002093091607093811,1.8507927021026611,0.001940414309501648
1746575903359719000,11.094718994140624,0.011697190202286635,-0.0041312542743980885,0.0052581365697107404,0.008645886555314064,0.005388900905760274,0.9954914093168064,0.011937115216560297,right,-0.0004432797431945801,-0.18932336844364792,0.11265789947398007,-9.630763856261968,-0.09455182944453215,0.009847600944340229,0.0010762009769678116,1.8455552398405968,0.0012011080980300903
1746575903399718700,11.13471875,0.012038812320837464,-0.007994311861693859,0.005441385563755742,0.008442527614533901,0.005249364516269159,0.9955112477841822,0.01168643222609243,right,-0.0006542801856994629,-0.1888983602000484,0.11595740681025199,-9.63150853714943,-0.0943405178476566,0.0009880643337965012,0.001929325982928276,1.8414616869166491,0.001578301191329956
1746575903439718700,11.17471875,0.012156013682220477,-0.005446074530482292,0.005515928693132033,0.0011110324412584305,0.005070707401818413,0.9955090917345286,0.011339002617560217,right,-0.002382636070251465,-0.18895711352973807,0.11708492213599384,-9.631386956596375,-0.09436910943852918,-0.005756249651312828,0.0006628846749663353,1.8420275041058658,-0.0010284483432769775
1746575903479718700,11.21471875,0.012090839760564114,-0.0008330554701387882,0.005486879726858192,-0.004474195651710033,0.005026675344025983,0.9954945615013951,0.011246444155310651,right,-0.002657949924468994,-0.1892734599316729,0.11645014963010325,-9.630811202535032,-0.09452615241405939,-0.010896209627389908,-0.0006951801478862762,1.8450744705863296,0.00010238587856292725
1746575903519718700,11.25471875,0.011924638580133987,0.004369232337921858,0.005395443948692508,-0.0058509353548288345,0.005116023615989625,0.995481242136392,0.01141201049352523,right,-0.002384781837463379,-0.1895566902661361,0.11484326242273672,-9.630307344666123,-0.0946671533608496,-0.007401199080049992,-0.001146869733929634,1.8478024342454968,0.0020026713609695435
1746575903559718700,11.29471875,0.01176280336247035,0.005241374485194683,0.005299723600637871,-0.004120704717934132,0.005278085206609597,0.995474345421015,0.011723107561906379,right,-0.0014072060585021973,-0.1896952680201826,0.11328173046074808,-9.63007002877891,-0.09473653629075111,0.0011202115565538406,-0.0007348097860813141,1.8491370438501238,0.0029775649309158325
1746575903599719000,11.334718994140625,0.011685460401397573,0.0010783611796796322,0.0052560084921278675,-0.0025849724188447,0.0053480088196570736,0.9954887075835046,0.011854257173119956,right,-0.0009648799896240234,-0.1893873765184947,0.11254355237931013,-9.63064753640592,-0.09458343306442135,0.013319353573024273,-0.00043936818838119507,1.8461717643037436,0.001437857747077942
1746575903639718700,11.37471875,0.011610595259628263,-0.008364059031009674,0.0052253675890853194,-0.004623244050890207,0.005297290370918803,0.9955090295264425,0.011742577829329852,right,-0.0014045238494873047,-0.18896774453609655,0.11183154078559018,-9.63142962669432,-0.09437406909711381,0.006203159689903259,-0.001603805460035801,1.8421299415670334,0.0037212222814559937
1746575903679718700,11.41471875,0.011296506562336977,-0.022424716502428055,0.005098067502805063,-0.004948421847075224,0.005016359311881444,0.9955255371008151,0.011146548537154811,right,-0.0005063414573669434,-0.18866692716236846,0.1088126678884495,-9.632017655715346,-0.09422198872271377,0.010233331471681595,0.000010463409125804901,1.8392323204293846,0.0015711784362792969
1746575903719718700,11.45471875,0.011423762263827951,-0.01627271994948387,0.005196246500261448,0.003642017487436533,0.004647873169801549,0.9955348495553056,0.010417269793005644,right,-0.0021129846572875977,-0.18849952265237283,0.11004190828930586,-9.632311670225858,-0.09413709168040751,-0.0030838269740343094,0.00007615145295858383,1.8376197706662116,0.003423362970352173
1746575903759718700,11.49471875,0.01139685333740844,-0.006508040241897106,0.005206069638477362,-0.0016310671344399452,0.004396613269818692,0.9955257003180635,0.00991129959477429,right,-0.0016259551048278809,-0.18871812611843256,0.10977813365343027,-9.631912441775203,-0.09424453465335592,-0.00533929280936718,0.0021268241107463837,1.8397255107738077,0.0011177510023117065
1746575903799718700,11.53471875,0.011184745561265483,0.002529960125684738,0.005104742025627245,-0.008025741204619408,0.004351356047921219,0.9955110576659008,0.009802282140814213,right,-0.0018912553787231445,-0.1890456108443234,0.10772838891623542,-9.631332596060632,-0.09440679667334041,-0.008171292021870613,0.0009379396215081215,1.8428800292819738,-0.00008162856101989746
1746575903839719000,11.574718994140625,0.010709058678890104,0.012227226980030537,0.004849843480384022,-0.015073012560606003,0.004551819457131535,0.9954922831911058,0.01016227633441948,right,-0.0006765127182006836,-0.18945166411334013,0.10313885090257972,-9.630634092402458,-0.09460874426280202,-0.009691523388028145,0.0009083077311515808,1.8467909191153942,0.00022840499877929688
1746575903879718700,11.61471875,0.010349423701171725,0.01447411347180605,0.0046369430595947095,-0.011976955458521843,0.004912856860916797,0.9954738568818275,0.010855562664905335,right,-0.0007494688034057617,-0.18982428120777387,0.09966820651679299,-9.629981765973568,-0.09479500412484376,-0.008574781008064747,-0.00022402964532375336,1.8503794451266526,0.0012824088335037231
1746575903919718700,11.65471875,0.00994108094296116,0.007996945641934872,0.00441429659304715,-0.00731117045506835,0.005137898068762579,0.9954764253908142,0.011268493753270685,right,0.00020492076873779297,-0.18976747780063094,0.09573690408300607,-9.63012672740221,-0.09476664021769816,0.009499928914010525,0.00010113231837749481,1.8498324787683784,0.00006552040576934814
1746575903959718700,11.69471875,0.009646820343875468,-0.0015971735119819641,0.004268583548270777,-0.0036214408464729786,0.0051501752501489795,0.9954856386693243,0.011264179511224668,right,-0.0009060502052307129,-0.18958692222523188,0.09290635683219879,-9.630487961930037,-0.09467600301579011,0.003737304825335741,-0.0006871074438095093,1.8480935261465607,0.0016084462404251099
1746575903999718700,11.73471875,0.009424224557487067,0.0013323863968253136,0.0041642717791349985,-0.002907478716224432,0.005098040745856427,0.99549408078654,0.011137421912620755,right,0.0001894831657409668,-0.1894255192803255,0.09076545407967641,-9.630806526359915,-0.09459482694716574,0.006228887941688299,-0.0023723915219306946,1.8465391363114116,-0.0008455067873001099
1746575904039718700,11.77471875,0.009399642256495625,0.0075971209444105625,0.004143329941011291,0.00027513178065419197,0.005200981388889746,0.9955074135655864,0.011340363400481107,right,-0.00038057565689086914,-0.18913238471004676,0.09053379161511547,-9.631350131717324,-0.09444928200089325,0.008665794506669044,-0.002171346452087164,1.843715749453753,-0.0004268139600753784
1746575904079719000,11.814718994140625,0.009490846378230429,0.006077961530536413,0.004173861303060822,0.0035417177714407444,0.0053611828430828855,0.9955167241013567,0.011669701618621268,right,-0.00023037195205688477,-0.1889127188601375,0.09141605434236116,-9.631746437558531,-0.09434086740577727,0.001581263728439808,-0.0009149685502052307,1.84159992634356,0.0017386525869369507
1746575904119719000,11.854718994140624,0.009746627283747766,-0.0016545080579817295,0.0042942014695554085,0.004510278347879648,0.005416484216844187,0.9955076286929232,0.011805982258122724,right,-0.0001016855239868164,-0.18908584279813462,0.09387655357122421,-9.631403907731174,-0.0944280201752148,-0.009273102506995201,0.000833684578537941,1.8432674211643636,0.0011265873908996582
1746575904159718700,11.89471875,0.009812060978105835,-0.002295013749971986,0.004328640070222671,-0.001410563476383686,0.0053720440993616295,0.9954792457612063,0.011726199209041537,right,-0.0022383928298950195,-0.18968835607603146,0.09449586364650167,-9.630285132834315,-0.09472792037144788,-0.018586356192827225,-0.00009215250611305237,1.8490704083546996,-0.00038205087184906006
1746575904199718700,11.93471875,0.009706611422207178,0.003829705761745572,0.004270946383603075,-0.0041742222383618355,0.005404994546375841,0.9954439660923475,0.011786397712599704,right,-0.00207597017288208,-0.1904331266559357,0.09346695899018086,-9.62891559804678,-0.09509846098413637,-0.013134658336639404,-0.0015788646414875984,1.8562426380716264,-0.0013825595378875732
1746575904239718700,11.97471875,0.00958500172898344,0.009504154324531555,0.004192636637345959,-0.0029962523840367794,0.00558387749592368,0.9954264178653754,0.012136092537515172,right,-0.0011985301971435547,-0.1907884033122515,0.09228965883911587,-9.628266778749227,-0.09527568815079517,-0.0024062935262918472,-0.0007350994274020195,1.859663552431017,-0.00010025501251220703
1746575904279718700,12.01471875,0.00952421574611477,0.006921900436282158,0.004146653593972338,-0.00044650351628661156,0.005750863310847335,0.9954253216236563,0.012465815770808963,right,0.0004200935363769531,-0.19079490917173209,0.09170427843290381,-9.62826034900844,-0.09527943932849006,0.0044952621683478355,-0.00004826299846172333,1.859726242403686,0.001084655523300171
1746575904319718700,12.05471875,0.009479912831921285,0.000022880733013153076,0.004113871688023242,-0.00592562323436141,0.005869422485441692,0.9954301376730232,0.012699174654044632,right,-0.002709805965423584,-0.19068110482737766,0.09127972374474629,-9.628475453063846,-0.0952231522187957,-0.000059588346630334854,-0.001462346874177456,1.858630409990996,0.00351502001285553
1746575904359719000,12.094718994140624,0.009273383139360509,-0.006871022749692202,0.004013276842307325,-0.00743831368163228,0.005855203177759346,0.9954293585213354,0.012650997742101778,right,-0.0013460516929626465,-0.1907094854034984,0.08929066881937905,-9.628441550794243,-0.09523657331165117,0.0064040860161185265,-0.0020659025758504868,1.8589036739744245,0.000029072165489196777
1746575904399718700,12.13471875,0.009250386331887019,-0.009815898723900318,0.004014557105775078,0.0009954101406037807,0.005719727062933539,0.9954256587253639,0.012377101474747543,right,-0.003308713436126709,-0.19080530651296038,0.08906760065322741,-9.628265609705448,-0.0952836461151816,-0.006430097855627537,-0.0006476994603872299,1.8598263417772947,0.0028436481952667236
1746575904439718700,12.17471875,0.009042225274929856,-0.004055403638631105,0.003926069837624191,-0.004908571019768715,0.005564388731682239,0.9954173533516543,0.012046106272185969,right,-0.0015861988067626953,-0.19100817238068343,0.08705995062524452,-9.627906128743291,-0.09538336864196639,0.0014628004282712936,-0.00004254002124071121,1.861779667802155,0.0005650073289871216
1746575904479718700,12.21471875,0.00870891739414414,-0.0001364573836326599,0.003767104726737612,-0.009040798991918564,0.005511462399915498,0.9954229158293382,0.01190734981463046,right,-0.0006420016288757324,-0.19091120031361905,0.0838524598208256,-9.628115387579799,-0.09533392315478034,0.0037927788216620684,-0.0007447930984199047,1.860846040213853,0.0018349289894104004
1746575904519718700,12.25471875,0.008265484280422035,0.006483473815023899,0.0035420307144127744,-0.00797361321747303,0.005576183746963653,0.99542076270725,0.011995193228604456,right,-0.00022476911544799805,-0.19096929573716007,0.07958213469102048,-9.628043491387366,-0.09536176447565647,0.0008049055468291044,-0.0002608019858598709,1.8614052815318107,0.0006425529718399048
1746575904559718700,12.29471875,0.00803889475636994,0.013179933652281761,0.0034047184241094335,-0.005005835555493832,0.005844477076627361,0.99542146849722,0.012512369374476815,right,-0.001061558723449707,-0.1909320570061516,0.07740107345804571,-9.62813058514893,-0.09534348029573926,0.002851443598046899,-0.0008173733949661255,1.8610468234829602,0.0018174350261688232
1746575904599719000,12.334718994140625,0.007786647780441175,0.0022821053862571716,0.0032750519359673546,-0.00848454236984253,0.00591782296545188,0.9954450448169999,0.012633350235636338,right,-0.0018211007118225098,-0.19043740254674896,0.07497956823243293,-9.629069327303768,-0.09509674662138316,0.004894246347248554,-0.00045120855793356895,1.8562838468648493,0.002848580479621887
1746575904639718700,12.37471875,0.00753436454207686,-0.008615722879767418,0.0031453851288690366,-0.011963250115513802,0.005991171405925233,0.9954685597507292,0.012754453061938719,right,-0.002581000328063965,-0.18994278286812016,0.07255721819002646,-9.630004562327265,-0.0948500052737662,0.006937048397958279,-0.0000849585048854351,1.8515207241162657,0.003879740834236145
1746575904679718700,12.41471875,0.007207294993427387,-0.006488944869488478,0.00299373440241335,-0.006090891547501087,0.005903266695148017,0.995487180422939,0.012545128799223858,right,-0.0013512969017028809,-0.1895735024803148,0.06941245845747179,-9.630711249291895,-0.0946649061753763,0.007385095581412315,-0.0013711247593164444,1.8479643468089402,0.0012261569499969482
1746575904719718700,12.45471875,0.007045344776226494,0.004199724178761244,0.0029142739737807698,-0.00402192585170269,0.005919171848123479,0.9955135380467436,0.01255939972149807,right,-0.001765608787536621,-0.1890192549332716,0.06785996831846423,-9.631744683992862,-0.09438857508631626,0.017451345920562744,-0.0020314264111220837,1.842626054520905,-0.0008249133825302124
1746575904759718700,12.49471875,0.00700489630811323,0.005040389019995928,0.00288176423392345,-0.0002782728988677263,0.00607791840998881,0.9955456668086271,0.012871610579783479,right,-0.0007128715515136719,-0.18831911801171478,0.06747939890250564,-9.63303530832529,-0.09404040026663946,0.012612748891115189,-0.0008596940897405148,1.8358819870881735,0.0016108304262161255
1746575904799718700,12.53471875,0.007109389171768746,-0.0003427620977163315,0.0029270553388960423,0.005341515876352787,0.00615343137922982,0.9955564415570769,0.01303217194371715,right,-0.0008369088172912598,-0.1880766051453981,0.06848914220063015,-9.633473115220665,-0.09392023393832535,-0.0008421391248703003,0.0005304934456944466,1.8335456530950962,0.003365620970726013
1746575904839719000,12.574718994140625,0.0073017767212167975,-0.00020602295990101993,0.003023671475923486,0.0035035358741879463,0.00613192769646465,0.995551992013579,0.013007508259075038,right,-0.0012334585189819336,-0.1881670672404627,0.07034129113964736,-9.633293667000531,-0.09396581714132178,-0.0010254238732159138,-0.00017674081027507782,1.834417175232619,0.001948535442352295
1746575904879718700,12.61471875,0.007369228248293784,0.0026261566672474146,0.003055633089819923,0.0015708281425759196,0.006142798607084916,0.9955480453894733,0.01303605688432835,right,-0.0009110569953918457,-0.1882469009833229,0.07098999170619062,-9.633142860352992,-0.09400580721760493,0.0023211019579321146,0.000338792335242033,1.835186259908974,0.0013252496719360352
1746575904919718700,12.65471875,0.007483922607158922,0.005390483886003494,0.003106872824620859,0.001505616120994091,0.006200786026320913,0.995549168050455,0.013163222431187468,right,-0.0007450580596923828,-0.18821068105426395,0.0720953545656288,-9.633200728020071,-0.09398832871005777,0.0046419063583016396,0.00030316226184368134,1.8348373003408311,0.000028178095817565918
1746575904959718700,12.69471875,0.007508960360773029,0.0039174375124275684,0.003109492744329156,-0.0033682724460959435,0.006314822802590789,0.9955614898709553,0.013393459296450505,right,-0.0030002593994140625,-0.18793242456338052,0.0723403788352618,-9.633709262064098,-0.09385025365445052,0.010353170335292816,-0.0002480265684425831,1.8321566829547284,0.0006946176290512085
1746575904999718700,12.73471875,0.00742554972127849,0.001594385365024209,0.003062505211522124,-0.006438989192247391,0.006386333385861621,0.9955724816729036,0.0135282038599806,right,-0.0016449689865112305,-0.18769083405543796,0.07154010900277644,-9.634157590353489,-0.09372994057579713,-0.0038110176101326942,-0.0013664010912179947,1.8298291167899965,0.003094613552093506
1746575905039718700,12.77471875,0.007095508911010701,-0.017126446589827538,0.0029092730880919612,-0.009114636108279228,0.006282711685829694,0.9955717047744607,0.01328914152497315,right,-0.0005726218223571777,-0.18773283760177653,0.06835989893092774,-9.634103814339637,-0.09374945259608672,-0.0013709738850593567,-0.00047567160800099373,1.8302338981986044,0.0010772794485092163
1746575905079719000,12.814718994140625,0.0072041204862383565,-0.014360275119543076,0.0029861029811476944,0.0017421217635273933,0.0060306901264331495,0.9955666076798068,0.012793662072915022,right,-0.0012492537498474121,-0.18787029276242664,0.06940445781410672,-9.633844871142506,-0.09381748132877257,-0.008389277383685112,-0.0000967816449701786,1.8315581325396895,0.0033115893602371216
1746575905119719000,12.854718994140624,0.0072610657218368044,-0.004907384514808655,0.003027941268957471,-0.001037652837112546,0.0058751367703102015,0.9955551210958082,0.012487647118975797,right,-0.0031332969665527344,-0.18813346546481302,0.06994956100885756,-9.633358548930287,-0.09394818900989496,-0.0021847132593393326,-0.000020965933799743652,1.834093496236205,0.0010150521993637085
1746575905159718700,12.89471875,0.007075051452977582,0.003183509223163128,0.0029342719204954386,-0.007530691102147102,0.0058956121642497515,0.9955557660225892,0.012511189018356295,right,-0.0020322799682617188,-0.18812424049151208,0.06815773655548692,-9.633388359546661,-0.09394308439074188,0.0025178934447467327,-0.00036954693496227264,1.8340046489089725,0.001129254698753357
1746575905199718700,12.93471875,0.006640961524807772,0.0077930595725774765,0.002705799044164794,-0.010124975815415382,0.006046774470874529,0.9955548910170177,0.01277396022203031,right,-0.0003209710121154785,-0.18813917517090134,0.06397578839545603,-9.63338952859044,-0.09394959313209332,-0.0012461727019399405,-0.000680405180901289,1.8341484412938356,0.0016484558582305908
1746575905239718700,12.97471875,0.0064730830484710155,0.007251135539263487,0.002600900191510158,-0.004110367968678474,0.006277650798483242,0.9955500481107509,0.013222241100114714,right,-0.000713348388671875,-0.1882189842312259,0.06235760347594041,-9.633253334990144,-0.09398939148418275,-0.00008723372593522072,-0.0015175617299973965,1.8349173798397183,0.003428056836128235
1746575905279718700,13.01471875,0.00622126533828679,0.003579266369342804,0.0024705094039320185,-0.0030829308088868856,0.006350962969689522,0.9955598162299851,0.013344965008987426,right,-0.00024753808975219727,-0.18800986073774395,0.05993416202156804,-9.6336525634408,-0.09388465376980643,0.016081400215625763,-0.000526708085089922,1.832902679016441,0.0011897683143615723
